rt,stimulus,response,exp_name,exp_stage,subjectID,trial_type,trial_index,time_elapsed,internal_node_id,ospan_shown,ospan_total,ospan_abs,length,resp_actual,resp_correct,full_correct,num_correct,feedback,accuracy,correct,math_acc,math_warning,databaseID,prolificID,start_time,date
3643.5,<div class = 'left_align' style='font-size: 3.25rem; line-height: 1.3;'><p class = 'center_align'><b>Welcome to the Symmetry and Memory Task</b><br><br><br><br></p>Press 'continue' to show the instructions.<br><br><br><br></div>,0,ospan,instruct,K2fOuvu7KyUnK4O48kU9y1ZTImo1,html-button-response,51,501045,0.0-43.0-0.0-0.0-0.0,,,,,,,,,,,,,,,60fd2a117181bc22b970997d,14:05:53,06/03/2024
11820.5,"<div class = 'left_align' style='font-size: 3.25rem; line-height: 1.3;'><p class = 'center_align'><b>Symmetry and Memory Task</b><br><br></p>In this task, you will try to memorize letters you see on the screen<br>while you also view black and white grid pictures.<br><br>In the next few minutes, you will have some practice to get you familiar<br>with how the task works.<br><br>It may be difficult sometimes, but please do not worry about making mistakes!<br><br>We will begin by practicing the letter part of the task.<br><br><br><br></div>",0,ospan,instruct,K2fOuvu7KyUnK4O48kU9y1ZTImo1,html-button-response,52,513124,0.0-43.0-0.0-0.0-1.0,,,,,,,,,,,,,,,60fd2a117181bc22b970997d,14:05:53,06/03/2024
12581.0,"<div class = 'left_align' style='font-size: 3.25rem; line-height: 1.3;'>For this practice part, letters will appear on the screen one at a time.<br><br>Try to remember each letter in the order presented.<br><br>After some letters have been shown, you will see a response screen. Your<br>goal is to report the letters you saw <b>in order</b>. If you do not remember<br>a particular letter, you will have the option to leave it blank.<br><br><br><br></div>",0,ospan,instruct,K2fOuvu7KyUnK4O48kU9y1ZTImo1,html-button-response,53,525966,0.0-43.0-0.0-0.0-2.0,,,,,,,,,,,,,,,60fd2a117181bc22b970997d,14:05:53,06/03/2024
4553.699999999255,"<div class = 'left_align' style='font-size: 3.25rem; line-height: 1.3;'>Remember, it is very important to get the letters in the same<br>order as you see them.<br><br>When you are ready, you may begin the letter practice.</div><br><br><br><br>",0,ospan,instruct,K2fOuvu7KyUnK4O48kU9y1ZTImo1,html-button-response,54,530784,0.0-43.0-0.0-0.0-3.0,,,,,,,,,,,,,,,60fd2a117181bc22b970997d,14:05:53,06/03/2024
,"<p style=""font-size:75px;"">...</p>",,ospan,iti,K2fOuvu7KyUnK4O48kU9y1ZTImo1,html-keyboard-response,55,532051,0.0-43.0-0.0-1.0-0.0,,,,,,,,,,,,,,,60fd2a117181bc22b970997d,14:05:53,06/03/2024
,"<div style=""font-size: 10rem; color: #0000FF"">Y</div>",,ospan,letter,K2fOuvu7KyUnK4O48kU9y1ZTImo1,html-keyboard-response,56,533056,0.0-43.0-0.0-1.0-1.0,,,,,,,,,,,,,,,60fd2a117181bc22b970997d,14:05:53,06/03/2024
,"<div style=""font-size: 10rem; color: #0000FF"">S</div>",,ospan,letter,K2fOuvu7KyUnK4O48kU9y1ZTImo1,html-keyboard-response,57,534813,0.0-43.0-0.0-1.0-2.0,,,,,,,,,,,,,,,60fd2a117181bc22b970997d,14:05:53,06/03/2024
8183.0,"<div class = numbox><p style=""font-size: 2.4rem"">Please recall the letters you saw to the best of your ability. If you do not remember a particular letter, use the SKIP button.<br><b>(When you are ready to lock in your answer, press ENTER)</b></p><button id = button_1 class = ""square num-button"" onclick = ""recordClick(this)""><div class = content><div class = numbers>C</div></div></button><button id = button_2 class = ""square num-button"" onclick = ""recordClick(this)""><div class = content><div class = numbers>G</div></div></button><button id = button_3 class = ""square num-button"" onclick = ""recordClick(this)""><div class = content><div class = numbers>H</div></div></button><button id = button_4 class = ""square num-button"" onclick = ""recordClick(this)""><div class = content><div class = numbers>J</div></div></button><button id = button_5 class = ""square num-button"" onclick = ""recordClick(this)""><div class = content><div class = numbers>K</div></div></button><button id = button_6 class = ""square num-button"" onclick = ""recordClick(this)""><div class = content><div class = numbers>L</div></div></button><button id = button_7 class = ""square num-button"" onclick = ""recordClick(this)""><div class = content><div class = numbers>N</div></div></button><button id = button_8 class = ""square num-button"" onclick = ""recordClick(this)""><div class = content><div class = numbers>P</div></div></button><button id = button_9 class = ""square num-button"" onclick = ""recordClick(this)""><div class = content><div class = numbers>Q</div></div></button><button id = button_10 class = ""square num-button"" onclick = ""recordClick(this)""><div class = content><div class = numbers>R</div></div></button><button id = button_11 class = ""square num-button"" onclick = ""recordClick(this)""><div class = content><div class = numbers>S</div></div></button><button id = button_12 class = ""square num-button"" onclick = ""recordClick(this)""><div class = content><div class = numbers>Y</div></div></button><button class = clear_button id = ""ClearButton"" onclick = ""clearResponse()"">BACKSPACE</button><button class = blank_button id = ""BlankButton"" onclick = ""blankResponse()"">SKIP</button><p style=""font-size: 2.4rem""><u><b>Current Answer:</b></u></p><br><br><div id=echoed_txt style=""font-size: 5rem; color:blue;""><b></b></div></div>",enter,ospan,retrieval,K2fOuvu7KyUnK4O48kU9y1ZTImo1,html-keyboard-response,58,543755,0.0-43.0-0.0-1.0-3.0,NA,NA,NA,2.0,"[""Y"",""S""]","[""Y"",""S""]",1.0,2.0,"['<font color=""green"">Y</font>', '<font color=""green"">S</font>']",,,,,,60fd2a117181bc22b970997d,14:05:53,06/03/2024
1716.6000000014901,"['<p style=""font-size:44px"">Letters:<br><br><br><font color=""green"">Y</font> <font color=""green"">S</font></p><br><br>']",0,ospan,practice_feedback,K2fOuvu7KyUnK4O48kU9y1ZTImo1,html-button-response,59,545984,0.0-43.0-0.0-1.0-4.0,,,,,,,,,,,,,,,60fd2a117181bc22b970997d,14:05:53,06/03/2024
,"<p style=""font-size:75px;"">...</p>",,ospan,iti,K2fOuvu7KyUnK4O48kU9y1ZTImo1,html-keyboard-response,60,546994,0.0-43.0-0.0-2.0-0.0,,,,,,,,,,,,,,,60fd2a117181bc22b970997d,14:05:53,06/03/2024
,"<div style=""font-size: 10rem; color: #0000FF"">H</div>",,ospan,letter,K2fOuvu7KyUnK4O48kU9y1ZTImo1,html-keyboard-response,61,548008,0.0-43.0-0.0-2.0-1.0,,,,,,,,,,,,,,,60fd2a117181bc22b970997d,14:05:53,06/03/2024
,"<div style=""font-size: 10rem; color: #0000FF"">Y</div>",,ospan,letter,K2fOuvu7KyUnK4O48kU9y1ZTImo1,html-keyboard-response,62,549770,0.0-43.0-0.0-2.0-2.0,,,,,,,,,,,,,,,60fd2a117181bc22b970997d,14:05:53,06/03/2024
,"<div style=""font-size: 10rem; color: #0000FF"">Q</div>",,ospan,letter,K2fOuvu7KyUnK4O48kU9y1ZTImo1,html-keyboard-response,63,551551,0.0-43.0-0.0-2.0-3.0,,,,,,,,,,,,,,,60fd2a117181bc22b970997d,14:05:53,06/03/2024
4927.800000000745,"<div class = numbox><p style=""font-size: 2.4rem"">Please recall the letters you saw to the best of your ability. If you do not remember a particular letter, use the SKIP button.<br><b>(When you are ready to lock in your answer, press ENTER)</b></p><button id = button_1 class = ""square num-button"" onclick = ""recordClick(this)""><div class = content><div class = numbers>C</div></div></button><button id = button_2 class = ""square num-button"" onclick = ""recordClick(this)""><div class = content><div class = numbers>G</div></div></button><button id = button_3 class = ""square num-button"" onclick = ""recordClick(this)""><div class = content><div class = numbers>H</div></div></button><button id = button_4 class = ""square num-button"" onclick = ""recordClick(this)""><div class = content><div class = numbers>J</div></div></button><button id = button_5 class = ""square num-button"" onclick = ""recordClick(this)""><div class = content><div class = numbers>K</div></div></button><button id = button_6 class = ""square num-button"" onclick = ""recordClick(this)""><div class = content><div class = numbers>L</div></div></button><button id = button_7 class = ""square num-button"" onclick = ""recordClick(this)""><div class = content><div class = numbers>N</div></div></button><button id = button_8 class = ""square num-button"" onclick = ""recordClick(this)""><div class = content><div class = numbers>P</div></div></button><button id = button_9 class = ""square num-button"" onclick = ""recordClick(this)""><div class = content><div class = numbers>Q</div></div></button><button id = button_10 class = ""square num-button"" onclick = ""recordClick(this)""><div class = content><div class = numbers>R</div></div></button><button id = button_11 class = ""square num-button"" onclick = ""recordClick(this)""><div class = content><div class = numbers>S</div></div></button><button id = button_12 class = ""square num-button"" onclick = ""recordClick(this)""><div class = content><div class = numbers>Y</div></div></button><button class = clear_button id = ""ClearButton"" onclick = ""clearResponse()"">BACKSPACE</button><button class = blank_button id = ""BlankButton"" onclick = ""blankResponse()"">SKIP</button><p style=""font-size: 2.4rem""><u><b>Current Answer:</b></u></p><br><br><div id=echoed_txt style=""font-size: 5rem; color:blue;""><b></b></div></div>",enter,ospan,retrieval,K2fOuvu7KyUnK4O48kU9y1ZTImo1,html-keyboard-response,64,557232,0.0-43.0-0.0-2.0-4.0,NA,NA,NA,3.0,"[""H"",""Y"",""Q""]","[""H"",""Y"",""Q""]",1.0,3.0,"['<font color=""green"">H</font>', '<font color=""green"">Y</font>', '<font color=""green"">Q</font>']",,,,,,60fd2a117181bc22b970997d,14:05:53,06/03/2024
1037.800000000745,"['<p style=""font-size:44px"">Letters:<br><br><br><font color=""green"">H</font> <font color=""green"">Y</font> <font color=""green"">Q</font></p><br><br>']",0,ospan,practice_feedback,K2fOuvu7KyUnK4O48kU9y1ZTImo1,html-button-response,65,558784,0.0-43.0-0.0-2.0-5.0,,,,,,,,,,,,,,,60fd2a117181bc22b970997d,14:05:53,06/03/2024
16519.10000000149,"<div class = 'left_align' style='font-size: 3.25rem; line-height: 1.3;'>Now you will practice doing the <b>symmetry judgment part</b> of the experiment.<br><br>A black and white grid picture will appear on the screen and you have to judge if it is <br>symmetrical or asymetrical.<br><br>A picture is 'mirror' symmetrical if its left half is identical to the right half when flipped.<br>Here are examples of a symmetrical and an asymetrical picture:<br><br><center><img src='Stimuli/img/symm_instructions_extra.png' style='height:420px; width:900'></img></center><br>To judge symmetry, imagine you were to fold each picture down the middle, like a book –<br>would the left half match the right half when folded onto each other?<br><br></div><br>",0,ospan,instruct,K2fOuvu7KyUnK4O48kU9y1ZTImo1,html-button-response,66,575304,0.0-43.0-1.0-0.0-0.0,,,,,,,,,,,,,,,60fd2a117181bc22b970997d,14:05:53,06/03/2024
9266.300000000745,"<div class = 'left_align' style='font-size: 3.25rem; line-height: 1.3;'>When you have viewed the picture and determined whether it is symmetrical or not,<br>you can <b>click the Yes or No button</b> below to answer.<br><br>If you take longer than 15 seconds, it will continue automatically<br>and record the answer as an error.</div><br>",0,ospan,instruct,K2fOuvu7KyUnK4O48kU9y1ZTImo1,html-button-response,67,584824,0.0-43.0-1.0-0.0-1.0,,,,,,,,,,,,,,,60fd2a117181bc22b970997d,14:05:53,06/03/2024
12421.400000002235,"<div class = 'left_align' style='font-size: 3.25rem; line-height: 1.3;'>It is <b>very</b> important that you make the symmetry judgment correctly.<br><br>It is also important that you try and judge the picture as quickly as you can.<br><br>When you are ready, click on the button below to try some practice problems.</div><br><br><br><br>",0,ospan,instruct,K2fOuvu7KyUnK4O48kU9y1ZTImo1,html-button-response,68,597504,0.0-43.0-1.0-0.0-2.0,,,,,,,,,,,,,,,60fd2a117181bc22b970997d,14:05:53,06/03/2024
2077.0,,,ospan,symmetry,K2fOuvu7KyUnK4O48kU9y1ZTImo1,symmetry-judgement-task,69,600379,0.0-43.0-1.0-1.0-0.0,,,,,,,,,,1.0,1.0,,,,60fd2a117181bc22b970997d,14:05:53,06/03/2024
,"<p style=""color:green; font-size: 35px"">Correct</p>",,ospan,feedback,K2fOuvu7KyUnK4O48kU9y1ZTImo1,html-keyboard-response,70,601135,0.0-43.0-1.0-1.0-1.0,,,,,,,,,,,,,,,60fd2a117181bc22b970997d,14:05:53,06/03/2024
1692.0,,,ospan,symmetry,K2fOuvu7KyUnK4O48kU9y1ZTImo1,symmetry-judgement-task,71,605450,0.0-43.0-1.0-1.0-2.0,,,,,,,,,,1.0,1.0,,,,60fd2a117181bc22b970997d,14:05:53,06/03/2024
,"<p style=""color:green; font-size: 35px"">Correct</p>",,ospan,feedback,K2fOuvu7KyUnK4O48kU9y1ZTImo1,html-keyboard-response,72,606205,0.0-43.0-1.0-1.0-3.0,,,,,,,,,,,,,,,60fd2a117181bc22b970997d,14:05:53,06/03/2024
1891.0,,,ospan,symmetry,K2fOuvu7KyUnK4O48kU9y1ZTImo1,symmetry-judgement-task,73,610718,0.0-43.0-1.0-1.0-4.0,,,,,,,,,,1.0,1.0,,,,60fd2a117181bc22b970997d,14:05:53,06/03/2024
,"<p style=""color:green; font-size: 35px"">Correct</p>",,ospan,feedback,K2fOuvu7KyUnK4O48kU9y1ZTImo1,html-keyboard-response,74,611483,0.0-43.0-1.0-1.0-5.0,,,,,,,,,,,,,,,60fd2a117181bc22b970997d,14:05:53,06/03/2024
2581.5,"<p style=""font-size: 3rem;"">You responded correctly on 3 of 3 symmetry judgments. Good job!</p><br><br>",0,ospan,practice,K2fOuvu7KyUnK4O48kU9y1ZTImo1,html-button-response,75,616069,0.0-43.0-1.0-2.0,,,,,,,,,,,,,,,60fd2a117181bc22b970997d,14:05:53,06/03/2024
16274.79999999702,"<div class = 'left_align' style='font-size: 3.25rem; line-height: 1.3;'>Now you will practice doing both parts of the experiment at the same time.<br><br>In the next practice set, you will be given one grid picture to judge.<br>Then letter will appear on the screen. Try to remember the letter.<br><br>It is <b>very important</b> to make the symmetry judgment as quickly and accurately as possible.<br><br>Just as before, once you have make the symmetry judgment, you can click Yes or No.<br><b>Note that you will no longer see Correct or Incorrect feedback.</div><br><br><br><br>",0,ospan,instruct,K2fOuvu7KyUnK4O48kU9y1ZTImo1,html-button-response,76,632609,0.0-43.0-2.0-0.0-0.0,,,,,,,,,,,,,,,60fd2a117181bc22b970997d,14:05:53,06/03/2024
12957.900000002235,"<div class = 'left_align' style='font-size: 3.25rem; line-height: 1.3;'>After the letter goes away, another grid picture will appear, and then<br>another letter.<br><br>At the end of each set of letters and grids, you will recall the letters to the best<br>of your ability. Remember, try your best to get the letters in the correct order.<br><br>It is important to <b>quickly</b> and <b>accurately</b> make the symmetry judgments.</div><br><br><br><br>",0,ospan,instruct,K2fOuvu7KyUnK4O48kU9y1ZTImo1,html-button-response,77,645831,0.0-43.0-2.0-0.0-1.0,,,,,,,,,,,,,,,60fd2a117181bc22b970997d,14:05:53,06/03/2024
14987.5,"<div class = 'left_align' style='font-size: 3.25rem; line-height: 1.3;'>On the feedback screen, if you are not doing well at the symmetry judgments,<br>you will also see a warning in the middle. This indicates your percent <br>correct for the grid pictures for the entire experiment.<br><br>It is <b>very</b> important for you to keep accuracy at least at 85%: <u>We can only use<br>data where the participant was at least 85% accurate on the judgments.</u> Therefore,<br> please try your best to perform well on the symmetry judgments, <b>at the same time</b><br>doing your best to recall as many letters as possible.<br><br>Click the button to try some practice problems.</div><br><br><br><br>",0,ospan,instruct,K2fOuvu7KyUnK4O48kU9y1ZTImo1,html-button-response,78,661073,0.0-43.0-2.0-0.0-2.0,,,,,,,,,,,,,,,60fd2a117181bc22b970997d,14:05:53,06/03/2024
,"<p style=""font-size:75px;"">...</p>",,ospan,iti,K2fOuvu7KyUnK4O48kU9y1ZTImo1,html-keyboard-response,79,662344,0.0-43.0-2.0-1.0-0.0,,,,,,,,,,,,,,,60fd2a117181bc22b970997d,14:05:53,06/03/2024
1677.0,,,ospan,symmetry,K2fOuvu7KyUnK4O48kU9y1ZTImo1,symmetry-judgement-task,80,665051,0.0-43.0-2.0-1.0-1.0-0.0,,,,,,,,,,1.0,1.0,,,,60fd2a117181bc22b970997d,14:05:53,06/03/2024
,"<div style=""font-size: 10rem; color: #0000FF"">Y</div>",,ospan,letter,K2fOuvu7KyUnK4O48kU9y1ZTImo1,html-keyboard-response,81,666063,0.0-43.0-2.0-1.0-1.0-1.0,,,,,,,,,,,,,,,60fd2a117181bc22b970997d,14:05:53,06/03/2024
5703.0,,,ospan,symmetry,K2fOuvu7KyUnK4O48kU9y1ZTImo1,symmetry-judgement-task,82,673642,0.0-43.0-2.0-1.0-1.0-2.0,,,,,,,,,,1.0,1.0,,,,60fd2a117181bc22b970997d,14:05:53,06/03/2024
,"<div style=""font-size: 10rem; color: #0000FF"">C</div>",,ospan,letter,K2fOuvu7KyUnK4O48kU9y1ZTImo1,html-keyboard-response,83,674656,0.0-43.0-2.0-1.0-1.0-3.0,,,,,,,,,,,,,,,60fd2a117181bc22b970997d,14:05:53,06/03/2024
1552.0,,,ospan,symmetry,K2fOuvu7KyUnK4O48kU9y1ZTImo1,symmetry-judgement-task,84,678080,0.0-43.0-2.0-1.0-1.0-4.0,,,,,,,,,,1.0,1.0,,,,60fd2a117181bc22b970997d,14:05:53,06/03/2024
,"<div style=""font-size: 10rem; color: #0000FF"">K</div>",,ospan,letter,K2fOuvu7KyUnK4O48kU9y1ZTImo1,html-keyboard-response,85,679094,0.0-43.0-2.0-1.0-1.0-5.0,,,,,,,,,,,,,,,60fd2a117181bc22b970997d,14:05:53,06/03/2024
5575.300000000745,"<div class = numbox><p style=""font-size: 2.4rem"">Please recall the letters you saw to the best of your ability. If you do not remember a particular letter, use the SKIP button.<br><b>(When you are ready to lock in your answer, press ENTER)</b></p><button id = button_1 class = ""square num-button"" onclick = ""recordClick(this)""><div class = content><div class = numbers>C</div></div></button><button id = button_2 class = ""square num-button"" onclick = ""recordClick(this)""><div class = content><div class = numbers>G</div></div></button><button id = button_3 class = ""square num-button"" onclick = ""recordClick(this)""><div class = content><div class = numbers>H</div></div></button><button id = button_4 class = ""square num-button"" onclick = ""recordClick(this)""><div class = content><div class = numbers>J</div></div></button><button id = button_5 class = ""square num-button"" onclick = ""recordClick(this)""><div class = content><div class = numbers>K</div></div></button><button id = button_6 class = ""square num-button"" onclick = ""recordClick(this)""><div class = content><div class = numbers>L</div></div></button><button id = button_7 class = ""square num-button"" onclick = ""recordClick(this)""><div class = content><div class = numbers>N</div></div></button><button id = button_8 class = ""square num-button"" onclick = ""recordClick(this)""><div class = content><div class = numbers>P</div></div></button><button id = button_9 class = ""square num-button"" onclick = ""recordClick(this)""><div class = content><div class = numbers>Q</div></div></button><button id = button_10 class = ""square num-button"" onclick = ""recordClick(this)""><div class = content><div class = numbers>R</div></div></button><button id = button_11 class = ""square num-button"" onclick = ""recordClick(this)""><div class = content><div class = numbers>S</div></div></button><button id = button_12 class = ""square num-button"" onclick = ""recordClick(this)""><div class = content><div class = numbers>Y</div></div></button><button class = clear_button id = ""ClearButton"" onclick = ""clearResponse()"">BACKSPACE</button><button class = blank_button id = ""BlankButton"" onclick = ""blankResponse()"">SKIP</button><p style=""font-size: 2.4rem""><u><b>Current Answer:</b></u></p><br><br><div id=echoed_txt style=""font-size: 5rem; color:blue;""><b></b></div></div>",enter,ospan,retrieval,K2fOuvu7KyUnK4O48kU9y1ZTImo1,html-keyboard-response,86,685423,0.0-43.0-2.0-1.0-2.0-0.0,NA,NA,NA,3.0,"[""Y"",""C"",""K""]","[""Y"",""C"",""K""]",1.0,3.0,"['<font color=""green"">Y</font>', '<font color=""green"">C</font>', '<font color=""green"">K</font>']",,,,,,60fd2a117181bc22b970997d,14:05:53,06/03/2024
1563.699999999255,"['<p style=""font-size:44px"">Letters:<br><br><br><font color=""green"">Y</font> <font color=""green"">C</font> <font color=""green"">K</font></p><br><br><p style=""font-size:30px"">Symmetry:<br><br><font color=""green"">100%</font></p><br><br>']",0,ospan,practice_feedback,K2fOuvu7KyUnK4O48kU9y1ZTImo1,html-button-response,87,687503,0.0-43.0-2.0-1.0-2.0-1.0,,,,,,,,,,,,,,,60fd2a117181bc22b970997d,14:05:53,06/03/2024
,"<p style=""font-size:75px;"">...</p>",,ospan,iti,K2fOuvu7KyUnK4O48kU9y1ZTImo1,html-keyboard-response,88,688511,0.0-43.0-2.0-2.0-0.0,,,,,,,,,,,,,,,60fd2a117181bc22b970997d,14:05:53,06/03/2024
1696.0,,,ospan,symmetry,K2fOuvu7KyUnK4O48kU9y1ZTImo1,symmetry-judgement-task,89,691229,0.0-43.0-2.0-2.0-1.0-0.0,,,,,,,,,,1.0,1.0,,,,60fd2a117181bc22b970997d,14:05:53,06/03/2024
,"<div style=""font-size: 10rem; color: #0000FF"">N</div>",,ospan,letter,K2fOuvu7KyUnK4O48kU9y1ZTImo1,html-keyboard-response,90,692234,0.0-43.0-2.0-2.0-1.0-1.0,,,,,,,,,,,,,,,60fd2a117181bc22b970997d,14:05:53,06/03/2024
1743.0,,,ospan,symmetry,K2fOuvu7KyUnK4O48kU9y1ZTImo1,symmetry-judgement-task,91,695840,0.0-43.0-2.0-2.0-1.0-2.0,,,,,,,,,,1.0,1.0,,,,60fd2a117181bc22b970997d,14:05:53,06/03/2024
,"<div style=""font-size: 10rem; color: #0000FF"">Y</div>",,ospan,letter,K2fOuvu7KyUnK4O48kU9y1ZTImo1,html-keyboard-response,92,696855,0.0-43.0-2.0-2.0-1.0-3.0,,,,,,,,,,,,,,,60fd2a117181bc22b970997d,14:05:53,06/03/2024
1818.0,,,ospan,symmetry,K2fOuvu7KyUnK4O48kU9y1ZTImo1,symmetry-judgement-task,93,700524,0.0-43.0-2.0-2.0-1.0-4.0,,,,,,,,,,1.0,1.0,,,,60fd2a117181bc22b970997d,14:05:53,06/03/2024
,"<div style=""font-size: 10rem; color: #0000FF"">J</div>",,ospan,letter,K2fOuvu7KyUnK4O48kU9y1ZTImo1,html-keyboard-response,94,701540,0.0-43.0-2.0-2.0-1.0-5.0,,,,,,,,,,,,,,,60fd2a117181bc22b970997d,14:05:53,06/03/2024
5298.699999999255,"<div class = numbox><p style=""font-size: 2.4rem"">Please recall the letters you saw to the best of your ability. If you do not remember a particular letter, use the SKIP button.<br><b>(When you are ready to lock in your answer, press ENTER)</b></p><button id = button_1 class = ""square num-button"" onclick = ""recordClick(this)""><div class = content><div class = numbers>C</div></div></button><button id = button_2 class = ""square num-button"" onclick = ""recordClick(this)""><div class = content><div class = numbers>G</div></div></button><button id = button_3 class = ""square num-button"" onclick = ""recordClick(this)""><div class = content><div class = numbers>H</div></div></button><button id = button_4 class = ""square num-button"" onclick = ""recordClick(this)""><div class = content><div class = numbers>J</div></div></button><button id = button_5 class = ""square num-button"" onclick = ""recordClick(this)""><div class = content><div class = numbers>K</div></div></button><button id = button_6 class = ""square num-button"" onclick = ""recordClick(this)""><div class = content><div class = numbers>L</div></div></button><button id = button_7 class = ""square num-button"" onclick = ""recordClick(this)""><div class = content><div class = numbers>N</div></div></button><button id = button_8 class = ""square num-button"" onclick = ""recordClick(this)""><div class = content><div class = numbers>P</div></div></button><button id = button_9 class = ""square num-button"" onclick = ""recordClick(this)""><div class = content><div class = numbers>Q</div></div></button><button id = button_10 class = ""square num-button"" onclick = ""recordClick(this)""><div class = content><div class = numbers>R</div></div></button><button id = button_11 class = ""square num-button"" onclick = ""recordClick(this)""><div class = content><div class = numbers>S</div></div></button><button id = button_12 class = ""square num-button"" onclick = ""recordClick(this)""><div class = content><div class = numbers>Y</div></div></button><button class = clear_button id = ""ClearButton"" onclick = ""clearResponse()"">BACKSPACE</button><button class = blank_button id = ""BlankButton"" onclick = ""blankResponse()"">SKIP</button><p style=""font-size: 2.4rem""><u><b>Current Answer:</b></u></p><br><br><div id=echoed_txt style=""font-size: 5rem; color:blue;""><b></b></div></div>",enter,ospan,retrieval,K2fOuvu7KyUnK4O48kU9y1ZTImo1,html-keyboard-response,95,707604,0.0-43.0-2.0-2.0-2.0-0.0,NA,NA,NA,3.0,"[""N"",""Y"",""J""]","[""N"",""Y"",""J""]",1.0,3.0,"['<font color=""green"">N</font>', '<font color=""green"">Y</font>', '<font color=""green"">J</font>']",,,,,,60fd2a117181bc22b970997d,14:05:53,06/03/2024
1594.5999999977648,"['<p style=""font-size:44px"">Letters:<br><br><br><font color=""green"">N</font> <font color=""green"">Y</font> <font color=""green"">J</font></p><br><br><p style=""font-size:30px"">Symmetry:<br><br><font color=""green"">100%</font></p><br><br>']",0,ospan,practice_feedback,K2fOuvu7KyUnK4O48kU9y1ZTImo1,html-button-response,96,709703,0.0-43.0-2.0-2.0-2.0-1.0,,,,,,,,,,,,,,,60fd2a117181bc22b970997d,14:05:53,06/03/2024
30438.5,"<div class = 'left_align' style='font-size: 3rem; line-height: 1.3;'><b>Great work! That is the end of practice.</b><br><br>The real trials will look just like the practice trials you just completed.<br><br><u>Here, you will not see feedback</u>. First, you will see an grid picture to judge,<br>then a letter to remember. When the recall screen appears, report the letters in the<br>order presented. If you forget a letter, remember to use the <b>blank</b> button to move to the<br>next letter. Some of the sets will have more symmetry grids and letters than others.<br><br>It is important that you do your best on both the symmetry judgments and the letter recall<br>parts of the experiment. For for the symmetry judgments, try to work as <b>quickly</b> and <br>as <b>accurately</b> as possible. Remember to keep your symmetry accuracy at 85% or above.<br><br><b>For the letters, do NOT use any external aid (e.g., writing on paper, electronic device).</b><br><br>It is <u>very important</u> to our experiment to have a <b>true</b> view of your real performance.<br><br>Do not worry if you miss some when it gets hard! This task is meant to be very challenging!<br><br>Click the button to begin.</div><br><br><br><br>",0,ospan,starting_real_here,K2fOuvu7KyUnK4O48kU9y1ZTImo1,html-button-response,97,740143,0.0-43.0-2.0-3.0,,,,,,,,,,,,,,,60fd2a117181bc22b970997d,14:05:53,06/03/2024
,"<p style=""font-size:75px;"">...</p>",,ospan,iti,K2fOuvu7KyUnK4O48kU9y1ZTImo1,html-keyboard-response,98,741404,0.0-43.0-3.0-0.0-0.0,,,,,,,,,,,,,,,60fd2a117181bc22b970997d,14:05:53,06/03/2024
1658.0,,,ospan,symmetry,K2fOuvu7KyUnK4O48kU9y1ZTImo1,symmetry-judgement-task,99,744087,0.0-43.0-3.0-0.0-1.0-0.0,,,,,,,,,,1.0,1.0,,,,60fd2a117181bc22b970997d,14:05:53,06/03/2024
,"<div style=""font-size: 10rem; color: #0000FF"">L</div>",,ospan,letter,K2fOuvu7KyUnK4O48kU9y1ZTImo1,html-keyboard-response,100,745101,0.0-43.0-3.0-0.0-1.0-1.0,,,,,,,,,,,,,,,60fd2a117181bc22b970997d,14:05:53,06/03/2024
1460.0,,,ospan,symmetry,K2fOuvu7KyUnK4O48kU9y1ZTImo1,symmetry-judgement-task,101,748429,0.0-43.0-3.0-0.0-1.0-2.0,,,,,,,,,,1.0,1.0,,,,60fd2a117181bc22b970997d,14:05:53,06/03/2024
,"<div style=""font-size: 10rem; color: #0000FF"">H</div>",,ospan,letter,K2fOuvu7KyUnK4O48kU9y1ZTImo1,html-keyboard-response,102,749439,0.0-43.0-3.0-0.0-1.0-3.0,,,,,,,,,,,,,,,60fd2a117181bc22b970997d,14:05:53,06/03/2024
1934.0,,,ospan,symmetry,K2fOuvu7KyUnK4O48kU9y1ZTImo1,symmetry-judgement-task,103,753234,0.0-43.0-3.0-0.0-1.0-4.0,,,,,,,,,,1.0,1.0,,,,60fd2a117181bc22b970997d,14:05:53,06/03/2024
,"<div style=""font-size: 10rem; color: #0000FF"">K</div>",,ospan,letter,K2fOuvu7KyUnK4O48kU9y1ZTImo1,html-keyboard-response,104,754248,0.0-43.0-3.0-0.0-1.0-5.0,,,,,,,,,,,,,,,60fd2a117181bc22b970997d,14:05:53,06/03/2024
6072.60000000149,"<div class = numbox><p style=""font-size: 2.4rem"">Please recall the letters you saw to the best of your ability. If you do not remember a particular letter, use the SKIP button.<br><b>(When you are ready to lock in your answer, press ENTER)</b></p><button id = button_1 class = ""square num-button"" onclick = ""recordClick(this)""><div class = content><div class = numbers>C</div></div></button><button id = button_2 class = ""square num-button"" onclick = ""recordClick(this)""><div class = content><div class = numbers>G</div></div></button><button id = button_3 class = ""square num-button"" onclick = ""recordClick(this)""><div class = content><div class = numbers>H</div></div></button><button id = button_4 class = ""square num-button"" onclick = ""recordClick(this)""><div class = content><div class = numbers>J</div></div></button><button id = button_5 class = ""square num-button"" onclick = ""recordClick(this)""><div class = content><div class = numbers>K</div></div></button><button id = button_6 class = ""square num-button"" onclick = ""recordClick(this)""><div class = content><div class = numbers>L</div></div></button><button id = button_7 class = ""square num-button"" onclick = ""recordClick(this)""><div class = content><div class = numbers>N</div></div></button><button id = button_8 class = ""square num-button"" onclick = ""recordClick(this)""><div class = content><div class = numbers>P</div></div></button><button id = button_9 class = ""square num-button"" onclick = ""recordClick(this)""><div class = content><div class = numbers>Q</div></div></button><button id = button_10 class = ""square num-button"" onclick = ""recordClick(this)""><div class = content><div class = numbers>R</div></div></button><button id = button_11 class = ""square num-button"" onclick = ""recordClick(this)""><div class = content><div class = numbers>S</div></div></button><button id = button_12 class = ""square num-button"" onclick = ""recordClick(this)""><div class = content><div class = numbers>Y</div></div></button><button class = clear_button id = ""ClearButton"" onclick = ""clearResponse()"">BACKSPACE</button><button class = blank_button id = ""BlankButton"" onclick = ""blankResponse()"">SKIP</button><p style=""font-size: 2.4rem""><u><b>Current Answer:</b></u></p><br><br><div id=echoed_txt style=""font-size: 5rem; color:blue;""><b></b></div></div>",enter,ospan,retrieval,K2fOuvu7KyUnK4O48kU9y1ZTImo1,html-keyboard-response,105,761087,0.0-43.0-3.0-0.0-2.0,3,3,3,3.0,"[""L"",""H"",""K""]","[""L"",""H"",""K""]",1.0,3.0,,,,,,,60fd2a117181bc22b970997d,14:05:53,06/03/2024
1807.2999999970198,[''],0,ospan,feedback,K2fOuvu7KyUnK4O48kU9y1ZTImo1,html-button-response,106,763403,0.0-43.0-3.0-0.0-3.0,,,,,,,,,,,,100.0,0.0,,60fd2a117181bc22b970997d,14:05:53,06/03/2024
,"<p style=""font-size:75px;"">...</p>",,ospan,iti,K2fOuvu7KyUnK4O48kU9y1ZTImo1,html-keyboard-response,107,764416,0.0-43.0-4.0-0.0-0.0,,,,,,,,,,,,,,,60fd2a117181bc22b970997d,14:05:53,06/03/2024
1419.0,,,ospan,symmetry,K2fOuvu7KyUnK4O48kU9y1ZTImo1,symmetry-judgement-task,108,766944,0.0-43.0-4.0-0.0-1.0-0.0,,,,,,,,,,1.0,1.0,,,,60fd2a117181bc22b970997d,14:05:53,06/03/2024
,"<div style=""font-size: 10rem; color: #0000FF"">C</div>",,ospan,letter,K2fOuvu7KyUnK4O48kU9y1ZTImo1,html-keyboard-response,109,767945,0.0-43.0-4.0-0.0-1.0-1.0,,,,,,,,,,,,,,,60fd2a117181bc22b970997d,14:05:53,06/03/2024
1662.0,,,ospan,symmetry,K2fOuvu7KyUnK4O48kU9y1ZTImo1,symmetry-judgement-task,110,771467,0.0-43.0-4.0-0.0-1.0-2.0,,,,,,,,,,1.0,1.0,,,,60fd2a117181bc22b970997d,14:05:53,06/03/2024
,"<div style=""font-size: 10rem; color: #0000FF"">H</div>",,ospan,letter,K2fOuvu7KyUnK4O48kU9y1ZTImo1,html-keyboard-response,111,772477,0.0-43.0-4.0-0.0-1.0-3.0,,,,,,,,,,,,,,,60fd2a117181bc22b970997d,14:05:53,06/03/2024
1530.0,,,ospan,symmetry,K2fOuvu7KyUnK4O48kU9y1ZTImo1,symmetry-judgement-task,112,775876,0.0-43.0-4.0-0.0-1.0-4.0,,,,,,,,,,1.0,1.0,,,,60fd2a117181bc22b970997d,14:05:53,06/03/2024
,"<div style=""font-size: 10rem; color: #0000FF"">P</div>",,ospan,letter,K2fOuvu7KyUnK4O48kU9y1ZTImo1,html-keyboard-response,113,776882,0.0-43.0-4.0-0.0-1.0-5.0,,,,,,,,,,,,,,,60fd2a117181bc22b970997d,14:05:53,06/03/2024
2183.0,,,ospan,symmetry,K2fOuvu7KyUnK4O48kU9y1ZTImo1,symmetry-judgement-task,114,780936,0.0-43.0-4.0-0.0-1.0-6.0,,,,,,,,,,1.0,1.0,,,,60fd2a117181bc22b970997d,14:05:53,06/03/2024
,"<div style=""font-size: 10rem; color: #0000FF"">S</div>",,ospan,letter,K2fOuvu7KyUnK4O48kU9y1ZTImo1,html-keyboard-response,115,781941,0.0-43.0-4.0-0.0-1.0-7.0,,,,,,,,,,,,,,,60fd2a117181bc22b970997d,14:05:53,06/03/2024
6008.699999999255,"<div class = numbox><p style=""font-size: 2.4rem"">Please recall the letters you saw to the best of your ability. If you do not remember a particular letter, use the SKIP button.<br><b>(When you are ready to lock in your answer, press ENTER)</b></p><button id = button_1 class = ""square num-button"" onclick = ""recordClick(this)""><div class = content><div class = numbers>C</div></div></button><button id = button_2 class = ""square num-button"" onclick = ""recordClick(this)""><div class = content><div class = numbers>G</div></div></button><button id = button_3 class = ""square num-button"" onclick = ""recordClick(this)""><div class = content><div class = numbers>H</div></div></button><button id = button_4 class = ""square num-button"" onclick = ""recordClick(this)""><div class = content><div class = numbers>J</div></div></button><button id = button_5 class = ""square num-button"" onclick = ""recordClick(this)""><div class = content><div class = numbers>K</div></div></button><button id = button_6 class = ""square num-button"" onclick = ""recordClick(this)""><div class = content><div class = numbers>L</div></div></button><button id = button_7 class = ""square num-button"" onclick = ""recordClick(this)""><div class = content><div class = numbers>N</div></div></button><button id = button_8 class = ""square num-button"" onclick = ""recordClick(this)""><div class = content><div class = numbers>P</div></div></button><button id = button_9 class = ""square num-button"" onclick = ""recordClick(this)""><div class = content><div class = numbers>Q</div></div></button><button id = button_10 class = ""square num-button"" onclick = ""recordClick(this)""><div class = content><div class = numbers>R</div></div></button><button id = button_11 class = ""square num-button"" onclick = ""recordClick(this)""><div class = content><div class = numbers>S</div></div></button><button id = button_12 class = ""square num-button"" onclick = ""recordClick(this)""><div class = content><div class = numbers>Y</div></div></button><button class = clear_button id = ""ClearButton"" onclick = ""clearResponse()"">BACKSPACE</button><button class = blank_button id = ""BlankButton"" onclick = ""blankResponse()"">SKIP</button><p style=""font-size: 2.4rem""><u><b>Current Answer:</b></u></p><br><br><div id=echoed_txt style=""font-size: 5rem; color:blue;""><b></b></div></div>",enter,ospan,retrieval,K2fOuvu7KyUnK4O48kU9y1ZTImo1,html-keyboard-response,116,788702,0.0-43.0-4.0-0.0-2.0,7,7,7,4.0,"[""C"",""H"",""P"",""S""]","[""C"",""H"",""P"",""S""]",1.0,4.0,,,,,,,60fd2a117181bc22b970997d,14:05:53,06/03/2024
1843.8999999985099,[''],0,ospan,feedback,K2fOuvu7KyUnK4O48kU9y1ZTImo1,html-button-response,117,791055,0.0-43.0-4.0-0.0-3.0,,,,,,,,,,,,100.0,0.0,,60fd2a117181bc22b970997d,14:05:53,06/03/2024
,"<p style=""font-size:75px;"">...</p>",,ospan,iti,K2fOuvu7KyUnK4O48kU9y1ZTImo1,html-keyboard-response,118,792057,0.0-43.0-4.0-1.0-0.0,,,,,,,,,,,,,,,60fd2a117181bc22b970997d,14:05:53,06/03/2024
1745.0,,,ospan,symmetry,K2fOuvu7KyUnK4O48kU9y1ZTImo1,symmetry-judgement-task,119,794909,0.0-43.0-4.0-1.0-1.0-0.0,,,,,,,,,,1.0,1.0,,,,60fd2a117181bc22b970997d,14:05:53,06/03/2024
,"<div style=""font-size: 10rem; color: #0000FF"">G</div>",,ospan,letter,K2fOuvu7KyUnK4O48kU9y1ZTImo1,html-keyboard-response,120,795913,0.0-43.0-4.0-1.0-1.0-1.0,,,,,,,,,,,,,,,60fd2a117181bc22b970997d,14:05:53,06/03/2024
1501.0,,,ospan,symmetry,K2fOuvu7KyUnK4O48kU9y1ZTImo1,symmetry-judgement-task,121,799289,0.0-43.0-4.0-1.0-1.0-2.0,,,,,,,,,,1.0,1.0,,,,60fd2a117181bc22b970997d,14:05:53,06/03/2024
,"<div style=""font-size: 10rem; color: #0000FF"">Y</div>",,ospan,letter,K2fOuvu7KyUnK4O48kU9y1ZTImo1,html-keyboard-response,122,800302,0.0-43.0-4.0-1.0-1.0-3.0,,,,,,,,,,,,,,,60fd2a117181bc22b970997d,14:05:53,06/03/2024
1790.0,,,ospan,symmetry,K2fOuvu7KyUnK4O48kU9y1ZTImo1,symmetry-judgement-task,123,803957,0.0-43.0-4.0-1.0-1.0-4.0,,,,,,,,,,1.0,1.0,,,,60fd2a117181bc22b970997d,14:05:53,06/03/2024
,"<div style=""font-size: 10rem; color: #0000FF"">C</div>",,ospan,letter,K2fOuvu7KyUnK4O48kU9y1ZTImo1,html-keyboard-response,124,804968,0.0-43.0-4.0-1.0-1.0-5.0,,,,,,,,,,,,,,,60fd2a117181bc22b970997d,14:05:53,06/03/2024
1733.0,,,ospan,symmetry,K2fOuvu7KyUnK4O48kU9y1ZTImo1,symmetry-judgement-task,125,808568,0.0-43.0-4.0-1.0-1.0-6.0,,,,,,,,,,1.0,1.0,,,,60fd2a117181bc22b970997d,14:05:53,06/03/2024
,"<div style=""font-size: 10rem; color: #0000FF"">Q</div>",,ospan,letter,K2fOuvu7KyUnK4O48kU9y1ZTImo1,html-keyboard-response,126,809584,0.0-43.0-4.0-1.0-1.0-7.0,,,,,,,,,,,,,,,60fd2a117181bc22b970997d,14:05:53,06/03/2024
1839.0,,,ospan,symmetry,K2fOuvu7KyUnK4O48kU9y1ZTImo1,symmetry-judgement-task,127,813291,0.0-43.0-4.0-1.0-1.0-8.0,,,,,,,,,,1.0,1.0,,,,60fd2a117181bc22b970997d,14:05:53,06/03/2024
,"<div style=""font-size: 10rem; color: #0000FF"">L</div>",,ospan,letter,K2fOuvu7KyUnK4O48kU9y1ZTImo1,html-keyboard-response,128,814297,0.0-43.0-4.0-1.0-1.0-9.0,,,,,,,,,,,,,,,60fd2a117181bc22b970997d,14:05:53,06/03/2024
7776.300000000745,"<div class = numbox><p style=""font-size: 2.4rem"">Please recall the letters you saw to the best of your ability. If you do not remember a particular letter, use the SKIP button.<br><b>(When you are ready to lock in your answer, press ENTER)</b></p><button id = button_1 class = ""square num-button"" onclick = ""recordClick(this)""><div class = content><div class = numbers>C</div></div></button><button id = button_2 class = ""square num-button"" onclick = ""recordClick(this)""><div class = content><div class = numbers>G</div></div></button><button id = button_3 class = ""square num-button"" onclick = ""recordClick(this)""><div class = content><div class = numbers>H</div></div></button><button id = button_4 class = ""square num-button"" onclick = ""recordClick(this)""><div class = content><div class = numbers>J</div></div></button><button id = button_5 class = ""square num-button"" onclick = ""recordClick(this)""><div class = content><div class = numbers>K</div></div></button><button id = button_6 class = ""square num-button"" onclick = ""recordClick(this)""><div class = content><div class = numbers>L</div></div></button><button id = button_7 class = ""square num-button"" onclick = ""recordClick(this)""><div class = content><div class = numbers>N</div></div></button><button id = button_8 class = ""square num-button"" onclick = ""recordClick(this)""><div class = content><div class = numbers>P</div></div></button><button id = button_9 class = ""square num-button"" onclick = ""recordClick(this)""><div class = content><div class = numbers>Q</div></div></button><button id = button_10 class = ""square num-button"" onclick = ""recordClick(this)""><div class = content><div class = numbers>R</div></div></button><button id = button_11 class = ""square num-button"" onclick = ""recordClick(this)""><div class = content><div class = numbers>S</div></div></button><button id = button_12 class = ""square num-button"" onclick = ""recordClick(this)""><div class = content><div class = numbers>Y</div></div></button><button class = clear_button id = ""ClearButton"" onclick = ""clearResponse()"">BACKSPACE</button><button class = blank_button id = ""BlankButton"" onclick = ""blankResponse()"">SKIP</button><p style=""font-size: 2.4rem""><u><b>Current Answer:</b></u></p><br><br><div id=echoed_txt style=""font-size: 5rem; color:blue;""><b></b></div></div>",enter,ospan,retrieval,K2fOuvu7KyUnK4O48kU9y1ZTImo1,html-keyboard-response,129,822825,0.0-43.0-4.0-1.0-2.0,12,12,12,5.0,"[""G"",""Y"",""C"",""Q"",""L""]","[""G"",""Y"",""C"",""Q"",""L""]",1.0,5.0,,,,,,,60fd2a117181bc22b970997d,14:05:53,06/03/2024
1814.0,[''],0,ospan,feedback,K2fOuvu7KyUnK4O48kU9y1ZTImo1,html-button-response,130,825154,0.0-43.0-4.0-1.0-3.0,,,,,,,,,,,,100.0,0.0,,60fd2a117181bc22b970997d,14:05:53,06/03/2024
,"<p style=""font-size:75px;"">...</p>",,ospan,iti,K2fOuvu7KyUnK4O48kU9y1ZTImo1,html-keyboard-response,131,826171,0.0-43.0-4.0-2.0-0.0,,,,,,,,,,,,,,,60fd2a117181bc22b970997d,14:05:53,06/03/2024
1494.0,,,ospan,symmetry,K2fOuvu7KyUnK4O48kU9y1ZTImo1,symmetry-judgement-task,132,828766,0.0-43.0-4.0-2.0-1.0-0.0,,,,,,,,,,1.0,1.0,,,,60fd2a117181bc22b970997d,14:05:53,06/03/2024
,"<div style=""font-size: 10rem; color: #0000FF"">N</div>",,ospan,letter,K2fOuvu7KyUnK4O48kU9y1ZTImo1,html-keyboard-response,133,829772,0.0-43.0-4.0-2.0-1.0-1.0,,,,,,,,,,,,,,,60fd2a117181bc22b970997d,14:05:53,06/03/2024
1960.0,,,ospan,symmetry,K2fOuvu7KyUnK4O48kU9y1ZTImo1,symmetry-judgement-task,134,833597,0.0-43.0-4.0-2.0-1.0-2.0,,,,,,,,,,1.0,1.0,,,,60fd2a117181bc22b970997d,14:05:53,06/03/2024
,"<div style=""font-size: 10rem; color: #0000FF"">J</div>",,ospan,letter,K2fOuvu7KyUnK4O48kU9y1ZTImo1,html-keyboard-response,135,834613,0.0-43.0-4.0-2.0-1.0-3.0,,,,,,,,,,,,,,,60fd2a117181bc22b970997d,14:05:53,06/03/2024
1697.0,,,ospan,symmetry,K2fOuvu7KyUnK4O48kU9y1ZTImo1,symmetry-judgement-task,136,838182,0.0-43.0-4.0-2.0-1.0-4.0,,,,,,,,,,1.0,1.0,,,,60fd2a117181bc22b970997d,14:05:53,06/03/2024
,"<div style=""font-size: 10rem; color: #0000FF"">R</div>",,ospan,letter,K2fOuvu7KyUnK4O48kU9y1ZTImo1,html-keyboard-response,137,839199,0.0-43.0-4.0-2.0-1.0-5.0,,,,,,,,,,,,,,,60fd2a117181bc22b970997d,14:05:53,06/03/2024
5892.29999999702,"<div class = numbox><p style=""font-size: 2.4rem"">Please recall the letters you saw to the best of your ability. If you do not remember a particular letter, use the SKIP button.<br><b>(When you are ready to lock in your answer, press ENTER)</b></p><button id = button_1 class = ""square num-button"" onclick = ""recordClick(this)""><div class = content><div class = numbers>C</div></div></button><button id = button_2 class = ""square num-button"" onclick = ""recordClick(this)""><div class = content><div class = numbers>G</div></div></button><button id = button_3 class = ""square num-button"" onclick = ""recordClick(this)""><div class = content><div class = numbers>H</div></div></button><button id = button_4 class = ""square num-button"" onclick = ""recordClick(this)""><div class = content><div class = numbers>J</div></div></button><button id = button_5 class = ""square num-button"" onclick = ""recordClick(this)""><div class = content><div class = numbers>K</div></div></button><button id = button_6 class = ""square num-button"" onclick = ""recordClick(this)""><div class = content><div class = numbers>L</div></div></button><button id = button_7 class = ""square num-button"" onclick = ""recordClick(this)""><div class = content><div class = numbers>N</div></div></button><button id = button_8 class = ""square num-button"" onclick = ""recordClick(this)""><div class = content><div class = numbers>P</div></div></button><button id = button_9 class = ""square num-button"" onclick = ""recordClick(this)""><div class = content><div class = numbers>Q</div></div></button><button id = button_10 class = ""square num-button"" onclick = ""recordClick(this)""><div class = content><div class = numbers>R</div></div></button><button id = button_11 class = ""square num-button"" onclick = ""recordClick(this)""><div class = content><div class = numbers>S</div></div></button><button id = button_12 class = ""square num-button"" onclick = ""recordClick(this)""><div class = content><div class = numbers>Y</div></div></button><button class = clear_button id = ""ClearButton"" onclick = ""clearResponse()"">BACKSPACE</button><button class = blank_button id = ""BlankButton"" onclick = ""blankResponse()"">SKIP</button><p style=""font-size: 2.4rem""><u><b>Current Answer:</b></u></p><br><br><div id=echoed_txt style=""font-size: 5rem; color:blue;""><b></b></div></div>",enter,ospan,retrieval,K2fOuvu7KyUnK4O48kU9y1ZTImo1,html-keyboard-response,138,845841,0.0-43.0-4.0-2.0-2.0,15,15,15,3.0,"[""N"",""J"",""R""]","[""N"",""J"",""R""]",1.0,3.0,,,,,,,60fd2a117181bc22b970997d,14:05:53,06/03/2024
1471.7999999970198,[''],0,ospan,feedback,K2fOuvu7KyUnK4O48kU9y1ZTImo1,html-button-response,139,847821,0.0-43.0-4.0-2.0-3.0,,,,,,,,,,,,100.0,0.0,,60fd2a117181bc22b970997d,14:05:53,06/03/2024
,"<p style=""font-size:75px;"">...</p>",,ospan,iti,K2fOuvu7KyUnK4O48kU9y1ZTImo1,html-keyboard-response,140,848827,0.0-43.0-5.0-0.0-0.0,,,,,,,,,,,,,,,60fd2a117181bc22b970997d,14:05:53,06/03/2024
1533.0,,,ospan,symmetry,K2fOuvu7KyUnK4O48kU9y1ZTImo1,symmetry-judgement-task,141,851471,0.0-43.0-5.0-0.0-1.0-0.0,,,,,,,,,,1.0,1.0,,,,60fd2a117181bc22b970997d,14:05:53,06/03/2024
,"<div style=""font-size: 10rem; color: #0000FF"">L</div>",,ospan,letter,K2fOuvu7KyUnK4O48kU9y1ZTImo1,html-keyboard-response,142,852473,0.0-43.0-5.0-0.0-1.0-1.0,,,,,,,,,,,,,,,60fd2a117181bc22b970997d,14:05:53,06/03/2024
1467.0,,,ospan,symmetry,K2fOuvu7KyUnK4O48kU9y1ZTImo1,symmetry-judgement-task,143,855806,0.0-43.0-5.0-0.0-1.0-2.0,,,,,,,,,,1.0,1.0,,,,60fd2a117181bc22b970997d,14:05:53,06/03/2024
,"<div style=""font-size: 10rem; color: #0000FF"">R</div>",,ospan,letter,K2fOuvu7KyUnK4O48kU9y1ZTImo1,html-keyboard-response,144,856812,0.0-43.0-5.0-0.0-1.0-3.0,,,,,,,,,,,,,,,60fd2a117181bc22b970997d,14:05:53,06/03/2024
1661.0,,,ospan,symmetry,K2fOuvu7KyUnK4O48kU9y1ZTImo1,symmetry-judgement-task,145,860349,0.0-43.0-5.0-0.0-1.0-4.0,,,,,,,,,,1.0,1.0,,,,60fd2a117181bc22b970997d,14:05:53,06/03/2024
,"<div style=""font-size: 10rem; color: #0000FF"">S</div>",,ospan,letter,K2fOuvu7KyUnK4O48kU9y1ZTImo1,html-keyboard-response,146,861351,0.0-43.0-5.0-0.0-1.0-5.0,,,,,,,,,,,,,,,60fd2a117181bc22b970997d,14:05:53,06/03/2024
1533.0,,,ospan,symmetry,K2fOuvu7KyUnK4O48kU9y1ZTImo1,symmetry-judgement-task,147,864753,0.0-43.0-5.0-0.0-1.0-6.0,,,,,,,,,,1.0,1.0,,,,60fd2a117181bc22b970997d,14:05:53,06/03/2024
,"<div style=""font-size: 10rem; color: #0000FF"">G</div>",,ospan,letter,K2fOuvu7KyUnK4O48kU9y1ZTImo1,html-keyboard-response,148,865756,0.0-43.0-5.0-0.0-1.0-7.0,,,,,,,,,,,,,,,60fd2a117181bc22b970997d,14:05:53,06/03/2024
1890.0,,,ospan,symmetry,K2fOuvu7KyUnK4O48kU9y1ZTImo1,symmetry-judgement-task,149,869515,0.0-43.0-5.0-0.0-1.0-8.0,,,,,,,,,,1.0,1.0,,,,60fd2a117181bc22b970997d,14:05:53,06/03/2024
,"<div style=""font-size: 10rem; color: #0000FF"">K</div>",,ospan,letter,K2fOuvu7KyUnK4O48kU9y1ZTImo1,html-keyboard-response,150,870517,0.0-43.0-5.0-0.0-1.0-9.0,,,,,,,,,,,,,,,60fd2a117181bc22b970997d,14:05:53,06/03/2024
1591.0,,,ospan,symmetry,K2fOuvu7KyUnK4O48kU9y1ZTImo1,symmetry-judgement-task,151,873967,0.0-43.0-5.0-0.0-1.0-10.0,,,,,,,,,,1.0,1.0,,,,60fd2a117181bc22b970997d,14:05:53,06/03/2024
,"<div style=""font-size: 10rem; color: #0000FF"">Y</div>",,ospan,letter,K2fOuvu7KyUnK4O48kU9y1ZTImo1,html-keyboard-response,152,874974,0.0-43.0-5.0-0.0-1.0-11.0,,,,,,,,,,,,,,,60fd2a117181bc22b970997d,14:05:53,06/03/2024
8302.699999999255,"<div class = numbox><p style=""font-size: 2.4rem"">Please recall the letters you saw to the best of your ability. If you do not remember a particular letter, use the SKIP button.<br><b>(When you are ready to lock in your answer, press ENTER)</b></p><button id = button_1 class = ""square num-button"" onclick = ""recordClick(this)""><div class = content><div class = numbers>C</div></div></button><button id = button_2 class = ""square num-button"" onclick = ""recordClick(this)""><div class = content><div class = numbers>G</div></div></button><button id = button_3 class = ""square num-button"" onclick = ""recordClick(this)""><div class = content><div class = numbers>H</div></div></button><button id = button_4 class = ""square num-button"" onclick = ""recordClick(this)""><div class = content><div class = numbers>J</div></div></button><button id = button_5 class = ""square num-button"" onclick = ""recordClick(this)""><div class = content><div class = numbers>K</div></div></button><button id = button_6 class = ""square num-button"" onclick = ""recordClick(this)""><div class = content><div class = numbers>L</div></div></button><button id = button_7 class = ""square num-button"" onclick = ""recordClick(this)""><div class = content><div class = numbers>N</div></div></button><button id = button_8 class = ""square num-button"" onclick = ""recordClick(this)""><div class = content><div class = numbers>P</div></div></button><button id = button_9 class = ""square num-button"" onclick = ""recordClick(this)""><div class = content><div class = numbers>Q</div></div></button><button id = button_10 class = ""square num-button"" onclick = ""recordClick(this)""><div class = content><div class = numbers>R</div></div></button><button id = button_11 class = ""square num-button"" onclick = ""recordClick(this)""><div class = content><div class = numbers>S</div></div></button><button id = button_12 class = ""square num-button"" onclick = ""recordClick(this)""><div class = content><div class = numbers>Y</div></div></button><button class = clear_button id = ""ClearButton"" onclick = ""clearResponse()"">BACKSPACE</button><button class = blank_button id = ""BlankButton"" onclick = ""blankResponse()"">SKIP</button><p style=""font-size: 2.4rem""><u><b>Current Answer:</b></u></p><br><br><div id=echoed_txt style=""font-size: 5rem; color:blue;""><b></b></div></div>",enter,ospan,retrieval,K2fOuvu7KyUnK4O48kU9y1ZTImo1,html-keyboard-response,153,884041,0.0-43.0-5.0-0.0-2.0,21,21,21,6.0,"[""L"",""R"",""S"",""G"",""K"",""Y""]","[""L"",""R"",""S"",""G"",""K"",""Y""]",1.0,6.0,,,,,,,60fd2a117181bc22b970997d,14:05:53,06/03/2024
4704.699999999255,[''],0,ospan,feedback,K2fOuvu7KyUnK4O48kU9y1ZTImo1,html-button-response,154,889261,0.0-43.0-5.0-0.0-3.0,,,,,,,,,,,,100.0,0.0,,60fd2a117181bc22b970997d,14:05:53,06/03/2024
,"<p style=""font-size:75px;"">...</p>",,ospan,iti,K2fOuvu7KyUnK4O48kU9y1ZTImo1,html-keyboard-response,155,890269,0.0-43.0-5.0-1.0-0.0,,,,,,,,,,,,,,,60fd2a117181bc22b970997d,14:05:53,06/03/2024
1570.0,,,ospan,symmetry,K2fOuvu7KyUnK4O48kU9y1ZTImo1,symmetry-judgement-task,156,892864,0.0-43.0-5.0-1.0-1.0-0.0,,,,,,,,,,1.0,1.0,,,,60fd2a117181bc22b970997d,14:05:53,06/03/2024
,"<div style=""font-size: 10rem; color: #0000FF"">K</div>",,ospan,letter,K2fOuvu7KyUnK4O48kU9y1ZTImo1,html-keyboard-response,157,893869,0.0-43.0-5.0-1.0-1.0-1.0,,,,,,,,,,,,,,,60fd2a117181bc22b970997d,14:05:53,06/03/2024
1434.0,,,ospan,symmetry,K2fOuvu7KyUnK4O48kU9y1ZTImo1,symmetry-judgement-task,158,897175,0.0-43.0-5.0-1.0-1.0-2.0,,,,,,,,,,1.0,1.0,,,,60fd2a117181bc22b970997d,14:05:53,06/03/2024
,"<div style=""font-size: 10rem; color: #0000FF"">Y</div>",,ospan,letter,K2fOuvu7KyUnK4O48kU9y1ZTImo1,html-keyboard-response,159,898187,0.0-43.0-5.0-1.0-1.0-3.0,,,,,,,,,,,,,,,60fd2a117181bc22b970997d,14:05:53,06/03/2024
1774.0,,,ospan,symmetry,K2fOuvu7KyUnK4O48kU9y1ZTImo1,symmetry-judgement-task,160,901828,0.0-43.0-5.0-1.0-1.0-4.0,,,,,,,,,,1.0,1.0,,,,60fd2a117181bc22b970997d,14:05:53,06/03/2024
,"<div style=""font-size: 10rem; color: #0000FF"">P</div>",,ospan,letter,K2fOuvu7KyUnK4O48kU9y1ZTImo1,html-keyboard-response,161,902835,0.0-43.0-5.0-1.0-1.0-5.0,,,,,,,,,,,,,,,60fd2a117181bc22b970997d,14:05:53,06/03/2024
2930.0,,,ospan,symmetry,K2fOuvu7KyUnK4O48kU9y1ZTImo1,symmetry-judgement-task,162,907636,0.0-43.0-5.0-1.0-1.0-6.0,,,,,,,,,,1.0,1.0,,,,60fd2a117181bc22b970997d,14:05:53,06/03/2024
,"<div style=""font-size: 10rem; color: #0000FF"">H</div>",,ospan,letter,K2fOuvu7KyUnK4O48kU9y1ZTImo1,html-keyboard-response,163,908649,0.0-43.0-5.0-1.0-1.0-7.0,,,,,,,,,,,,,,,60fd2a117181bc22b970997d,14:05:53,06/03/2024
2071.0,,,ospan,symmetry,K2fOuvu7KyUnK4O48kU9y1ZTImo1,symmetry-judgement-task,164,912585,0.0-43.0-5.0-1.0-1.0-8.0,,,,,,,,,,1.0,1.0,,,,60fd2a117181bc22b970997d,14:05:53,06/03/2024
,"<div style=""font-size: 10rem; color: #0000FF"">Q</div>",,ospan,letter,K2fOuvu7KyUnK4O48kU9y1ZTImo1,html-keyboard-response,165,913590,0.0-43.0-5.0-1.0-1.0-9.0,,,,,,,,,,,,,,,60fd2a117181bc22b970997d,14:05:53,06/03/2024
3024.0,,,ospan,symmetry,K2fOuvu7KyUnK4O48kU9y1ZTImo1,symmetry-judgement-task,166,918492,0.0-43.0-5.0-1.0-1.0-10.0,,,,,,,,,,1.0,1.0,,,,60fd2a117181bc22b970997d,14:05:53,06/03/2024
,"<div style=""font-size: 10rem; color: #0000FF"">L</div>",,ospan,letter,K2fOuvu7KyUnK4O48kU9y1ZTImo1,html-keyboard-response,167,919498,0.0-43.0-5.0-1.0-1.0-11.0,,,,,,,,,,,,,,,60fd2a117181bc22b970997d,14:05:53,06/03/2024
2498.0,,,ospan,symmetry,K2fOuvu7KyUnK4O48kU9y1ZTImo1,symmetry-judgement-task,168,923867,0.0-43.0-5.0-1.0-1.0-12.0,,,,,,,,,,1.0,1.0,,,,60fd2a117181bc22b970997d,14:05:53,06/03/2024
,"<div style=""font-size: 10rem; color: #0000FF"">S</div>",,ospan,letter,K2fOuvu7KyUnK4O48kU9y1ZTImo1,html-keyboard-response,169,924870,0.0-43.0-5.0-1.0-1.0-13.0,,,,,,,,,,,,,,,60fd2a117181bc22b970997d,14:05:53,06/03/2024
16395.5,"<div class = numbox><p style=""font-size: 2.4rem"">Please recall the letters you saw to the best of your ability. If you do not remember a particular letter, use the SKIP button.<br><b>(When you are ready to lock in your answer, press ENTER)</b></p><button id = button_1 class = ""square num-button"" onclick = ""recordClick(this)""><div class = content><div class = numbers>C</div></div></button><button id = button_2 class = ""square num-button"" onclick = ""recordClick(this)""><div class = content><div class = numbers>G</div></div></button><button id = button_3 class = ""square num-button"" onclick = ""recordClick(this)""><div class = content><div class = numbers>H</div></div></button><button id = button_4 class = ""square num-button"" onclick = ""recordClick(this)""><div class = content><div class = numbers>J</div></div></button><button id = button_5 class = ""square num-button"" onclick = ""recordClick(this)""><div class = content><div class = numbers>K</div></div></button><button id = button_6 class = ""square num-button"" onclick = ""recordClick(this)""><div class = content><div class = numbers>L</div></div></button><button id = button_7 class = ""square num-button"" onclick = ""recordClick(this)""><div class = content><div class = numbers>N</div></div></button><button id = button_8 class = ""square num-button"" onclick = ""recordClick(this)""><div class = content><div class = numbers>P</div></div></button><button id = button_9 class = ""square num-button"" onclick = ""recordClick(this)""><div class = content><div class = numbers>Q</div></div></button><button id = button_10 class = ""square num-button"" onclick = ""recordClick(this)""><div class = content><div class = numbers>R</div></div></button><button id = button_11 class = ""square num-button"" onclick = ""recordClick(this)""><div class = content><div class = numbers>S</div></div></button><button id = button_12 class = ""square num-button"" onclick = ""recordClick(this)""><div class = content><div class = numbers>Y</div></div></button><button class = clear_button id = ""ClearButton"" onclick = ""clearResponse()"">BACKSPACE</button><button class = blank_button id = ""BlankButton"" onclick = ""blankResponse()"">SKIP</button><p style=""font-size: 2.4rem""><u><b>Current Answer:</b></u></p><br><br><div id=echoed_txt style=""font-size: 5rem; color:blue;""><b></b></div></div>",enter,ospan,retrieval,K2fOuvu7KyUnK4O48kU9y1ZTImo1,html-keyboard-response,170,942022,0.0-43.0-5.0-1.0-2.0,28,25,21,7.0,"[""K"",""Y"",""P"",""H"",""L"",""S""]","[""K"",""Y"",""P"",""H"",""Q"",""L"",""S""]",0.0,4.0,,,,,,,60fd2a117181bc22b970997d,14:05:53,06/03/2024
2822.800000000745,[''],0,ospan,feedback,K2fOuvu7KyUnK4O48kU9y1ZTImo1,html-button-response,171,945346,0.0-43.0-5.0-1.0-3.0,,,,,,,,,,,,100.0,0.0,,60fd2a117181bc22b970997d,14:05:53,06/03/2024
,"<p style=""font-size:75px;"">...</p>",,ospan,iti,K2fOuvu7KyUnK4O48kU9y1ZTImo1,html-keyboard-response,172,946350,0.0-43.0-6.0-0.0-0.0,,,,,,,,,,,,,,,60fd2a117181bc22b970997d,14:05:53,06/03/2024
1935.0,,,ospan,symmetry,K2fOuvu7KyUnK4O48kU9y1ZTImo1,symmetry-judgement-task,173,949394,0.0-43.0-6.0-0.0-1.0-0.0,,,,,,,,,,1.0,1.0,,,,60fd2a117181bc22b970997d,14:05:53,06/03/2024
,"<div style=""font-size: 10rem; color: #0000FF"">C</div>",,ospan,letter,K2fOuvu7KyUnK4O48kU9y1ZTImo1,html-keyboard-response,174,950408,0.0-43.0-6.0-0.0-1.0-1.0,,,,,,,,,,,,,,,60fd2a117181bc22b970997d,14:05:53,06/03/2024
2336.0,,,ospan,symmetry,K2fOuvu7KyUnK4O48kU9y1ZTImo1,symmetry-judgement-task,175,954604,0.0-43.0-6.0-0.0-1.0-2.0,,,,,,,,,,1.0,1.0,,,,60fd2a117181bc22b970997d,14:05:53,06/03/2024
,"<div style=""font-size: 10rem; color: #0000FF"">R</div>",,ospan,letter,K2fOuvu7KyUnK4O48kU9y1ZTImo1,html-keyboard-response,176,955621,0.0-43.0-6.0-0.0-1.0-3.0,,,,,,,,,,,,,,,60fd2a117181bc22b970997d,14:05:53,06/03/2024
2244.0,,,ospan,symmetry,K2fOuvu7KyUnK4O48kU9y1ZTImo1,symmetry-judgement-task,177,959735,0.0-43.0-6.0-0.0-1.0-4.0,,,,,,,,,,1.0,1.0,,,,60fd2a117181bc22b970997d,14:05:53,06/03/2024
,"<div style=""font-size: 10rem; color: #0000FF"">G</div>",,ospan,letter,K2fOuvu7KyUnK4O48kU9y1ZTImo1,html-keyboard-response,178,960737,0.0-43.0-6.0-0.0-1.0-5.0,,,,,,,,,,,,,,,60fd2a117181bc22b970997d,14:05:53,06/03/2024
1848.0,,,ospan,symmetry,K2fOuvu7KyUnK4O48kU9y1ZTImo1,symmetry-judgement-task,179,964456,0.0-43.0-6.0-0.0-1.0-6.0,,,,,,,,,,1.0,1.0,,,,60fd2a117181bc22b970997d,14:05:53,06/03/2024
,"<div style=""font-size: 10rem; color: #0000FF"">S</div>",,ospan,letter,K2fOuvu7KyUnK4O48kU9y1ZTImo1,html-keyboard-response,180,965461,0.0-43.0-6.0-0.0-1.0-7.0,,,,,,,,,,,,,,,60fd2a117181bc22b970997d,14:05:53,06/03/2024
1643.0,,,ospan,symmetry,K2fOuvu7KyUnK4O48kU9y1ZTImo1,symmetry-judgement-task,181,968975,0.0-43.0-6.0-0.0-1.0-8.0,,,,,,,,,,1.0,1.0,,,,60fd2a117181bc22b970997d,14:05:53,06/03/2024
,"<div style=""font-size: 10rem; color: #0000FF"">H</div>",,ospan,letter,K2fOuvu7KyUnK4O48kU9y1ZTImo1,html-keyboard-response,182,969976,0.0-43.0-6.0-0.0-1.0-9.0,,,,,,,,,,,,,,,60fd2a117181bc22b970997d,14:05:53,06/03/2024
6711.39999999851,"<div class = numbox><p style=""font-size: 2.4rem"">Please recall the letters you saw to the best of your ability. If you do not remember a particular letter, use the SKIP button.<br><b>(When you are ready to lock in your answer, press ENTER)</b></p><button id = button_1 class = ""square num-button"" onclick = ""recordClick(this)""><div class = content><div class = numbers>C</div></div></button><button id = button_2 class = ""square num-button"" onclick = ""recordClick(this)""><div class = content><div class = numbers>G</div></div></button><button id = button_3 class = ""square num-button"" onclick = ""recordClick(this)""><div class = content><div class = numbers>H</div></div></button><button id = button_4 class = ""square num-button"" onclick = ""recordClick(this)""><div class = content><div class = numbers>J</div></div></button><button id = button_5 class = ""square num-button"" onclick = ""recordClick(this)""><div class = content><div class = numbers>K</div></div></button><button id = button_6 class = ""square num-button"" onclick = ""recordClick(this)""><div class = content><div class = numbers>L</div></div></button><button id = button_7 class = ""square num-button"" onclick = ""recordClick(this)""><div class = content><div class = numbers>N</div></div></button><button id = button_8 class = ""square num-button"" onclick = ""recordClick(this)""><div class = content><div class = numbers>P</div></div></button><button id = button_9 class = ""square num-button"" onclick = ""recordClick(this)""><div class = content><div class = numbers>Q</div></div></button><button id = button_10 class = ""square num-button"" onclick = ""recordClick(this)""><div class = content><div class = numbers>R</div></div></button><button id = button_11 class = ""square num-button"" onclick = ""recordClick(this)""><div class = content><div class = numbers>S</div></div></button><button id = button_12 class = ""square num-button"" onclick = ""recordClick(this)""><div class = content><div class = numbers>Y</div></div></button><button class = clear_button id = ""ClearButton"" onclick = ""clearResponse()"">BACKSPACE</button><button class = blank_button id = ""BlankButton"" onclick = ""blankResponse()"">SKIP</button><p style=""font-size: 2.4rem""><u><b>Current Answer:</b></u></p><br><br><div id=echoed_txt style=""font-size: 5rem; color:blue;""><b></b></div></div>",enter,ospan,retrieval,K2fOuvu7KyUnK4O48kU9y1ZTImo1,html-keyboard-response,183,977442,0.0-43.0-6.0-0.0-2.0,33,30,26,5.0,"[""C"",""R"",""G"",""S"",""H""]","[""C"",""R"",""G"",""S"",""H""]",1.0,5.0,,,,,,,60fd2a117181bc22b970997d,14:05:53,06/03/2024
1869.800000000745,[''],0,ospan,feedback,K2fOuvu7KyUnK4O48kU9y1ZTImo1,html-button-response,184,979821,0.0-43.0-6.0-0.0-3.0,,,,,,,,,,,,100.0,0.0,,60fd2a117181bc22b970997d,14:05:53,06/03/2024
,"<p style=""font-size:75px;"">...</p>",,ospan,iti,K2fOuvu7KyUnK4O48kU9y1ZTImo1,html-keyboard-response,185,980822,0.0-43.0-6.0-1.0-0.0,,,,,,,,,,,,,,,60fd2a117181bc22b970997d,14:05:53,06/03/2024
1722.0,,,ospan,symmetry,K2fOuvu7KyUnK4O48kU9y1ZTImo1,symmetry-judgement-task,186,983642,0.0-43.0-6.0-1.0-1.0-0.0,,,,,,,,,,1.0,1.0,,,,60fd2a117181bc22b970997d,14:05:53,06/03/2024
,"<div style=""font-size: 10rem; color: #0000FF"">H</div>",,ospan,letter,K2fOuvu7KyUnK4O48kU9y1ZTImo1,html-keyboard-response,187,984650,0.0-43.0-6.0-1.0-1.0-1.0,,,,,,,,,,,,,,,60fd2a117181bc22b970997d,14:05:53,06/03/2024
1848.0,,,ospan,symmetry,K2fOuvu7KyUnK4O48kU9y1ZTImo1,symmetry-judgement-task,188,988375,0.0-43.0-6.0-1.0-1.0-2.0,,,,,,,,,,1.0,1.0,,,,60fd2a117181bc22b970997d,14:05:53,06/03/2024
,"<div style=""font-size: 10rem; color: #0000FF"">R</div>",,ospan,letter,K2fOuvu7KyUnK4O48kU9y1ZTImo1,html-keyboard-response,189,989381,0.0-43.0-6.0-1.0-1.0-3.0,,,,,,,,,,,,,,,60fd2a117181bc22b970997d,14:05:53,06/03/2024
2028.0,,,ospan,symmetry,K2fOuvu7KyUnK4O48kU9y1ZTImo1,symmetry-judgement-task,190,993274,0.0-43.0-6.0-1.0-1.0-4.0,,,,,,,,,,1.0,1.0,,,,60fd2a117181bc22b970997d,14:05:53,06/03/2024
,"<div style=""font-size: 10rem; color: #0000FF"">S</div>",,ospan,letter,K2fOuvu7KyUnK4O48kU9y1ZTImo1,html-keyboard-response,191,994280,0.0-43.0-6.0-1.0-1.0-5.0,,,,,,,,,,,,,,,60fd2a117181bc22b970997d,14:05:53,06/03/2024
1871.0,,,ospan,symmetry,K2fOuvu7KyUnK4O48kU9y1ZTImo1,symmetry-judgement-task,192,998016,0.0-43.0-6.0-1.0-1.0-6.0,,,,,,,,,,1.0,1.0,,,,60fd2a117181bc22b970997d,14:05:53,06/03/2024
,"<div style=""font-size: 10rem; color: #0000FF"">Y</div>",,ospan,letter,K2fOuvu7KyUnK4O48kU9y1ZTImo1,html-keyboard-response,193,999027,0.0-43.0-6.0-1.0-1.0-7.0,,,,,,,,,,,,,,,60fd2a117181bc22b970997d,14:05:53,06/03/2024
1774.0,,,ospan,symmetry,K2fOuvu7KyUnK4O48kU9y1ZTImo1,symmetry-judgement-task,194,1002663,0.0-43.0-6.0-1.0-1.0-8.0,,,,,,,,,,1.0,1.0,,,,60fd2a117181bc22b970997d,14:05:53,06/03/2024
,"<div style=""font-size: 10rem; color: #0000FF"">N</div>",,ospan,letter,K2fOuvu7KyUnK4O48kU9y1ZTImo1,html-keyboard-response,195,1003667,0.0-43.0-6.0-1.0-1.0-9.0,,,,,,,,,,,,,,,60fd2a117181bc22b970997d,14:05:53,06/03/2024
1891.0,,,ospan,symmetry,K2fOuvu7KyUnK4O48kU9y1ZTImo1,symmetry-judgement-task,196,1007423,0.0-43.0-6.0-1.0-1.0-10.0,,,,,,,,,,1.0,1.0,,,,60fd2a117181bc22b970997d,14:05:53,06/03/2024
,"<div style=""font-size: 10rem; color: #0000FF"">J</div>",,ospan,letter,K2fOuvu7KyUnK4O48kU9y1ZTImo1,html-keyboard-response,197,1008436,0.0-43.0-6.0-1.0-1.0-11.0,,,,,,,,,,,,,,,60fd2a117181bc22b970997d,14:05:53,06/03/2024
1515.0,,,ospan,symmetry,K2fOuvu7KyUnK4O48kU9y1ZTImo1,symmetry-judgement-task,198,1011834,0.0-43.0-6.0-1.0-1.0-12.0,,,,,,,,,,1.0,1.0,,,,60fd2a117181bc22b970997d,14:05:53,06/03/2024
,"<div style=""font-size: 10rem; color: #0000FF"">Q</div>",,ospan,letter,K2fOuvu7KyUnK4O48kU9y1ZTImo1,html-keyboard-response,199,1012836,0.0-43.0-6.0-1.0-1.0-13.0,,,,,,,,,,,,,,,60fd2a117181bc22b970997d,14:05:53,06/03/2024
3024.0,,,ospan,symmetry,K2fOuvu7KyUnK4O48kU9y1ZTImo1,symmetry-judgement-task,200,1017728,0.0-43.0-6.0-1.0-1.0-14.0,,,,,,,,,,1.0,1.0,,,,60fd2a117181bc22b970997d,14:05:53,06/03/2024
,"<div style=""font-size: 10rem; color: #0000FF"">P</div>",,ospan,letter,K2fOuvu7KyUnK4O48kU9y1ZTImo1,html-keyboard-response,201,1018733,0.0-43.0-6.0-1.0-1.0-15.0,,,,,,,,,,,,,,,60fd2a117181bc22b970997d,14:05:53,06/03/2024
12374.89999999851,"<div class = numbox><p style=""font-size: 2.4rem"">Please recall the letters you saw to the best of your ability. If you do not remember a particular letter, use the SKIP button.<br><b>(When you are ready to lock in your answer, press ENTER)</b></p><button id = button_1 class = ""square num-button"" onclick = ""recordClick(this)""><div class = content><div class = numbers>C</div></div></button><button id = button_2 class = ""square num-button"" onclick = ""recordClick(this)""><div class = content><div class = numbers>G</div></div></button><button id = button_3 class = ""square num-button"" onclick = ""recordClick(this)""><div class = content><div class = numbers>H</div></div></button><button id = button_4 class = ""square num-button"" onclick = ""recordClick(this)""><div class = content><div class = numbers>J</div></div></button><button id = button_5 class = ""square num-button"" onclick = ""recordClick(this)""><div class = content><div class = numbers>K</div></div></button><button id = button_6 class = ""square num-button"" onclick = ""recordClick(this)""><div class = content><div class = numbers>L</div></div></button><button id = button_7 class = ""square num-button"" onclick = ""recordClick(this)""><div class = content><div class = numbers>N</div></div></button><button id = button_8 class = ""square num-button"" onclick = ""recordClick(this)""><div class = content><div class = numbers>P</div></div></button><button id = button_9 class = ""square num-button"" onclick = ""recordClick(this)""><div class = content><div class = numbers>Q</div></div></button><button id = button_10 class = ""square num-button"" onclick = ""recordClick(this)""><div class = content><div class = numbers>R</div></div></button><button id = button_11 class = ""square num-button"" onclick = ""recordClick(this)""><div class = content><div class = numbers>S</div></div></button><button id = button_12 class = ""square num-button"" onclick = ""recordClick(this)""><div class = content><div class = numbers>Y</div></div></button><button class = clear_button id = ""ClearButton"" onclick = ""clearResponse()"">BACKSPACE</button><button class = blank_button id = ""BlankButton"" onclick = ""blankResponse()"">SKIP</button><p style=""font-size: 2.4rem""><u><b>Current Answer:</b></u></p><br><br><div id=echoed_txt style=""font-size: 5rem; color:blue;""><b></b></div></div>",enter,ospan,retrieval,K2fOuvu7KyUnK4O48kU9y1ZTImo1,html-keyboard-response,202,1031860,0.0-43.0-6.0-1.0-2.0,41,38,34,8.0,"[""H"",""R"",""S"",""Y"",""N"",""J"",""Q"",""P""]","[""H"",""R"",""S"",""Y"",""N"",""J"",""Q"",""P""]",1.0,8.0,,,,,,,60fd2a117181bc22b970997d,14:05:53,06/03/2024
2138.39999999851,[''],0,ospan,feedback,K2fOuvu7KyUnK4O48kU9y1ZTImo1,html-button-response,203,1034500,0.0-43.0-6.0-1.0-3.0,,,,,,,,,,,,100.0,0.0,,60fd2a117181bc22b970997d,14:05:53,06/03/2024
51603.699999999255,,{'Q0': 'I have no complaints everything was explained well and worked as it should.'},ospan,survey_ospan,K2fOuvu7KyUnK4O48kU9y1ZTImo1,lmdlab-survey-text,204,1086865,0.0-43.0-7.0,,,,,,,,,,,,,,K2fOuvu7KyUnK4O48kU9y1ZTImo1,60fd2a117181bc22b970997d,14:05:53,06/03/2024
2933.10000000149,<p><p style='font-size: 3rem'>Great work!<br><br>This completes the symmetry and memory task.</p><br><br><br>,0,ospan,finish,K2fOuvu7KyUnK4O48kU9y1ZTImo1,html-button-response,205,1089799,0.0-43.0-8.0,41,38,34,,,,,,,,,100.0,,,60fd2a117181bc22b970997d,14:05:53,06/03/2024
