rt,stimulus,response,exp_name,exp_stage,subjectID,trial_type,trial_index,time_elapsed,internal_node_id,ospan_shown,ospan_total,ospan_abs,length,resp_actual,resp_correct,full_correct,num_correct,feedback,accuracy,correct,math_acc,math_warning,databaseID,prolificID,start_time,date
4532.0,<div class = 'left_align' style='font-size: 3.25rem; line-height: 1.3;'><p class = 'center_align'><b>Welcome to the Symmetry and Memory Task</b><br><br><br><br></p>Press 'continue' to show the instructions.<br><br><br><br></div>,0,ospan,instruct,uyaoNSdiL3TXn4oXc9K3xCzk4p83,html-button-response,51,782733,0.0-43.0-0.0-0.0-0.0,,,,,,,,,,,,,,,634e460a7da3fef3d5a9faf3,1:43:37 PM,3/6/2024
58136.0,"<div class = 'left_align' style='font-size: 3.25rem; line-height: 1.3;'><p class = 'center_align'><b>Symmetry and Memory Task</b><br><br></p>In this task, you will try to memorize letters you see on the screen<br>while you also view black and white grid pictures.<br><br>In the next few minutes, you will have some practice to get you familiar<br>with how the task works.<br><br>It may be difficult sometimes, but please do not worry about making mistakes!<br><br>We will begin by practicing the letter part of the task.<br><br><br><br></div>",0,ospan,instruct,uyaoNSdiL3TXn4oXc9K3xCzk4p83,html-button-response,52,841136,0.0-43.0-0.0-0.0-1.0,,,,,,,,,,,,,,,634e460a7da3fef3d5a9faf3,1:43:37 PM,3/6/2024
49879.0,"<div class = 'left_align' style='font-size: 3.25rem; line-height: 1.3;'>For this practice part, letters will appear on the screen one at a time.<br><br>Try to remember each letter in the order presented.<br><br>After some letters have been shown, you will see a response screen. Your<br>goal is to report the letters you saw <b>in order</b>. If you do not remember<br>a particular letter, you will have the option to leave it blank.<br><br><br><br></div>",0,ospan,instruct,uyaoNSdiL3TXn4oXc9K3xCzk4p83,html-button-response,53,891275,0.0-43.0-0.0-0.0-2.0,,,,,,,,,,,,,,,634e460a7da3fef3d5a9faf3,1:43:37 PM,3/6/2024
3100.0,"<div class = 'left_align' style='font-size: 3.25rem; line-height: 1.3;'>Remember, it is very important to get the letters in the same<br>order as you see them.<br><br>When you are ready, you may begin the letter practice.</div><br><br><br><br>",0,ospan,instruct,uyaoNSdiL3TXn4oXc9K3xCzk4p83,html-button-response,54,894644,0.0-43.0-0.0-0.0-3.0,,,,,,,,,,,,,,,634e460a7da3fef3d5a9faf3,1:43:37 PM,3/6/2024
,"<p style=""font-size:75px;"">...</p>",,ospan,iti,uyaoNSdiL3TXn4oXc9K3xCzk4p83,html-keyboard-response,55,895906,0.0-43.0-0.0-1.0-0.0,,,,,,,,,,,,,,,634e460a7da3fef3d5a9faf3,1:43:37 PM,3/6/2024
,"<div style=""font-size: 10rem; color: #0000FF"">K</div>",,ospan,letter,uyaoNSdiL3TXn4oXc9K3xCzk4p83,html-keyboard-response,56,896911,0.0-43.0-0.0-1.0-1.0,,,,,,,,,,,,,,,634e460a7da3fef3d5a9faf3,1:43:37 PM,3/6/2024
,"<div style=""font-size: 10rem; color: #0000FF"">S</div>",,ospan,letter,uyaoNSdiL3TXn4oXc9K3xCzk4p83,html-keyboard-response,57,898680,0.0-43.0-0.0-1.0-2.0,,,,,,,,,,,,,,,634e460a7da3fef3d5a9faf3,1:43:37 PM,3/6/2024
19669.0,"<div class = numbox><p style=""font-size: 2.4rem"">Please recall the letters you saw to the best of your ability. If you do not remember a particular letter, use the SKIP button.<br><b>(When you are ready to lock in your answer, press ENTER)</b></p><button id = button_1 class = ""square num-button"" onclick = ""recordClick(this)""><div class = content><div class = numbers>C</div></div></button><button id = button_2 class = ""square num-button"" onclick = ""recordClick(this)""><div class = content><div class = numbers>G</div></div></button><button id = button_3 class = ""square num-button"" onclick = ""recordClick(this)""><div class = content><div class = numbers>H</div></div></button><button id = button_4 class = ""square num-button"" onclick = ""recordClick(this)""><div class = content><div class = numbers>J</div></div></button><button id = button_5 class = ""square num-button"" onclick = ""recordClick(this)""><div class = content><div class = numbers>K</div></div></button><button id = button_6 class = ""square num-button"" onclick = ""recordClick(this)""><div class = content><div class = numbers>L</div></div></button><button id = button_7 class = ""square num-button"" onclick = ""recordClick(this)""><div class = content><div class = numbers>N</div></div></button><button id = button_8 class = ""square num-button"" onclick = ""recordClick(this)""><div class = content><div class = numbers>P</div></div></button><button id = button_9 class = ""square num-button"" onclick = ""recordClick(this)""><div class = content><div class = numbers>Q</div></div></button><button id = button_10 class = ""square num-button"" onclick = ""recordClick(this)""><div class = content><div class = numbers>R</div></div></button><button id = button_11 class = ""square num-button"" onclick = ""recordClick(this)""><div class = content><div class = numbers>S</div></div></button><button id = button_12 class = ""square num-button"" onclick = ""recordClick(this)""><div class = content><div class = numbers>Y</div></div></button><button class = clear_button id = ""ClearButton"" onclick = ""clearResponse()"">BACKSPACE</button><button class = blank_button id = ""BlankButton"" onclick = ""blankResponse()"">SKIP</button><p style=""font-size: 2.4rem""><u><b>Current Answer:</b></u></p><br><br><div id=echoed_txt style=""font-size: 5rem; color:blue;""><b></b></div></div>",enter,ospan,retrieval,uyaoNSdiL3TXn4oXc9K3xCzk4p83,html-keyboard-response,58,919115,0.0-43.0-0.0-1.0-3.0,NA,NA,NA,2.0,"[""K"",""S""]","[""K"",""S""]",1.0,2.0,"['<font color=""green"">K</font>', '<font color=""green"">S</font>']",,,,,,634e460a7da3fef3d5a9faf3,1:43:37 PM,3/6/2024
55062.0,"['<p style=""font-size:44px"">Letters:<br><br><br><font color=""green"">K</font> <font color=""green"">S</font></p><br><br>']",0,ospan,practice_feedback,uyaoNSdiL3TXn4oXc9K3xCzk4p83,html-button-response,59,974690,0.0-43.0-0.0-1.0-4.0,,,,,,,,,,,,,,,634e460a7da3fef3d5a9faf3,1:43:37 PM,3/6/2024
,"<p style=""font-size:75px;"">...</p>",,ospan,iti,uyaoNSdiL3TXn4oXc9K3xCzk4p83,html-keyboard-response,60,975698,0.0-43.0-0.0-2.0-0.0,,,,,,,,,,,,,,,634e460a7da3fef3d5a9faf3,1:43:37 PM,3/6/2024
,"<div style=""font-size: 10rem; color: #0000FF"">P</div>",,ospan,letter,uyaoNSdiL3TXn4oXc9K3xCzk4p83,html-keyboard-response,61,976713,0.0-43.0-0.0-2.0-1.0,,,,,,,,,,,,,,,634e460a7da3fef3d5a9faf3,1:43:37 PM,3/6/2024
,"<div style=""font-size: 10rem; color: #0000FF"">R</div>",,ospan,letter,uyaoNSdiL3TXn4oXc9K3xCzk4p83,html-keyboard-response,62,978490,0.0-43.0-0.0-2.0-2.0,,,,,,,,,,,,,,,634e460a7da3fef3d5a9faf3,1:43:37 PM,3/6/2024
,"<div style=""font-size: 10rem; color: #0000FF"">H</div>",,ospan,letter,uyaoNSdiL3TXn4oXc9K3xCzk4p83,html-keyboard-response,63,980259,0.0-43.0-0.0-2.0-3.0,,,,,,,,,,,,,,,634e460a7da3fef3d5a9faf3,1:43:37 PM,3/6/2024
6374.0,"<div class = numbox><p style=""font-size: 2.4rem"">Please recall the letters you saw to the best of your ability. If you do not remember a particular letter, use the SKIP button.<br><b>(When you are ready to lock in your answer, press ENTER)</b></p><button id = button_1 class = ""square num-button"" onclick = ""recordClick(this)""><div class = content><div class = numbers>C</div></div></button><button id = button_2 class = ""square num-button"" onclick = ""recordClick(this)""><div class = content><div class = numbers>G</div></div></button><button id = button_3 class = ""square num-button"" onclick = ""recordClick(this)""><div class = content><div class = numbers>H</div></div></button><button id = button_4 class = ""square num-button"" onclick = ""recordClick(this)""><div class = content><div class = numbers>J</div></div></button><button id = button_5 class = ""square num-button"" onclick = ""recordClick(this)""><div class = content><div class = numbers>K</div></div></button><button id = button_6 class = ""square num-button"" onclick = ""recordClick(this)""><div class = content><div class = numbers>L</div></div></button><button id = button_7 class = ""square num-button"" onclick = ""recordClick(this)""><div class = content><div class = numbers>N</div></div></button><button id = button_8 class = ""square num-button"" onclick = ""recordClick(this)""><div class = content><div class = numbers>P</div></div></button><button id = button_9 class = ""square num-button"" onclick = ""recordClick(this)""><div class = content><div class = numbers>Q</div></div></button><button id = button_10 class = ""square num-button"" onclick = ""recordClick(this)""><div class = content><div class = numbers>R</div></div></button><button id = button_11 class = ""square num-button"" onclick = ""recordClick(this)""><div class = content><div class = numbers>S</div></div></button><button id = button_12 class = ""square num-button"" onclick = ""recordClick(this)""><div class = content><div class = numbers>Y</div></div></button><button class = clear_button id = ""ClearButton"" onclick = ""clearResponse()"">BACKSPACE</button><button class = blank_button id = ""BlankButton"" onclick = ""blankResponse()"">SKIP</button><p style=""font-size: 2.4rem""><u><b>Current Answer:</b></u></p><br><br><div id=echoed_txt style=""font-size: 5rem; color:blue;""><b></b></div></div>",enter,ospan,retrieval,uyaoNSdiL3TXn4oXc9K3xCzk4p83,html-keyboard-response,64,987388,0.0-43.0-0.0-2.0-4.0,NA,NA,NA,3.0,"[""P"",""R"",""H""]","[""P"",""R"",""H""]",1.0,3.0,"['<font color=""green"">P</font>', '<font color=""green"">R</font>', '<font color=""green"">H</font>']",,,,,,634e460a7da3fef3d5a9faf3,1:43:37 PM,3/6/2024
2838.0,"['<p style=""font-size:44px"">Letters:<br><br><br><font color=""green"">P</font> <font color=""green"">R</font> <font color=""green"">H</font></p><br><br>']",0,ospan,practice_feedback,uyaoNSdiL3TXn4oXc9K3xCzk4p83,html-button-response,65,990734,0.0-43.0-0.0-2.0-5.0,,,,,,,,,,,,,,,634e460a7da3fef3d5a9faf3,1:43:37 PM,3/6/2024
108759.0,"<div class = 'left_align' style='font-size: 3.25rem; line-height: 1.3;'>Now you will practice doing the <b>symmetry judgment part</b> of the experiment.<br><br>A black and white grid picture will appear on the screen and you have to judge if it is <br>symmetrical or asymetrical.<br><br>A picture is 'mirror' symmetrical if its left half is identical to the right half when flipped.<br>Here are examples of a symmetrical and an asymetrical picture:<br><br><center><img src='Stimuli/img/symm_instructions_extra.png' style='height:420px; width:900'></img></center><br>To judge symmetry, imagine you were to fold each picture down the middle, like a book –<br>would the left half match the right half when folded onto each other?<br><br></div><br>",0,ospan,instruct,uyaoNSdiL3TXn4oXc9K3xCzk4p83,html-button-response,66,1099500,0.0-43.0-1.0-0.0-0.0,,,,,,,,,,,,,,,634e460a7da3fef3d5a9faf3,1:43:37 PM,3/6/2024
65620.0,"<div class = 'left_align' style='font-size: 3.25rem; line-height: 1.3;'>When you have viewed the picture and determined whether it is symmetrical or not,<br>you can <b>click the Yes or No button</b> below to answer.<br><br>If you take longer than 15 seconds, it will continue automatically<br>and record the answer as an error.</div><br>",0,ospan,instruct,uyaoNSdiL3TXn4oXc9K3xCzk4p83,html-button-response,67,1165388,0.0-43.0-1.0-0.0-1.0,,,,,,,,,,,,,,,634e460a7da3fef3d5a9faf3,1:43:37 PM,3/6/2024
201028.0,"<div class = 'left_align' style='font-size: 3.25rem; line-height: 1.3;'>It is <b>very</b> important that you make the symmetry judgment correctly.<br><br>It is also important that you try and judge the picture as quickly as you can.<br><br>When you are ready, click on the button below to try some practice problems.</div><br><br><br><br>",0,ospan,instruct,uyaoNSdiL3TXn4oXc9K3xCzk4p83,html-button-response,68,1366673,0.0-43.0-1.0-0.0-2.0,,,,,,,,,,,,,,,634e460a7da3fef3d5a9faf3,1:43:37 PM,3/6/2024
7900.0,,,ospan,symmetry,uyaoNSdiL3TXn4oXc9K3xCzk4p83,symmetry-judgement-task,69,1375605,0.0-43.0-1.0-1.0-0.0,,,,,,,,,,1.0,1.0,,,,634e460a7da3fef3d5a9faf3,1:43:37 PM,3/6/2024
,"<p style=""color:green; font-size: 35px"">Correct</p>",,ospan,feedback,uyaoNSdiL3TXn4oXc9K3xCzk4p83,html-keyboard-response,70,1376376,0.0-43.0-1.0-1.0-1.0,,,,,,,,,,,,,,,634e460a7da3fef3d5a9faf3,1:43:37 PM,3/6/2024
2646.0,,,ospan,symmetry,uyaoNSdiL3TXn4oXc9K3xCzk4p83,symmetry-judgement-task,71,1381691,0.0-43.0-1.0-1.0-2.0,,,,,,,,,,1.0,1.0,,,,634e460a7da3fef3d5a9faf3,1:43:37 PM,3/6/2024
,"<p style=""color:green; font-size: 35px"">Correct</p>",,ospan,feedback,uyaoNSdiL3TXn4oXc9K3xCzk4p83,html-keyboard-response,72,1382450,0.0-43.0-1.0-1.0-3.0,,,,,,,,,,,,,,,634e460a7da3fef3d5a9faf3,1:43:37 PM,3/6/2024
2943.0,,,ospan,symmetry,uyaoNSdiL3TXn4oXc9K3xCzk4p83,symmetry-judgement-task,73,1388068,0.0-43.0-1.0-1.0-4.0,,,,,,,,,,1.0,1.0,,,,634e460a7da3fef3d5a9faf3,1:43:37 PM,3/6/2024
,"<p style=""color:green; font-size: 35px"">Correct</p>",,ospan,feedback,uyaoNSdiL3TXn4oXc9K3xCzk4p83,html-keyboard-response,74,1388831,0.0-43.0-1.0-1.0-5.0,,,,,,,,,,,,,,,634e460a7da3fef3d5a9faf3,1:43:37 PM,3/6/2024
2385.0,"<p style=""font-size: 3rem;"">You responded correctly on 3 of 3 symmetry judgments. Good job!</p><br><br>",0,ospan,practice,uyaoNSdiL3TXn4oXc9K3xCzk4p83,html-button-response,75,1393232,0.0-43.0-1.0-2.0,,,,,,,,,,,,,,,634e460a7da3fef3d5a9faf3,1:43:37 PM,3/6/2024
8571.0,"<div class = 'left_align' style='font-size: 3.25rem; line-height: 1.3;'>Now you will practice doing both parts of the experiment at the same time.<br><br>In the next practice set, you will be given one grid picture to judge.<br>Then letter will appear on the screen. Try to remember the letter.<br><br>It is <b>very important</b> to make the symmetry judgment as quickly and accurately as possible.<br><br>Just as before, once you have make the symmetry judgment, you can click Yes or No.<br><b>Note that you will no longer see Correct or Incorrect feedback.</div><br><br><br><br>",0,ospan,instruct,uyaoNSdiL3TXn4oXc9K3xCzk4p83,html-button-response,76,1402062,0.0-43.0-2.0-0.0-0.0,,,,,,,,,,,,,,,634e460a7da3fef3d5a9faf3,1:43:37 PM,3/6/2024
6864.0,"<div class = 'left_align' style='font-size: 3.25rem; line-height: 1.3;'>After the letter goes away, another grid picture will appear, and then<br>another letter.<br><br>At the end of each set of letters and grids, you will recall the letters to the best<br>of your ability. Remember, try your best to get the letters in the correct order.<br><br>It is important to <b>quickly</b> and <b>accurately</b> make the symmetry judgments.</div><br><br><br><br>",0,ospan,instruct,uyaoNSdiL3TXn4oXc9K3xCzk4p83,html-button-response,77,1409191,0.0-43.0-2.0-0.0-1.0,,,,,,,,,,,,,,,634e460a7da3fef3d5a9faf3,1:43:37 PM,3/6/2024
14838.0,"<div class = 'left_align' style='font-size: 3.25rem; line-height: 1.3;'>On the feedback screen, if you are not doing well at the symmetry judgments,<br>you will also see a warning in the middle. This indicates your percent <br>correct for the grid pictures for the entire experiment.<br><br>It is <b>very</b> important for you to keep accuracy at least at 85%: <u>We can only use<br>data where the participant was at least 85% accurate on the judgments.</u> Therefore,<br> please try your best to perform well on the symmetry judgments, <b>at the same time</b><br>doing your best to recall as many letters as possible.<br><br>Click the button to try some practice problems.</div><br><br><br><br>",0,ospan,instruct,uyaoNSdiL3TXn4oXc9K3xCzk4p83,html-button-response,78,1424304,0.0-43.0-2.0-0.0-2.0,,,,,,,,,,,,,,,634e460a7da3fef3d5a9faf3,1:43:37 PM,3/6/2024
,"<p style=""font-size:75px;"">...</p>",,ospan,iti,uyaoNSdiL3TXn4oXc9K3xCzk4p83,html-keyboard-response,79,1425566,0.0-43.0-2.0-1.0-0.0,,,,,,,,,,,,,,,634e460a7da3fef3d5a9faf3,1:43:37 PM,3/6/2024
2609.0,,,ospan,symmetry,uyaoNSdiL3TXn4oXc9K3xCzk4p83,symmetry-judgement-task,80,1429367,0.0-43.0-2.0-1.0-1.0-0.0,,,,,,,,,,1.0,1.0,,,,634e460a7da3fef3d5a9faf3,1:43:37 PM,3/6/2024
,"<div style=""font-size: 10rem; color: #0000FF"">R</div>",,ospan,letter,uyaoNSdiL3TXn4oXc9K3xCzk4p83,html-keyboard-response,81,1430384,0.0-43.0-2.0-1.0-1.0-1.0,,,,,,,,,,,,,,,634e460a7da3fef3d5a9faf3,1:43:37 PM,3/6/2024
3693.0,,,ospan,symmetry,uyaoNSdiL3TXn4oXc9K3xCzk4p83,symmetry-judgement-task,82,1436030,0.0-43.0-2.0-1.0-1.0-2.0,,,,,,,,,,1.0,1.0,,,,634e460a7da3fef3d5a9faf3,1:43:37 PM,3/6/2024
,"<div style=""font-size: 10rem; color: #0000FF"">N</div>",,ospan,letter,uyaoNSdiL3TXn4oXc9K3xCzk4p83,html-keyboard-response,83,1437056,0.0-43.0-2.0-1.0-1.0-3.0,,,,,,,,,,,,,,,634e460a7da3fef3d5a9faf3,1:43:37 PM,3/6/2024
3299.0,,,ospan,symmetry,uyaoNSdiL3TXn4oXc9K3xCzk4p83,symmetry-judgement-task,84,1442286,0.0-43.0-2.0-1.0-1.0-4.0,,,,,,,,,,1.0,1.0,,,,634e460a7da3fef3d5a9faf3,1:43:37 PM,3/6/2024
,"<div style=""font-size: 10rem; color: #0000FF"">S</div>",,ospan,letter,uyaoNSdiL3TXn4oXc9K3xCzk4p83,html-keyboard-response,85,1443304,0.0-43.0-2.0-1.0-1.0-5.0,,,,,,,,,,,,,,,634e460a7da3fef3d5a9faf3,1:43:37 PM,3/6/2024
4318.0,"<div class = numbox><p style=""font-size: 2.4rem"">Please recall the letters you saw to the best of your ability. If you do not remember a particular letter, use the SKIP button.<br><b>(When you are ready to lock in your answer, press ENTER)</b></p><button id = button_1 class = ""square num-button"" onclick = ""recordClick(this)""><div class = content><div class = numbers>C</div></div></button><button id = button_2 class = ""square num-button"" onclick = ""recordClick(this)""><div class = content><div class = numbers>G</div></div></button><button id = button_3 class = ""square num-button"" onclick = ""recordClick(this)""><div class = content><div class = numbers>H</div></div></button><button id = button_4 class = ""square num-button"" onclick = ""recordClick(this)""><div class = content><div class = numbers>J</div></div></button><button id = button_5 class = ""square num-button"" onclick = ""recordClick(this)""><div class = content><div class = numbers>K</div></div></button><button id = button_6 class = ""square num-button"" onclick = ""recordClick(this)""><div class = content><div class = numbers>L</div></div></button><button id = button_7 class = ""square num-button"" onclick = ""recordClick(this)""><div class = content><div class = numbers>N</div></div></button><button id = button_8 class = ""square num-button"" onclick = ""recordClick(this)""><div class = content><div class = numbers>P</div></div></button><button id = button_9 class = ""square num-button"" onclick = ""recordClick(this)""><div class = content><div class = numbers>Q</div></div></button><button id = button_10 class = ""square num-button"" onclick = ""recordClick(this)""><div class = content><div class = numbers>R</div></div></button><button id = button_11 class = ""square num-button"" onclick = ""recordClick(this)""><div class = content><div class = numbers>S</div></div></button><button id = button_12 class = ""square num-button"" onclick = ""recordClick(this)""><div class = content><div class = numbers>Y</div></div></button><button class = clear_button id = ""ClearButton"" onclick = ""clearResponse()"">BACKSPACE</button><button class = blank_button id = ""BlankButton"" onclick = ""blankResponse()"">SKIP</button><p style=""font-size: 2.4rem""><u><b>Current Answer:</b></u></p><br><br><div id=echoed_txt style=""font-size: 5rem; color:blue;""><b></b></div></div>",enter,ospan,retrieval,uyaoNSdiL3TXn4oXc9K3xCzk4p83,html-keyboard-response,86,1448383,0.0-43.0-2.0-1.0-2.0-0.0,NA,NA,NA,3.0,"[""R"",""N"",""S""]","[""R"",""N"",""S""]",1.0,3.0,"['<font color=""green"">R</font>', '<font color=""green"">N</font>', '<font color=""green"">S</font>']",,,,,,634e460a7da3fef3d5a9faf3,1:43:37 PM,3/6/2024
4727.0,"['<p style=""font-size:44px"">Letters:<br><br><br><font color=""green"">R</font> <font color=""green"">N</font> <font color=""green"">S</font></p><br><br><p style=""font-size:30px"">Symmetry:<br><br><font color=""green"">100%</font></p><br><br>']",0,ospan,practice_feedback,uyaoNSdiL3TXn4oXc9K3xCzk4p83,html-button-response,87,1453626,0.0-43.0-2.0-1.0-2.0-1.0,,,,,,,,,,,,,,,634e460a7da3fef3d5a9faf3,1:43:37 PM,3/6/2024
,"<p style=""font-size:75px;"">...</p>",,ospan,iti,uyaoNSdiL3TXn4oXc9K3xCzk4p83,html-keyboard-response,88,1454659,0.0-43.0-2.0-2.0-0.0,,,,,,,,,,,,,,,634e460a7da3fef3d5a9faf3,1:43:37 PM,3/6/2024
3845.0,,,ospan,symmetry,uyaoNSdiL3TXn4oXc9K3xCzk4p83,symmetry-judgement-task,89,1459660,0.0-43.0-2.0-2.0-1.0-0.0,,,,,,,,,,1.0,1.0,,,,634e460a7da3fef3d5a9faf3,1:43:37 PM,3/6/2024
,"<div style=""font-size: 10rem; color: #0000FF"">K</div>",,ospan,letter,uyaoNSdiL3TXn4oXc9K3xCzk4p83,html-keyboard-response,90,1460669,0.0-43.0-2.0-2.0-1.0-1.0,,,,,,,,,,,,,,,634e460a7da3fef3d5a9faf3,1:43:37 PM,3/6/2024
3881.0,,,ospan,symmetry,uyaoNSdiL3TXn4oXc9K3xCzk4p83,symmetry-judgement-task,91,1466470,0.0-43.0-2.0-2.0-1.0-2.0,,,,,,,,,,1.0,1.0,,,,634e460a7da3fef3d5a9faf3,1:43:37 PM,3/6/2024
,"<div style=""font-size: 10rem; color: #0000FF"">R</div>",,ospan,letter,uyaoNSdiL3TXn4oXc9K3xCzk4p83,html-keyboard-response,92,1467490,0.0-43.0-2.0-2.0-1.0-3.0,,,,,,,,,,,,,,,634e460a7da3fef3d5a9faf3,1:43:37 PM,3/6/2024
3280.0,,,ospan,symmetry,uyaoNSdiL3TXn4oXc9K3xCzk4p83,symmetry-judgement-task,93,1472713,0.0-43.0-2.0-2.0-1.0-4.0,,,,,,,,,,1.0,1.0,,,,634e460a7da3fef3d5a9faf3,1:43:37 PM,3/6/2024
,"<div style=""font-size: 10rem; color: #0000FF"">N</div>",,ospan,letter,uyaoNSdiL3TXn4oXc9K3xCzk4p83,html-keyboard-response,94,1473722,0.0-43.0-2.0-2.0-1.0-5.0,,,,,,,,,,,,,,,634e460a7da3fef3d5a9faf3,1:43:37 PM,3/6/2024
4524.0,"<div class = numbox><p style=""font-size: 2.4rem"">Please recall the letters you saw to the best of your ability. If you do not remember a particular letter, use the SKIP button.<br><b>(When you are ready to lock in your answer, press ENTER)</b></p><button id = button_1 class = ""square num-button"" onclick = ""recordClick(this)""><div class = content><div class = numbers>C</div></div></button><button id = button_2 class = ""square num-button"" onclick = ""recordClick(this)""><div class = content><div class = numbers>G</div></div></button><button id = button_3 class = ""square num-button"" onclick = ""recordClick(this)""><div class = content><div class = numbers>H</div></div></button><button id = button_4 class = ""square num-button"" onclick = ""recordClick(this)""><div class = content><div class = numbers>J</div></div></button><button id = button_5 class = ""square num-button"" onclick = ""recordClick(this)""><div class = content><div class = numbers>K</div></div></button><button id = button_6 class = ""square num-button"" onclick = ""recordClick(this)""><div class = content><div class = numbers>L</div></div></button><button id = button_7 class = ""square num-button"" onclick = ""recordClick(this)""><div class = content><div class = numbers>N</div></div></button><button id = button_8 class = ""square num-button"" onclick = ""recordClick(this)""><div class = content><div class = numbers>P</div></div></button><button id = button_9 class = ""square num-button"" onclick = ""recordClick(this)""><div class = content><div class = numbers>Q</div></div></button><button id = button_10 class = ""square num-button"" onclick = ""recordClick(this)""><div class = content><div class = numbers>R</div></div></button><button id = button_11 class = ""square num-button"" onclick = ""recordClick(this)""><div class = content><div class = numbers>S</div></div></button><button id = button_12 class = ""square num-button"" onclick = ""recordClick(this)""><div class = content><div class = numbers>Y</div></div></button><button class = clear_button id = ""ClearButton"" onclick = ""clearResponse()"">BACKSPACE</button><button class = blank_button id = ""BlankButton"" onclick = ""blankResponse()"">SKIP</button><p style=""font-size: 2.4rem""><u><b>Current Answer:</b></u></p><br><br><div id=echoed_txt style=""font-size: 5rem; color:blue;""><b></b></div></div>",enter,ospan,retrieval,uyaoNSdiL3TXn4oXc9K3xCzk4p83,html-keyboard-response,95,1479020,0.0-43.0-2.0-2.0-2.0-0.0,NA,NA,NA,3.0,"[""K"",""R"",""N""]","[""K"",""R"",""N""]",1.0,3.0,"['<font color=""green"">K</font>', '<font color=""green"">R</font>', '<font color=""green"">N</font>']",,,,,,634e460a7da3fef3d5a9faf3,1:43:37 PM,3/6/2024
1748.0,"['<p style=""font-size:44px"">Letters:<br><br><br><font color=""green"">K</font> <font color=""green"">R</font> <font color=""green"">N</font></p><br><br><p style=""font-size:30px"">Symmetry:<br><br><font color=""green"">100%</font></p><br><br>']",0,ospan,practice_feedback,uyaoNSdiL3TXn4oXc9K3xCzk4p83,html-button-response,96,1481279,0.0-43.0-2.0-2.0-2.0-1.0,,,,,,,,,,,,,,,634e460a7da3fef3d5a9faf3,1:43:37 PM,3/6/2024
6892.0,"<div class = 'left_align' style='font-size: 3rem; line-height: 1.3;'><b>Great work! That is the end of practice.</b><br><br>The real trials will look just like the practice trials you just completed.<br><br><u>Here, you will not see feedback</u>. First, you will see an grid picture to judge,<br>then a letter to remember. When the recall screen appears, report the letters in the<br>order presented. If you forget a letter, remember to use the <b>blank</b> button to move to the<br>next letter. Some of the sets will have more symmetry grids and letters than others.<br><br>It is important that you do your best on both the symmetry judgments and the letter recall<br>parts of the experiment. For for the symmetry judgments, try to work as <b>quickly</b> and <br>as <b>accurately</b> as possible. Remember to keep your symmetry accuracy at 85% or above.<br><br><b>For the letters, do NOT use any external aid (e.g., writing on paper, electronic device).</b><br><br>It is <u>very important</u> to our experiment to have a <b>true</b> view of your real performance.<br><br>Do not worry if you miss some when it gets hard! This task is meant to be very challenging!<br><br>Click the button to begin.</div><br><br><br><br>",0,ospan,starting_real_here,uyaoNSdiL3TXn4oXc9K3xCzk4p83,html-button-response,97,1488187,0.0-43.0-2.0-3.0,,,,,,,,,,,,,,,634e460a7da3fef3d5a9faf3,1:43:37 PM,3/6/2024
,"<p style=""font-size:75px;"">...</p>",,ospan,iti,uyaoNSdiL3TXn4oXc9K3xCzk4p83,html-keyboard-response,98,1489460,0.0-43.0-3.0-0.0-0.0,,,,,,,,,,,,,,,634e460a7da3fef3d5a9faf3,1:43:37 PM,3/6/2024
3157.0,,,ospan,symmetry,uyaoNSdiL3TXn4oXc9K3xCzk4p83,symmetry-judgement-task,99,1493804,0.0-43.0-3.0-0.0-1.0-0.0,,,,,,,,,,1.0,1.0,,,,634e460a7da3fef3d5a9faf3,1:43:37 PM,3/6/2024
,"<div style=""font-size: 10rem; color: #0000FF"">J</div>",,ospan,letter,uyaoNSdiL3TXn4oXc9K3xCzk4p83,html-keyboard-response,100,1494829,0.0-43.0-3.0-0.0-1.0-1.0,,,,,,,,,,,,,,,634e460a7da3fef3d5a9faf3,1:43:37 PM,3/6/2024
3273.0,,,ospan,symmetry,uyaoNSdiL3TXn4oXc9K3xCzk4p83,symmetry-judgement-task,101,1500054,0.0-43.0-3.0-0.0-1.0-2.0,,,,,,,,,,1.0,1.0,,,,634e460a7da3fef3d5a9faf3,1:43:37 PM,3/6/2024
,"<div style=""font-size: 10rem; color: #0000FF"">K</div>",,ospan,letter,uyaoNSdiL3TXn4oXc9K3xCzk4p83,html-keyboard-response,102,1501076,0.0-43.0-3.0-0.0-1.0-3.0,,,,,,,,,,,,,,,634e460a7da3fef3d5a9faf3,1:43:37 PM,3/6/2024
2012.0,,,ospan,symmetry,uyaoNSdiL3TXn4oXc9K3xCzk4p83,symmetry-judgement-task,103,1505001,0.0-43.0-3.0-0.0-1.0-4.0,,,,,,,,,,1.0,1.0,,,,634e460a7da3fef3d5a9faf3,1:43:37 PM,3/6/2024
,"<div style=""font-size: 10rem; color: #0000FF"">N</div>",,ospan,letter,uyaoNSdiL3TXn4oXc9K3xCzk4p83,html-keyboard-response,104,1506082,0.0-43.0-3.0-0.0-1.0-5.0,,,,,,,,,,,,,,,634e460a7da3fef3d5a9faf3,1:43:37 PM,3/6/2024
6706.0,"<div class = numbox><p style=""font-size: 2.4rem"">Please recall the letters you saw to the best of your ability. If you do not remember a particular letter, use the SKIP button.<br><b>(When you are ready to lock in your answer, press ENTER)</b></p><button id = button_1 class = ""square num-button"" onclick = ""recordClick(this)""><div class = content><div class = numbers>C</div></div></button><button id = button_2 class = ""square num-button"" onclick = ""recordClick(this)""><div class = content><div class = numbers>G</div></div></button><button id = button_3 class = ""square num-button"" onclick = ""recordClick(this)""><div class = content><div class = numbers>H</div></div></button><button id = button_4 class = ""square num-button"" onclick = ""recordClick(this)""><div class = content><div class = numbers>J</div></div></button><button id = button_5 class = ""square num-button"" onclick = ""recordClick(this)""><div class = content><div class = numbers>K</div></div></button><button id = button_6 class = ""square num-button"" onclick = ""recordClick(this)""><div class = content><div class = numbers>L</div></div></button><button id = button_7 class = ""square num-button"" onclick = ""recordClick(this)""><div class = content><div class = numbers>N</div></div></button><button id = button_8 class = ""square num-button"" onclick = ""recordClick(this)""><div class = content><div class = numbers>P</div></div></button><button id = button_9 class = ""square num-button"" onclick = ""recordClick(this)""><div class = content><div class = numbers>Q</div></div></button><button id = button_10 class = ""square num-button"" onclick = ""recordClick(this)""><div class = content><div class = numbers>R</div></div></button><button id = button_11 class = ""square num-button"" onclick = ""recordClick(this)""><div class = content><div class = numbers>S</div></div></button><button id = button_12 class = ""square num-button"" onclick = ""recordClick(this)""><div class = content><div class = numbers>Y</div></div></button><button class = clear_button id = ""ClearButton"" onclick = ""clearResponse()"">BACKSPACE</button><button class = blank_button id = ""BlankButton"" onclick = ""blankResponse()"">SKIP</button><p style=""font-size: 2.4rem""><u><b>Current Answer:</b></u></p><br><br><div id=echoed_txt style=""font-size: 5rem; color:blue;""><b></b></div></div>",enter,ospan,retrieval,uyaoNSdiL3TXn4oXc9K3xCzk4p83,html-keyboard-response,105,1513553,0.0-43.0-3.0-0.0-2.0,3,3,3,3.0,"[""J"",""K"",""N""]","[""J"",""K"",""N""]",1.0,3.0,,,,,,,634e460a7da3fef3d5a9faf3,1:43:37 PM,3/6/2024
1092.0,[''],0,ospan,feedback,uyaoNSdiL3TXn4oXc9K3xCzk4p83,html-button-response,106,1515165,0.0-43.0-3.0-0.0-3.0,,,,,,,,,,,,100.0,0.0,,634e460a7da3fef3d5a9faf3,1:43:37 PM,3/6/2024
,"<p style=""font-size:75px;"">...</p>",,ospan,iti,uyaoNSdiL3TXn4oXc9K3xCzk4p83,html-keyboard-response,107,1516173,0.0-43.0-4.0-0.0-0.0,,,,,,,,,,,,,,,634e460a7da3fef3d5a9faf3,1:43:37 PM,3/6/2024
3701.0,,,ospan,symmetry,uyaoNSdiL3TXn4oXc9K3xCzk4p83,symmetry-judgement-task,108,1521024,0.0-43.0-4.0-0.0-1.0-0.0,,,,,,,,,,1.0,1.0,,,,634e460a7da3fef3d5a9faf3,1:43:37 PM,3/6/2024
,"<div style=""font-size: 10rem; color: #0000FF"">Q</div>",,ospan,letter,uyaoNSdiL3TXn4oXc9K3xCzk4p83,html-keyboard-response,109,1522040,0.0-43.0-4.0-0.0-1.0-1.0,,,,,,,,,,,,,,,634e460a7da3fef3d5a9faf3,1:43:37 PM,3/6/2024
2619.0,,,ospan,symmetry,uyaoNSdiL3TXn4oXc9K3xCzk4p83,symmetry-judgement-task,110,1526550,0.0-43.0-4.0-0.0-1.0-2.0,,,,,,,,,,1.0,1.0,,,,634e460a7da3fef3d5a9faf3,1:43:37 PM,3/6/2024
,"<div style=""font-size: 10rem; color: #0000FF"">P</div>",,ospan,letter,uyaoNSdiL3TXn4oXc9K3xCzk4p83,html-keyboard-response,111,1527578,0.0-43.0-4.0-0.0-1.0-3.0,,,,,,,,,,,,,,,634e460a7da3fef3d5a9faf3,1:43:37 PM,3/6/2024
1967.0,,,ospan,symmetry,uyaoNSdiL3TXn4oXc9K3xCzk4p83,symmetry-judgement-task,112,1531560,0.0-43.0-4.0-0.0-1.0-4.0,,,,,,,,,,1.0,1.0,,,,634e460a7da3fef3d5a9faf3,1:43:37 PM,3/6/2024
,"<div style=""font-size: 10rem; color: #0000FF"">L</div>",,ospan,letter,uyaoNSdiL3TXn4oXc9K3xCzk4p83,html-keyboard-response,113,1532579,0.0-43.0-4.0-0.0-1.0-5.0,,,,,,,,,,,,,,,634e460a7da3fef3d5a9faf3,1:43:37 PM,3/6/2024
4317.0,,,ospan,symmetry,uyaoNSdiL3TXn4oXc9K3xCzk4p83,symmetry-judgement-task,114,1538953,0.0-43.0-4.0-0.0-1.0-6.0,,,,,,,,,,1.0,1.0,,,,634e460a7da3fef3d5a9faf3,1:43:37 PM,3/6/2024
,"<div style=""font-size: 10rem; color: #0000FF"">J</div>",,ospan,letter,uyaoNSdiL3TXn4oXc9K3xCzk4p83,html-keyboard-response,115,1539969,0.0-43.0-4.0-0.0-1.0-7.0,,,,,,,,,,,,,,,634e460a7da3fef3d5a9faf3,1:43:37 PM,3/6/2024
7369.0,"<div class = numbox><p style=""font-size: 2.4rem"">Please recall the letters you saw to the best of your ability. If you do not remember a particular letter, use the SKIP button.<br><b>(When you are ready to lock in your answer, press ENTER)</b></p><button id = button_1 class = ""square num-button"" onclick = ""recordClick(this)""><div class = content><div class = numbers>C</div></div></button><button id = button_2 class = ""square num-button"" onclick = ""recordClick(this)""><div class = content><div class = numbers>G</div></div></button><button id = button_3 class = ""square num-button"" onclick = ""recordClick(this)""><div class = content><div class = numbers>H</div></div></button><button id = button_4 class = ""square num-button"" onclick = ""recordClick(this)""><div class = content><div class = numbers>J</div></div></button><button id = button_5 class = ""square num-button"" onclick = ""recordClick(this)""><div class = content><div class = numbers>K</div></div></button><button id = button_6 class = ""square num-button"" onclick = ""recordClick(this)""><div class = content><div class = numbers>L</div></div></button><button id = button_7 class = ""square num-button"" onclick = ""recordClick(this)""><div class = content><div class = numbers>N</div></div></button><button id = button_8 class = ""square num-button"" onclick = ""recordClick(this)""><div class = content><div class = numbers>P</div></div></button><button id = button_9 class = ""square num-button"" onclick = ""recordClick(this)""><div class = content><div class = numbers>Q</div></div></button><button id = button_10 class = ""square num-button"" onclick = ""recordClick(this)""><div class = content><div class = numbers>R</div></div></button><button id = button_11 class = ""square num-button"" onclick = ""recordClick(this)""><div class = content><div class = numbers>S</div></div></button><button id = button_12 class = ""square num-button"" onclick = ""recordClick(this)""><div class = content><div class = numbers>Y</div></div></button><button class = clear_button id = ""ClearButton"" onclick = ""clearResponse()"">BACKSPACE</button><button class = blank_button id = ""BlankButton"" onclick = ""blankResponse()"">SKIP</button><p style=""font-size: 2.4rem""><u><b>Current Answer:</b></u></p><br><br><div id=echoed_txt style=""font-size: 5rem; color:blue;""><b></b></div></div>",enter,ospan,retrieval,uyaoNSdiL3TXn4oXc9K3xCzk4p83,html-keyboard-response,116,1548100,0.0-43.0-4.0-0.0-2.0,7,7,7,4.0,"[""Q"",""P"",""L"",""J""]","[""Q"",""P"",""L"",""J""]",1.0,4.0,,,,,,,634e460a7da3fef3d5a9faf3,1:43:37 PM,3/6/2024
3666.0,[''],0,ospan,feedback,uyaoNSdiL3TXn4oXc9K3xCzk4p83,html-button-response,117,1552281,0.0-43.0-4.0-0.0-3.0,,,,,,,,,,,,100.0,0.0,,634e460a7da3fef3d5a9faf3,1:43:37 PM,3/6/2024
,"<p style=""font-size:75px;"">...</p>",,ospan,iti,uyaoNSdiL3TXn4oXc9K3xCzk4p83,html-keyboard-response,118,1553303,0.0-43.0-4.0-1.0-0.0,,,,,,,,,,,,,,,634e460a7da3fef3d5a9faf3,1:43:37 PM,3/6/2024
3335.0,,,ospan,symmetry,uyaoNSdiL3TXn4oXc9K3xCzk4p83,symmetry-judgement-task,119,1557790,0.0-43.0-4.0-1.0-1.0-0.0,,,,,,,,,,1.0,1.0,,,,634e460a7da3fef3d5a9faf3,1:43:37 PM,3/6/2024
,"<div style=""font-size: 10rem; color: #0000FF"">J</div>",,ospan,letter,uyaoNSdiL3TXn4oXc9K3xCzk4p83,html-keyboard-response,120,1558817,0.0-43.0-4.0-1.0-1.0-1.0,,,,,,,,,,,,,,,634e460a7da3fef3d5a9faf3,1:43:37 PM,3/6/2024
3368.0,,,ospan,symmetry,uyaoNSdiL3TXn4oXc9K3xCzk4p83,symmetry-judgement-task,121,1564159,0.0-43.0-4.0-1.0-1.0-2.0,,,,,,,,,,1.0,1.0,,,,634e460a7da3fef3d5a9faf3,1:43:37 PM,3/6/2024
,"<div style=""font-size: 10rem; color: #0000FF"">N</div>",,ospan,letter,uyaoNSdiL3TXn4oXc9K3xCzk4p83,html-keyboard-response,122,1565171,0.0-43.0-4.0-1.0-1.0-3.0,,,,,,,,,,,,,,,634e460a7da3fef3d5a9faf3,1:43:37 PM,3/6/2024
3436.0,,,ospan,symmetry,uyaoNSdiL3TXn4oXc9K3xCzk4p83,symmetry-judgement-task,123,1570519,0.0-43.0-4.0-1.0-1.0-4.0,,,,,,,,,,1.0,1.0,,,,634e460a7da3fef3d5a9faf3,1:43:37 PM,3/6/2024
,"<div style=""font-size: 10rem; color: #0000FF"">H</div>",,ospan,letter,uyaoNSdiL3TXn4oXc9K3xCzk4p83,html-keyboard-response,124,1571534,0.0-43.0-4.0-1.0-1.0-5.0,,,,,,,,,,,,,,,634e460a7da3fef3d5a9faf3,1:43:37 PM,3/6/2024
3324.0,,,ospan,symmetry,uyaoNSdiL3TXn4oXc9K3xCzk4p83,symmetry-judgement-task,125,1576821,0.0-43.0-4.0-1.0-1.0-6.0,,,,,,,,,,1.0,1.0,,,,634e460a7da3fef3d5a9faf3,1:43:37 PM,3/6/2024
,"<div style=""font-size: 10rem; color: #0000FF"">Y</div>",,ospan,letter,uyaoNSdiL3TXn4oXc9K3xCzk4p83,html-keyboard-response,126,1577875,0.0-43.0-4.0-1.0-1.0-7.0,,,,,,,,,,,,,,,634e460a7da3fef3d5a9faf3,1:43:37 PM,3/6/2024
5653.0,,,ospan,symmetry,uyaoNSdiL3TXn4oXc9K3xCzk4p83,symmetry-judgement-task,127,1585476,0.0-43.0-4.0-1.0-1.0-8.0,,,,,,,,,,1.0,1.0,,,,634e460a7da3fef3d5a9faf3,1:43:37 PM,3/6/2024
,"<div style=""font-size: 10rem; color: #0000FF"">G</div>",,ospan,letter,uyaoNSdiL3TXn4oXc9K3xCzk4p83,html-keyboard-response,128,1586490,0.0-43.0-4.0-1.0-1.0-9.0,,,,,,,,,,,,,,,634e460a7da3fef3d5a9faf3,1:43:37 PM,3/6/2024
12514.0,"<div class = numbox><p style=""font-size: 2.4rem"">Please recall the letters you saw to the best of your ability. If you do not remember a particular letter, use the SKIP button.<br><b>(When you are ready to lock in your answer, press ENTER)</b></p><button id = button_1 class = ""square num-button"" onclick = ""recordClick(this)""><div class = content><div class = numbers>C</div></div></button><button id = button_2 class = ""square num-button"" onclick = ""recordClick(this)""><div class = content><div class = numbers>G</div></div></button><button id = button_3 class = ""square num-button"" onclick = ""recordClick(this)""><div class = content><div class = numbers>H</div></div></button><button id = button_4 class = ""square num-button"" onclick = ""recordClick(this)""><div class = content><div class = numbers>J</div></div></button><button id = button_5 class = ""square num-button"" onclick = ""recordClick(this)""><div class = content><div class = numbers>K</div></div></button><button id = button_6 class = ""square num-button"" onclick = ""recordClick(this)""><div class = content><div class = numbers>L</div></div></button><button id = button_7 class = ""square num-button"" onclick = ""recordClick(this)""><div class = content><div class = numbers>N</div></div></button><button id = button_8 class = ""square num-button"" onclick = ""recordClick(this)""><div class = content><div class = numbers>P</div></div></button><button id = button_9 class = ""square num-button"" onclick = ""recordClick(this)""><div class = content><div class = numbers>Q</div></div></button><button id = button_10 class = ""square num-button"" onclick = ""recordClick(this)""><div class = content><div class = numbers>R</div></div></button><button id = button_11 class = ""square num-button"" onclick = ""recordClick(this)""><div class = content><div class = numbers>S</div></div></button><button id = button_12 class = ""square num-button"" onclick = ""recordClick(this)""><div class = content><div class = numbers>Y</div></div></button><button class = clear_button id = ""ClearButton"" onclick = ""clearResponse()"">BACKSPACE</button><button class = blank_button id = ""BlankButton"" onclick = ""blankResponse()"">SKIP</button><p style=""font-size: 2.4rem""><u><b>Current Answer:</b></u></p><br><br><div id=echoed_txt style=""font-size: 5rem; color:blue;""><b></b></div></div>",enter,ospan,retrieval,uyaoNSdiL3TXn4oXc9K3xCzk4p83,html-keyboard-response,129,1599773,0.0-43.0-4.0-1.0-2.0,12,10,7,5.0,"[""J"",""N"",""H"",""G""]","[""J"",""N"",""H"",""Y"",""G""]",0.0,3.0,,,,,,,634e460a7da3fef3d5a9faf3,1:43:37 PM,3/6/2024
3664.0,[''],0,ospan,feedback,uyaoNSdiL3TXn4oXc9K3xCzk4p83,html-button-response,130,1603951,0.0-43.0-4.0-1.0-3.0,,,,,,,,,,,,100.0,0.0,,634e460a7da3fef3d5a9faf3,1:43:37 PM,3/6/2024
,"<p style=""font-size:75px;"">...</p>",,ospan,iti,uyaoNSdiL3TXn4oXc9K3xCzk4p83,html-keyboard-response,131,1604962,0.0-43.0-4.0-2.0-0.0,,,,,,,,,,,,,,,634e460a7da3fef3d5a9faf3,1:43:37 PM,3/6/2024
5821.0,,,ospan,symmetry,uyaoNSdiL3TXn4oXc9K3xCzk4p83,symmetry-judgement-task,132,1611957,0.0-43.0-4.0-2.0-1.0-0.0,,,,,,,,,,1.0,1.0,,,,634e460a7da3fef3d5a9faf3,1:43:37 PM,3/6/2024
,"<div style=""font-size: 10rem; color: #0000FF"">Q</div>",,ospan,letter,uyaoNSdiL3TXn4oXc9K3xCzk4p83,html-keyboard-response,133,1612976,0.0-43.0-4.0-2.0-1.0-1.0,,,,,,,,,,,,,,,634e460a7da3fef3d5a9faf3,1:43:37 PM,3/6/2024
4815.0,,,ospan,symmetry,uyaoNSdiL3TXn4oXc9K3xCzk4p83,symmetry-judgement-task,134,1619803,0.0-43.0-4.0-2.0-1.0-2.0,,,,,,,,,,1.0,1.0,,,,634e460a7da3fef3d5a9faf3,1:43:37 PM,3/6/2024
,"<div style=""font-size: 10rem; color: #0000FF"">L</div>",,ospan,letter,uyaoNSdiL3TXn4oXc9K3xCzk4p83,html-keyboard-response,135,1620815,0.0-43.0-4.0-2.0-1.0-3.0,,,,,,,,,,,,,,,634e460a7da3fef3d5a9faf3,1:43:37 PM,3/6/2024
3328.0,,,ospan,symmetry,uyaoNSdiL3TXn4oXc9K3xCzk4p83,symmetry-judgement-task,136,1626074,0.0-43.0-4.0-2.0-1.0-4.0,,,,,,,,,,1.0,1.0,,,,634e460a7da3fef3d5a9faf3,1:43:37 PM,3/6/2024
,"<div style=""font-size: 10rem; color: #0000FF"">N</div>",,ospan,letter,uyaoNSdiL3TXn4oXc9K3xCzk4p83,html-keyboard-response,137,1627107,0.0-43.0-4.0-2.0-1.0-5.0,,,,,,,,,,,,,,,634e460a7da3fef3d5a9faf3,1:43:37 PM,3/6/2024
9018.0,"<div class = numbox><p style=""font-size: 2.4rem"">Please recall the letters you saw to the best of your ability. If you do not remember a particular letter, use the SKIP button.<br><b>(When you are ready to lock in your answer, press ENTER)</b></p><button id = button_1 class = ""square num-button"" onclick = ""recordClick(this)""><div class = content><div class = numbers>C</div></div></button><button id = button_2 class = ""square num-button"" onclick = ""recordClick(this)""><div class = content><div class = numbers>G</div></div></button><button id = button_3 class = ""square num-button"" onclick = ""recordClick(this)""><div class = content><div class = numbers>H</div></div></button><button id = button_4 class = ""square num-button"" onclick = ""recordClick(this)""><div class = content><div class = numbers>J</div></div></button><button id = button_5 class = ""square num-button"" onclick = ""recordClick(this)""><div class = content><div class = numbers>K</div></div></button><button id = button_6 class = ""square num-button"" onclick = ""recordClick(this)""><div class = content><div class = numbers>L</div></div></button><button id = button_7 class = ""square num-button"" onclick = ""recordClick(this)""><div class = content><div class = numbers>N</div></div></button><button id = button_8 class = ""square num-button"" onclick = ""recordClick(this)""><div class = content><div class = numbers>P</div></div></button><button id = button_9 class = ""square num-button"" onclick = ""recordClick(this)""><div class = content><div class = numbers>Q</div></div></button><button id = button_10 class = ""square num-button"" onclick = ""recordClick(this)""><div class = content><div class = numbers>R</div></div></button><button id = button_11 class = ""square num-button"" onclick = ""recordClick(this)""><div class = content><div class = numbers>S</div></div></button><button id = button_12 class = ""square num-button"" onclick = ""recordClick(this)""><div class = content><div class = numbers>Y</div></div></button><button class = clear_button id = ""ClearButton"" onclick = ""clearResponse()"">BACKSPACE</button><button class = blank_button id = ""BlankButton"" onclick = ""blankResponse()"">SKIP</button><p style=""font-size: 2.4rem""><u><b>Current Answer:</b></u></p><br><br><div id=echoed_txt style=""font-size: 5rem; color:blue;""><b></b></div></div>",enter,ospan,retrieval,uyaoNSdiL3TXn4oXc9K3xCzk4p83,html-keyboard-response,138,1636895,0.0-43.0-4.0-2.0-2.0,15,11,7,3.0,"[""Q"",""N""]","[""Q"",""L"",""N""]",0.0,1.0,,,,,,,634e460a7da3fef3d5a9faf3,1:43:37 PM,3/6/2024
1871.0,[''],0,ospan,feedback,uyaoNSdiL3TXn4oXc9K3xCzk4p83,html-button-response,139,1639291,0.0-43.0-4.0-2.0-3.0,,,,,,,,,,,,100.0,0.0,,634e460a7da3fef3d5a9faf3,1:43:37 PM,3/6/2024
,"<p style=""font-size:75px;"">...</p>",,ospan,iti,uyaoNSdiL3TXn4oXc9K3xCzk4p83,html-keyboard-response,140,1640301,0.0-43.0-5.0-0.0-0.0,,,,,,,,,,,,,,,634e460a7da3fef3d5a9faf3,1:43:37 PM,3/6/2024
6620.0,,,ospan,symmetry,uyaoNSdiL3TXn4oXc9K3xCzk4p83,symmetry-judgement-task,141,1648117,0.0-43.0-5.0-0.0-1.0-0.0,,,,,,,,,,1.0,1.0,,,,634e460a7da3fef3d5a9faf3,1:43:37 PM,3/6/2024
,"<div style=""font-size: 10rem; color: #0000FF"">G</div>",,ospan,letter,uyaoNSdiL3TXn4oXc9K3xCzk4p83,html-keyboard-response,142,1649140,0.0-43.0-5.0-0.0-1.0-1.0,,,,,,,,,,,,,,,634e460a7da3fef3d5a9faf3,1:43:37 PM,3/6/2024
4761.0,,,ospan,symmetry,uyaoNSdiL3TXn4oXc9K3xCzk4p83,symmetry-judgement-task,143,1655851,0.0-43.0-5.0-0.0-1.0-2.0,,,,,,,,,,1.0,1.0,,,,634e460a7da3fef3d5a9faf3,1:43:37 PM,3/6/2024
,"<div style=""font-size: 10rem; color: #0000FF"">Y</div>",,ospan,letter,uyaoNSdiL3TXn4oXc9K3xCzk4p83,html-keyboard-response,144,1656875,0.0-43.0-5.0-0.0-1.0-3.0,,,,,,,,,,,,,,,634e460a7da3fef3d5a9faf3,1:43:37 PM,3/6/2024
3753.0,,,ospan,symmetry,uyaoNSdiL3TXn4oXc9K3xCzk4p83,symmetry-judgement-task,145,1662537,0.0-43.0-5.0-0.0-1.0-4.0,,,,,,,,,,1.0,1.0,,,,634e460a7da3fef3d5a9faf3,1:43:37 PM,3/6/2024
,"<div style=""font-size: 10rem; color: #0000FF"">J</div>",,ospan,letter,uyaoNSdiL3TXn4oXc9K3xCzk4p83,html-keyboard-response,146,1663549,0.0-43.0-5.0-0.0-1.0-5.0,,,,,,,,,,,,,,,634e460a7da3fef3d5a9faf3,1:43:37 PM,3/6/2024
4594.0,,,ospan,symmetry,uyaoNSdiL3TXn4oXc9K3xCzk4p83,symmetry-judgement-task,147,1670086,0.0-43.0-5.0-0.0-1.0-6.0,,,,,,,,,,1.0,1.0,,,,634e460a7da3fef3d5a9faf3,1:43:37 PM,3/6/2024
,"<div style=""font-size: 10rem; color: #0000FF"">L</div>",,ospan,letter,uyaoNSdiL3TXn4oXc9K3xCzk4p83,html-keyboard-response,148,1671106,0.0-43.0-5.0-0.0-1.0-7.0,,,,,,,,,,,,,,,634e460a7da3fef3d5a9faf3,1:43:37 PM,3/6/2024
5903.0,,,ospan,symmetry,uyaoNSdiL3TXn4oXc9K3xCzk4p83,symmetry-judgement-task,149,1678928,0.0-43.0-5.0-0.0-1.0-8.0,,,,,,,,,,1.0,1.0,,,,634e460a7da3fef3d5a9faf3,1:43:37 PM,3/6/2024
,"<div style=""font-size: 10rem; color: #0000FF"">K</div>",,ospan,letter,uyaoNSdiL3TXn4oXc9K3xCzk4p83,html-keyboard-response,150,1679952,0.0-43.0-5.0-0.0-1.0-9.0,,,,,,,,,,,,,,,634e460a7da3fef3d5a9faf3,1:43:37 PM,3/6/2024
4905.0,,,ospan,symmetry,uyaoNSdiL3TXn4oXc9K3xCzk4p83,symmetry-judgement-task,151,1686794,0.0-43.0-5.0-0.0-1.0-10.0,,,,,,,,,,1.0,1.0,,,,634e460a7da3fef3d5a9faf3,1:43:37 PM,3/6/2024
,"<div style=""font-size: 10rem; color: #0000FF"">P</div>",,ospan,letter,uyaoNSdiL3TXn4oXc9K3xCzk4p83,html-keyboard-response,152,1687810,0.0-43.0-5.0-0.0-1.0-11.0,,,,,,,,,,,,,,,634e460a7da3fef3d5a9faf3,1:43:37 PM,3/6/2024
17126.0,"<div class = numbox><p style=""font-size: 2.4rem"">Please recall the letters you saw to the best of your ability. If you do not remember a particular letter, use the SKIP button.<br><b>(When you are ready to lock in your answer, press ENTER)</b></p><button id = button_1 class = ""square num-button"" onclick = ""recordClick(this)""><div class = content><div class = numbers>C</div></div></button><button id = button_2 class = ""square num-button"" onclick = ""recordClick(this)""><div class = content><div class = numbers>G</div></div></button><button id = button_3 class = ""square num-button"" onclick = ""recordClick(this)""><div class = content><div class = numbers>H</div></div></button><button id = button_4 class = ""square num-button"" onclick = ""recordClick(this)""><div class = content><div class = numbers>J</div></div></button><button id = button_5 class = ""square num-button"" onclick = ""recordClick(this)""><div class = content><div class = numbers>K</div></div></button><button id = button_6 class = ""square num-button"" onclick = ""recordClick(this)""><div class = content><div class = numbers>L</div></div></button><button id = button_7 class = ""square num-button"" onclick = ""recordClick(this)""><div class = content><div class = numbers>N</div></div></button><button id = button_8 class = ""square num-button"" onclick = ""recordClick(this)""><div class = content><div class = numbers>P</div></div></button><button id = button_9 class = ""square num-button"" onclick = ""recordClick(this)""><div class = content><div class = numbers>Q</div></div></button><button id = button_10 class = ""square num-button"" onclick = ""recordClick(this)""><div class = content><div class = numbers>R</div></div></button><button id = button_11 class = ""square num-button"" onclick = ""recordClick(this)""><div class = content><div class = numbers>S</div></div></button><button id = button_12 class = ""square num-button"" onclick = ""recordClick(this)""><div class = content><div class = numbers>Y</div></div></button><button class = clear_button id = ""ClearButton"" onclick = ""clearResponse()"">BACKSPACE</button><button class = blank_button id = ""BlankButton"" onclick = ""blankResponse()"">SKIP</button><p style=""font-size: 2.4rem""><u><b>Current Answer:</b></u></p><br><br><div id=echoed_txt style=""font-size: 5rem; color:blue;""><b></b></div></div>",enter,ospan,retrieval,uyaoNSdiL3TXn4oXc9K3xCzk4p83,html-keyboard-response,153,1705699,0.0-43.0-5.0-0.0-2.0,21,17,13,6.0,"[""G"",""Y"",""J"",""L"",""K"",""P""]","[""G"",""Y"",""J"",""L"",""K"",""P""]",1.0,6.0,,,,,,,634e460a7da3fef3d5a9faf3,1:43:37 PM,3/6/2024
3398.0,[''],0,ospan,feedback,uyaoNSdiL3TXn4oXc9K3xCzk4p83,html-button-response,154,1709621,0.0-43.0-5.0-0.0-3.0,,,,,,,,,,,,100.0,0.0,,634e460a7da3fef3d5a9faf3,1:43:37 PM,3/6/2024
,"<p style=""font-size:75px;"">...</p>",,ospan,iti,uyaoNSdiL3TXn4oXc9K3xCzk4p83,html-keyboard-response,155,1710641,0.0-43.0-5.0-1.0-0.0,,,,,,,,,,,,,,,634e460a7da3fef3d5a9faf3,1:43:37 PM,3/6/2024
6614.0,,,ospan,symmetry,uyaoNSdiL3TXn4oXc9K3xCzk4p83,symmetry-judgement-task,156,1718524,0.0-43.0-5.0-1.0-1.0-0.0,,,,,,,,,,1.0,1.0,,,,634e460a7da3fef3d5a9faf3,1:43:37 PM,3/6/2024
,"<div style=""font-size: 10rem; color: #0000FF"">Q</div>",,ospan,letter,uyaoNSdiL3TXn4oXc9K3xCzk4p83,html-keyboard-response,157,1719578,0.0-43.0-5.0-1.0-1.0-1.0,,,,,,,,,,,,,,,634e460a7da3fef3d5a9faf3,1:43:37 PM,3/6/2024
3804.0,,,ospan,symmetry,uyaoNSdiL3TXn4oXc9K3xCzk4p83,symmetry-judgement-task,158,1725348,0.0-43.0-5.0-1.0-1.0-2.0,,,,,,,,,,1.0,1.0,,,,634e460a7da3fef3d5a9faf3,1:43:37 PM,3/6/2024
,"<div style=""font-size: 10rem; color: #0000FF"">R</div>",,ospan,letter,uyaoNSdiL3TXn4oXc9K3xCzk4p83,html-keyboard-response,159,1726368,0.0-43.0-5.0-1.0-1.0-3.0,,,,,,,,,,,,,,,634e460a7da3fef3d5a9faf3,1:43:37 PM,3/6/2024
5087.0,,,ospan,symmetry,uyaoNSdiL3TXn4oXc9K3xCzk4p83,symmetry-judgement-task,160,1733369,0.0-43.0-5.0-1.0-1.0-4.0,,,,,,,,,,1.0,1.0,,,,634e460a7da3fef3d5a9faf3,1:43:37 PM,3/6/2024
,"<div style=""font-size: 10rem; color: #0000FF"">N</div>",,ospan,letter,uyaoNSdiL3TXn4oXc9K3xCzk4p83,html-keyboard-response,161,1734379,0.0-43.0-5.0-1.0-1.0-5.0,,,,,,,,,,,,,,,634e460a7da3fef3d5a9faf3,1:43:37 PM,3/6/2024
3337.0,,,ospan,symmetry,uyaoNSdiL3TXn4oXc9K3xCzk4p83,symmetry-judgement-task,162,1739638,0.0-43.0-5.0-1.0-1.0-6.0,,,,,,,,,,1.0,1.0,,,,634e460a7da3fef3d5a9faf3,1:43:37 PM,3/6/2024
,"<div style=""font-size: 10rem; color: #0000FF"">J</div>",,ospan,letter,uyaoNSdiL3TXn4oXc9K3xCzk4p83,html-keyboard-response,163,1740655,0.0-43.0-5.0-1.0-1.0-7.0,,,,,,,,,,,,,,,634e460a7da3fef3d5a9faf3,1:43:37 PM,3/6/2024
4980.0,,,ospan,symmetry,uyaoNSdiL3TXn4oXc9K3xCzk4p83,symmetry-judgement-task,164,1747562,0.0-43.0-5.0-1.0-1.0-8.0,,,,,,,,,,1.0,1.0,,,,634e460a7da3fef3d5a9faf3,1:43:37 PM,3/6/2024
,"<div style=""font-size: 10rem; color: #0000FF"">Y</div>",,ospan,letter,uyaoNSdiL3TXn4oXc9K3xCzk4p83,html-keyboard-response,165,1748587,0.0-43.0-5.0-1.0-1.0-9.0,,,,,,,,,,,,,,,634e460a7da3fef3d5a9faf3,1:43:37 PM,3/6/2024
11857.0,,,ospan,symmetry,uyaoNSdiL3TXn4oXc9K3xCzk4p83,symmetry-judgement-task,166,1762413,0.0-43.0-5.0-1.0-1.0-10.0,,,,,,,,,,0.0,0.0,,,,634e460a7da3fef3d5a9faf3,1:43:37 PM,3/6/2024
,"<div style=""font-size: 10rem; color: #0000FF"">S</div>",,ospan,letter,uyaoNSdiL3TXn4oXc9K3xCzk4p83,html-keyboard-response,167,1763482,0.0-43.0-5.0-1.0-1.0-11.0,,,,,,,,,,,,,,,634e460a7da3fef3d5a9faf3,1:43:37 PM,3/6/2024
9247.0,,,ospan,symmetry,uyaoNSdiL3TXn4oXc9K3xCzk4p83,symmetry-judgement-task,168,1774679,0.0-43.0-5.0-1.0-1.0-12.0,,,,,,,,,,1.0,1.0,,,,634e460a7da3fef3d5a9faf3,1:43:37 PM,3/6/2024
,"<div style=""font-size: 10rem; color: #0000FF"">P</div>",,ospan,letter,uyaoNSdiL3TXn4oXc9K3xCzk4p83,html-keyboard-response,169,1775698,0.0-43.0-5.0-1.0-1.0-13.0,,,,,,,,,,,,,,,634e460a7da3fef3d5a9faf3,1:43:37 PM,3/6/2024
26156.0,"<div class = numbox><p style=""font-size: 2.4rem"">Please recall the letters you saw to the best of your ability. If you do not remember a particular letter, use the SKIP button.<br><b>(When you are ready to lock in your answer, press ENTER)</b></p><button id = button_1 class = ""square num-button"" onclick = ""recordClick(this)""><div class = content><div class = numbers>C</div></div></button><button id = button_2 class = ""square num-button"" onclick = ""recordClick(this)""><div class = content><div class = numbers>G</div></div></button><button id = button_3 class = ""square num-button"" onclick = ""recordClick(this)""><div class = content><div class = numbers>H</div></div></button><button id = button_4 class = ""square num-button"" onclick = ""recordClick(this)""><div class = content><div class = numbers>J</div></div></button><button id = button_5 class = ""square num-button"" onclick = ""recordClick(this)""><div class = content><div class = numbers>K</div></div></button><button id = button_6 class = ""square num-button"" onclick = ""recordClick(this)""><div class = content><div class = numbers>L</div></div></button><button id = button_7 class = ""square num-button"" onclick = ""recordClick(this)""><div class = content><div class = numbers>N</div></div></button><button id = button_8 class = ""square num-button"" onclick = ""recordClick(this)""><div class = content><div class = numbers>P</div></div></button><button id = button_9 class = ""square num-button"" onclick = ""recordClick(this)""><div class = content><div class = numbers>Q</div></div></button><button id = button_10 class = ""square num-button"" onclick = ""recordClick(this)""><div class = content><div class = numbers>R</div></div></button><button id = button_11 class = ""square num-button"" onclick = ""recordClick(this)""><div class = content><div class = numbers>S</div></div></button><button id = button_12 class = ""square num-button"" onclick = ""recordClick(this)""><div class = content><div class = numbers>Y</div></div></button><button class = clear_button id = ""ClearButton"" onclick = ""clearResponse()"">BACKSPACE</button><button class = blank_button id = ""BlankButton"" onclick = ""blankResponse()"">SKIP</button><p style=""font-size: 2.4rem""><u><b>Current Answer:</b></u></p><br><br><div id=echoed_txt style=""font-size: 5rem; color:blue;""><b></b></div></div>",enter,ospan,retrieval,uyaoNSdiL3TXn4oXc9K3xCzk4p83,html-keyboard-response,170,1802619,0.0-43.0-5.0-1.0-2.0,28,22,13,7.0,"[""Q"",""R"",""N"",""J"",""Y"",""P""]","[""Q"",""R"",""N"",""J"",""Y"",""S"",""P""]",0.0,5.0,,,,,,,634e460a7da3fef3d5a9faf3,1:43:37 PM,3/6/2024
1290.0,[''],0,ospan,feedback,uyaoNSdiL3TXn4oXc9K3xCzk4p83,html-button-response,171,1804420,0.0-43.0-5.0-1.0-3.0,,,,,,,,,,,,96.0,0.0,,634e460a7da3fef3d5a9faf3,1:43:37 PM,3/6/2024
,"<p style=""font-size:75px;"">...</p>",,ospan,iti,uyaoNSdiL3TXn4oXc9K3xCzk4p83,html-keyboard-response,172,1805454,0.0-43.0-6.0-0.0-0.0,,,,,,,,,,,,,,,634e460a7da3fef3d5a9faf3,1:43:37 PM,3/6/2024
10395.0,,,ospan,symmetry,uyaoNSdiL3TXn4oXc9K3xCzk4p83,symmetry-judgement-task,173,1817019,0.0-43.0-6.0-0.0-1.0-0.0,,,,,,,,,,1.0,1.0,,,,634e460a7da3fef3d5a9faf3,1:43:37 PM,3/6/2024
,"<div style=""font-size: 10rem; color: #0000FF"">N</div>",,ospan,letter,uyaoNSdiL3TXn4oXc9K3xCzk4p83,html-keyboard-response,174,1818067,0.0-43.0-6.0-0.0-1.0-1.0,,,,,,,,,,,,,,,634e460a7da3fef3d5a9faf3,1:43:37 PM,3/6/2024
9491.0,,,ospan,symmetry,uyaoNSdiL3TXn4oXc9K3xCzk4p83,symmetry-judgement-task,175,1829472,0.0-43.0-6.0-0.0-1.0-2.0,,,,,,,,,,1.0,1.0,,,,634e460a7da3fef3d5a9faf3,1:43:37 PM,3/6/2024
,"<div style=""font-size: 10rem; color: #0000FF"">Q</div>",,ospan,letter,uyaoNSdiL3TXn4oXc9K3xCzk4p83,html-keyboard-response,176,1830495,0.0-43.0-6.0-0.0-1.0-3.0,,,,,,,,,,,,,,,634e460a7da3fef3d5a9faf3,1:43:37 PM,3/6/2024
7008.0,,,ospan,symmetry,uyaoNSdiL3TXn4oXc9K3xCzk4p83,symmetry-judgement-task,177,1839424,0.0-43.0-6.0-0.0-1.0-4.0,,,,,,,,,,1.0,1.0,,,,634e460a7da3fef3d5a9faf3,1:43:37 PM,3/6/2024
,"<div style=""font-size: 10rem; color: #0000FF"">J</div>",,ospan,letter,uyaoNSdiL3TXn4oXc9K3xCzk4p83,html-keyboard-response,178,1840520,0.0-43.0-6.0-0.0-1.0-5.0,,,,,,,,,,,,,,,634e460a7da3fef3d5a9faf3,1:43:37 PM,3/6/2024
7731.0,,,ospan,symmetry,uyaoNSdiL3TXn4oXc9K3xCzk4p83,symmetry-judgement-task,179,1850183,0.0-43.0-6.0-0.0-1.0-6.0,,,,,,,,,,1.0,1.0,,,,634e460a7da3fef3d5a9faf3,1:43:37 PM,3/6/2024
,"<div style=""font-size: 10rem; color: #0000FF"">C</div>",,ospan,letter,uyaoNSdiL3TXn4oXc9K3xCzk4p83,html-keyboard-response,180,1851202,0.0-43.0-6.0-0.0-1.0-7.0,,,,,,,,,,,,,,,634e460a7da3fef3d5a9faf3,1:43:37 PM,3/6/2024
4105.0,,,ospan,symmetry,uyaoNSdiL3TXn4oXc9K3xCzk4p83,symmetry-judgement-task,181,1857276,0.0-43.0-6.0-0.0-1.0-8.0,,,,,,,,,,1.0,1.0,,,,634e460a7da3fef3d5a9faf3,1:43:37 PM,3/6/2024
,"<div style=""font-size: 10rem; color: #0000FF"">S</div>",,ospan,letter,uyaoNSdiL3TXn4oXc9K3xCzk4p83,html-keyboard-response,182,1858327,0.0-43.0-6.0-0.0-1.0-9.0,,,,,,,,,,,,,,,634e460a7da3fef3d5a9faf3,1:43:37 PM,3/6/2024
11011.0,"<div class = numbox><p style=""font-size: 2.4rem"">Please recall the letters you saw to the best of your ability. If you do not remember a particular letter, use the SKIP button.<br><b>(When you are ready to lock in your answer, press ENTER)</b></p><button id = button_1 class = ""square num-button"" onclick = ""recordClick(this)""><div class = content><div class = numbers>C</div></div></button><button id = button_2 class = ""square num-button"" onclick = ""recordClick(this)""><div class = content><div class = numbers>G</div></div></button><button id = button_3 class = ""square num-button"" onclick = ""recordClick(this)""><div class = content><div class = numbers>H</div></div></button><button id = button_4 class = ""square num-button"" onclick = ""recordClick(this)""><div class = content><div class = numbers>J</div></div></button><button id = button_5 class = ""square num-button"" onclick = ""recordClick(this)""><div class = content><div class = numbers>K</div></div></button><button id = button_6 class = ""square num-button"" onclick = ""recordClick(this)""><div class = content><div class = numbers>L</div></div></button><button id = button_7 class = ""square num-button"" onclick = ""recordClick(this)""><div class = content><div class = numbers>N</div></div></button><button id = button_8 class = ""square num-button"" onclick = ""recordClick(this)""><div class = content><div class = numbers>P</div></div></button><button id = button_9 class = ""square num-button"" onclick = ""recordClick(this)""><div class = content><div class = numbers>Q</div></div></button><button id = button_10 class = ""square num-button"" onclick = ""recordClick(this)""><div class = content><div class = numbers>R</div></div></button><button id = button_11 class = ""square num-button"" onclick = ""recordClick(this)""><div class = content><div class = numbers>S</div></div></button><button id = button_12 class = ""square num-button"" onclick = ""recordClick(this)""><div class = content><div class = numbers>Y</div></div></button><button class = clear_button id = ""ClearButton"" onclick = ""clearResponse()"">BACKSPACE</button><button class = blank_button id = ""BlankButton"" onclick = ""blankResponse()"">SKIP</button><p style=""font-size: 2.4rem""><u><b>Current Answer:</b></u></p><br><br><div id=echoed_txt style=""font-size: 5rem; color:blue;""><b></b></div></div>",enter,ospan,retrieval,uyaoNSdiL3TXn4oXc9K3xCzk4p83,html-keyboard-response,183,1870095,0.0-43.0-6.0-0.0-2.0,33,27,18,5.0,"[""N"",""Q"",""J"",""C"",""S""]","[""N"",""Q"",""J"",""C"",""S""]",1.0,5.0,,,,,,,634e460a7da3fef3d5a9faf3,1:43:37 PM,3/6/2024
1787.0,[''],0,ospan,feedback,uyaoNSdiL3TXn4oXc9K3xCzk4p83,html-button-response,184,1872439,0.0-43.0-6.0-0.0-3.0,,,,,,,,,,,,97.0,0.0,,634e460a7da3fef3d5a9faf3,1:43:37 PM,3/6/2024
,"<p style=""font-size:75px;"">...</p>",,ospan,iti,uyaoNSdiL3TXn4oXc9K3xCzk4p83,html-keyboard-response,185,1873458,0.0-43.0-6.0-1.0-0.0,,,,,,,,,,,,,,,634e460a7da3fef3d5a9faf3,1:43:37 PM,3/6/2024
2920.0,,,ospan,symmetry,uyaoNSdiL3TXn4oXc9K3xCzk4p83,symmetry-judgement-task,186,1877516,0.0-43.0-6.0-1.0-1.0-0.0,,,,,,,,,,1.0,1.0,,,,634e460a7da3fef3d5a9faf3,1:43:37 PM,3/6/2024
,"<div style=""font-size: 10rem; color: #0000FF"">J</div>",,ospan,letter,uyaoNSdiL3TXn4oXc9K3xCzk4p83,html-keyboard-response,187,1878527,0.0-43.0-6.0-1.0-1.0-1.0,,,,,,,,,,,,,,,634e460a7da3fef3d5a9faf3,1:43:37 PM,3/6/2024
7197.0,,,ospan,symmetry,uyaoNSdiL3TXn4oXc9K3xCzk4p83,symmetry-judgement-task,188,1887743,0.0-43.0-6.0-1.0-1.0-2.0,,,,,,,,,,1.0,1.0,,,,634e460a7da3fef3d5a9faf3,1:43:37 PM,3/6/2024
,"<div style=""font-size: 10rem; color: #0000FF"">N</div>",,ospan,letter,uyaoNSdiL3TXn4oXc9K3xCzk4p83,html-keyboard-response,189,1888774,0.0-43.0-6.0-1.0-1.0-3.0,,,,,,,,,,,,,,,634e460a7da3fef3d5a9faf3,1:43:37 PM,3/6/2024
5736.0,,,ospan,symmetry,uyaoNSdiL3TXn4oXc9K3xCzk4p83,symmetry-judgement-task,190,1896411,0.0-43.0-6.0-1.0-1.0-4.0,,,,,,,,,,1.0,1.0,,,,634e460a7da3fef3d5a9faf3,1:43:37 PM,3/6/2024
,"<div style=""font-size: 10rem; color: #0000FF"">L</div>",,ospan,letter,uyaoNSdiL3TXn4oXc9K3xCzk4p83,html-keyboard-response,191,1897428,0.0-43.0-6.0-1.0-1.0-5.0,,,,,,,,,,,,,,,634e460a7da3fef3d5a9faf3,1:43:37 PM,3/6/2024
2288.0,,,ospan,symmetry,uyaoNSdiL3TXn4oXc9K3xCzk4p83,symmetry-judgement-task,192,1901643,0.0-43.0-6.0-1.0-1.0-6.0,,,,,,,,,,1.0,1.0,,,,634e460a7da3fef3d5a9faf3,1:43:37 PM,3/6/2024
,"<div style=""font-size: 10rem; color: #0000FF"">Y</div>",,ospan,letter,uyaoNSdiL3TXn4oXc9K3xCzk4p83,html-keyboard-response,193,1902714,0.0-43.0-6.0-1.0-1.0-7.0,,,,,,,,,,,,,,,634e460a7da3fef3d5a9faf3,1:43:37 PM,3/6/2024
3408.0,,,ospan,symmetry,uyaoNSdiL3TXn4oXc9K3xCzk4p83,symmetry-judgement-task,194,1908072,0.0-43.0-6.0-1.0-1.0-8.0,,,,,,,,,,1.0,1.0,,,,634e460a7da3fef3d5a9faf3,1:43:37 PM,3/6/2024
,"<div style=""font-size: 10rem; color: #0000FF"">Q</div>",,ospan,letter,uyaoNSdiL3TXn4oXc9K3xCzk4p83,html-keyboard-response,195,1909119,0.0-43.0-6.0-1.0-1.0-9.0,,,,,,,,,,,,,,,634e460a7da3fef3d5a9faf3,1:43:37 PM,3/6/2024
3475.0,,,ospan,symmetry,uyaoNSdiL3TXn4oXc9K3xCzk4p83,symmetry-judgement-task,196,1914483,0.0-43.0-6.0-1.0-1.0-10.0,,,,,,,,,,1.0,1.0,,,,634e460a7da3fef3d5a9faf3,1:43:37 PM,3/6/2024
,"<div style=""font-size: 10rem; color: #0000FF"">S</div>",,ospan,letter,uyaoNSdiL3TXn4oXc9K3xCzk4p83,html-keyboard-response,197,1915504,0.0-43.0-6.0-1.0-1.0-11.0,,,,,,,,,,,,,,,634e460a7da3fef3d5a9faf3,1:43:37 PM,3/6/2024
3314.0,,,ospan,symmetry,uyaoNSdiL3TXn4oXc9K3xCzk4p83,symmetry-judgement-task,198,1920741,0.0-43.0-6.0-1.0-1.0-12.0,,,,,,,,,,1.0,1.0,,,,634e460a7da3fef3d5a9faf3,1:43:37 PM,3/6/2024
,"<div style=""font-size: 10rem; color: #0000FF"">C</div>",,ospan,letter,uyaoNSdiL3TXn4oXc9K3xCzk4p83,html-keyboard-response,199,1921757,0.0-43.0-6.0-1.0-1.0-13.0,,,,,,,,,,,,,,,634e460a7da3fef3d5a9faf3,1:43:37 PM,3/6/2024
3935.0,,,ospan,symmetry,uyaoNSdiL3TXn4oXc9K3xCzk4p83,symmetry-judgement-task,200,1927612,0.0-43.0-6.0-1.0-1.0-14.0,,,,,,,,,,1.0,1.0,,,,634e460a7da3fef3d5a9faf3,1:43:37 PM,3/6/2024
,"<div style=""font-size: 10rem; color: #0000FF"">P</div>",,ospan,letter,uyaoNSdiL3TXn4oXc9K3xCzk4p83,html-keyboard-response,201,1928625,0.0-43.0-6.0-1.0-1.0-15.0,,,,,,,,,,,,,,,634e460a7da3fef3d5a9faf3,1:43:37 PM,3/6/2024
17595.0,"<div class = numbox><p style=""font-size: 2.4rem"">Please recall the letters you saw to the best of your ability. If you do not remember a particular letter, use the SKIP button.<br><b>(When you are ready to lock in your answer, press ENTER)</b></p><button id = button_1 class = ""square num-button"" onclick = ""recordClick(this)""><div class = content><div class = numbers>C</div></div></button><button id = button_2 class = ""square num-button"" onclick = ""recordClick(this)""><div class = content><div class = numbers>G</div></div></button><button id = button_3 class = ""square num-button"" onclick = ""recordClick(this)""><div class = content><div class = numbers>H</div></div></button><button id = button_4 class = ""square num-button"" onclick = ""recordClick(this)""><div class = content><div class = numbers>J</div></div></button><button id = button_5 class = ""square num-button"" onclick = ""recordClick(this)""><div class = content><div class = numbers>K</div></div></button><button id = button_6 class = ""square num-button"" onclick = ""recordClick(this)""><div class = content><div class = numbers>L</div></div></button><button id = button_7 class = ""square num-button"" onclick = ""recordClick(this)""><div class = content><div class = numbers>N</div></div></button><button id = button_8 class = ""square num-button"" onclick = ""recordClick(this)""><div class = content><div class = numbers>P</div></div></button><button id = button_9 class = ""square num-button"" onclick = ""recordClick(this)""><div class = content><div class = numbers>Q</div></div></button><button id = button_10 class = ""square num-button"" onclick = ""recordClick(this)""><div class = content><div class = numbers>R</div></div></button><button id = button_11 class = ""square num-button"" onclick = ""recordClick(this)""><div class = content><div class = numbers>S</div></div></button><button id = button_12 class = ""square num-button"" onclick = ""recordClick(this)""><div class = content><div class = numbers>Y</div></div></button><button class = clear_button id = ""ClearButton"" onclick = ""clearResponse()"">BACKSPACE</button><button class = blank_button id = ""BlankButton"" onclick = ""blankResponse()"">SKIP</button><p style=""font-size: 2.4rem""><u><b>Current Answer:</b></u></p><br><br><div id=echoed_txt style=""font-size: 5rem; color:blue;""><b></b></div></div>",enter,ospan,retrieval,uyaoNSdiL3TXn4oXc9K3xCzk4p83,html-keyboard-response,202,1946984,0.0-43.0-6.0-1.0-2.0,41,27,18,8.0,"[""N"",""Y"",""Q"",""S"",""C""]","[""J"",""N"",""L"",""Y"",""Q"",""S"",""C"",""P""]",0.0,0.0,,,,,,,634e460a7da3fef3d5a9faf3,1:43:37 PM,3/6/2024
6789.0,[''],0,ospan,feedback,uyaoNSdiL3TXn4oXc9K3xCzk4p83,html-button-response,203,1954279,0.0-43.0-6.0-1.0-3.0,,,,,,,,,,,,98.0,0.0,,634e460a7da3fef3d5a9faf3,1:43:37 PM,3/6/2024
272280.0,,{'Q0': 'The letter task was easy to do '},ospan,survey_ospan,uyaoNSdiL3TXn4oXc9K3xCzk4p83,lmdlab-survey-text,204,2227319,0.0-43.0-7.0,,,,,,,,,,,,,,uyaoNSdiL3TXn4oXc9K3xCzk4p83,634e460a7da3fef3d5a9faf3,1:43:37 PM,3/6/2024
7146.0,<p><p style='font-size: 3rem'>Great work!<br><br>This completes the symmetry and memory task.</p><br><br><br>,0,ospan,finish,uyaoNSdiL3TXn4oXc9K3xCzk4p83,html-button-response,205,2234491,0.0-43.0-8.0,41,27,18,,,,,,,,,98.0,,,634e460a7da3fef3d5a9faf3,1:43:37 PM,3/6/2024
