rt,stimulus,response,exp_name,exp_stage,subjectID,trial_type,trial_index,time_elapsed,internal_node_id,ospan_shown,ospan_total,ospan_abs,length,resp_actual,resp_correct,full_correct,num_correct,feedback,accuracy,correct,math_acc,math_warning,databaseID,prolificID,start_time,date
4890.39999999851,<div class = 'left_align' style='font-size: 3.25rem; line-height: 1.3;'><p class = 'center_align'><b>Welcome to the Symmetry and Memory Task</b><br><br><br><br></p>Press 'continue' to show the instructions.<br><br><br><br></div>,0,ospan,instruct,S6UfGbhrc4ZJGVHsYxqJVXZ1yuw2,html-button-response,51,661627,0.0-43.0-0.0-0.0-0.0,,,,,,,,,,,,,,,657421f9661ce9a8cd7482d1,00:35:01,07/03/2024
176869.90000000596,"<div class = 'left_align' style='font-size: 3.25rem; line-height: 1.3;'><p class = 'center_align'><b>Symmetry and Memory Task</b><br><br></p>In this task, you will try to memorize letters you see on the screen<br>while you also view black and white grid pictures.<br><br>In the next few minutes, you will have some practice to get you familiar<br>with how the task works.<br><br>It may be difficult sometimes, but please do not worry about making mistakes!<br><br>We will begin by practicing the letter part of the task.<br><br><br><br></div>",0,ospan,instruct,S6UfGbhrc4ZJGVHsYxqJVXZ1yuw2,html-button-response,52,838759,0.0-43.0-0.0-0.0-1.0,,,,,,,,,,,,,,,657421f9661ce9a8cd7482d1,00:35:01,07/03/2024
19673.5,"<div class = 'left_align' style='font-size: 3.25rem; line-height: 1.3;'>For this practice part, letters will appear on the screen one at a time.<br><br>Try to remember each letter in the order presented.<br><br>After some letters have been shown, you will see a response screen. Your<br>goal is to report the letters you saw <b>in order</b>. If you do not remember<br>a particular letter, you will have the option to leave it blank.<br><br><br><br></div>",0,ospan,instruct,S6UfGbhrc4ZJGVHsYxqJVXZ1yuw2,html-button-response,53,858695,0.0-43.0-0.0-0.0-2.0,,,,,,,,,,,,,,,657421f9661ce9a8cd7482d1,00:35:01,07/03/2024
6567.20000000298,"<div class = 'left_align' style='font-size: 3.25rem; line-height: 1.3;'>Remember, it is very important to get the letters in the same<br>order as you see them.<br><br>When you are ready, you may begin the letter practice.</div><br><br><br><br>",0,ospan,instruct,S6UfGbhrc4ZJGVHsYxqJVXZ1yuw2,html-button-response,54,865518,0.0-43.0-0.0-0.0-3.0,,,,,,,,,,,,,,,657421f9661ce9a8cd7482d1,00:35:01,07/03/2024
,"<p style=""font-size:75px;"">...</p>",,ospan,iti,S6UfGbhrc4ZJGVHsYxqJVXZ1yuw2,html-keyboard-response,55,866788,0.0-43.0-0.0-1.0-0.0,,,,,,,,,,,,,,,657421f9661ce9a8cd7482d1,00:35:01,07/03/2024
,"<div style=""font-size: 10rem; color: #0000FF"">Y</div>",,ospan,letter,S6UfGbhrc4ZJGVHsYxqJVXZ1yuw2,html-keyboard-response,56,867798,0.0-43.0-0.0-1.0-1.0,,,,,,,,,,,,,,,657421f9661ce9a8cd7482d1,00:35:01,07/03/2024
,"<div style=""font-size: 10rem; color: #0000FF"">Q</div>",,ospan,letter,S6UfGbhrc4ZJGVHsYxqJVXZ1yuw2,html-keyboard-response,57,869570,0.0-43.0-0.0-1.0-2.0,,,,,,,,,,,,,,,657421f9661ce9a8cd7482d1,00:35:01,07/03/2024
12959.80000000447,"<div class = numbox><p style=""font-size: 2.4rem"">Please recall the letters you saw to the best of your ability. If you do not remember a particular letter, use the SKIP button.<br><b>(When you are ready to lock in your answer, press ENTER)</b></p><button id = button_1 class = ""square num-button"" onclick = ""recordClick(this)""><div class = content><div class = numbers>C</div></div></button><button id = button_2 class = ""square num-button"" onclick = ""recordClick(this)""><div class = content><div class = numbers>G</div></div></button><button id = button_3 class = ""square num-button"" onclick = ""recordClick(this)""><div class = content><div class = numbers>H</div></div></button><button id = button_4 class = ""square num-button"" onclick = ""recordClick(this)""><div class = content><div class = numbers>J</div></div></button><button id = button_5 class = ""square num-button"" onclick = ""recordClick(this)""><div class = content><div class = numbers>K</div></div></button><button id = button_6 class = ""square num-button"" onclick = ""recordClick(this)""><div class = content><div class = numbers>L</div></div></button><button id = button_7 class = ""square num-button"" onclick = ""recordClick(this)""><div class = content><div class = numbers>N</div></div></button><button id = button_8 class = ""square num-button"" onclick = ""recordClick(this)""><div class = content><div class = numbers>P</div></div></button><button id = button_9 class = ""square num-button"" onclick = ""recordClick(this)""><div class = content><div class = numbers>Q</div></div></button><button id = button_10 class = ""square num-button"" onclick = ""recordClick(this)""><div class = content><div class = numbers>R</div></div></button><button id = button_11 class = ""square num-button"" onclick = ""recordClick(this)""><div class = content><div class = numbers>S</div></div></button><button id = button_12 class = ""square num-button"" onclick = ""recordClick(this)""><div class = content><div class = numbers>Y</div></div></button><button class = clear_button id = ""ClearButton"" onclick = ""clearResponse()"">BACKSPACE</button><button class = blank_button id = ""BlankButton"" onclick = ""blankResponse()"">SKIP</button><p style=""font-size: 2.4rem""><u><b>Current Answer:</b></u></p><br><br><div id=echoed_txt style=""font-size: 5rem; color:blue;""><b></b></div></div>",enter,ospan,retrieval,S6UfGbhrc4ZJGVHsYxqJVXZ1yuw2,html-keyboard-response,58,883290,0.0-43.0-0.0-1.0-3.0,NA,NA,NA,2.0,"[""Y"",""Q""]","[""Y"",""Q""]",1.0,2.0,"['<font color=""green"">Y</font>', '<font color=""green"">Q</font>']",,,,,,657421f9661ce9a8cd7482d1,00:35:01,07/03/2024
4300.9000000059605,"['<p style=""font-size:44px"">Letters:<br><br><br><font color=""green"">Y</font> <font color=""green"">Q</font></p><br><br>']",0,ospan,practice_feedback,S6UfGbhrc4ZJGVHsYxqJVXZ1yuw2,html-button-response,59,888097,0.0-43.0-0.0-1.0-4.0,,,,,,,,,,,,,,,657421f9661ce9a8cd7482d1,00:35:01,07/03/2024
,"<p style=""font-size:75px;"">...</p>",,ospan,iti,S6UfGbhrc4ZJGVHsYxqJVXZ1yuw2,html-keyboard-response,60,889115,0.0-43.0-0.0-2.0-0.0,,,,,,,,,,,,,,,657421f9661ce9a8cd7482d1,00:35:01,07/03/2024
,"<div style=""font-size: 10rem; color: #0000FF"">R</div>",,ospan,letter,S6UfGbhrc4ZJGVHsYxqJVXZ1yuw2,html-keyboard-response,61,890131,0.0-43.0-0.0-2.0-1.0,,,,,,,,,,,,,,,657421f9661ce9a8cd7482d1,00:35:01,07/03/2024
,"<div style=""font-size: 10rem; color: #0000FF"">S</div>",,ospan,letter,S6UfGbhrc4ZJGVHsYxqJVXZ1yuw2,html-keyboard-response,62,891885,0.0-43.0-0.0-2.0-2.0,,,,,,,,,,,,,,,657421f9661ce9a8cd7482d1,00:35:01,07/03/2024
,"<div style=""font-size: 10rem; color: #0000FF"">N</div>",,ospan,letter,S6UfGbhrc4ZJGVHsYxqJVXZ1yuw2,html-keyboard-response,63,893643,0.0-43.0-0.0-2.0-3.0,,,,,,,,,,,,,,,657421f9661ce9a8cd7482d1,00:35:01,07/03/2024
9245.29999999702,"<div class = numbox><p style=""font-size: 2.4rem"">Please recall the letters you saw to the best of your ability. If you do not remember a particular letter, use the SKIP button.<br><b>(When you are ready to lock in your answer, press ENTER)</b></p><button id = button_1 class = ""square num-button"" onclick = ""recordClick(this)""><div class = content><div class = numbers>C</div></div></button><button id = button_2 class = ""square num-button"" onclick = ""recordClick(this)""><div class = content><div class = numbers>G</div></div></button><button id = button_3 class = ""square num-button"" onclick = ""recordClick(this)""><div class = content><div class = numbers>H</div></div></button><button id = button_4 class = ""square num-button"" onclick = ""recordClick(this)""><div class = content><div class = numbers>J</div></div></button><button id = button_5 class = ""square num-button"" onclick = ""recordClick(this)""><div class = content><div class = numbers>K</div></div></button><button id = button_6 class = ""square num-button"" onclick = ""recordClick(this)""><div class = content><div class = numbers>L</div></div></button><button id = button_7 class = ""square num-button"" onclick = ""recordClick(this)""><div class = content><div class = numbers>N</div></div></button><button id = button_8 class = ""square num-button"" onclick = ""recordClick(this)""><div class = content><div class = numbers>P</div></div></button><button id = button_9 class = ""square num-button"" onclick = ""recordClick(this)""><div class = content><div class = numbers>Q</div></div></button><button id = button_10 class = ""square num-button"" onclick = ""recordClick(this)""><div class = content><div class = numbers>R</div></div></button><button id = button_11 class = ""square num-button"" onclick = ""recordClick(this)""><div class = content><div class = numbers>S</div></div></button><button id = button_12 class = ""square num-button"" onclick = ""recordClick(this)""><div class = content><div class = numbers>Y</div></div></button><button class = clear_button id = ""ClearButton"" onclick = ""clearResponse()"">BACKSPACE</button><button class = blank_button id = ""BlankButton"" onclick = ""blankResponse()"">SKIP</button><p style=""font-size: 2.4rem""><u><b>Current Answer:</b></u></p><br><br><div id=echoed_txt style=""font-size: 5rem; color:blue;""><b></b></div></div>",enter,ospan,retrieval,S6UfGbhrc4ZJGVHsYxqJVXZ1yuw2,html-keyboard-response,64,903654,0.0-43.0-0.0-2.0-4.0,NA,NA,NA,3.0,"[""R"",""S"",""N""]","[""R"",""S"",""N""]",1.0,3.0,"['<font color=""green"">R</font>', '<font color=""green"">S</font>', '<font color=""green"">N</font>']",,,,,,657421f9661ce9a8cd7482d1,00:35:01,07/03/2024
1064.2999999970198,"['<p style=""font-size:44px"">Letters:<br><br><br><font color=""green"">R</font> <font color=""green"">S</font> <font color=""green"">N</font></p><br><br>']",0,ospan,practice_feedback,S6UfGbhrc4ZJGVHsYxqJVXZ1yuw2,html-button-response,65,905227,0.0-43.0-0.0-2.0-5.0,,,,,,,,,,,,,,,657421f9661ce9a8cd7482d1,00:35:01,07/03/2024
14561.29999999702,"<div class = 'left_align' style='font-size: 3.25rem; line-height: 1.3;'>Now you will practice doing the <b>symmetry judgment part</b> of the experiment.<br><br>A black and white grid picture will appear on the screen and you have to judge if it is <br>symmetrical or asymetrical.<br><br>A picture is 'mirror' symmetrical if its left half is identical to the right half when flipped.<br>Here are examples of a symmetrical and an asymetrical picture:<br><br><center><img src='Stimuli/img/symm_instructions_extra.png' style='height:420px; width:900'></img></center><br>To judge symmetry, imagine you were to fold each picture down the middle, like a book –<br>would the left half match the right half when folded onto each other?<br><br></div><br>",0,ospan,instruct,S6UfGbhrc4ZJGVHsYxqJVXZ1yuw2,html-button-response,66,919791,0.0-43.0-1.0-0.0-0.0,,,,,,,,,,,,,,,657421f9661ce9a8cd7482d1,00:35:01,07/03/2024
5239.29999999702,"<div class = 'left_align' style='font-size: 3.25rem; line-height: 1.3;'>When you have viewed the picture and determined whether it is symmetrical or not,<br>you can <b>click the Yes or No button</b> below to answer.<br><br>If you take longer than 15 seconds, it will continue automatically<br>and record the answer as an error.</div><br>",0,ospan,instruct,S6UfGbhrc4ZJGVHsYxqJVXZ1yuw2,html-button-response,67,925296,0.0-43.0-1.0-0.0-1.0,,,,,,,,,,,,,,,657421f9661ce9a8cd7482d1,00:35:01,07/03/2024
6762.89999999851,"<div class = 'left_align' style='font-size: 3.25rem; line-height: 1.3;'>It is <b>very</b> important that you make the symmetry judgment correctly.<br><br>It is also important that you try and judge the picture as quickly as you can.<br><br>When you are ready, click on the button below to try some practice problems.</div><br><br><br><br>",0,ospan,instruct,S6UfGbhrc4ZJGVHsYxqJVXZ1yuw2,html-button-response,68,932315,0.0-43.0-1.0-0.0-2.0,,,,,,,,,,,,,,,657421f9661ce9a8cd7482d1,00:35:01,07/03/2024
3807.0,,,ospan,symmetry,S6UfGbhrc4ZJGVHsYxqJVXZ1yuw2,symmetry-judgement-task,69,937015,0.0-43.0-1.0-1.0-0.0,,,,,,,,,,1.0,1.0,,,,657421f9661ce9a8cd7482d1,00:35:01,07/03/2024
,"<p style=""color:green; font-size: 35px"">Correct</p>",,ospan,feedback,S6UfGbhrc4ZJGVHsYxqJVXZ1yuw2,html-keyboard-response,70,937774,0.0-43.0-1.0-1.0-1.0,,,,,,,,,,,,,,,657421f9661ce9a8cd7482d1,00:35:01,07/03/2024
2635.0,,,ospan,symmetry,S6UfGbhrc4ZJGVHsYxqJVXZ1yuw2,symmetry-judgement-task,71,943207,0.0-43.0-1.0-1.0-2.0,,,,,,,,,,1.0,1.0,,,,657421f9661ce9a8cd7482d1,00:35:01,07/03/2024
,"<p style=""color:green; font-size: 35px"">Correct</p>",,ospan,feedback,S6UfGbhrc4ZJGVHsYxqJVXZ1yuw2,html-keyboard-response,72,943964,0.0-43.0-1.0-1.0-3.0,,,,,,,,,,,,,,,657421f9661ce9a8cd7482d1,00:35:01,07/03/2024
3072.0,,,ospan,symmetry,S6UfGbhrc4ZJGVHsYxqJVXZ1yuw2,symmetry-judgement-task,73,949779,0.0-43.0-1.0-1.0-4.0,,,,,,,,,,1.0,1.0,,,,657421f9661ce9a8cd7482d1,00:35:01,07/03/2024
,"<p style=""color:green; font-size: 35px"">Correct</p>",,ospan,feedback,S6UfGbhrc4ZJGVHsYxqJVXZ1yuw2,html-keyboard-response,74,950545,0.0-43.0-1.0-1.0-5.0,,,,,,,,,,,,,,,657421f9661ce9a8cd7482d1,00:35:01,07/03/2024
3626.8000000044703,"<p style=""font-size: 3rem;"">You responded correctly on 3 of 3 symmetry judgments. Good job!</p><br><br>",0,ospan,practice,S6UfGbhrc4ZJGVHsYxqJVXZ1yuw2,html-button-response,75,956185,0.0-43.0-1.0-2.0,,,,,,,,,,,,,,,657421f9661ce9a8cd7482d1,00:35:01,07/03/2024
9105.39999999851,"<div class = 'left_align' style='font-size: 3.25rem; line-height: 1.3;'>Now you will practice doing both parts of the experiment at the same time.<br><br>In the next practice set, you will be given one grid picture to judge.<br>Then letter will appear on the screen. Try to remember the letter.<br><br>It is <b>very important</b> to make the symmetry judgment as quickly and accurately as possible.<br><br>Just as before, once you have make the symmetry judgment, you can click Yes or No.<br><b>Note that you will no longer see Correct or Incorrect feedback.</div><br><br><br><br>",0,ospan,instruct,S6UfGbhrc4ZJGVHsYxqJVXZ1yuw2,html-button-response,76,965547,0.0-43.0-2.0-0.0-0.0,,,,,,,,,,,,,,,657421f9661ce9a8cd7482d1,00:35:01,07/03/2024
3427.7999999970198,"<div class = 'left_align' style='font-size: 3.25rem; line-height: 1.3;'>After the letter goes away, another grid picture will appear, and then<br>another letter.<br><br>At the end of each set of letters and grids, you will recall the letters to the best<br>of your ability. Remember, try your best to get the letters in the correct order.<br><br>It is important to <b>quickly</b> and <b>accurately</b> make the symmetry judgments.</div><br><br><br><br>",0,ospan,instruct,S6UfGbhrc4ZJGVHsYxqJVXZ1yuw2,html-button-response,77,969243,0.0-43.0-2.0-0.0-1.0,,,,,,,,,,,,,,,657421f9661ce9a8cd7482d1,00:35:01,07/03/2024
5340.10000000149,"<div class = 'left_align' style='font-size: 3.25rem; line-height: 1.3;'>On the feedback screen, if you are not doing well at the symmetry judgments,<br>you will also see a warning in the middle. This indicates your percent <br>correct for the grid pictures for the entire experiment.<br><br>It is <b>very</b> important for you to keep accuracy at least at 85%: <u>We can only use<br>data where the participant was at least 85% accurate on the judgments.</u> Therefore,<br> please try your best to perform well on the symmetry judgments, <b>at the same time</b><br>doing your best to recall as many letters as possible.<br><br>Click the button to try some practice problems.</div><br><br><br><br>",0,ospan,instruct,S6UfGbhrc4ZJGVHsYxqJVXZ1yuw2,html-button-response,78,974848,0.0-43.0-2.0-0.0-2.0,,,,,,,,,,,,,,,657421f9661ce9a8cd7482d1,00:35:01,07/03/2024
,"<p style=""font-size:75px;"">...</p>",,ospan,iti,S6UfGbhrc4ZJGVHsYxqJVXZ1yuw2,html-keyboard-response,79,976117,0.0-43.0-2.0-1.0-0.0,,,,,,,,,,,,,,,657421f9661ce9a8cd7482d1,00:35:01,07/03/2024
3389.0,,,ospan,symmetry,S6UfGbhrc4ZJGVHsYxqJVXZ1yuw2,symmetry-judgement-task,80,980792,0.0-43.0-2.0-1.0-1.0-0.0,,,,,,,,,,1.0,1.0,,,,657421f9661ce9a8cd7482d1,00:35:01,07/03/2024
,"<div style=""font-size: 10rem; color: #0000FF"">C</div>",,ospan,letter,S6UfGbhrc4ZJGVHsYxqJVXZ1yuw2,html-keyboard-response,81,981809,0.0-43.0-2.0-1.0-1.0-1.0,,,,,,,,,,,,,,,657421f9661ce9a8cd7482d1,00:35:01,07/03/2024
2158.0,,,ospan,symmetry,S6UfGbhrc4ZJGVHsYxqJVXZ1yuw2,symmetry-judgement-task,82,985968,0.0-43.0-2.0-1.0-1.0-2.0,,,,,,,,,,1.0,1.0,,,,657421f9661ce9a8cd7482d1,00:35:01,07/03/2024
,"<div style=""font-size: 10rem; color: #0000FF"">Q</div>",,ospan,letter,S6UfGbhrc4ZJGVHsYxqJVXZ1yuw2,html-keyboard-response,83,986981,0.0-43.0-2.0-1.0-1.0-3.0,,,,,,,,,,,,,,,657421f9661ce9a8cd7482d1,00:35:01,07/03/2024
1966.0,,,ospan,symmetry,S6UfGbhrc4ZJGVHsYxqJVXZ1yuw2,symmetry-judgement-task,84,991028,0.0-43.0-2.0-1.0-1.0-4.0,,,,,,,,,,1.0,1.0,,,,657421f9661ce9a8cd7482d1,00:35:01,07/03/2024
,"<div style=""font-size: 10rem; color: #0000FF"">N</div>",,ospan,letter,S6UfGbhrc4ZJGVHsYxqJVXZ1yuw2,html-keyboard-response,85,992030,0.0-43.0-2.0-1.0-1.0-5.0,,,,,,,,,,,,,,,657421f9661ce9a8cd7482d1,00:35:01,07/03/2024
10533.60000000149,"<div class = numbox><p style=""font-size: 2.4rem"">Please recall the letters you saw to the best of your ability. If you do not remember a particular letter, use the SKIP button.<br><b>(When you are ready to lock in your answer, press ENTER)</b></p><button id = button_1 class = ""square num-button"" onclick = ""recordClick(this)""><div class = content><div class = numbers>C</div></div></button><button id = button_2 class = ""square num-button"" onclick = ""recordClick(this)""><div class = content><div class = numbers>G</div></div></button><button id = button_3 class = ""square num-button"" onclick = ""recordClick(this)""><div class = content><div class = numbers>H</div></div></button><button id = button_4 class = ""square num-button"" onclick = ""recordClick(this)""><div class = content><div class = numbers>J</div></div></button><button id = button_5 class = ""square num-button"" onclick = ""recordClick(this)""><div class = content><div class = numbers>K</div></div></button><button id = button_6 class = ""square num-button"" onclick = ""recordClick(this)""><div class = content><div class = numbers>L</div></div></button><button id = button_7 class = ""square num-button"" onclick = ""recordClick(this)""><div class = content><div class = numbers>N</div></div></button><button id = button_8 class = ""square num-button"" onclick = ""recordClick(this)""><div class = content><div class = numbers>P</div></div></button><button id = button_9 class = ""square num-button"" onclick = ""recordClick(this)""><div class = content><div class = numbers>Q</div></div></button><button id = button_10 class = ""square num-button"" onclick = ""recordClick(this)""><div class = content><div class = numbers>R</div></div></button><button id = button_11 class = ""square num-button"" onclick = ""recordClick(this)""><div class = content><div class = numbers>S</div></div></button><button id = button_12 class = ""square num-button"" onclick = ""recordClick(this)""><div class = content><div class = numbers>Y</div></div></button><button class = clear_button id = ""ClearButton"" onclick = ""clearResponse()"">BACKSPACE</button><button class = blank_button id = ""BlankButton"" onclick = ""blankResponse()"">SKIP</button><p style=""font-size: 2.4rem""><u><b>Current Answer:</b></u></p><br><br><div id=echoed_txt style=""font-size: 5rem; color:blue;""><b></b></div></div>",enter,ospan,retrieval,S6UfGbhrc4ZJGVHsYxqJVXZ1yuw2,html-keyboard-response,86,1003318,0.0-43.0-2.0-1.0-2.0-0.0,NA,NA,NA,3.0,"[""C"",""Q"",""N""]","[""C"",""Q"",""N""]",1.0,3.0,"['<font color=""green"">C</font>', '<font color=""green"">Q</font>', '<font color=""green"">N</font>']",,,,,,657421f9661ce9a8cd7482d1,00:35:01,07/03/2024
2710.7999999970198,"['<p style=""font-size:44px"">Letters:<br><br><br><font color=""green"">C</font> <font color=""green"">Q</font> <font color=""green"">N</font></p><br><br><p style=""font-size:30px"">Symmetry:<br><br><font color=""green"">100%</font></p><br><br>']",0,ospan,practice_feedback,S6UfGbhrc4ZJGVHsYxqJVXZ1yuw2,html-button-response,87,1006537,0.0-43.0-2.0-1.0-2.0-1.0,,,,,,,,,,,,,,,657421f9661ce9a8cd7482d1,00:35:01,07/03/2024
,"<p style=""font-size:75px;"">...</p>",,ospan,iti,S6UfGbhrc4ZJGVHsYxqJVXZ1yuw2,html-keyboard-response,88,1007550,0.0-43.0-2.0-2.0-0.0,,,,,,,,,,,,,,,657421f9661ce9a8cd7482d1,00:35:01,07/03/2024
3405.0,,,ospan,symmetry,S6UfGbhrc4ZJGVHsYxqJVXZ1yuw2,symmetry-judgement-task,89,1012259,0.0-43.0-2.0-2.0-1.0-0.0,,,,,,,,,,1.0,1.0,,,,657421f9661ce9a8cd7482d1,00:35:01,07/03/2024
,"<div style=""font-size: 10rem; color: #0000FF"">H</div>",,ospan,letter,S6UfGbhrc4ZJGVHsYxqJVXZ1yuw2,html-keyboard-response,90,1013276,0.0-43.0-2.0-2.0-1.0-1.0,,,,,,,,,,,,,,,657421f9661ce9a8cd7482d1,00:35:01,07/03/2024
2971.0,,,ospan,symmetry,S6UfGbhrc4ZJGVHsYxqJVXZ1yuw2,symmetry-judgement-task,91,1018315,0.0-43.0-2.0-2.0-1.0-2.0,,,,,,,,,,1.0,1.0,,,,657421f9661ce9a8cd7482d1,00:35:01,07/03/2024
,"<div style=""font-size: 10rem; color: #0000FF"">C</div>",,ospan,letter,S6UfGbhrc4ZJGVHsYxqJVXZ1yuw2,html-keyboard-response,92,1019323,0.0-43.0-2.0-2.0-1.0-3.0,,,,,,,,,,,,,,,657421f9661ce9a8cd7482d1,00:35:01,07/03/2024
3203.0,,,ospan,symmetry,S6UfGbhrc4ZJGVHsYxqJVXZ1yuw2,symmetry-judgement-task,93,1024599,0.0-43.0-2.0-2.0-1.0-4.0,,,,,,,,,,1.0,1.0,,,,657421f9661ce9a8cd7482d1,00:35:01,07/03/2024
,"<div style=""font-size: 10rem; color: #0000FF"">N</div>",,ospan,letter,S6UfGbhrc4ZJGVHsYxqJVXZ1yuw2,html-keyboard-response,94,1025615,0.0-43.0-2.0-2.0-1.0-5.0,,,,,,,,,,,,,,,657421f9661ce9a8cd7482d1,00:35:01,07/03/2024
10317.69999999553,"<div class = numbox><p style=""font-size: 2.4rem"">Please recall the letters you saw to the best of your ability. If you do not remember a particular letter, use the SKIP button.<br><b>(When you are ready to lock in your answer, press ENTER)</b></p><button id = button_1 class = ""square num-button"" onclick = ""recordClick(this)""><div class = content><div class = numbers>C</div></div></button><button id = button_2 class = ""square num-button"" onclick = ""recordClick(this)""><div class = content><div class = numbers>G</div></div></button><button id = button_3 class = ""square num-button"" onclick = ""recordClick(this)""><div class = content><div class = numbers>H</div></div></button><button id = button_4 class = ""square num-button"" onclick = ""recordClick(this)""><div class = content><div class = numbers>J</div></div></button><button id = button_5 class = ""square num-button"" onclick = ""recordClick(this)""><div class = content><div class = numbers>K</div></div></button><button id = button_6 class = ""square num-button"" onclick = ""recordClick(this)""><div class = content><div class = numbers>L</div></div></button><button id = button_7 class = ""square num-button"" onclick = ""recordClick(this)""><div class = content><div class = numbers>N</div></div></button><button id = button_8 class = ""square num-button"" onclick = ""recordClick(this)""><div class = content><div class = numbers>P</div></div></button><button id = button_9 class = ""square num-button"" onclick = ""recordClick(this)""><div class = content><div class = numbers>Q</div></div></button><button id = button_10 class = ""square num-button"" onclick = ""recordClick(this)""><div class = content><div class = numbers>R</div></div></button><button id = button_11 class = ""square num-button"" onclick = ""recordClick(this)""><div class = content><div class = numbers>S</div></div></button><button id = button_12 class = ""square num-button"" onclick = ""recordClick(this)""><div class = content><div class = numbers>Y</div></div></button><button class = clear_button id = ""ClearButton"" onclick = ""clearResponse()"">BACKSPACE</button><button class = blank_button id = ""BlankButton"" onclick = ""blankResponse()"">SKIP</button><p style=""font-size: 2.4rem""><u><b>Current Answer:</b></u></p><br><br><div id=echoed_txt style=""font-size: 5rem; color:blue;""><b></b></div></div>",enter,ospan,retrieval,S6UfGbhrc4ZJGVHsYxqJVXZ1yuw2,html-keyboard-response,95,1036686,0.0-43.0-2.0-2.0-2.0-0.0,NA,NA,NA,3.0,"[""H"",""C"",""N""]","[""H"",""C"",""N""]",1.0,3.0,"['<font color=""green"">H</font>', '<font color=""green"">C</font>', '<font color=""green"">N</font>']",,,,,,657421f9661ce9a8cd7482d1,00:35:01,07/03/2024
1359.9000000059605,"['<p style=""font-size:44px"">Letters:<br><br><br><font color=""green"">H</font> <font color=""green"">C</font> <font color=""green"">N</font></p><br><br><p style=""font-size:30px"">Symmetry:<br><br><font color=""green"">100%</font></p><br><br>']",0,ospan,practice_feedback,S6UfGbhrc4ZJGVHsYxqJVXZ1yuw2,html-button-response,96,1038565,0.0-43.0-2.0-2.0-2.0-1.0,,,,,,,,,,,,,,,657421f9661ce9a8cd7482d1,00:35:01,07/03/2024
28351.59999999404,"<div class = 'left_align' style='font-size: 3rem; line-height: 1.3;'><b>Great work! That is the end of practice.</b><br><br>The real trials will look just like the practice trials you just completed.<br><br><u>Here, you will not see feedback</u>. First, you will see an grid picture to judge,<br>then a letter to remember. When the recall screen appears, report the letters in the<br>order presented. If you forget a letter, remember to use the <b>blank</b> button to move to the<br>next letter. Some of the sets will have more symmetry grids and letters than others.<br><br>It is important that you do your best on both the symmetry judgments and the letter recall<br>parts of the experiment. For for the symmetry judgments, try to work as <b>quickly</b> and <br>as <b>accurately</b> as possible. Remember to keep your symmetry accuracy at 85% or above.<br><br><b>For the letters, do NOT use any external aid (e.g., writing on paper, electronic device).</b><br><br>It is <u>very important</u> to our experiment to have a <b>true</b> view of your real performance.<br><br>Do not worry if you miss some when it gets hard! This task is meant to be very challenging!<br><br>Click the button to begin.</div><br><br><br><br>",0,ospan,starting_real_here,S6UfGbhrc4ZJGVHsYxqJVXZ1yuw2,html-button-response,97,1066920,0.0-43.0-2.0-3.0,,,,,,,,,,,,,,,657421f9661ce9a8cd7482d1,00:35:01,07/03/2024
,"<p style=""font-size:75px;"">...</p>",,ospan,iti,S6UfGbhrc4ZJGVHsYxqJVXZ1yuw2,html-keyboard-response,98,1068194,0.0-43.0-3.0-0.0-0.0,,,,,,,,,,,,,,,657421f9661ce9a8cd7482d1,00:35:01,07/03/2024
3346.0,,,ospan,symmetry,S6UfGbhrc4ZJGVHsYxqJVXZ1yuw2,symmetry-judgement-task,99,1072849,0.0-43.0-3.0-0.0-1.0-0.0,,,,,,,,,,1.0,1.0,,,,657421f9661ce9a8cd7482d1,00:35:01,07/03/2024
,"<div style=""font-size: 10rem; color: #0000FF"">P</div>",,ospan,letter,S6UfGbhrc4ZJGVHsYxqJVXZ1yuw2,html-keyboard-response,100,1073866,0.0-43.0-3.0-0.0-1.0-1.0,,,,,,,,,,,,,,,657421f9661ce9a8cd7482d1,00:35:01,07/03/2024
2428.0,,,ospan,symmetry,S6UfGbhrc4ZJGVHsYxqJVXZ1yuw2,symmetry-judgement-task,101,1078321,0.0-43.0-3.0-0.0-1.0-2.0,,,,,,,,,,1.0,1.0,,,,657421f9661ce9a8cd7482d1,00:35:01,07/03/2024
,"<div style=""font-size: 10rem; color: #0000FF"">K</div>",,ospan,letter,S6UfGbhrc4ZJGVHsYxqJVXZ1yuw2,html-keyboard-response,102,1079337,0.0-43.0-3.0-0.0-1.0-3.0,,,,,,,,,,,,,,,657421f9661ce9a8cd7482d1,00:35:01,07/03/2024
2367.0,,,ospan,symmetry,S6UfGbhrc4ZJGVHsYxqJVXZ1yuw2,symmetry-judgement-task,103,1083781,0.0-43.0-3.0-0.0-1.0-4.0,,,,,,,,,,1.0,1.0,,,,657421f9661ce9a8cd7482d1,00:35:01,07/03/2024
,"<div style=""font-size: 10rem; color: #0000FF"">J</div>",,ospan,letter,S6UfGbhrc4ZJGVHsYxqJVXZ1yuw2,html-keyboard-response,104,1084798,0.0-43.0-3.0-0.0-1.0-5.0,,,,,,,,,,,,,,,657421f9661ce9a8cd7482d1,00:35:01,07/03/2024
8880.60000000149,"<div class = numbox><p style=""font-size: 2.4rem"">Please recall the letters you saw to the best of your ability. If you do not remember a particular letter, use the SKIP button.<br><b>(When you are ready to lock in your answer, press ENTER)</b></p><button id = button_1 class = ""square num-button"" onclick = ""recordClick(this)""><div class = content><div class = numbers>C</div></div></button><button id = button_2 class = ""square num-button"" onclick = ""recordClick(this)""><div class = content><div class = numbers>G</div></div></button><button id = button_3 class = ""square num-button"" onclick = ""recordClick(this)""><div class = content><div class = numbers>H</div></div></button><button id = button_4 class = ""square num-button"" onclick = ""recordClick(this)""><div class = content><div class = numbers>J</div></div></button><button id = button_5 class = ""square num-button"" onclick = ""recordClick(this)""><div class = content><div class = numbers>K</div></div></button><button id = button_6 class = ""square num-button"" onclick = ""recordClick(this)""><div class = content><div class = numbers>L</div></div></button><button id = button_7 class = ""square num-button"" onclick = ""recordClick(this)""><div class = content><div class = numbers>N</div></div></button><button id = button_8 class = ""square num-button"" onclick = ""recordClick(this)""><div class = content><div class = numbers>P</div></div></button><button id = button_9 class = ""square num-button"" onclick = ""recordClick(this)""><div class = content><div class = numbers>Q</div></div></button><button id = button_10 class = ""square num-button"" onclick = ""recordClick(this)""><div class = content><div class = numbers>R</div></div></button><button id = button_11 class = ""square num-button"" onclick = ""recordClick(this)""><div class = content><div class = numbers>S</div></div></button><button id = button_12 class = ""square num-button"" onclick = ""recordClick(this)""><div class = content><div class = numbers>Y</div></div></button><button class = clear_button id = ""ClearButton"" onclick = ""clearResponse()"">BACKSPACE</button><button class = blank_button id = ""BlankButton"" onclick = ""blankResponse()"">SKIP</button><p style=""font-size: 2.4rem""><u><b>Current Answer:</b></u></p><br><br><div id=echoed_txt style=""font-size: 5rem; color:blue;""><b></b></div></div>",enter,ospan,retrieval,S6UfGbhrc4ZJGVHsYxqJVXZ1yuw2,html-keyboard-response,105,1094435,0.0-43.0-3.0-0.0-2.0,3,3,3,3.0,"[""P"",""K"",""J""]","[""P"",""K"",""J""]",1.0,3.0,,,,,,,657421f9661ce9a8cd7482d1,00:35:01,07/03/2024
1286.0,[''],0,ospan,feedback,S6UfGbhrc4ZJGVHsYxqJVXZ1yuw2,html-button-response,106,1096239,0.0-43.0-3.0-0.0-3.0,,,,,,,,,,,,100.0,0.0,,657421f9661ce9a8cd7482d1,00:35:01,07/03/2024
,"<p style=""font-size:75px;"">...</p>",,ospan,iti,S6UfGbhrc4ZJGVHsYxqJVXZ1yuw2,html-keyboard-response,107,1097254,0.0-43.0-4.0-0.0-0.0,,,,,,,,,,,,,,,657421f9661ce9a8cd7482d1,00:35:01,07/03/2024
3124.0,,,ospan,symmetry,S6UfGbhrc4ZJGVHsYxqJVXZ1yuw2,symmetry-judgement-task,108,1101681,0.0-43.0-4.0-0.0-1.0-0.0,,,,,,,,,,1.0,1.0,,,,657421f9661ce9a8cd7482d1,00:35:01,07/03/2024
,"<div style=""font-size: 10rem; color: #0000FF"">R</div>",,ospan,letter,S6UfGbhrc4ZJGVHsYxqJVXZ1yuw2,html-keyboard-response,109,1102694,0.0-43.0-4.0-0.0-1.0-1.0,,,,,,,,,,,,,,,657421f9661ce9a8cd7482d1,00:35:01,07/03/2024
2974.0,,,ospan,symmetry,S6UfGbhrc4ZJGVHsYxqJVXZ1yuw2,symmetry-judgement-task,110,1107687,0.0-43.0-4.0-0.0-1.0-2.0,,,,,,,,,,1.0,1.0,,,,657421f9661ce9a8cd7482d1,00:35:01,07/03/2024
,"<div style=""font-size: 10rem; color: #0000FF"">H</div>",,ospan,letter,S6UfGbhrc4ZJGVHsYxqJVXZ1yuw2,html-keyboard-response,111,1108689,0.0-43.0-4.0-0.0-1.0-3.0,,,,,,,,,,,,,,,657421f9661ce9a8cd7482d1,00:35:01,07/03/2024
2598.0,,,ospan,symmetry,S6UfGbhrc4ZJGVHsYxqJVXZ1yuw2,symmetry-judgement-task,112,1113349,0.0-43.0-4.0-0.0-1.0-4.0,,,,,,,,,,1.0,1.0,,,,657421f9661ce9a8cd7482d1,00:35:01,07/03/2024
,"<div style=""font-size: 10rem; color: #0000FF"">P</div>",,ospan,letter,S6UfGbhrc4ZJGVHsYxqJVXZ1yuw2,html-keyboard-response,113,1114361,0.0-43.0-4.0-0.0-1.0-5.0,,,,,,,,,,,,,,,657421f9661ce9a8cd7482d1,00:35:01,07/03/2024
2451.0,,,ospan,symmetry,S6UfGbhrc4ZJGVHsYxqJVXZ1yuw2,symmetry-judgement-task,114,1118832,0.0-43.0-4.0-0.0-1.0-6.0,,,,,,,,,,1.0,1.0,,,,657421f9661ce9a8cd7482d1,00:35:01,07/03/2024
,"<div style=""font-size: 10rem; color: #0000FF"">S</div>",,ospan,letter,S6UfGbhrc4ZJGVHsYxqJVXZ1yuw2,html-keyboard-response,115,1119842,0.0-43.0-4.0-0.0-1.0-7.0,,,,,,,,,,,,,,,657421f9661ce9a8cd7482d1,00:35:01,07/03/2024
13009.60000000149,"<div class = numbox><p style=""font-size: 2.4rem"">Please recall the letters you saw to the best of your ability. If you do not remember a particular letter, use the SKIP button.<br><b>(When you are ready to lock in your answer, press ENTER)</b></p><button id = button_1 class = ""square num-button"" onclick = ""recordClick(this)""><div class = content><div class = numbers>C</div></div></button><button id = button_2 class = ""square num-button"" onclick = ""recordClick(this)""><div class = content><div class = numbers>G</div></div></button><button id = button_3 class = ""square num-button"" onclick = ""recordClick(this)""><div class = content><div class = numbers>H</div></div></button><button id = button_4 class = ""square num-button"" onclick = ""recordClick(this)""><div class = content><div class = numbers>J</div></div></button><button id = button_5 class = ""square num-button"" onclick = ""recordClick(this)""><div class = content><div class = numbers>K</div></div></button><button id = button_6 class = ""square num-button"" onclick = ""recordClick(this)""><div class = content><div class = numbers>L</div></div></button><button id = button_7 class = ""square num-button"" onclick = ""recordClick(this)""><div class = content><div class = numbers>N</div></div></button><button id = button_8 class = ""square num-button"" onclick = ""recordClick(this)""><div class = content><div class = numbers>P</div></div></button><button id = button_9 class = ""square num-button"" onclick = ""recordClick(this)""><div class = content><div class = numbers>Q</div></div></button><button id = button_10 class = ""square num-button"" onclick = ""recordClick(this)""><div class = content><div class = numbers>R</div></div></button><button id = button_11 class = ""square num-button"" onclick = ""recordClick(this)""><div class = content><div class = numbers>S</div></div></button><button id = button_12 class = ""square num-button"" onclick = ""recordClick(this)""><div class = content><div class = numbers>Y</div></div></button><button class = clear_button id = ""ClearButton"" onclick = ""clearResponse()"">BACKSPACE</button><button class = blank_button id = ""BlankButton"" onclick = ""blankResponse()"">SKIP</button><p style=""font-size: 2.4rem""><u><b>Current Answer:</b></u></p><br><br><div id=echoed_txt style=""font-size: 5rem; color:blue;""><b></b></div></div>",enter,ospan,retrieval,S6UfGbhrc4ZJGVHsYxqJVXZ1yuw2,html-keyboard-response,116,1133609,0.0-43.0-4.0-0.0-2.0,7,7,7,4.0,"[""R"",""H"",""P"",""S""]","[""R"",""H"",""P"",""S""]",1.0,4.0,,,,,,,657421f9661ce9a8cd7482d1,00:35:01,07/03/2024
1310.5999999940395,[''],0,ospan,feedback,S6UfGbhrc4ZJGVHsYxqJVXZ1yuw2,html-button-response,117,1135430,0.0-43.0-4.0-0.0-3.0,,,,,,,,,,,,100.0,0.0,,657421f9661ce9a8cd7482d1,00:35:01,07/03/2024
,"<p style=""font-size:75px;"">...</p>",,ospan,iti,S6UfGbhrc4ZJGVHsYxqJVXZ1yuw2,html-keyboard-response,118,1136443,0.0-43.0-4.0-1.0-0.0,,,,,,,,,,,,,,,657421f9661ce9a8cd7482d1,00:35:01,07/03/2024
3939.0,,,ospan,symmetry,S6UfGbhrc4ZJGVHsYxqJVXZ1yuw2,symmetry-judgement-task,119,1141511,0.0-43.0-4.0-1.0-1.0-0.0,,,,,,,,,,1.0,1.0,,,,657421f9661ce9a8cd7482d1,00:35:01,07/03/2024
,"<div style=""font-size: 10rem; color: #0000FF"">R</div>",,ospan,letter,S6UfGbhrc4ZJGVHsYxqJVXZ1yuw2,html-keyboard-response,120,1142524,0.0-43.0-4.0-1.0-1.0-1.0,,,,,,,,,,,,,,,657421f9661ce9a8cd7482d1,00:35:01,07/03/2024
2764.0,,,ospan,symmetry,S6UfGbhrc4ZJGVHsYxqJVXZ1yuw2,symmetry-judgement-task,121,1147287,0.0-43.0-4.0-1.0-1.0-2.0,,,,,,,,,,1.0,1.0,,,,657421f9661ce9a8cd7482d1,00:35:01,07/03/2024
,"<div style=""font-size: 10rem; color: #0000FF"">C</div>",,ospan,letter,S6UfGbhrc4ZJGVHsYxqJVXZ1yuw2,html-keyboard-response,122,1148293,0.0-43.0-4.0-1.0-1.0-3.0,,,,,,,,,,,,,,,657421f9661ce9a8cd7482d1,00:35:01,07/03/2024
2624.0,,,ospan,symmetry,S6UfGbhrc4ZJGVHsYxqJVXZ1yuw2,symmetry-judgement-task,123,1152905,0.0-43.0-4.0-1.0-1.0-4.0,,,,,,,,,,1.0,1.0,,,,657421f9661ce9a8cd7482d1,00:35:01,07/03/2024
,"<div style=""font-size: 10rem; color: #0000FF"">K</div>",,ospan,letter,S6UfGbhrc4ZJGVHsYxqJVXZ1yuw2,html-keyboard-response,124,1153911,0.0-43.0-4.0-1.0-1.0-5.0,,,,,,,,,,,,,,,657421f9661ce9a8cd7482d1,00:35:01,07/03/2024
2675.0,,,ospan,symmetry,S6UfGbhrc4ZJGVHsYxqJVXZ1yuw2,symmetry-judgement-task,125,1158660,0.0-43.0-4.0-1.0-1.0-6.0,,,,,,,,,,1.0,1.0,,,,657421f9661ce9a8cd7482d1,00:35:01,07/03/2024
,"<div style=""font-size: 10rem; color: #0000FF"">S</div>",,ospan,letter,S6UfGbhrc4ZJGVHsYxqJVXZ1yuw2,html-keyboard-response,126,1159669,0.0-43.0-4.0-1.0-1.0-7.0,,,,,,,,,,,,,,,657421f9661ce9a8cd7482d1,00:35:01,07/03/2024
2367.0,,,ospan,symmetry,S6UfGbhrc4ZJGVHsYxqJVXZ1yuw2,symmetry-judgement-task,127,1164106,0.0-43.0-4.0-1.0-1.0-8.0,,,,,,,,,,1.0,1.0,,,,657421f9661ce9a8cd7482d1,00:35:01,07/03/2024
,"<div style=""font-size: 10rem; color: #0000FF"">L</div>",,ospan,letter,S6UfGbhrc4ZJGVHsYxqJVXZ1yuw2,html-keyboard-response,128,1165112,0.0-43.0-4.0-1.0-1.0-9.0,,,,,,,,,,,,,,,657421f9661ce9a8cd7482d1,00:35:01,07/03/2024
18186.5,"<div class = numbox><p style=""font-size: 2.4rem"">Please recall the letters you saw to the best of your ability. If you do not remember a particular letter, use the SKIP button.<br><b>(When you are ready to lock in your answer, press ENTER)</b></p><button id = button_1 class = ""square num-button"" onclick = ""recordClick(this)""><div class = content><div class = numbers>C</div></div></button><button id = button_2 class = ""square num-button"" onclick = ""recordClick(this)""><div class = content><div class = numbers>G</div></div></button><button id = button_3 class = ""square num-button"" onclick = ""recordClick(this)""><div class = content><div class = numbers>H</div></div></button><button id = button_4 class = ""square num-button"" onclick = ""recordClick(this)""><div class = content><div class = numbers>J</div></div></button><button id = button_5 class = ""square num-button"" onclick = ""recordClick(this)""><div class = content><div class = numbers>K</div></div></button><button id = button_6 class = ""square num-button"" onclick = ""recordClick(this)""><div class = content><div class = numbers>L</div></div></button><button id = button_7 class = ""square num-button"" onclick = ""recordClick(this)""><div class = content><div class = numbers>N</div></div></button><button id = button_8 class = ""square num-button"" onclick = ""recordClick(this)""><div class = content><div class = numbers>P</div></div></button><button id = button_9 class = ""square num-button"" onclick = ""recordClick(this)""><div class = content><div class = numbers>Q</div></div></button><button id = button_10 class = ""square num-button"" onclick = ""recordClick(this)""><div class = content><div class = numbers>R</div></div></button><button id = button_11 class = ""square num-button"" onclick = ""recordClick(this)""><div class = content><div class = numbers>S</div></div></button><button id = button_12 class = ""square num-button"" onclick = ""recordClick(this)""><div class = content><div class = numbers>Y</div></div></button><button class = clear_button id = ""ClearButton"" onclick = ""clearResponse()"">BACKSPACE</button><button class = blank_button id = ""BlankButton"" onclick = ""blankResponse()"">SKIP</button><p style=""font-size: 2.4rem""><u><b>Current Answer:</b></u></p><br><br><div id=echoed_txt style=""font-size: 5rem; color:blue;""><b></b></div></div>",enter,ospan,retrieval,S6UfGbhrc4ZJGVHsYxqJVXZ1yuw2,html-keyboard-response,129,1184055,0.0-43.0-4.0-1.0-2.0,12,12,12,5.0,"[""R"",""C"",""K"",""S"",""L""]","[""R"",""C"",""K"",""S"",""L""]",1.0,5.0,,,,,,,657421f9661ce9a8cd7482d1,00:35:01,07/03/2024
1196.1999999955297,[''],0,ospan,feedback,S6UfGbhrc4ZJGVHsYxqJVXZ1yuw2,html-button-response,130,1185762,0.0-43.0-4.0-1.0-3.0,,,,,,,,,,,,100.0,0.0,,657421f9661ce9a8cd7482d1,00:35:01,07/03/2024
,"<p style=""font-size:75px;"">...</p>",,ospan,iti,S6UfGbhrc4ZJGVHsYxqJVXZ1yuw2,html-keyboard-response,131,1186772,0.0-43.0-4.0-2.0-0.0,,,,,,,,,,,,,,,657421f9661ce9a8cd7482d1,00:35:01,07/03/2024
3321.0,,,ospan,symmetry,S6UfGbhrc4ZJGVHsYxqJVXZ1yuw2,symmetry-judgement-task,132,1191227,0.0-43.0-4.0-2.0-1.0-0.0,,,,,,,,,,1.0,1.0,,,,657421f9661ce9a8cd7482d1,00:35:01,07/03/2024
,"<div style=""font-size: 10rem; color: #0000FF"">Q</div>",,ospan,letter,S6UfGbhrc4ZJGVHsYxqJVXZ1yuw2,html-keyboard-response,133,1192241,0.0-43.0-4.0-2.0-1.0-1.0,,,,,,,,,,,,,,,657421f9661ce9a8cd7482d1,00:35:01,07/03/2024
2491.0,,,ospan,symmetry,S6UfGbhrc4ZJGVHsYxqJVXZ1yuw2,symmetry-judgement-task,134,1196798,0.0-43.0-4.0-2.0-1.0-2.0,,,,,,,,,,1.0,1.0,,,,657421f9661ce9a8cd7482d1,00:35:01,07/03/2024
,"<div style=""font-size: 10rem; color: #0000FF"">R</div>",,ospan,letter,S6UfGbhrc4ZJGVHsYxqJVXZ1yuw2,html-keyboard-response,135,1197810,0.0-43.0-4.0-2.0-1.0-3.0,,,,,,,,,,,,,,,657421f9661ce9a8cd7482d1,00:35:01,07/03/2024
1756.0,,,ospan,symmetry,S6UfGbhrc4ZJGVHsYxqJVXZ1yuw2,symmetry-judgement-task,136,1201593,0.0-43.0-4.0-2.0-1.0-4.0,,,,,,,,,,1.0,1.0,,,,657421f9661ce9a8cd7482d1,00:35:01,07/03/2024
,"<div style=""font-size: 10rem; color: #0000FF"">C</div>",,ospan,letter,S6UfGbhrc4ZJGVHsYxqJVXZ1yuw2,html-keyboard-response,137,1202608,0.0-43.0-4.0-2.0-1.0-5.0,,,,,,,,,,,,,,,657421f9661ce9a8cd7482d1,00:35:01,07/03/2024
9010.10000000149,"<div class = numbox><p style=""font-size: 2.4rem"">Please recall the letters you saw to the best of your ability. If you do not remember a particular letter, use the SKIP button.<br><b>(When you are ready to lock in your answer, press ENTER)</b></p><button id = button_1 class = ""square num-button"" onclick = ""recordClick(this)""><div class = content><div class = numbers>C</div></div></button><button id = button_2 class = ""square num-button"" onclick = ""recordClick(this)""><div class = content><div class = numbers>G</div></div></button><button id = button_3 class = ""square num-button"" onclick = ""recordClick(this)""><div class = content><div class = numbers>H</div></div></button><button id = button_4 class = ""square num-button"" onclick = ""recordClick(this)""><div class = content><div class = numbers>J</div></div></button><button id = button_5 class = ""square num-button"" onclick = ""recordClick(this)""><div class = content><div class = numbers>K</div></div></button><button id = button_6 class = ""square num-button"" onclick = ""recordClick(this)""><div class = content><div class = numbers>L</div></div></button><button id = button_7 class = ""square num-button"" onclick = ""recordClick(this)""><div class = content><div class = numbers>N</div></div></button><button id = button_8 class = ""square num-button"" onclick = ""recordClick(this)""><div class = content><div class = numbers>P</div></div></button><button id = button_9 class = ""square num-button"" onclick = ""recordClick(this)""><div class = content><div class = numbers>Q</div></div></button><button id = button_10 class = ""square num-button"" onclick = ""recordClick(this)""><div class = content><div class = numbers>R</div></div></button><button id = button_11 class = ""square num-button"" onclick = ""recordClick(this)""><div class = content><div class = numbers>S</div></div></button><button id = button_12 class = ""square num-button"" onclick = ""recordClick(this)""><div class = content><div class = numbers>Y</div></div></button><button class = clear_button id = ""ClearButton"" onclick = ""clearResponse()"">BACKSPACE</button><button class = blank_button id = ""BlankButton"" onclick = ""blankResponse()"">SKIP</button><p style=""font-size: 2.4rem""><u><b>Current Answer:</b></u></p><br><br><div id=echoed_txt style=""font-size: 5rem; color:blue;""><b></b></div></div>",enter,ospan,retrieval,S6UfGbhrc4ZJGVHsYxqJVXZ1yuw2,html-keyboard-response,138,1212374,0.0-43.0-4.0-2.0-2.0,15,15,15,3.0,"[""Q"",""R"",""C""]","[""Q"",""R"",""C""]",1.0,3.0,,,,,,,657421f9661ce9a8cd7482d1,00:35:01,07/03/2024
1202.7000000029802,[''],0,ospan,feedback,S6UfGbhrc4ZJGVHsYxqJVXZ1yuw2,html-button-response,139,1214082,0.0-43.0-4.0-2.0-3.0,,,,,,,,,,,,100.0,0.0,,657421f9661ce9a8cd7482d1,00:35:01,07/03/2024
,"<p style=""font-size:75px;"">...</p>",,ospan,iti,S6UfGbhrc4ZJGVHsYxqJVXZ1yuw2,html-keyboard-response,140,1215092,0.0-43.0-5.0-0.0-0.0,,,,,,,,,,,,,,,657421f9661ce9a8cd7482d1,00:35:01,07/03/2024
3847.0,,,ospan,symmetry,S6UfGbhrc4ZJGVHsYxqJVXZ1yuw2,symmetry-judgement-task,141,1220071,0.0-43.0-5.0-0.0-1.0-0.0,,,,,,,,,,1.0,1.0,,,,657421f9661ce9a8cd7482d1,00:35:01,07/03/2024
,"<div style=""font-size: 10rem; color: #0000FF"">Q</div>",,ospan,letter,S6UfGbhrc4ZJGVHsYxqJVXZ1yuw2,html-keyboard-response,142,1221079,0.0-43.0-5.0-0.0-1.0-1.0,,,,,,,,,,,,,,,657421f9661ce9a8cd7482d1,00:35:01,07/03/2024
2129.0,,,ospan,symmetry,S6UfGbhrc4ZJGVHsYxqJVXZ1yuw2,symmetry-judgement-task,143,1225288,0.0-43.0-5.0-0.0-1.0-2.0,,,,,,,,,,1.0,1.0,,,,657421f9661ce9a8cd7482d1,00:35:01,07/03/2024
,"<div style=""font-size: 10rem; color: #0000FF"">G</div>",,ospan,letter,S6UfGbhrc4ZJGVHsYxqJVXZ1yuw2,html-keyboard-response,144,1226290,0.0-43.0-5.0-0.0-1.0-3.0,,,,,,,,,,,,,,,657421f9661ce9a8cd7482d1,00:35:01,07/03/2024
2218.0,,,ospan,symmetry,S6UfGbhrc4ZJGVHsYxqJVXZ1yuw2,symmetry-judgement-task,145,1230506,0.0-43.0-5.0-0.0-1.0-4.0,,,,,,,,,,1.0,1.0,,,,657421f9661ce9a8cd7482d1,00:35:01,07/03/2024
,"<div style=""font-size: 10rem; color: #0000FF"">Y</div>",,ospan,letter,S6UfGbhrc4ZJGVHsYxqJVXZ1yuw2,html-keyboard-response,146,1231517,0.0-43.0-5.0-0.0-1.0-5.0,,,,,,,,,,,,,,,657421f9661ce9a8cd7482d1,00:35:01,07/03/2024
2150.0,,,ospan,symmetry,S6UfGbhrc4ZJGVHsYxqJVXZ1yuw2,symmetry-judgement-task,147,1235804,0.0-43.0-5.0-0.0-1.0-6.0,,,,,,,,,,1.0,1.0,,,,657421f9661ce9a8cd7482d1,00:35:01,07/03/2024
,"<div style=""font-size: 10rem; color: #0000FF"">C</div>",,ospan,letter,S6UfGbhrc4ZJGVHsYxqJVXZ1yuw2,html-keyboard-response,148,1236821,0.0-43.0-5.0-0.0-1.0-7.0,,,,,,,,,,,,,,,657421f9661ce9a8cd7482d1,00:35:01,07/03/2024
2287.0,,,ospan,symmetry,S6UfGbhrc4ZJGVHsYxqJVXZ1yuw2,symmetry-judgement-task,149,1241177,0.0-43.0-5.0-0.0-1.0-8.0,,,,,,,,,,1.0,1.0,,,,657421f9661ce9a8cd7482d1,00:35:01,07/03/2024
,"<div style=""font-size: 10rem; color: #0000FF"">J</div>",,ospan,letter,S6UfGbhrc4ZJGVHsYxqJVXZ1yuw2,html-keyboard-response,150,1242194,0.0-43.0-5.0-0.0-1.0-9.0,,,,,,,,,,,,,,,657421f9661ce9a8cd7482d1,00:35:01,07/03/2024
2589.0,,,ospan,symmetry,S6UfGbhrc4ZJGVHsYxqJVXZ1yuw2,symmetry-judgement-task,151,1246816,0.0-43.0-5.0-0.0-1.0-10.0,,,,,,,,,,1.0,1.0,,,,657421f9661ce9a8cd7482d1,00:35:01,07/03/2024
,"<div style=""font-size: 10rem; color: #0000FF"">R</div>",,ospan,letter,S6UfGbhrc4ZJGVHsYxqJVXZ1yuw2,html-keyboard-response,152,1247825,0.0-43.0-5.0-0.0-1.0-11.0,,,,,,,,,,,,,,,657421f9661ce9a8cd7482d1,00:35:01,07/03/2024
27106.10000000149,"<div class = numbox><p style=""font-size: 2.4rem"">Please recall the letters you saw to the best of your ability. If you do not remember a particular letter, use the SKIP button.<br><b>(When you are ready to lock in your answer, press ENTER)</b></p><button id = button_1 class = ""square num-button"" onclick = ""recordClick(this)""><div class = content><div class = numbers>C</div></div></button><button id = button_2 class = ""square num-button"" onclick = ""recordClick(this)""><div class = content><div class = numbers>G</div></div></button><button id = button_3 class = ""square num-button"" onclick = ""recordClick(this)""><div class = content><div class = numbers>H</div></div></button><button id = button_4 class = ""square num-button"" onclick = ""recordClick(this)""><div class = content><div class = numbers>J</div></div></button><button id = button_5 class = ""square num-button"" onclick = ""recordClick(this)""><div class = content><div class = numbers>K</div></div></button><button id = button_6 class = ""square num-button"" onclick = ""recordClick(this)""><div class = content><div class = numbers>L</div></div></button><button id = button_7 class = ""square num-button"" onclick = ""recordClick(this)""><div class = content><div class = numbers>N</div></div></button><button id = button_8 class = ""square num-button"" onclick = ""recordClick(this)""><div class = content><div class = numbers>P</div></div></button><button id = button_9 class = ""square num-button"" onclick = ""recordClick(this)""><div class = content><div class = numbers>Q</div></div></button><button id = button_10 class = ""square num-button"" onclick = ""recordClick(this)""><div class = content><div class = numbers>R</div></div></button><button id = button_11 class = ""square num-button"" onclick = ""recordClick(this)""><div class = content><div class = numbers>S</div></div></button><button id = button_12 class = ""square num-button"" onclick = ""recordClick(this)""><div class = content><div class = numbers>Y</div></div></button><button class = clear_button id = ""ClearButton"" onclick = ""clearResponse()"">BACKSPACE</button><button class = blank_button id = ""BlankButton"" onclick = ""blankResponse()"">SKIP</button><p style=""font-size: 2.4rem""><u><b>Current Answer:</b></u></p><br><br><div id=echoed_txt style=""font-size: 5rem; color:blue;""><b></b></div></div>",enter,ospan,retrieval,S6UfGbhrc4ZJGVHsYxqJVXZ1yuw2,html-keyboard-response,153,1275697,0.0-43.0-5.0-0.0-2.0,21,21,21,6.0,"[""Q"",""G"",""Y"",""C"",""J"",""R""]","[""Q"",""G"",""Y"",""C"",""J"",""R""]",1.0,6.0,,,,,,,657421f9661ce9a8cd7482d1,00:35:01,07/03/2024
2369.5999999940395,[''],0,ospan,feedback,S6UfGbhrc4ZJGVHsYxqJVXZ1yuw2,html-button-response,154,1278577,0.0-43.0-5.0-0.0-3.0,,,,,,,,,,,,100.0,0.0,,657421f9661ce9a8cd7482d1,00:35:01,07/03/2024
,"<p style=""font-size:75px;"">...</p>",,ospan,iti,S6UfGbhrc4ZJGVHsYxqJVXZ1yuw2,html-keyboard-response,155,1279589,0.0-43.0-5.0-1.0-0.0,,,,,,,,,,,,,,,657421f9661ce9a8cd7482d1,00:35:01,07/03/2024
3075.0,,,ospan,symmetry,S6UfGbhrc4ZJGVHsYxqJVXZ1yuw2,symmetry-judgement-task,156,1283988,0.0-43.0-5.0-1.0-1.0-0.0,,,,,,,,,,1.0,1.0,,,,657421f9661ce9a8cd7482d1,00:35:01,07/03/2024
,"<div style=""font-size: 10rem; color: #0000FF"">J</div>",,ospan,letter,S6UfGbhrc4ZJGVHsYxqJVXZ1yuw2,html-keyboard-response,157,1285000,0.0-43.0-5.0-1.0-1.0-1.0,,,,,,,,,,,,,,,657421f9661ce9a8cd7482d1,00:35:01,07/03/2024
1964.0,,,ospan,symmetry,S6UfGbhrc4ZJGVHsYxqJVXZ1yuw2,symmetry-judgement-task,158,1289030,0.0-43.0-5.0-1.0-1.0-2.0,,,,,,,,,,1.0,1.0,,,,657421f9661ce9a8cd7482d1,00:35:01,07/03/2024
,"<div style=""font-size: 10rem; color: #0000FF"">N</div>",,ospan,letter,S6UfGbhrc4ZJGVHsYxqJVXZ1yuw2,html-keyboard-response,159,1290044,0.0-43.0-5.0-1.0-1.0-3.0,,,,,,,,,,,,,,,657421f9661ce9a8cd7482d1,00:35:01,07/03/2024
1754.0,,,ospan,symmetry,S6UfGbhrc4ZJGVHsYxqJVXZ1yuw2,symmetry-judgement-task,160,1293800,0.0-43.0-5.0-1.0-1.0-4.0,,,,,,,,,,1.0,1.0,,,,657421f9661ce9a8cd7482d1,00:35:01,07/03/2024
,"<div style=""font-size: 10rem; color: #0000FF"">L</div>",,ospan,letter,S6UfGbhrc4ZJGVHsYxqJVXZ1yuw2,html-keyboard-response,161,1294810,0.0-43.0-5.0-1.0-1.0-5.0,,,,,,,,,,,,,,,657421f9661ce9a8cd7482d1,00:35:01,07/03/2024
1989.0,,,ospan,symmetry,S6UfGbhrc4ZJGVHsYxqJVXZ1yuw2,symmetry-judgement-task,162,1298859,0.0-43.0-5.0-1.0-1.0-6.0,,,,,,,,,,1.0,1.0,,,,657421f9661ce9a8cd7482d1,00:35:01,07/03/2024
,"<div style=""font-size: 10rem; color: #0000FF"">S</div>",,ospan,letter,S6UfGbhrc4ZJGVHsYxqJVXZ1yuw2,html-keyboard-response,163,1299864,0.0-43.0-5.0-1.0-1.0-7.0,,,,,,,,,,,,,,,657421f9661ce9a8cd7482d1,00:35:01,07/03/2024
2986.0,,,ospan,symmetry,S6UfGbhrc4ZJGVHsYxqJVXZ1yuw2,symmetry-judgement-task,164,1304932,0.0-43.0-5.0-1.0-1.0-8.0,,,,,,,,,,1.0,1.0,,,,657421f9661ce9a8cd7482d1,00:35:01,07/03/2024
,"<div style=""font-size: 10rem; color: #0000FF"">Y</div>",,ospan,letter,S6UfGbhrc4ZJGVHsYxqJVXZ1yuw2,html-keyboard-response,165,1305947,0.0-43.0-5.0-1.0-1.0-9.0,,,,,,,,,,,,,,,657421f9661ce9a8cd7482d1,00:35:01,07/03/2024
1979.0,,,ospan,symmetry,S6UfGbhrc4ZJGVHsYxqJVXZ1yuw2,symmetry-judgement-task,166,1310007,0.0-43.0-5.0-1.0-1.0-10.0,,,,,,,,,,1.0,1.0,,,,657421f9661ce9a8cd7482d1,00:35:01,07/03/2024
,"<div style=""font-size: 10rem; color: #0000FF"">K</div>",,ospan,letter,S6UfGbhrc4ZJGVHsYxqJVXZ1yuw2,html-keyboard-response,167,1311011,0.0-43.0-5.0-1.0-1.0-11.0,,,,,,,,,,,,,,,657421f9661ce9a8cd7482d1,00:35:01,07/03/2024
1985.0,,,ospan,symmetry,S6UfGbhrc4ZJGVHsYxqJVXZ1yuw2,symmetry-judgement-task,168,1315101,0.0-43.0-5.0-1.0-1.0-12.0,,,,,,,,,,1.0,1.0,,,,657421f9661ce9a8cd7482d1,00:35:01,07/03/2024
,"<div style=""font-size: 10rem; color: #0000FF"">C</div>",,ospan,letter,S6UfGbhrc4ZJGVHsYxqJVXZ1yuw2,html-keyboard-response,169,1316111,0.0-43.0-5.0-1.0-1.0-13.0,,,,,,,,,,,,,,,657421f9661ce9a8cd7482d1,00:35:01,07/03/2024
21849.0,"<div class = numbox><p style=""font-size: 2.4rem"">Please recall the letters you saw to the best of your ability. If you do not remember a particular letter, use the SKIP button.<br><b>(When you are ready to lock in your answer, press ENTER)</b></p><button id = button_1 class = ""square num-button"" onclick = ""recordClick(this)""><div class = content><div class = numbers>C</div></div></button><button id = button_2 class = ""square num-button"" onclick = ""recordClick(this)""><div class = content><div class = numbers>G</div></div></button><button id = button_3 class = ""square num-button"" onclick = ""recordClick(this)""><div class = content><div class = numbers>H</div></div></button><button id = button_4 class = ""square num-button"" onclick = ""recordClick(this)""><div class = content><div class = numbers>J</div></div></button><button id = button_5 class = ""square num-button"" onclick = ""recordClick(this)""><div class = content><div class = numbers>K</div></div></button><button id = button_6 class = ""square num-button"" onclick = ""recordClick(this)""><div class = content><div class = numbers>L</div></div></button><button id = button_7 class = ""square num-button"" onclick = ""recordClick(this)""><div class = content><div class = numbers>N</div></div></button><button id = button_8 class = ""square num-button"" onclick = ""recordClick(this)""><div class = content><div class = numbers>P</div></div></button><button id = button_9 class = ""square num-button"" onclick = ""recordClick(this)""><div class = content><div class = numbers>Q</div></div></button><button id = button_10 class = ""square num-button"" onclick = ""recordClick(this)""><div class = content><div class = numbers>R</div></div></button><button id = button_11 class = ""square num-button"" onclick = ""recordClick(this)""><div class = content><div class = numbers>S</div></div></button><button id = button_12 class = ""square num-button"" onclick = ""recordClick(this)""><div class = content><div class = numbers>Y</div></div></button><button class = clear_button id = ""ClearButton"" onclick = ""clearResponse()"">BACKSPACE</button><button class = blank_button id = ""BlankButton"" onclick = ""blankResponse()"">SKIP</button><p style=""font-size: 2.4rem""><u><b>Current Answer:</b></u></p><br><br><div id=echoed_txt style=""font-size: 5rem; color:blue;""><b></b></div></div>",enter,ospan,retrieval,S6UfGbhrc4ZJGVHsYxqJVXZ1yuw2,html-keyboard-response,170,1338718,0.0-43.0-5.0-1.0-2.0,28,28,28,7.0,"[""J"",""N"",""L"",""S"",""Y"",""K"",""C""]","[""J"",""N"",""L"",""S"",""Y"",""K"",""C""]",1.0,7.0,,,,,,,657421f9661ce9a8cd7482d1,00:35:01,07/03/2024
1235.2000000029802,[''],0,ospan,feedback,S6UfGbhrc4ZJGVHsYxqJVXZ1yuw2,html-button-response,171,1340464,0.0-43.0-5.0-1.0-3.0,,,,,,,,,,,,100.0,0.0,,657421f9661ce9a8cd7482d1,00:35:01,07/03/2024
,"<p style=""font-size:75px;"">...</p>",,ospan,iti,S6UfGbhrc4ZJGVHsYxqJVXZ1yuw2,html-keyboard-response,172,1341483,0.0-43.0-6.0-0.0-0.0,,,,,,,,,,,,,,,657421f9661ce9a8cd7482d1,00:35:01,07/03/2024
3380.0,,,ospan,symmetry,S6UfGbhrc4ZJGVHsYxqJVXZ1yuw2,symmetry-judgement-task,173,1346164,0.0-43.0-6.0-0.0-1.0-0.0,,,,,,,,,,1.0,1.0,,,,657421f9661ce9a8cd7482d1,00:35:01,07/03/2024
,"<div style=""font-size: 10rem; color: #0000FF"">G</div>",,ospan,letter,S6UfGbhrc4ZJGVHsYxqJVXZ1yuw2,html-keyboard-response,174,1347168,0.0-43.0-6.0-0.0-1.0-1.0,,,,,,,,,,,,,,,657421f9661ce9a8cd7482d1,00:35:01,07/03/2024
2375.0,,,ospan,symmetry,S6UfGbhrc4ZJGVHsYxqJVXZ1yuw2,symmetry-judgement-task,175,1351543,0.0-43.0-6.0-0.0-1.0-2.0,,,,,,,,,,1.0,1.0,,,,657421f9661ce9a8cd7482d1,00:35:01,07/03/2024
,"<div style=""font-size: 10rem; color: #0000FF"">K</div>",,ospan,letter,S6UfGbhrc4ZJGVHsYxqJVXZ1yuw2,html-keyboard-response,176,1352559,0.0-43.0-6.0-0.0-1.0-3.0,,,,,,,,,,,,,,,657421f9661ce9a8cd7482d1,00:35:01,07/03/2024
2624.0,,,ospan,symmetry,S6UfGbhrc4ZJGVHsYxqJVXZ1yuw2,symmetry-judgement-task,177,1357273,0.0-43.0-6.0-0.0-1.0-4.0,,,,,,,,,,1.0,1.0,,,,657421f9661ce9a8cd7482d1,00:35:01,07/03/2024
,"<div style=""font-size: 10rem; color: #0000FF"">L</div>",,ospan,letter,S6UfGbhrc4ZJGVHsYxqJVXZ1yuw2,html-keyboard-response,178,1358290,0.0-43.0-6.0-0.0-1.0-5.0,,,,,,,,,,,,,,,657421f9661ce9a8cd7482d1,00:35:01,07/03/2024
3039.0,,,ospan,symmetry,S6UfGbhrc4ZJGVHsYxqJVXZ1yuw2,symmetry-judgement-task,179,1363401,0.0-43.0-6.0-0.0-1.0-6.0,,,,,,,,,,1.0,1.0,,,,657421f9661ce9a8cd7482d1,00:35:01,07/03/2024
,"<div style=""font-size: 10rem; color: #0000FF"">N</div>",,ospan,letter,S6UfGbhrc4ZJGVHsYxqJVXZ1yuw2,html-keyboard-response,180,1364415,0.0-43.0-6.0-0.0-1.0-7.0,,,,,,,,,,,,,,,657421f9661ce9a8cd7482d1,00:35:01,07/03/2024
3893.0,,,ospan,symmetry,S6UfGbhrc4ZJGVHsYxqJVXZ1yuw2,symmetry-judgement-task,181,1370394,0.0-43.0-6.0-0.0-1.0-8.0,,,,,,,,,,1.0,1.0,,,,657421f9661ce9a8cd7482d1,00:35:01,07/03/2024
,"<div style=""font-size: 10rem; color: #0000FF"">R</div>",,ospan,letter,S6UfGbhrc4ZJGVHsYxqJVXZ1yuw2,html-keyboard-response,182,1371409,0.0-43.0-6.0-0.0-1.0-9.0,,,,,,,,,,,,,,,657421f9661ce9a8cd7482d1,00:35:01,07/03/2024
20662.70000000298,"<div class = numbox><p style=""font-size: 2.4rem"">Please recall the letters you saw to the best of your ability. If you do not remember a particular letter, use the SKIP button.<br><b>(When you are ready to lock in your answer, press ENTER)</b></p><button id = button_1 class = ""square num-button"" onclick = ""recordClick(this)""><div class = content><div class = numbers>C</div></div></button><button id = button_2 class = ""square num-button"" onclick = ""recordClick(this)""><div class = content><div class = numbers>G</div></div></button><button id = button_3 class = ""square num-button"" onclick = ""recordClick(this)""><div class = content><div class = numbers>H</div></div></button><button id = button_4 class = ""square num-button"" onclick = ""recordClick(this)""><div class = content><div class = numbers>J</div></div></button><button id = button_5 class = ""square num-button"" onclick = ""recordClick(this)""><div class = content><div class = numbers>K</div></div></button><button id = button_6 class = ""square num-button"" onclick = ""recordClick(this)""><div class = content><div class = numbers>L</div></div></button><button id = button_7 class = ""square num-button"" onclick = ""recordClick(this)""><div class = content><div class = numbers>N</div></div></button><button id = button_8 class = ""square num-button"" onclick = ""recordClick(this)""><div class = content><div class = numbers>P</div></div></button><button id = button_9 class = ""square num-button"" onclick = ""recordClick(this)""><div class = content><div class = numbers>Q</div></div></button><button id = button_10 class = ""square num-button"" onclick = ""recordClick(this)""><div class = content><div class = numbers>R</div></div></button><button id = button_11 class = ""square num-button"" onclick = ""recordClick(this)""><div class = content><div class = numbers>S</div></div></button><button id = button_12 class = ""square num-button"" onclick = ""recordClick(this)""><div class = content><div class = numbers>Y</div></div></button><button class = clear_button id = ""ClearButton"" onclick = ""clearResponse()"">BACKSPACE</button><button class = blank_button id = ""BlankButton"" onclick = ""blankResponse()"">SKIP</button><p style=""font-size: 2.4rem""><u><b>Current Answer:</b></u></p><br><br><div id=echoed_txt style=""font-size: 5rem; color:blue;""><b></b></div></div>",enter,ospan,retrieval,S6UfGbhrc4ZJGVHsYxqJVXZ1yuw2,html-keyboard-response,183,1392834,0.0-43.0-6.0-0.0-2.0,33,33,33,5.0,"[""G"",""K"",""L"",""N"",""R""]","[""G"",""K"",""L"",""N"",""R""]",1.0,5.0,,,,,,,657421f9661ce9a8cd7482d1,00:35:01,07/03/2024
1437.4000000059605,[''],0,ospan,feedback,S6UfGbhrc4ZJGVHsYxqJVXZ1yuw2,html-button-response,184,1394789,0.0-43.0-6.0-0.0-3.0,,,,,,,,,,,,100.0,0.0,,657421f9661ce9a8cd7482d1,00:35:01,07/03/2024
,"<p style=""font-size:75px;"">...</p>",,ospan,iti,S6UfGbhrc4ZJGVHsYxqJVXZ1yuw2,html-keyboard-response,185,1395806,0.0-43.0-6.0-1.0-0.0,,,,,,,,,,,,,,,657421f9661ce9a8cd7482d1,00:35:01,07/03/2024
3856.0,,,ospan,symmetry,S6UfGbhrc4ZJGVHsYxqJVXZ1yuw2,symmetry-judgement-task,186,1400979,0.0-43.0-6.0-1.0-1.0-0.0,,,,,,,,,,1.0,1.0,,,,657421f9661ce9a8cd7482d1,00:35:01,07/03/2024
,"<div style=""font-size: 10rem; color: #0000FF"">L</div>",,ospan,letter,S6UfGbhrc4ZJGVHsYxqJVXZ1yuw2,html-keyboard-response,187,1401982,0.0-43.0-6.0-1.0-1.0-1.0,,,,,,,,,,,,,,,657421f9661ce9a8cd7482d1,00:35:01,07/03/2024
2006.0,,,ospan,symmetry,S6UfGbhrc4ZJGVHsYxqJVXZ1yuw2,symmetry-judgement-task,188,1406043,0.0-43.0-6.0-1.0-1.0-2.0,,,,,,,,,,1.0,1.0,,,,657421f9661ce9a8cd7482d1,00:35:01,07/03/2024
,"<div style=""font-size: 10rem; color: #0000FF"">N</div>",,ospan,letter,S6UfGbhrc4ZJGVHsYxqJVXZ1yuw2,html-keyboard-response,189,1407054,0.0-43.0-6.0-1.0-1.0-3.0,,,,,,,,,,,,,,,657421f9661ce9a8cd7482d1,00:35:01,07/03/2024
2296.0,,,ospan,symmetry,S6UfGbhrc4ZJGVHsYxqJVXZ1yuw2,symmetry-judgement-task,190,1411424,0.0-43.0-6.0-1.0-1.0-4.0,,,,,,,,,,1.0,1.0,,,,657421f9661ce9a8cd7482d1,00:35:01,07/03/2024
,"<div style=""font-size: 10rem; color: #0000FF"">G</div>",,ospan,letter,S6UfGbhrc4ZJGVHsYxqJVXZ1yuw2,html-keyboard-response,191,1412439,0.0-43.0-6.0-1.0-1.0-5.0,,,,,,,,,,,,,,,657421f9661ce9a8cd7482d1,00:35:01,07/03/2024
2355.0,,,ospan,symmetry,S6UfGbhrc4ZJGVHsYxqJVXZ1yuw2,symmetry-judgement-task,192,1416864,0.0-43.0-6.0-1.0-1.0-6.0,,,,,,,,,,1.0,1.0,,,,657421f9661ce9a8cd7482d1,00:35:01,07/03/2024
,"<div style=""font-size: 10rem; color: #0000FF"">H</div>",,ospan,letter,S6UfGbhrc4ZJGVHsYxqJVXZ1yuw2,html-keyboard-response,193,1417881,0.0-43.0-6.0-1.0-1.0-7.0,,,,,,,,,,,,,,,657421f9661ce9a8cd7482d1,00:35:01,07/03/2024
2708.0,,,ospan,symmetry,S6UfGbhrc4ZJGVHsYxqJVXZ1yuw2,symmetry-judgement-task,194,1422682,0.0-43.0-6.0-1.0-1.0-8.0,,,,,,,,,,1.0,1.0,,,,657421f9661ce9a8cd7482d1,00:35:01,07/03/2024
,"<div style=""font-size: 10rem; color: #0000FF"">J</div>",,ospan,letter,S6UfGbhrc4ZJGVHsYxqJVXZ1yuw2,html-keyboard-response,195,1423685,0.0-43.0-6.0-1.0-1.0-9.0,,,,,,,,,,,,,,,657421f9661ce9a8cd7482d1,00:35:01,07/03/2024
2283.0,,,ospan,symmetry,S6UfGbhrc4ZJGVHsYxqJVXZ1yuw2,symmetry-judgement-task,196,1427977,0.0-43.0-6.0-1.0-1.0-10.0,,,,,,,,,,1.0,1.0,,,,657421f9661ce9a8cd7482d1,00:35:01,07/03/2024
,"<div style=""font-size: 10rem; color: #0000FF"">K</div>",,ospan,letter,S6UfGbhrc4ZJGVHsYxqJVXZ1yuw2,html-keyboard-response,197,1428994,0.0-43.0-6.0-1.0-1.0-11.0,,,,,,,,,,,,,,,657421f9661ce9a8cd7482d1,00:35:01,07/03/2024
2046.0,,,ospan,symmetry,S6UfGbhrc4ZJGVHsYxqJVXZ1yuw2,symmetry-judgement-task,198,1433052,0.0-43.0-6.0-1.0-1.0-12.0,,,,,,,,,,1.0,1.0,,,,657421f9661ce9a8cd7482d1,00:35:01,07/03/2024
,"<div style=""font-size: 10rem; color: #0000FF"">C</div>",,ospan,letter,S6UfGbhrc4ZJGVHsYxqJVXZ1yuw2,html-keyboard-response,199,1434057,0.0-43.0-6.0-1.0-1.0-13.0,,,,,,,,,,,,,,,657421f9661ce9a8cd7482d1,00:35:01,07/03/2024
2709.0,,,ospan,symmetry,S6UfGbhrc4ZJGVHsYxqJVXZ1yuw2,symmetry-judgement-task,200,1438765,0.0-43.0-6.0-1.0-1.0-14.0,,,,,,,,,,1.0,1.0,,,,657421f9661ce9a8cd7482d1,00:35:01,07/03/2024
,"<div style=""font-size: 10rem; color: #0000FF"">Y</div>",,ospan,letter,S6UfGbhrc4ZJGVHsYxqJVXZ1yuw2,html-keyboard-response,201,1439768,0.0-43.0-6.0-1.0-1.0-15.0,,,,,,,,,,,,,,,657421f9661ce9a8cd7482d1,00:35:01,07/03/2024
33892.39999999851,"<div class = numbox><p style=""font-size: 2.4rem"">Please recall the letters you saw to the best of your ability. If you do not remember a particular letter, use the SKIP button.<br><b>(When you are ready to lock in your answer, press ENTER)</b></p><button id = button_1 class = ""square num-button"" onclick = ""recordClick(this)""><div class = content><div class = numbers>C</div></div></button><button id = button_2 class = ""square num-button"" onclick = ""recordClick(this)""><div class = content><div class = numbers>G</div></div></button><button id = button_3 class = ""square num-button"" onclick = ""recordClick(this)""><div class = content><div class = numbers>H</div></div></button><button id = button_4 class = ""square num-button"" onclick = ""recordClick(this)""><div class = content><div class = numbers>J</div></div></button><button id = button_5 class = ""square num-button"" onclick = ""recordClick(this)""><div class = content><div class = numbers>K</div></div></button><button id = button_6 class = ""square num-button"" onclick = ""recordClick(this)""><div class = content><div class = numbers>L</div></div></button><button id = button_7 class = ""square num-button"" onclick = ""recordClick(this)""><div class = content><div class = numbers>N</div></div></button><button id = button_8 class = ""square num-button"" onclick = ""recordClick(this)""><div class = content><div class = numbers>P</div></div></button><button id = button_9 class = ""square num-button"" onclick = ""recordClick(this)""><div class = content><div class = numbers>Q</div></div></button><button id = button_10 class = ""square num-button"" onclick = ""recordClick(this)""><div class = content><div class = numbers>R</div></div></button><button id = button_11 class = ""square num-button"" onclick = ""recordClick(this)""><div class = content><div class = numbers>S</div></div></button><button id = button_12 class = ""square num-button"" onclick = ""recordClick(this)""><div class = content><div class = numbers>Y</div></div></button><button class = clear_button id = ""ClearButton"" onclick = ""clearResponse()"">BACKSPACE</button><button class = blank_button id = ""BlankButton"" onclick = ""blankResponse()"">SKIP</button><p style=""font-size: 2.4rem""><u><b>Current Answer:</b></u></p><br><br><div id=echoed_txt style=""font-size: 5rem; color:blue;""><b></b></div></div>",enter,ospan,retrieval,S6UfGbhrc4ZJGVHsYxqJVXZ1yuw2,html-keyboard-response,202,1474414,0.0-43.0-6.0-1.0-2.0,41,41,41,8.0,"[""L"",""N"",""G"",""H"",""J"",""K"",""C"",""Y""]","[""L"",""N"",""G"",""H"",""J"",""K"",""C"",""Y""]",1.0,8.0,,,,,,,657421f9661ce9a8cd7482d1,00:35:01,07/03/2024
1204.5,[''],0,ospan,feedback,S6UfGbhrc4ZJGVHsYxqJVXZ1yuw2,html-button-response,203,1476133,0.0-43.0-6.0-1.0-3.0,,,,,,,,,,,,100.0,0.0,,657421f9661ce9a8cd7482d1,00:35:01,07/03/2024
106109.60000000149,,{'Q0': 'I enjoy the symmetric combination with alphabets memorizing '},ospan,survey_ospan,S6UfGbhrc4ZJGVHsYxqJVXZ1yuw2,lmdlab-survey-text,204,1583007,0.0-43.0-7.0,,,,,,,,,,,,,,S6UfGbhrc4ZJGVHsYxqJVXZ1yuw2,657421f9661ce9a8cd7482d1,00:35:01,07/03/2024
3633.60000000149,<p><p style='font-size: 3rem'>Great work!<br><br>This completes the symmetry and memory task.</p><br><br><br>,0,ospan,finish,S6UfGbhrc4ZJGVHsYxqJVXZ1yuw2,html-button-response,205,1586646,0.0-43.0-8.0,41,41,41,,,,,,,,,100.0,,,657421f9661ce9a8cd7482d1,00:35:01,07/03/2024
