rt,stimulus,response,exp_name,exp_stage,subjectID,trial_type,trial_index,time_elapsed,internal_node_id,ospan_shown,ospan_total,ospan_abs,length,resp_actual,resp_correct,full_correct,num_correct,feedback,accuracy,correct,math_acc,math_warning,databaseID,prolificID,start_time,date
1096.8999999761581,<div class = 'left_align' style='font-size: 3.25rem; line-height: 1.3;'><p class = 'center_align'><b>Welcome to the Symmetry and Memory Task</b><br><br><br><br></p>Press 'continue' to show the instructions.<br><br><br><br></div>,0,ospan,instruct,iDSj8ux72CNdtS3L0aRj5Yg2zOg2,html-button-response,54,421654,0.0-46.0-0.0-0.0-0.0,,,,,,,,,,,,,,,63615b34abde8debee56c5b8,10:58:13,03/04/2024
2993.2000000476837,"<div class = 'left_align' style='font-size: 3.25rem; line-height: 1.3;'><p class = 'center_align'><b>Symmetry and Memory Task</b><br><br></p>In this task, you will try to memorize letters you see on the screen<br>while you also view black and white grid pictures.<br><br>In the next few minutes, you will have some practice to get you familiar<br>with how the task works.<br><br>It may be difficult sometimes, but please do not worry about making mistakes!<br><br>We will begin by practicing the letter part of the task.<br><br><br><br></div>",0,ospan,instruct,iDSj8ux72CNdtS3L0aRj5Yg2zOg2,html-button-response,55,424914,0.0-46.0-0.0-0.0-1.0,,,,,,,,,,,,,,,63615b34abde8debee56c5b8,10:58:13,03/04/2024
3373.100000023842,"<div class = 'left_align' style='font-size: 3.25rem; line-height: 1.3;'>For this practice part, letters will appear on the screen one at a time.<br><br>Try to remember each letter in the order presented.<br><br>After some letters have been shown, you will see a response screen. Your<br>goal is to report the letters you saw <b>in order</b>. If you do not remember<br>a particular letter, you will have the option to leave it blank.<br><br><br><br></div>",0,ospan,instruct,iDSj8ux72CNdtS3L0aRj5Yg2zOg2,html-button-response,56,428547,0.0-46.0-0.0-0.0-2.0,,,,,,,,,,,,,,,63615b34abde8debee56c5b8,10:58:13,03/04/2024
1578.6999999284744,"<div class = 'left_align' style='font-size: 3.25rem; line-height: 1.3;'>Remember, it is very important to get the letters in the same<br>order as you see them.<br><br>When you are ready, you may begin the letter practice.</div><br><br><br><br>",0,ospan,instruct,iDSj8ux72CNdtS3L0aRj5Yg2zOg2,html-button-response,57,430391,0.0-46.0-0.0-0.0-3.0,,,,,,,,,,,,,,,63615b34abde8debee56c5b8,10:58:13,03/04/2024
,"<p style=""font-size:75px;"">...</p>",,ospan,iti,iDSj8ux72CNdtS3L0aRj5Yg2zOg2,html-keyboard-response,58,431667,0.0-46.0-0.0-1.0-0.0,,,,,,,,,,,,,,,63615b34abde8debee56c5b8,10:58:13,03/04/2024
,"<div style=""font-size: 10rem; color: #0000FF"">R</div>",,ospan,letter,iDSj8ux72CNdtS3L0aRj5Yg2zOg2,html-keyboard-response,59,432682,0.0-46.0-0.0-1.0-1.0,,,,,,,,,,,,,,,63615b34abde8debee56c5b8,10:58:13,03/04/2024
,"<div style=""font-size: 10rem; color: #0000FF"">L</div>",,ospan,letter,iDSj8ux72CNdtS3L0aRj5Yg2zOg2,html-keyboard-response,60,434454,0.0-46.0-0.0-1.0-2.0,,,,,,,,,,,,,,,63615b34abde8debee56c5b8,10:58:13,03/04/2024
6543.700000047684,"<div class = numbox><p style=""font-size: 2.4rem"">Please recall the letters you saw to the best of your ability. If you do not remember a particular letter, use the SKIP button.<br><b>(When you are ready to lock in your answer, press ENTER)</b></p><button id = button_1 class = ""square num-button"" onclick = ""recordClick(this)""><div class = content><div class = numbers>C</div></div></button><button id = button_2 class = ""square num-button"" onclick = ""recordClick(this)""><div class = content><div class = numbers>G</div></div></button><button id = button_3 class = ""square num-button"" onclick = ""recordClick(this)""><div class = content><div class = numbers>H</div></div></button><button id = button_4 class = ""square num-button"" onclick = ""recordClick(this)""><div class = content><div class = numbers>J</div></div></button><button id = button_5 class = ""square num-button"" onclick = ""recordClick(this)""><div class = content><div class = numbers>K</div></div></button><button id = button_6 class = ""square num-button"" onclick = ""recordClick(this)""><div class = content><div class = numbers>L</div></div></button><button id = button_7 class = ""square num-button"" onclick = ""recordClick(this)""><div class = content><div class = numbers>N</div></div></button><button id = button_8 class = ""square num-button"" onclick = ""recordClick(this)""><div class = content><div class = numbers>P</div></div></button><button id = button_9 class = ""square num-button"" onclick = ""recordClick(this)""><div class = content><div class = numbers>Q</div></div></button><button id = button_10 class = ""square num-button"" onclick = ""recordClick(this)""><div class = content><div class = numbers>R</div></div></button><button id = button_11 class = ""square num-button"" onclick = ""recordClick(this)""><div class = content><div class = numbers>S</div></div></button><button id = button_12 class = ""square num-button"" onclick = ""recordClick(this)""><div class = content><div class = numbers>Y</div></div></button><button class = clear_button id = ""ClearButton"" onclick = ""clearResponse()"">BACKSPACE</button><button class = blank_button id = ""BlankButton"" onclick = ""blankResponse()"">SKIP</button><p style=""font-size: 2.4rem""><u><b>Current Answer:</b></u></p><br><br><div id=echoed_txt style=""font-size: 5rem; color:blue;""><b></b></div></div>",enter,ospan,retrieval,iDSj8ux72CNdtS3L0aRj5Yg2zOg2,html-keyboard-response,61,441764,0.0-46.0-0.0-1.0-3.0,NA,NA,NA,2.0,"[""R"",""L""]","[""R"",""L""]",1.0,2.0,"['<font color=""green"">R</font>', '<font color=""green"">L</font>']",,,,,,63615b34abde8debee56c5b8,10:58:13,03/04/2024
1032.3999999761581,"['<p style=""font-size:44px"">Letters:<br><br><br><font color=""green"">R</font> <font color=""green"">L</font></p><br><br>']",0,ospan,practice_feedback,iDSj8ux72CNdtS3L0aRj5Yg2zOg2,html-button-response,62,443313,0.0-46.0-0.0-1.0-4.0,,,,,,,,,,,,,,,63615b34abde8debee56c5b8,10:58:13,03/04/2024
,"<p style=""font-size:75px;"">...</p>",,ospan,iti,iDSj8ux72CNdtS3L0aRj5Yg2zOg2,html-keyboard-response,63,444318,0.0-46.0-0.0-2.0-0.0,,,,,,,,,,,,,,,63615b34abde8debee56c5b8,10:58:13,03/04/2024
,"<div style=""font-size: 10rem; color: #0000FF"">S</div>",,ospan,letter,iDSj8ux72CNdtS3L0aRj5Yg2zOg2,html-keyboard-response,64,445332,0.0-46.0-0.0-2.0-1.0,,,,,,,,,,,,,,,63615b34abde8debee56c5b8,10:58:13,03/04/2024
,"<div style=""font-size: 10rem; color: #0000FF"">C</div>",,ospan,letter,iDSj8ux72CNdtS3L0aRj5Yg2zOg2,html-keyboard-response,65,447106,0.0-46.0-0.0-2.0-2.0,,,,,,,,,,,,,,,63615b34abde8debee56c5b8,10:58:13,03/04/2024
,"<div style=""font-size: 10rem; color: #0000FF"">R</div>",,ospan,letter,iDSj8ux72CNdtS3L0aRj5Yg2zOg2,html-keyboard-response,66,448882,0.0-46.0-0.0-2.0-3.0,,,,,,,,,,,,,,,63615b34abde8debee56c5b8,10:58:13,03/04/2024
3301.100000023842,"<div class = numbox><p style=""font-size: 2.4rem"">Please recall the letters you saw to the best of your ability. If you do not remember a particular letter, use the SKIP button.<br><b>(When you are ready to lock in your answer, press ENTER)</b></p><button id = button_1 class = ""square num-button"" onclick = ""recordClick(this)""><div class = content><div class = numbers>C</div></div></button><button id = button_2 class = ""square num-button"" onclick = ""recordClick(this)""><div class = content><div class = numbers>G</div></div></button><button id = button_3 class = ""square num-button"" onclick = ""recordClick(this)""><div class = content><div class = numbers>H</div></div></button><button id = button_4 class = ""square num-button"" onclick = ""recordClick(this)""><div class = content><div class = numbers>J</div></div></button><button id = button_5 class = ""square num-button"" onclick = ""recordClick(this)""><div class = content><div class = numbers>K</div></div></button><button id = button_6 class = ""square num-button"" onclick = ""recordClick(this)""><div class = content><div class = numbers>L</div></div></button><button id = button_7 class = ""square num-button"" onclick = ""recordClick(this)""><div class = content><div class = numbers>N</div></div></button><button id = button_8 class = ""square num-button"" onclick = ""recordClick(this)""><div class = content><div class = numbers>P</div></div></button><button id = button_9 class = ""square num-button"" onclick = ""recordClick(this)""><div class = content><div class = numbers>Q</div></div></button><button id = button_10 class = ""square num-button"" onclick = ""recordClick(this)""><div class = content><div class = numbers>R</div></div></button><button id = button_11 class = ""square num-button"" onclick = ""recordClick(this)""><div class = content><div class = numbers>S</div></div></button><button id = button_12 class = ""square num-button"" onclick = ""recordClick(this)""><div class = content><div class = numbers>Y</div></div></button><button class = clear_button id = ""ClearButton"" onclick = ""clearResponse()"">BACKSPACE</button><button class = blank_button id = ""BlankButton"" onclick = ""blankResponse()"">SKIP</button><p style=""font-size: 2.4rem""><u><b>Current Answer:</b></u></p><br><br><div id=echoed_txt style=""font-size: 5rem; color:blue;""><b></b></div></div>",enter,ospan,retrieval,iDSj8ux72CNdtS3L0aRj5Yg2zOg2,html-keyboard-response,67,452946,0.0-46.0-0.0-2.0-4.0,NA,NA,NA,3.0,"[""S"",""C"",""R""]","[""S"",""C"",""R""]",1.0,3.0,"['<font color=""green"">S</font>', '<font color=""green"">C</font>', '<font color=""green"">R</font>']",,,,,,63615b34abde8debee56c5b8,10:58:13,03/04/2024
1386.1999999284744,"['<p style=""font-size:44px"">Letters:<br><br><br><font color=""green"">S</font> <font color=""green"">C</font> <font color=""green"">R</font></p><br><br>']",0,ospan,practice_feedback,iDSj8ux72CNdtS3L0aRj5Yg2zOg2,html-button-response,68,454839,0.0-46.0-0.0-2.0-5.0,,,,,,,,,,,,,,,63615b34abde8debee56c5b8,10:58:13,03/04/2024
7151.700000047684,"<div class = 'left_align' style='font-size: 3.25rem; line-height: 1.3;'>Now you will practice doing the <b>symmetry judgment part</b> of the experiment.<br><br>A black and white grid picture will appear on the screen and you have to judge if it is <br>symmetrical or asymetrical.<br><br>A picture is 'mirror' symmetrical if its left half is identical to the right half when flipped.<br>Here are examples of a symmetrical and an asymetrical picture:<br><br><center><img src='Stimuli/img/symm_instructions_extra.png' style='height:420px; width:900'></img></center><br>To judge symmetry, imagine you were to fold each picture down the middle, like a book –<br>would the left half match the right half when folded onto each other?<br><br></div><br>",0,ospan,instruct,iDSj8ux72CNdtS3L0aRj5Yg2zOg2,html-button-response,69,461993,0.0-46.0-1.0-0.0-0.0,,,,,,,,,,,,,,,63615b34abde8debee56c5b8,10:58:13,03/04/2024
1283.5999999046326,"<div class = 'left_align' style='font-size: 3.25rem; line-height: 1.3;'>When you have viewed the picture and determined whether it is symmetrical or not,<br>you can <b>click the Yes or No button</b> below to answer.<br><br>If you take longer than 15 seconds, it will continue automatically<br>and record the answer as an error.</div><br>",0,ospan,instruct,iDSj8ux72CNdtS3L0aRj5Yg2zOg2,html-button-response,70,463530,0.0-46.0-1.0-0.0-1.0,,,,,,,,,,,,,,,63615b34abde8debee56c5b8,10:58:13,03/04/2024
597.6999999284744,"<div class = 'left_align' style='font-size: 3.25rem; line-height: 1.3;'>It is <b>very</b> important that you make the symmetry judgment correctly.<br><br>It is also important that you try and judge the picture as quickly as you can.<br><br>When you are ready, click on the button below to try some practice problems.</div><br><br><br><br>",0,ospan,instruct,iDSj8ux72CNdtS3L0aRj5Yg2zOg2,html-button-response,71,464382,0.0-46.0-1.0-0.0-2.0,,,,,,,,,,,,,,,63615b34abde8debee56c5b8,10:58:13,03/04/2024
2682.0,,,ospan,symmetry,iDSj8ux72CNdtS3L0aRj5Yg2zOg2,symmetry-judgement-task,72,467911,0.0-46.0-1.0-1.0-0.0,,,,,,,,,,1.0,1.0,,,,63615b34abde8debee56c5b8,10:58:13,03/04/2024
,"<p style=""color:green; font-size: 35px"">Correct</p>",,ospan,feedback,iDSj8ux72CNdtS3L0aRj5Yg2zOg2,html-keyboard-response,73,468670,0.0-46.0-1.0-1.0-1.0,,,,,,,,,,,,,,,63615b34abde8debee56c5b8,10:58:13,03/04/2024
1151.0,,,ospan,symmetry,iDSj8ux72CNdtS3L0aRj5Yg2zOg2,symmetry-judgement-task,74,472676,0.0-46.0-1.0-1.0-2.0,,,,,,,,,,1.0,1.0,,,,63615b34abde8debee56c5b8,10:58:13,03/04/2024
,"<p style=""color:green; font-size: 35px"">Correct</p>",,ospan,feedback,iDSj8ux72CNdtS3L0aRj5Yg2zOg2,html-keyboard-response,75,473437,0.0-46.0-1.0-1.0-3.0,,,,,,,,,,,,,,,63615b34abde8debee56c5b8,10:58:13,03/04/2024
1349.0,,,ospan,symmetry,iDSj8ux72CNdtS3L0aRj5Yg2zOg2,symmetry-judgement-task,76,477694,0.0-46.0-1.0-1.0-4.0,,,,,,,,,,1.0,1.0,,,,63615b34abde8debee56c5b8,10:58:13,03/04/2024
,"<p style=""color:green; font-size: 35px"">Correct</p>",,ospan,feedback,iDSj8ux72CNdtS3L0aRj5Yg2zOg2,html-keyboard-response,77,478453,0.0-46.0-1.0-1.0-5.0,,,,,,,,,,,,,,,63615b34abde8debee56c5b8,10:58:13,03/04/2024
1096.0,"<p style=""font-size: 3rem;"">You responded correctly on 3 of 3 symmetry judgments. Good job!</p><br><br>",0,ospan,practice,iDSj8ux72CNdtS3L0aRj5Yg2zOg2,html-button-response,78,481556,0.0-46.0-1.0-2.0,,,,,,,,,,,,,,,63615b34abde8debee56c5b8,10:58:13,03/04/2024
1975.6000000238419,"<div class = 'left_align' style='font-size: 3.25rem; line-height: 1.3;'>Now you will practice doing both parts of the experiment at the same time.<br><br>In the next practice set, you will be given one grid picture to judge.<br>Then letter will appear on the screen. Try to remember the letter.<br><br>It is <b>very important</b> to make the symmetry judgment as quickly and accurately as possible.<br><br>Just as before, once you have make the symmetry judgment, you can click Yes or No.<br><b>Note that you will no longer see Correct or Incorrect feedback.</div><br><br><br><br>",0,ospan,instruct,iDSj8ux72CNdtS3L0aRj5Yg2zOg2,html-button-response,79,483785,0.0-46.0-2.0-0.0-0.0,,,,,,,,,,,,,,,63615b34abde8debee56c5b8,10:58:13,03/04/2024
1361.5,"<div class = 'left_align' style='font-size: 3.25rem; line-height: 1.3;'>After the letter goes away, another grid picture will appear, and then<br>another letter.<br><br>At the end of each set of letters and grids, you will recall the letters to the best<br>of your ability. Remember, try your best to get the letters in the correct order.<br><br>It is important to <b>quickly</b> and <b>accurately</b> make the symmetry judgments.</div><br><br><br><br>",0,ospan,instruct,iDSj8ux72CNdtS3L0aRj5Yg2zOg2,html-button-response,80,485402,0.0-46.0-2.0-0.0-1.0,,,,,,,,,,,,,,,63615b34abde8debee56c5b8,10:58:13,03/04/2024
6559.100000023842,"<div class = 'left_align' style='font-size: 3.25rem; line-height: 1.3;'>On the feedback screen, if you are not doing well at the symmetry judgments,<br>you will also see a warning in the middle. This indicates your percent <br>correct for the grid pictures for the entire experiment.<br><br>It is <b>very</b> important for you to keep accuracy at least at 85%: <u>We can only use<br>data where the participant was at least 85% accurate on the judgments.</u> Therefore,<br> please try your best to perform well on the symmetry judgments, <b>at the same time</b><br>doing your best to recall as many letters as possible.<br><br>Click the button to try some practice problems.</div><br><br><br><br>",0,ospan,instruct,iDSj8ux72CNdtS3L0aRj5Yg2zOg2,html-button-response,81,492229,0.0-46.0-2.0-0.0-2.0,,,,,,,,,,,,,,,63615b34abde8debee56c5b8,10:58:13,03/04/2024
,"<p style=""font-size:75px;"">...</p>",,ospan,iti,iDSj8ux72CNdtS3L0aRj5Yg2zOg2,html-keyboard-response,82,493504,0.0-46.0-2.0-1.0-0.0,,,,,,,,,,,,,,,63615b34abde8debee56c5b8,10:58:13,03/04/2024
1987.0,,,ospan,symmetry,iDSj8ux72CNdtS3L0aRj5Yg2zOg2,symmetry-judgement-task,83,496856,0.0-46.0-2.0-1.0-1.0-0.0,,,,,,,,,,1.0,1.0,,,,63615b34abde8debee56c5b8,10:58:13,03/04/2024
,"<div style=""font-size: 10rem; color: #0000FF"">J</div>",,ospan,letter,iDSj8ux72CNdtS3L0aRj5Yg2zOg2,html-keyboard-response,84,497870,0.0-46.0-2.0-1.0-1.0-1.0,,,,,,,,,,,,,,,63615b34abde8debee56c5b8,10:58:13,03/04/2024
1987.0,,,ospan,symmetry,iDSj8ux72CNdtS3L0aRj5Yg2zOg2,symmetry-judgement-task,85,501946,0.0-46.0-2.0-1.0-1.0-2.0,,,,,,,,,,1.0,1.0,,,,63615b34abde8debee56c5b8,10:58:13,03/04/2024
,"<div style=""font-size: 10rem; color: #0000FF"">H</div>",,ospan,letter,iDSj8ux72CNdtS3L0aRj5Yg2zOg2,html-keyboard-response,86,502952,0.0-46.0-2.0-1.0-1.0-3.0,,,,,,,,,,,,,,,63615b34abde8debee56c5b8,10:58:13,03/04/2024
1221.0,,,ospan,symmetry,iDSj8ux72CNdtS3L0aRj5Yg2zOg2,symmetry-judgement-task,87,506430,0.0-46.0-2.0-1.0-1.0-4.0,,,,,,,,,,1.0,1.0,,,,63615b34abde8debee56c5b8,10:58:13,03/04/2024
,"<div style=""font-size: 10rem; color: #0000FF"">C</div>",,ospan,letter,iDSj8ux72CNdtS3L0aRj5Yg2zOg2,html-keyboard-response,88,507443,0.0-46.0-2.0-1.0-1.0-5.0,,,,,,,,,,,,,,,63615b34abde8debee56c5b8,10:58:13,03/04/2024
4227.899999976158,"<div class = numbox><p style=""font-size: 2.4rem"">Please recall the letters you saw to the best of your ability. If you do not remember a particular letter, use the SKIP button.<br><b>(When you are ready to lock in your answer, press ENTER)</b></p><button id = button_1 class = ""square num-button"" onclick = ""recordClick(this)""><div class = content><div class = numbers>C</div></div></button><button id = button_2 class = ""square num-button"" onclick = ""recordClick(this)""><div class = content><div class = numbers>G</div></div></button><button id = button_3 class = ""square num-button"" onclick = ""recordClick(this)""><div class = content><div class = numbers>H</div></div></button><button id = button_4 class = ""square num-button"" onclick = ""recordClick(this)""><div class = content><div class = numbers>J</div></div></button><button id = button_5 class = ""square num-button"" onclick = ""recordClick(this)""><div class = content><div class = numbers>K</div></div></button><button id = button_6 class = ""square num-button"" onclick = ""recordClick(this)""><div class = content><div class = numbers>L</div></div></button><button id = button_7 class = ""square num-button"" onclick = ""recordClick(this)""><div class = content><div class = numbers>N</div></div></button><button id = button_8 class = ""square num-button"" onclick = ""recordClick(this)""><div class = content><div class = numbers>P</div></div></button><button id = button_9 class = ""square num-button"" onclick = ""recordClick(this)""><div class = content><div class = numbers>Q</div></div></button><button id = button_10 class = ""square num-button"" onclick = ""recordClick(this)""><div class = content><div class = numbers>R</div></div></button><button id = button_11 class = ""square num-button"" onclick = ""recordClick(this)""><div class = content><div class = numbers>S</div></div></button><button id = button_12 class = ""square num-button"" onclick = ""recordClick(this)""><div class = content><div class = numbers>Y</div></div></button><button class = clear_button id = ""ClearButton"" onclick = ""clearResponse()"">BACKSPACE</button><button class = blank_button id = ""BlankButton"" onclick = ""blankResponse()"">SKIP</button><p style=""font-size: 2.4rem""><u><b>Current Answer:</b></u></p><br><br><div id=echoed_txt style=""font-size: 5rem; color:blue;""><b></b></div></div>",enter,ospan,retrieval,iDSj8ux72CNdtS3L0aRj5Yg2zOg2,html-keyboard-response,89,512427,0.0-46.0-2.0-1.0-2.0-0.0,NA,NA,NA,3.0,"[""J"",""H"",""C""]","[""J"",""H"",""C""]",1.0,3.0,"['<font color=""green"">J</font>', '<font color=""green"">H</font>', '<font color=""green"">C</font>']",,,,,,63615b34abde8debee56c5b8,10:58:13,03/04/2024
1035.5,"['<p style=""font-size:44px"">Letters:<br><br><br><font color=""green"">J</font> <font color=""green"">H</font> <font color=""green"">C</font></p><br><br><p style=""font-size:30px"">Symmetry:<br><br><font color=""green"">100%</font></p><br><br>']",0,ospan,practice_feedback,iDSj8ux72CNdtS3L0aRj5Yg2zOg2,html-button-response,90,513981,0.0-46.0-2.0-1.0-2.0-1.0,,,,,,,,,,,,,,,63615b34abde8debee56c5b8,10:58:13,03/04/2024
,"<p style=""font-size:75px;"">...</p>",,ospan,iti,iDSj8ux72CNdtS3L0aRj5Yg2zOg2,html-keyboard-response,91,514986,0.0-46.0-2.0-2.0-0.0,,,,,,,,,,,,,,,63615b34abde8debee56c5b8,10:58:13,03/04/2024
1440.0,,,ospan,symmetry,iDSj8ux72CNdtS3L0aRj5Yg2zOg2,symmetry-judgement-task,92,517834,0.0-46.0-2.0-2.0-1.0-0.0,,,,,,,,,,1.0,1.0,,,,63615b34abde8debee56c5b8,10:58:13,03/04/2024
,"<div style=""font-size: 10rem; color: #0000FF"">Q</div>",,ospan,letter,iDSj8ux72CNdtS3L0aRj5Yg2zOg2,html-keyboard-response,93,518837,0.0-46.0-2.0-2.0-1.0-1.0,,,,,,,,,,,,,,,63615b34abde8debee56c5b8,10:58:13,03/04/2024
1517.0,,,ospan,symmetry,iDSj8ux72CNdtS3L0aRj5Yg2zOg2,symmetry-judgement-task,94,522451,0.0-46.0-2.0-2.0-1.0-2.0,,,,,,,,,,1.0,1.0,,,,63615b34abde8debee56c5b8,10:58:13,03/04/2024
,"<div style=""font-size: 10rem; color: #0000FF"">P</div>",,ospan,letter,iDSj8ux72CNdtS3L0aRj5Yg2zOg2,html-keyboard-response,95,523462,0.0-46.0-2.0-2.0-1.0-3.0,,,,,,,,,,,,,,,63615b34abde8debee56c5b8,10:58:13,03/04/2024
1276.0,,,ospan,symmetry,iDSj8ux72CNdtS3L0aRj5Yg2zOg2,symmetry-judgement-task,96,526937,0.0-46.0-2.0-2.0-1.0-4.0,,,,,,,,,,1.0,1.0,,,,63615b34abde8debee56c5b8,10:58:13,03/04/2024
,"<div style=""font-size: 10rem; color: #0000FF"">G</div>",,ospan,letter,iDSj8ux72CNdtS3L0aRj5Yg2zOg2,html-keyboard-response,97,527943,0.0-46.0-2.0-2.0-1.0-5.0,,,,,,,,,,,,,,,63615b34abde8debee56c5b8,10:58:13,03/04/2024
3992.7999999523163,"<div class = numbox><p style=""font-size: 2.4rem"">Please recall the letters you saw to the best of your ability. If you do not remember a particular letter, use the SKIP button.<br><b>(When you are ready to lock in your answer, press ENTER)</b></p><button id = button_1 class = ""square num-button"" onclick = ""recordClick(this)""><div class = content><div class = numbers>C</div></div></button><button id = button_2 class = ""square num-button"" onclick = ""recordClick(this)""><div class = content><div class = numbers>G</div></div></button><button id = button_3 class = ""square num-button"" onclick = ""recordClick(this)""><div class = content><div class = numbers>H</div></div></button><button id = button_4 class = ""square num-button"" onclick = ""recordClick(this)""><div class = content><div class = numbers>J</div></div></button><button id = button_5 class = ""square num-button"" onclick = ""recordClick(this)""><div class = content><div class = numbers>K</div></div></button><button id = button_6 class = ""square num-button"" onclick = ""recordClick(this)""><div class = content><div class = numbers>L</div></div></button><button id = button_7 class = ""square num-button"" onclick = ""recordClick(this)""><div class = content><div class = numbers>N</div></div></button><button id = button_8 class = ""square num-button"" onclick = ""recordClick(this)""><div class = content><div class = numbers>P</div></div></button><button id = button_9 class = ""square num-button"" onclick = ""recordClick(this)""><div class = content><div class = numbers>Q</div></div></button><button id = button_10 class = ""square num-button"" onclick = ""recordClick(this)""><div class = content><div class = numbers>R</div></div></button><button id = button_11 class = ""square num-button"" onclick = ""recordClick(this)""><div class = content><div class = numbers>S</div></div></button><button id = button_12 class = ""square num-button"" onclick = ""recordClick(this)""><div class = content><div class = numbers>Y</div></div></button><button class = clear_button id = ""ClearButton"" onclick = ""clearResponse()"">BACKSPACE</button><button class = blank_button id = ""BlankButton"" onclick = ""blankResponse()"">SKIP</button><p style=""font-size: 2.4rem""><u><b>Current Answer:</b></u></p><br><br><div id=echoed_txt style=""font-size: 5rem; color:blue;""><b></b></div></div>",enter,ospan,retrieval,iDSj8ux72CNdtS3L0aRj5Yg2zOg2,html-keyboard-response,98,532689,0.0-46.0-2.0-2.0-2.0-0.0,NA,NA,NA,3.0,"[""Q"",""P"",""G""]","[""Q"",""P"",""G""]",1.0,3.0,"['<font color=""green"">Q</font>', '<font color=""green"">P</font>', '<font color=""green"">G</font>']",,,,,,63615b34abde8debee56c5b8,10:58:13,03/04/2024
894.7999999523163,"['<p style=""font-size:44px"">Letters:<br><br><br><font color=""green"">Q</font> <font color=""green"">P</font> <font color=""green"">G</font></p><br><br><p style=""font-size:30px"">Symmetry:<br><br><font color=""green"">100%</font></p><br><br>']",0,ospan,practice_feedback,iDSj8ux72CNdtS3L0aRj5Yg2zOg2,html-button-response,99,534097,0.0-46.0-2.0-2.0-2.0-1.0,,,,,,,,,,,,,,,63615b34abde8debee56c5b8,10:58:13,03/04/2024
6253.600000023842,"<div class = 'left_align' style='font-size: 3rem; line-height: 1.3;'><b>Great work! That is the end of practice.</b><br><br>The real trials will look just like the practice trials you just completed.<br><br><u>Here, you will not see feedback</u>. First, you will see an grid picture to judge,<br>then a letter to remember. When the recall screen appears, report the letters in the<br>order presented. If you forget a letter, remember to use the <b>blank</b> button to move to the<br>next letter. Some of the sets will have more symmetry grids and letters than others.<br><br>It is important that you do your best on both the symmetry judgments and the letter recall<br>parts of the experiment. For for the symmetry judgments, try to work as <b>quickly</b> and <br>as <b>accurately</b> as possible. Remember to keep your symmetry accuracy at 85% or above.<br><br><b>For the letters, do NOT use any external aid (e.g., writing on paper, electronic device).</b><br><br>It is <u>very important</u> to our experiment to have a <b>true</b> view of your real performance.<br><br>Do not worry if you miss some when it gets hard! This task is meant to be very challenging!<br><br>Click the button to begin.</div><br><br><br><br>",0,ospan,starting_real_here,iDSj8ux72CNdtS3L0aRj5Yg2zOg2,html-button-response,100,540355,0.0-46.0-2.0-3.0,,,,,,,,,,,,,,,63615b34abde8debee56c5b8,10:58:13,03/04/2024
,"<p style=""font-size:75px;"">...</p>",,ospan,iti,iDSj8ux72CNdtS3L0aRj5Yg2zOg2,html-keyboard-response,101,541632,0.0-46.0-3.0-0.0-0.0,,,,,,,,,,,,,,,63615b34abde8debee56c5b8,10:58:13,03/04/2024
1681.0,,,ospan,symmetry,iDSj8ux72CNdtS3L0aRj5Yg2zOg2,symmetry-judgement-task,102,544666,0.0-46.0-3.0-0.0-1.0-0.0,,,,,,,,,,1.0,1.0,,,,63615b34abde8debee56c5b8,10:58:13,03/04/2024
,"<div style=""font-size: 10rem; color: #0000FF"">P</div>",,ospan,letter,iDSj8ux72CNdtS3L0aRj5Yg2zOg2,html-keyboard-response,103,545681,0.0-46.0-3.0-0.0-1.0-1.0,,,,,,,,,,,,,,,63615b34abde8debee56c5b8,10:58:13,03/04/2024
1109.0,,,ospan,symmetry,iDSj8ux72CNdtS3L0aRj5Yg2zOg2,symmetry-judgement-task,104,548909,0.0-46.0-3.0-0.0-1.0-2.0,,,,,,,,,,1.0,1.0,,,,63615b34abde8debee56c5b8,10:58:13,03/04/2024
,"<div style=""font-size: 10rem; color: #0000FF"">S</div>",,ospan,letter,iDSj8ux72CNdtS3L0aRj5Yg2zOg2,html-keyboard-response,105,549911,0.0-46.0-3.0-0.0-1.0-3.0,,,,,,,,,,,,,,,63615b34abde8debee56c5b8,10:58:13,03/04/2024
1567.0,,,ospan,symmetry,iDSj8ux72CNdtS3L0aRj5Yg2zOg2,symmetry-judgement-task,106,553634,0.0-46.0-3.0-0.0-1.0-4.0,,,,,,,,,,1.0,1.0,,,,63615b34abde8debee56c5b8,10:58:13,03/04/2024
,"<div style=""font-size: 10rem; color: #0000FF"">H</div>",,ospan,letter,iDSj8ux72CNdtS3L0aRj5Yg2zOg2,html-keyboard-response,107,554649,0.0-46.0-3.0-0.0-1.0-5.0,,,,,,,,,,,,,,,63615b34abde8debee56c5b8,10:58:13,03/04/2024
4622.0,"<div class = numbox><p style=""font-size: 2.4rem"">Please recall the letters you saw to the best of your ability. If you do not remember a particular letter, use the SKIP button.<br><b>(When you are ready to lock in your answer, press ENTER)</b></p><button id = button_1 class = ""square num-button"" onclick = ""recordClick(this)""><div class = content><div class = numbers>C</div></div></button><button id = button_2 class = ""square num-button"" onclick = ""recordClick(this)""><div class = content><div class = numbers>G</div></div></button><button id = button_3 class = ""square num-button"" onclick = ""recordClick(this)""><div class = content><div class = numbers>H</div></div></button><button id = button_4 class = ""square num-button"" onclick = ""recordClick(this)""><div class = content><div class = numbers>J</div></div></button><button id = button_5 class = ""square num-button"" onclick = ""recordClick(this)""><div class = content><div class = numbers>K</div></div></button><button id = button_6 class = ""square num-button"" onclick = ""recordClick(this)""><div class = content><div class = numbers>L</div></div></button><button id = button_7 class = ""square num-button"" onclick = ""recordClick(this)""><div class = content><div class = numbers>N</div></div></button><button id = button_8 class = ""square num-button"" onclick = ""recordClick(this)""><div class = content><div class = numbers>P</div></div></button><button id = button_9 class = ""square num-button"" onclick = ""recordClick(this)""><div class = content><div class = numbers>Q</div></div></button><button id = button_10 class = ""square num-button"" onclick = ""recordClick(this)""><div class = content><div class = numbers>R</div></div></button><button id = button_11 class = ""square num-button"" onclick = ""recordClick(this)""><div class = content><div class = numbers>S</div></div></button><button id = button_12 class = ""square num-button"" onclick = ""recordClick(this)""><div class = content><div class = numbers>Y</div></div></button><button class = clear_button id = ""ClearButton"" onclick = ""clearResponse()"">BACKSPACE</button><button class = blank_button id = ""BlankButton"" onclick = ""blankResponse()"">SKIP</button><p style=""font-size: 2.4rem""><u><b>Current Answer:</b></u></p><br><br><div id=echoed_txt style=""font-size: 5rem; color:blue;""><b></b></div></div>",enter,ospan,retrieval,iDSj8ux72CNdtS3L0aRj5Yg2zOg2,html-keyboard-response,108,560033,0.0-46.0-3.0-0.0-2.0,3,3,3,3.0,"[""P"",""S"",""H""]","[""P"",""S"",""H""]",1.0,3.0,,,,,,,63615b34abde8debee56c5b8,10:58:13,03/04/2024
1600.0,[''],0,ospan,feedback,iDSj8ux72CNdtS3L0aRj5Yg2zOg2,html-button-response,109,562139,0.0-46.0-3.0-0.0-3.0,,,,,,,,,,,,100.0,0.0,,63615b34abde8debee56c5b8,10:58:13,03/04/2024
,"<p style=""font-size:75px;"">...</p>",,ospan,iti,iDSj8ux72CNdtS3L0aRj5Yg2zOg2,html-keyboard-response,110,563151,0.0-46.0-4.0-0.0-0.0,,,,,,,,,,,,,,,63615b34abde8debee56c5b8,10:58:13,03/04/2024
1182.0,,,ospan,symmetry,iDSj8ux72CNdtS3L0aRj5Yg2zOg2,symmetry-judgement-task,111,565730,0.0-46.0-4.0-0.0-1.0-0.0,,,,,,,,,,1.0,1.0,,,,63615b34abde8debee56c5b8,10:58:13,03/04/2024
,"<div style=""font-size: 10rem; color: #0000FF"">R</div>",,ospan,letter,iDSj8ux72CNdtS3L0aRj5Yg2zOg2,html-keyboard-response,112,566744,0.0-46.0-4.0-0.0-1.0-1.0,,,,,,,,,,,,,,,63615b34abde8debee56c5b8,10:58:13,03/04/2024
1504.0,,,ospan,symmetry,iDSj8ux72CNdtS3L0aRj5Yg2zOg2,symmetry-judgement-task,113,570367,0.0-46.0-4.0-0.0-1.0-2.0,,,,,,,,,,1.0,1.0,,,,63615b34abde8debee56c5b8,10:58:13,03/04/2024
,"<div style=""font-size: 10rem; color: #0000FF"">N</div>",,ospan,letter,iDSj8ux72CNdtS3L0aRj5Yg2zOg2,html-keyboard-response,114,571381,0.0-46.0-4.0-0.0-1.0-3.0,,,,,,,,,,,,,,,63615b34abde8debee56c5b8,10:58:13,03/04/2024
1422.0,,,ospan,symmetry,iDSj8ux72CNdtS3L0aRj5Yg2zOg2,symmetry-judgement-task,115,574907,0.0-46.0-4.0-0.0-1.0-4.0,,,,,,,,,,1.0,1.0,,,,63615b34abde8debee56c5b8,10:58:13,03/04/2024
,"<div style=""font-size: 10rem; color: #0000FF"">L</div>",,ospan,letter,iDSj8ux72CNdtS3L0aRj5Yg2zOg2,html-keyboard-response,116,575909,0.0-46.0-4.0-0.0-1.0-5.0,,,,,,,,,,,,,,,63615b34abde8debee56c5b8,10:58:13,03/04/2024
1478.0,,,ospan,symmetry,iDSj8ux72CNdtS3L0aRj5Yg2zOg2,symmetry-judgement-task,117,579485,0.0-46.0-4.0-0.0-1.0-6.0,,,,,,,,,,1.0,1.0,,,,63615b34abde8debee56c5b8,10:58:13,03/04/2024
,"<div style=""font-size: 10rem; color: #0000FF"">H</div>",,ospan,letter,iDSj8ux72CNdtS3L0aRj5Yg2zOg2,html-keyboard-response,118,580499,0.0-46.0-4.0-0.0-1.0-7.0,,,,,,,,,,,,,,,63615b34abde8debee56c5b8,10:58:13,03/04/2024
4181.700000047684,"<div class = numbox><p style=""font-size: 2.4rem"">Please recall the letters you saw to the best of your ability. If you do not remember a particular letter, use the SKIP button.<br><b>(When you are ready to lock in your answer, press ENTER)</b></p><button id = button_1 class = ""square num-button"" onclick = ""recordClick(this)""><div class = content><div class = numbers>C</div></div></button><button id = button_2 class = ""square num-button"" onclick = ""recordClick(this)""><div class = content><div class = numbers>G</div></div></button><button id = button_3 class = ""square num-button"" onclick = ""recordClick(this)""><div class = content><div class = numbers>H</div></div></button><button id = button_4 class = ""square num-button"" onclick = ""recordClick(this)""><div class = content><div class = numbers>J</div></div></button><button id = button_5 class = ""square num-button"" onclick = ""recordClick(this)""><div class = content><div class = numbers>K</div></div></button><button id = button_6 class = ""square num-button"" onclick = ""recordClick(this)""><div class = content><div class = numbers>L</div></div></button><button id = button_7 class = ""square num-button"" onclick = ""recordClick(this)""><div class = content><div class = numbers>N</div></div></button><button id = button_8 class = ""square num-button"" onclick = ""recordClick(this)""><div class = content><div class = numbers>P</div></div></button><button id = button_9 class = ""square num-button"" onclick = ""recordClick(this)""><div class = content><div class = numbers>Q</div></div></button><button id = button_10 class = ""square num-button"" onclick = ""recordClick(this)""><div class = content><div class = numbers>R</div></div></button><button id = button_11 class = ""square num-button"" onclick = ""recordClick(this)""><div class = content><div class = numbers>S</div></div></button><button id = button_12 class = ""square num-button"" onclick = ""recordClick(this)""><div class = content><div class = numbers>Y</div></div></button><button class = clear_button id = ""ClearButton"" onclick = ""clearResponse()"">BACKSPACE</button><button class = blank_button id = ""BlankButton"" onclick = ""blankResponse()"">SKIP</button><p style=""font-size: 2.4rem""><u><b>Current Answer:</b></u></p><br><br><div id=echoed_txt style=""font-size: 5rem; color:blue;""><b></b></div></div>",enter,ospan,retrieval,iDSj8ux72CNdtS3L0aRj5Yg2zOg2,html-keyboard-response,119,585439,0.0-46.0-4.0-0.0-2.0,7,7,7,4.0,"[""R"",""N"",""L"",""H""]","[""R"",""N"",""L"",""H""]",1.0,4.0,,,,,,,63615b34abde8debee56c5b8,10:58:13,03/04/2024
11197.100000023842,[''],0,ospan,feedback,iDSj8ux72CNdtS3L0aRj5Yg2zOg2,html-button-response,120,597148,0.0-46.0-4.0-0.0-3.0,,,,,,,,,,,,100.0,0.0,,63615b34abde8debee56c5b8,10:58:13,03/04/2024
,"<p style=""font-size:75px;"">...</p>",,ospan,iti,iDSj8ux72CNdtS3L0aRj5Yg2zOg2,html-keyboard-response,121,598154,0.0-46.0-4.0-1.0-0.0,,,,,,,,,,,,,,,63615b34abde8debee56c5b8,10:58:13,03/04/2024
1568.0,,,ospan,symmetry,iDSj8ux72CNdtS3L0aRj5Yg2zOg2,symmetry-judgement-task,122,601055,0.0-46.0-4.0-1.0-1.0-0.0,,,,,,,,,,1.0,1.0,,,,63615b34abde8debee56c5b8,10:58:13,03/04/2024
,"<div style=""font-size: 10rem; color: #0000FF"">G</div>",,ospan,letter,iDSj8ux72CNdtS3L0aRj5Yg2zOg2,html-keyboard-response,123,602072,0.0-46.0-4.0-1.0-1.0-1.0,,,,,,,,,,,,,,,63615b34abde8debee56c5b8,10:58:13,03/04/2024
1263.0,,,ospan,symmetry,iDSj8ux72CNdtS3L0aRj5Yg2zOg2,symmetry-judgement-task,124,605450,0.0-46.0-4.0-1.0-1.0-2.0,,,,,,,,,,1.0,1.0,,,,63615b34abde8debee56c5b8,10:58:13,03/04/2024
,"<div style=""font-size: 10rem; color: #0000FF"">J</div>",,ospan,letter,iDSj8ux72CNdtS3L0aRj5Yg2zOg2,html-keyboard-response,125,606466,0.0-46.0-4.0-1.0-1.0-3.0,,,,,,,,,,,,,,,63615b34abde8debee56c5b8,10:58:13,03/04/2024
1488.0,,,ospan,symmetry,iDSj8ux72CNdtS3L0aRj5Yg2zOg2,symmetry-judgement-task,126,610042,0.0-46.0-4.0-1.0-1.0-4.0,,,,,,,,,,1.0,1.0,,,,63615b34abde8debee56c5b8,10:58:13,03/04/2024
,"<div style=""font-size: 10rem; color: #0000FF"">S</div>",,ospan,letter,iDSj8ux72CNdtS3L0aRj5Yg2zOg2,html-keyboard-response,127,611057,0.0-46.0-4.0-1.0-1.0-5.0,,,,,,,,,,,,,,,63615b34abde8debee56c5b8,10:58:13,03/04/2024
1012.0,,,ospan,symmetry,iDSj8ux72CNdtS3L0aRj5Yg2zOg2,symmetry-judgement-task,128,614161,0.0-46.0-4.0-1.0-1.0-6.0,,,,,,,,,,1.0,1.0,,,,63615b34abde8debee56c5b8,10:58:13,03/04/2024
,"<div style=""font-size: 10rem; color: #0000FF"">Q</div>",,ospan,letter,iDSj8ux72CNdtS3L0aRj5Yg2zOg2,html-keyboard-response,129,615177,0.0-46.0-4.0-1.0-1.0-7.0,,,,,,,,,,,,,,,63615b34abde8debee56c5b8,10:58:13,03/04/2024
1577.0,,,ospan,symmetry,iDSj8ux72CNdtS3L0aRj5Yg2zOg2,symmetry-judgement-task,130,618926,0.0-46.0-4.0-1.0-1.0-8.0,,,,,,,,,,1.0,1.0,,,,63615b34abde8debee56c5b8,10:58:13,03/04/2024
,"<div style=""font-size: 10rem; color: #0000FF"">C</div>",,ospan,letter,iDSj8ux72CNdtS3L0aRj5Yg2zOg2,html-keyboard-response,131,619941,0.0-46.0-4.0-1.0-1.0-9.0,,,,,,,,,,,,,,,63615b34abde8debee56c5b8,10:58:13,03/04/2024
5201.899999976158,"<div class = numbox><p style=""font-size: 2.4rem"">Please recall the letters you saw to the best of your ability. If you do not remember a particular letter, use the SKIP button.<br><b>(When you are ready to lock in your answer, press ENTER)</b></p><button id = button_1 class = ""square num-button"" onclick = ""recordClick(this)""><div class = content><div class = numbers>C</div></div></button><button id = button_2 class = ""square num-button"" onclick = ""recordClick(this)""><div class = content><div class = numbers>G</div></div></button><button id = button_3 class = ""square num-button"" onclick = ""recordClick(this)""><div class = content><div class = numbers>H</div></div></button><button id = button_4 class = ""square num-button"" onclick = ""recordClick(this)""><div class = content><div class = numbers>J</div></div></button><button id = button_5 class = ""square num-button"" onclick = ""recordClick(this)""><div class = content><div class = numbers>K</div></div></button><button id = button_6 class = ""square num-button"" onclick = ""recordClick(this)""><div class = content><div class = numbers>L</div></div></button><button id = button_7 class = ""square num-button"" onclick = ""recordClick(this)""><div class = content><div class = numbers>N</div></div></button><button id = button_8 class = ""square num-button"" onclick = ""recordClick(this)""><div class = content><div class = numbers>P</div></div></button><button id = button_9 class = ""square num-button"" onclick = ""recordClick(this)""><div class = content><div class = numbers>Q</div></div></button><button id = button_10 class = ""square num-button"" onclick = ""recordClick(this)""><div class = content><div class = numbers>R</div></div></button><button id = button_11 class = ""square num-button"" onclick = ""recordClick(this)""><div class = content><div class = numbers>S</div></div></button><button id = button_12 class = ""square num-button"" onclick = ""recordClick(this)""><div class = content><div class = numbers>Y</div></div></button><button class = clear_button id = ""ClearButton"" onclick = ""clearResponse()"">BACKSPACE</button><button class = blank_button id = ""BlankButton"" onclick = ""blankResponse()"">SKIP</button><p style=""font-size: 2.4rem""><u><b>Current Answer:</b></u></p><br><br><div id=echoed_txt style=""font-size: 5rem; color:blue;""><b></b></div></div>",enter,ospan,retrieval,iDSj8ux72CNdtS3L0aRj5Yg2zOg2,html-keyboard-response,132,625909,0.0-46.0-4.0-1.0-2.0,12,12,12,5.0,"[""G"",""J"",""S"",""Q"",""C""]","[""G"",""J"",""S"",""Q"",""C""]",1.0,5.0,,,,,,,63615b34abde8debee56c5b8,10:58:13,03/04/2024
1992.0,[''],0,ospan,feedback,iDSj8ux72CNdtS3L0aRj5Yg2zOg2,html-button-response,133,628407,0.0-46.0-4.0-1.0-3.0,,,,,,,,,,,,100.0,0.0,,63615b34abde8debee56c5b8,10:58:13,03/04/2024
,"<p style=""font-size:75px;"">...</p>",,ospan,iti,iDSj8ux72CNdtS3L0aRj5Yg2zOg2,html-keyboard-response,134,629423,0.0-46.0-4.0-2.0-0.0,,,,,,,,,,,,,,,63615b34abde8debee56c5b8,10:58:13,03/04/2024
1335.0,,,ospan,symmetry,iDSj8ux72CNdtS3L0aRj5Yg2zOg2,symmetry-judgement-task,135,632130,0.0-46.0-4.0-2.0-1.0-0.0,,,,,,,,,,1.0,1.0,,,,63615b34abde8debee56c5b8,10:58:13,03/04/2024
,"<div style=""font-size: 10rem; color: #0000FF"">L</div>",,ospan,letter,iDSj8ux72CNdtS3L0aRj5Yg2zOg2,html-keyboard-response,136,633146,0.0-46.0-4.0-2.0-1.0-1.0,,,,,,,,,,,,,,,63615b34abde8debee56c5b8,10:58:13,03/04/2024
1772.0,,,ospan,symmetry,iDSj8ux72CNdtS3L0aRj5Yg2zOg2,symmetry-judgement-task,137,637003,0.0-46.0-4.0-2.0-1.0-2.0,,,,,,,,,,1.0,1.0,,,,63615b34abde8debee56c5b8,10:58:13,03/04/2024
,"<div style=""font-size: 10rem; color: #0000FF"">S</div>",,ospan,letter,iDSj8ux72CNdtS3L0aRj5Yg2zOg2,html-keyboard-response,138,638017,0.0-46.0-4.0-2.0-1.0-3.0,,,,,,,,,,,,,,,63615b34abde8debee56c5b8,10:58:13,03/04/2024
1184.0,,,ospan,symmetry,iDSj8ux72CNdtS3L0aRj5Yg2zOg2,symmetry-judgement-task,139,641316,0.0-46.0-4.0-2.0-1.0-4.0,,,,,,,,,,1.0,1.0,,,,63615b34abde8debee56c5b8,10:58:13,03/04/2024
,"<div style=""font-size: 10rem; color: #0000FF"">Y</div>",,ospan,letter,iDSj8ux72CNdtS3L0aRj5Yg2zOg2,html-keyboard-response,140,642332,0.0-46.0-4.0-2.0-1.0-5.0,,,,,,,,,,,,,,,63615b34abde8debee56c5b8,10:58:13,03/04/2024
3152.5,"<div class = numbox><p style=""font-size: 2.4rem"">Please recall the letters you saw to the best of your ability. If you do not remember a particular letter, use the SKIP button.<br><b>(When you are ready to lock in your answer, press ENTER)</b></p><button id = button_1 class = ""square num-button"" onclick = ""recordClick(this)""><div class = content><div class = numbers>C</div></div></button><button id = button_2 class = ""square num-button"" onclick = ""recordClick(this)""><div class = content><div class = numbers>G</div></div></button><button id = button_3 class = ""square num-button"" onclick = ""recordClick(this)""><div class = content><div class = numbers>H</div></div></button><button id = button_4 class = ""square num-button"" onclick = ""recordClick(this)""><div class = content><div class = numbers>J</div></div></button><button id = button_5 class = ""square num-button"" onclick = ""recordClick(this)""><div class = content><div class = numbers>K</div></div></button><button id = button_6 class = ""square num-button"" onclick = ""recordClick(this)""><div class = content><div class = numbers>L</div></div></button><button id = button_7 class = ""square num-button"" onclick = ""recordClick(this)""><div class = content><div class = numbers>N</div></div></button><button id = button_8 class = ""square num-button"" onclick = ""recordClick(this)""><div class = content><div class = numbers>P</div></div></button><button id = button_9 class = ""square num-button"" onclick = ""recordClick(this)""><div class = content><div class = numbers>Q</div></div></button><button id = button_10 class = ""square num-button"" onclick = ""recordClick(this)""><div class = content><div class = numbers>R</div></div></button><button id = button_11 class = ""square num-button"" onclick = ""recordClick(this)""><div class = content><div class = numbers>S</div></div></button><button id = button_12 class = ""square num-button"" onclick = ""recordClick(this)""><div class = content><div class = numbers>Y</div></div></button><button class = clear_button id = ""ClearButton"" onclick = ""clearResponse()"">BACKSPACE</button><button class = blank_button id = ""BlankButton"" onclick = ""blankResponse()"">SKIP</button><p style=""font-size: 2.4rem""><u><b>Current Answer:</b></u></p><br><br><div id=echoed_txt style=""font-size: 5rem; color:blue;""><b></b></div></div>",enter,ospan,retrieval,iDSj8ux72CNdtS3L0aRj5Yg2zOg2,html-keyboard-response,141,646241,0.0-46.0-4.0-2.0-2.0,15,15,15,3.0,"[""L"",""S"",""Y""]","[""L"",""S"",""Y""]",1.0,3.0,,,,,,,63615b34abde8debee56c5b8,10:58:13,03/04/2024
901.0,[''],0,ospan,feedback,iDSj8ux72CNdtS3L0aRj5Yg2zOg2,html-button-response,142,647653,0.0-46.0-4.0-2.0-3.0,,,,,,,,,,,,100.0,0.0,,63615b34abde8debee56c5b8,10:58:13,03/04/2024
,"<p style=""font-size:75px;"">...</p>",,ospan,iti,iDSj8ux72CNdtS3L0aRj5Yg2zOg2,html-keyboard-response,143,648659,0.0-46.0-5.0-0.0-0.0,,,,,,,,,,,,,,,63615b34abde8debee56c5b8,10:58:13,03/04/2024
1373.0,,,ospan,symmetry,iDSj8ux72CNdtS3L0aRj5Yg2zOg2,symmetry-judgement-task,144,651381,0.0-46.0-5.0-0.0-1.0-0.0,,,,,,,,,,1.0,1.0,,,,63615b34abde8debee56c5b8,10:58:13,03/04/2024
,"<div style=""font-size: 10rem; color: #0000FF"">H</div>",,ospan,letter,iDSj8ux72CNdtS3L0aRj5Yg2zOg2,html-keyboard-response,145,652394,0.0-46.0-5.0-0.0-1.0-1.0,,,,,,,,,,,,,,,63615b34abde8debee56c5b8,10:58:13,03/04/2024
992.0,,,ospan,symmetry,iDSj8ux72CNdtS3L0aRj5Yg2zOg2,symmetry-judgement-task,146,655468,0.0-46.0-5.0-0.0-1.0-2.0,,,,,,,,,,1.0,1.0,,,,63615b34abde8debee56c5b8,10:58:13,03/04/2024
,"<div style=""font-size: 10rem; color: #0000FF"">K</div>",,ospan,letter,iDSj8ux72CNdtS3L0aRj5Yg2zOg2,html-keyboard-response,147,656484,0.0-46.0-5.0-0.0-1.0-3.0,,,,,,,,,,,,,,,63615b34abde8debee56c5b8,10:58:13,03/04/2024
806.0,,,ospan,symmetry,iDSj8ux72CNdtS3L0aRj5Yg2zOg2,symmetry-judgement-task,148,659443,0.0-46.0-5.0-0.0-1.0-4.0,,,,,,,,,,1.0,1.0,,,,63615b34abde8debee56c5b8,10:58:13,03/04/2024
,"<div style=""font-size: 10rem; color: #0000FF"">R</div>",,ospan,letter,iDSj8ux72CNdtS3L0aRj5Yg2zOg2,html-keyboard-response,149,660459,0.0-46.0-5.0-0.0-1.0-5.0,,,,,,,,,,,,,,,63615b34abde8debee56c5b8,10:58:13,03/04/2024
1001.0,,,ospan,symmetry,iDSj8ux72CNdtS3L0aRj5Yg2zOg2,symmetry-judgement-task,150,663563,0.0-46.0-5.0-0.0-1.0-6.0,,,,,,,,,,1.0,1.0,,,,63615b34abde8debee56c5b8,10:58:13,03/04/2024
,"<div style=""font-size: 10rem; color: #0000FF"">C</div>",,ospan,letter,iDSj8ux72CNdtS3L0aRj5Yg2zOg2,html-keyboard-response,151,664578,0.0-46.0-5.0-0.0-1.0-7.0,,,,,,,,,,,,,,,63615b34abde8debee56c5b8,10:58:13,03/04/2024
1084.0,,,ospan,symmetry,iDSj8ux72CNdtS3L0aRj5Yg2zOg2,symmetry-judgement-task,152,667797,0.0-46.0-5.0-0.0-1.0-8.0,,,,,,,,,,1.0,1.0,,,,63615b34abde8debee56c5b8,10:58:13,03/04/2024
,"<div style=""font-size: 10rem; color: #0000FF"">N</div>",,ospan,letter,iDSj8ux72CNdtS3L0aRj5Yg2zOg2,html-keyboard-response,153,668811,0.0-46.0-5.0-0.0-1.0-9.0,,,,,,,,,,,,,,,63615b34abde8debee56c5b8,10:58:13,03/04/2024
1680.0,,,ospan,symmetry,iDSj8ux72CNdtS3L0aRj5Yg2zOg2,symmetry-judgement-task,154,672593,0.0-46.0-5.0-0.0-1.0-10.0,,,,,,,,,,1.0,1.0,,,,63615b34abde8debee56c5b8,10:58:13,03/04/2024
,"<div style=""font-size: 10rem; color: #0000FF"">S</div>",,ospan,letter,iDSj8ux72CNdtS3L0aRj5Yg2zOg2,html-keyboard-response,155,673604,0.0-46.0-5.0-0.0-1.0-11.0,,,,,,,,,,,,,,,63615b34abde8debee56c5b8,10:58:13,03/04/2024
5755.5,"<div class = numbox><p style=""font-size: 2.4rem"">Please recall the letters you saw to the best of your ability. If you do not remember a particular letter, use the SKIP button.<br><b>(When you are ready to lock in your answer, press ENTER)</b></p><button id = button_1 class = ""square num-button"" onclick = ""recordClick(this)""><div class = content><div class = numbers>C</div></div></button><button id = button_2 class = ""square num-button"" onclick = ""recordClick(this)""><div class = content><div class = numbers>G</div></div></button><button id = button_3 class = ""square num-button"" onclick = ""recordClick(this)""><div class = content><div class = numbers>H</div></div></button><button id = button_4 class = ""square num-button"" onclick = ""recordClick(this)""><div class = content><div class = numbers>J</div></div></button><button id = button_5 class = ""square num-button"" onclick = ""recordClick(this)""><div class = content><div class = numbers>K</div></div></button><button id = button_6 class = ""square num-button"" onclick = ""recordClick(this)""><div class = content><div class = numbers>L</div></div></button><button id = button_7 class = ""square num-button"" onclick = ""recordClick(this)""><div class = content><div class = numbers>N</div></div></button><button id = button_8 class = ""square num-button"" onclick = ""recordClick(this)""><div class = content><div class = numbers>P</div></div></button><button id = button_9 class = ""square num-button"" onclick = ""recordClick(this)""><div class = content><div class = numbers>Q</div></div></button><button id = button_10 class = ""square num-button"" onclick = ""recordClick(this)""><div class = content><div class = numbers>R</div></div></button><button id = button_11 class = ""square num-button"" onclick = ""recordClick(this)""><div class = content><div class = numbers>S</div></div></button><button id = button_12 class = ""square num-button"" onclick = ""recordClick(this)""><div class = content><div class = numbers>Y</div></div></button><button class = clear_button id = ""ClearButton"" onclick = ""clearResponse()"">BACKSPACE</button><button class = blank_button id = ""BlankButton"" onclick = ""blankResponse()"">SKIP</button><p style=""font-size: 2.4rem""><u><b>Current Answer:</b></u></p><br><br><div id=echoed_txt style=""font-size: 5rem; color:blue;""><b></b></div></div>",enter,ospan,retrieval,iDSj8ux72CNdtS3L0aRj5Yg2zOg2,html-keyboard-response,156,680125,0.0-46.0-5.0-0.0-2.0,21,18,15,6.0,"[""H"",""K"",""R"",""N"",""S"",""C""]","[""H"",""K"",""R"",""C"",""N"",""S""]",0.0,3.0,,,,,,,63615b34abde8debee56c5b8,10:58:13,03/04/2024
751.1000000238419,[''],0,ospan,feedback,iDSj8ux72CNdtS3L0aRj5Yg2zOg2,html-button-response,157,681389,0.0-46.0-5.0-0.0-3.0,,,,,,,,,,,,100.0,0.0,,63615b34abde8debee56c5b8,10:58:13,03/04/2024
,"<p style=""font-size:75px;"">...</p>",,ospan,iti,iDSj8ux72CNdtS3L0aRj5Yg2zOg2,html-keyboard-response,158,682394,0.0-46.0-5.0-1.0-0.0,,,,,,,,,,,,,,,63615b34abde8debee56c5b8,10:58:13,03/04/2024
1374.0,,,ospan,symmetry,iDSj8ux72CNdtS3L0aRj5Yg2zOg2,symmetry-judgement-task,159,684845,0.0-46.0-5.0-1.0-1.0-0.0,,,,,,,,,,1.0,1.0,,,,63615b34abde8debee56c5b8,10:58:13,03/04/2024
,"<div style=""font-size: 10rem; color: #0000FF"">S</div>",,ospan,letter,iDSj8ux72CNdtS3L0aRj5Yg2zOg2,html-keyboard-response,160,685859,0.0-46.0-5.0-1.0-1.0-1.0,,,,,,,,,,,,,,,63615b34abde8debee56c5b8,10:58:13,03/04/2024
1360.0,,,ospan,symmetry,iDSj8ux72CNdtS3L0aRj5Yg2zOg2,symmetry-judgement-task,161,689374,0.0-46.0-5.0-1.0-1.0-2.0,,,,,,,,,,1.0,1.0,,,,63615b34abde8debee56c5b8,10:58:13,03/04/2024
,"<div style=""font-size: 10rem; color: #0000FF"">H</div>",,ospan,letter,iDSj8ux72CNdtS3L0aRj5Yg2zOg2,html-keyboard-response,162,690388,0.0-46.0-5.0-1.0-1.0-3.0,,,,,,,,,,,,,,,63615b34abde8debee56c5b8,10:58:13,03/04/2024
1360.0,,,ospan,symmetry,iDSj8ux72CNdtS3L0aRj5Yg2zOg2,symmetry-judgement-task,163,693856,0.0-46.0-5.0-1.0-1.0-4.0,,,,,,,,,,1.0,1.0,,,,63615b34abde8debee56c5b8,10:58:13,03/04/2024
,"<div style=""font-size: 10rem; color: #0000FF"">Y</div>",,ospan,letter,iDSj8ux72CNdtS3L0aRj5Yg2zOg2,html-keyboard-response,164,694869,0.0-46.0-5.0-1.0-1.0-5.0,,,,,,,,,,,,,,,63615b34abde8debee56c5b8,10:58:13,03/04/2024
1515.0,,,ospan,symmetry,iDSj8ux72CNdtS3L0aRj5Yg2zOg2,symmetry-judgement-task,165,698469,0.0-46.0-5.0-1.0-1.0-6.0,,,,,,,,,,1.0,1.0,,,,63615b34abde8debee56c5b8,10:58:13,03/04/2024
,"<div style=""font-size: 10rem; color: #0000FF"">L</div>",,ospan,letter,iDSj8ux72CNdtS3L0aRj5Yg2zOg2,html-keyboard-response,166,699485,0.0-46.0-5.0-1.0-1.0-7.0,,,,,,,,,,,,,,,63615b34abde8debee56c5b8,10:58:13,03/04/2024
988.0,,,ospan,symmetry,iDSj8ux72CNdtS3L0aRj5Yg2zOg2,symmetry-judgement-task,167,702563,0.0-46.0-5.0-1.0-1.0-8.0,,,,,,,,,,1.0,1.0,,,,63615b34abde8debee56c5b8,10:58:13,03/04/2024
,"<div style=""font-size: 10rem; color: #0000FF"">Q</div>",,ospan,letter,iDSj8ux72CNdtS3L0aRj5Yg2zOg2,html-keyboard-response,168,703575,0.0-46.0-5.0-1.0-1.0-9.0,,,,,,,,,,,,,,,63615b34abde8debee56c5b8,10:58:13,03/04/2024
1474.0,,,ospan,symmetry,iDSj8ux72CNdtS3L0aRj5Yg2zOg2,symmetry-judgement-task,169,707167,0.0-46.0-5.0-1.0-1.0-10.0,,,,,,,,,,1.0,1.0,,,,63615b34abde8debee56c5b8,10:58:13,03/04/2024
,"<div style=""font-size: 10rem; color: #0000FF"">P</div>",,ospan,letter,iDSj8ux72CNdtS3L0aRj5Yg2zOg2,html-keyboard-response,170,708182,0.0-46.0-5.0-1.0-1.0-11.0,,,,,,,,,,,,,,,63615b34abde8debee56c5b8,10:58:13,03/04/2024
1797.0,,,ospan,symmetry,iDSj8ux72CNdtS3L0aRj5Yg2zOg2,symmetry-judgement-task,171,712111,0.0-46.0-5.0-1.0-1.0-12.0,,,,,,,,,,1.0,1.0,,,,63615b34abde8debee56c5b8,10:58:13,03/04/2024
,"<div style=""font-size: 10rem; color: #0000FF"">J</div>",,ospan,letter,iDSj8ux72CNdtS3L0aRj5Yg2zOg2,html-keyboard-response,172,713126,0.0-46.0-5.0-1.0-1.0-13.0,,,,,,,,,,,,,,,63615b34abde8debee56c5b8,10:58:13,03/04/2024
7176.699999928474,"<div class = numbox><p style=""font-size: 2.4rem"">Please recall the letters you saw to the best of your ability. If you do not remember a particular letter, use the SKIP button.<br><b>(When you are ready to lock in your answer, press ENTER)</b></p><button id = button_1 class = ""square num-button"" onclick = ""recordClick(this)""><div class = content><div class = numbers>C</div></div></button><button id = button_2 class = ""square num-button"" onclick = ""recordClick(this)""><div class = content><div class = numbers>G</div></div></button><button id = button_3 class = ""square num-button"" onclick = ""recordClick(this)""><div class = content><div class = numbers>H</div></div></button><button id = button_4 class = ""square num-button"" onclick = ""recordClick(this)""><div class = content><div class = numbers>J</div></div></button><button id = button_5 class = ""square num-button"" onclick = ""recordClick(this)""><div class = content><div class = numbers>K</div></div></button><button id = button_6 class = ""square num-button"" onclick = ""recordClick(this)""><div class = content><div class = numbers>L</div></div></button><button id = button_7 class = ""square num-button"" onclick = ""recordClick(this)""><div class = content><div class = numbers>N</div></div></button><button id = button_8 class = ""square num-button"" onclick = ""recordClick(this)""><div class = content><div class = numbers>P</div></div></button><button id = button_9 class = ""square num-button"" onclick = ""recordClick(this)""><div class = content><div class = numbers>Q</div></div></button><button id = button_10 class = ""square num-button"" onclick = ""recordClick(this)""><div class = content><div class = numbers>R</div></div></button><button id = button_11 class = ""square num-button"" onclick = ""recordClick(this)""><div class = content><div class = numbers>S</div></div></button><button id = button_12 class = ""square num-button"" onclick = ""recordClick(this)""><div class = content><div class = numbers>Y</div></div></button><button class = clear_button id = ""ClearButton"" onclick = ""clearResponse()"">BACKSPACE</button><button class = blank_button id = ""BlankButton"" onclick = ""blankResponse()"">SKIP</button><p style=""font-size: 2.4rem""><u><b>Current Answer:</b></u></p><br><br><div id=echoed_txt style=""font-size: 5rem; color:blue;""><b></b></div></div>",enter,ospan,retrieval,iDSj8ux72CNdtS3L0aRj5Yg2zOg2,html-keyboard-response,173,721067,0.0-46.0-5.0-1.0-2.0,28,20,15,7.0,"[""S"",""K"",""Y"",""H"",""J"",""Q""]","[""S"",""H"",""Y"",""L"",""Q"",""P"",""J""]",0.0,2.0,,,,,,,63615b34abde8debee56c5b8,10:58:13,03/04/2024
1015.7000000476837,[''],0,ospan,feedback,iDSj8ux72CNdtS3L0aRj5Yg2zOg2,html-button-response,174,722599,0.0-46.0-5.0-1.0-3.0,,,,,,,,,,,,100.0,0.0,,63615b34abde8debee56c5b8,10:58:13,03/04/2024
,"<p style=""font-size:75px;"">...</p>",,ospan,iti,iDSj8ux72CNdtS3L0aRj5Yg2zOg2,html-keyboard-response,175,723612,0.0-46.0-6.0-0.0-0.0,,,,,,,,,,,,,,,63615b34abde8debee56c5b8,10:58:13,03/04/2024
1101.0,,,ospan,symmetry,iDSj8ux72CNdtS3L0aRj5Yg2zOg2,symmetry-judgement-task,176,726053,0.0-46.0-6.0-0.0-1.0-0.0,,,,,,,,,,1.0,1.0,,,,63615b34abde8debee56c5b8,10:58:13,03/04/2024
,"<div style=""font-size: 10rem; color: #0000FF"">H</div>",,ospan,letter,iDSj8ux72CNdtS3L0aRj5Yg2zOg2,html-keyboard-response,177,727070,0.0-46.0-6.0-0.0-1.0-1.0,,,,,,,,,,,,,,,63615b34abde8debee56c5b8,10:58:13,03/04/2024
1136.0,,,ospan,symmetry,iDSj8ux72CNdtS3L0aRj5Yg2zOg2,symmetry-judgement-task,178,730344,0.0-46.0-6.0-0.0-1.0-2.0,,,,,,,,,,1.0,1.0,,,,63615b34abde8debee56c5b8,10:58:13,03/04/2024
,"<div style=""font-size: 10rem; color: #0000FF"">K</div>",,ospan,letter,iDSj8ux72CNdtS3L0aRj5Yg2zOg2,html-keyboard-response,179,731358,0.0-46.0-6.0-0.0-1.0-3.0,,,,,,,,,,,,,,,63615b34abde8debee56c5b8,10:58:13,03/04/2024
919.0,,,ospan,symmetry,iDSj8ux72CNdtS3L0aRj5Yg2zOg2,symmetry-judgement-task,180,734380,0.0-46.0-6.0-0.0-1.0-4.0,,,,,,,,,,1.0,1.0,,,,63615b34abde8debee56c5b8,10:58:13,03/04/2024
,"<div style=""font-size: 10rem; color: #0000FF"">J</div>",,ospan,letter,iDSj8ux72CNdtS3L0aRj5Yg2zOg2,html-keyboard-response,181,735392,0.0-46.0-6.0-0.0-1.0-5.0,,,,,,,,,,,,,,,63615b34abde8debee56c5b8,10:58:13,03/04/2024
1228.0,,,ospan,symmetry,iDSj8ux72CNdtS3L0aRj5Yg2zOg2,symmetry-judgement-task,182,738746,0.0-46.0-6.0-0.0-1.0-6.0,,,,,,,,,,1.0,1.0,,,,63615b34abde8debee56c5b8,10:58:13,03/04/2024
,"<div style=""font-size: 10rem; color: #0000FF"">P</div>",,ospan,letter,iDSj8ux72CNdtS3L0aRj5Yg2zOg2,html-keyboard-response,183,739759,0.0-46.0-6.0-0.0-1.0-7.0,,,,,,,,,,,,,,,63615b34abde8debee56c5b8,10:58:13,03/04/2024
1109.0,,,ospan,symmetry,iDSj8ux72CNdtS3L0aRj5Yg2zOg2,symmetry-judgement-task,184,742996,0.0-46.0-6.0-0.0-1.0-8.0,,,,,,,,,,1.0,1.0,,,,63615b34abde8debee56c5b8,10:58:13,03/04/2024
,"<div style=""font-size: 10rem; color: #0000FF"">C</div>",,ospan,letter,iDSj8ux72CNdtS3L0aRj5Yg2zOg2,html-keyboard-response,185,744009,0.0-46.0-6.0-0.0-1.0-9.0,,,,,,,,,,,,,,,63615b34abde8debee56c5b8,10:58:13,03/04/2024
6258.5,"<div class = numbox><p style=""font-size: 2.4rem"">Please recall the letters you saw to the best of your ability. If you do not remember a particular letter, use the SKIP button.<br><b>(When you are ready to lock in your answer, press ENTER)</b></p><button id = button_1 class = ""square num-button"" onclick = ""recordClick(this)""><div class = content><div class = numbers>C</div></div></button><button id = button_2 class = ""square num-button"" onclick = ""recordClick(this)""><div class = content><div class = numbers>G</div></div></button><button id = button_3 class = ""square num-button"" onclick = ""recordClick(this)""><div class = content><div class = numbers>H</div></div></button><button id = button_4 class = ""square num-button"" onclick = ""recordClick(this)""><div class = content><div class = numbers>J</div></div></button><button id = button_5 class = ""square num-button"" onclick = ""recordClick(this)""><div class = content><div class = numbers>K</div></div></button><button id = button_6 class = ""square num-button"" onclick = ""recordClick(this)""><div class = content><div class = numbers>L</div></div></button><button id = button_7 class = ""square num-button"" onclick = ""recordClick(this)""><div class = content><div class = numbers>N</div></div></button><button id = button_8 class = ""square num-button"" onclick = ""recordClick(this)""><div class = content><div class = numbers>P</div></div></button><button id = button_9 class = ""square num-button"" onclick = ""recordClick(this)""><div class = content><div class = numbers>Q</div></div></button><button id = button_10 class = ""square num-button"" onclick = ""recordClick(this)""><div class = content><div class = numbers>R</div></div></button><button id = button_11 class = ""square num-button"" onclick = ""recordClick(this)""><div class = content><div class = numbers>S</div></div></button><button id = button_12 class = ""square num-button"" onclick = ""recordClick(this)""><div class = content><div class = numbers>Y</div></div></button><button class = clear_button id = ""ClearButton"" onclick = ""clearResponse()"">BACKSPACE</button><button class = blank_button id = ""BlankButton"" onclick = ""blankResponse()"">SKIP</button><p style=""font-size: 2.4rem""><u><b>Current Answer:</b></u></p><br><br><div id=echoed_txt style=""font-size: 5rem; color:blue;""><b></b></div></div>",enter,ospan,retrieval,iDSj8ux72CNdtS3L0aRj5Yg2zOg2,html-keyboard-response,186,751029,0.0-46.0-6.0-0.0-2.0,33,23,15,5.0,"[""H"",""J"",""K"",""P"",""C""]","[""H"",""K"",""J"",""P"",""C""]",0.0,3.0,,,,,,,63615b34abde8debee56c5b8,10:58:13,03/04/2024
646.8000000715256,[''],0,ospan,feedback,iDSj8ux72CNdtS3L0aRj5Yg2zOg2,html-button-response,187,752185,0.0-46.0-6.0-0.0-3.0,,,,,,,,,,,,100.0,0.0,,63615b34abde8debee56c5b8,10:58:13,03/04/2024
,"<p style=""font-size:75px;"">...</p>",,ospan,iti,iDSj8ux72CNdtS3L0aRj5Yg2zOg2,html-keyboard-response,188,753197,0.0-46.0-6.0-1.0-0.0,,,,,,,,,,,,,,,63615b34abde8debee56c5b8,10:58:13,03/04/2024
1147.0,,,ospan,symmetry,iDSj8ux72CNdtS3L0aRj5Yg2zOg2,symmetry-judgement-task,189,755715,0.0-46.0-6.0-1.0-1.0-0.0,,,,,,,,,,1.0,1.0,,,,63615b34abde8debee56c5b8,10:58:13,03/04/2024
,"<div style=""font-size: 10rem; color: #0000FF"">C</div>",,ospan,letter,iDSj8ux72CNdtS3L0aRj5Yg2zOg2,html-keyboard-response,190,756729,0.0-46.0-6.0-1.0-1.0-1.0,,,,,,,,,,,,,,,63615b34abde8debee56c5b8,10:58:13,03/04/2024
766.0,,,ospan,symmetry,iDSj8ux72CNdtS3L0aRj5Yg2zOg2,symmetry-judgement-task,191,759615,0.0-46.0-6.0-1.0-1.0-2.0,,,,,,,,,,1.0,1.0,,,,63615b34abde8debee56c5b8,10:58:13,03/04/2024
,"<div style=""font-size: 10rem; color: #0000FF"">P</div>",,ospan,letter,iDSj8ux72CNdtS3L0aRj5Yg2zOg2,html-keyboard-response,192,760632,0.0-46.0-6.0-1.0-1.0-3.0,,,,,,,,,,,,,,,63615b34abde8debee56c5b8,10:58:13,03/04/2024
904.0,,,ospan,symmetry,iDSj8ux72CNdtS3L0aRj5Yg2zOg2,symmetry-judgement-task,193,763652,0.0-46.0-6.0-1.0-1.0-4.0,,,,,,,,,,1.0,1.0,,,,63615b34abde8debee56c5b8,10:58:13,03/04/2024
,"<div style=""font-size: 10rem; color: #0000FF"">Q</div>",,ospan,letter,iDSj8ux72CNdtS3L0aRj5Yg2zOg2,html-keyboard-response,194,764665,0.0-46.0-6.0-1.0-1.0-5.0,,,,,,,,,,,,,,,63615b34abde8debee56c5b8,10:58:13,03/04/2024
895.0,,,ospan,symmetry,iDSj8ux72CNdtS3L0aRj5Yg2zOg2,symmetry-judgement-task,195,767681,0.0-46.0-6.0-1.0-1.0-6.0,,,,,,,,,,1.0,1.0,,,,63615b34abde8debee56c5b8,10:58:13,03/04/2024
,"<div style=""font-size: 10rem; color: #0000FF"">L</div>",,ospan,letter,iDSj8ux72CNdtS3L0aRj5Yg2zOg2,html-keyboard-response,196,768696,0.0-46.0-6.0-1.0-1.0-7.0,,,,,,,,,,,,,,,63615b34abde8debee56c5b8,10:58:13,03/04/2024
1258.0,,,ospan,symmetry,iDSj8ux72CNdtS3L0aRj5Yg2zOg2,symmetry-judgement-task,197,772148,0.0-46.0-6.0-1.0-1.0-8.0,,,,,,,,,,1.0,1.0,,,,63615b34abde8debee56c5b8,10:58:13,03/04/2024
,"<div style=""font-size: 10rem; color: #0000FF"">K</div>",,ospan,letter,iDSj8ux72CNdtS3L0aRj5Yg2zOg2,html-keyboard-response,198,773161,0.0-46.0-6.0-1.0-1.0-9.0,,,,,,,,,,,,,,,63615b34abde8debee56c5b8,10:58:13,03/04/2024
2191.0,,,ospan,symmetry,iDSj8ux72CNdtS3L0aRj5Yg2zOg2,symmetry-judgement-task,199,777449,0.0-46.0-6.0-1.0-1.0-10.0,,,,,,,,,,1.0,1.0,,,,63615b34abde8debee56c5b8,10:58:13,03/04/2024
,"<div style=""font-size: 10rem; color: #0000FF"">Y</div>",,ospan,letter,iDSj8ux72CNdtS3L0aRj5Yg2zOg2,html-keyboard-response,200,778465,0.0-46.0-6.0-1.0-1.0-11.0,,,,,,,,,,,,,,,63615b34abde8debee56c5b8,10:58:13,03/04/2024
1537.0,,,ospan,symmetry,iDSj8ux72CNdtS3L0aRj5Yg2zOg2,symmetry-judgement-task,201,782146,0.0-46.0-6.0-1.0-1.0-12.0,,,,,,,,,,1.0,1.0,,,,63615b34abde8debee56c5b8,10:58:13,03/04/2024
,"<div style=""font-size: 10rem; color: #0000FF"">N</div>",,ospan,letter,iDSj8ux72CNdtS3L0aRj5Yg2zOg2,html-keyboard-response,202,783158,0.0-46.0-6.0-1.0-1.0-13.0,,,,,,,,,,,,,,,63615b34abde8debee56c5b8,10:58:13,03/04/2024
966.0,,,ospan,symmetry,iDSj8ux72CNdtS3L0aRj5Yg2zOg2,symmetry-judgement-task,203,786248,0.0-46.0-6.0-1.0-1.0-14.0,,,,,,,,,,1.0,1.0,,,,63615b34abde8debee56c5b8,10:58:13,03/04/2024
,"<div style=""font-size: 10rem; color: #0000FF"">J</div>",,ospan,letter,iDSj8ux72CNdtS3L0aRj5Yg2zOg2,html-keyboard-response,204,787263,0.0-46.0-6.0-1.0-1.0-15.0,,,,,,,,,,,,,,,63615b34abde8debee56c5b8,10:58:13,03/04/2024
6733.600000023842,"<div class = numbox><p style=""font-size: 2.4rem"">Please recall the letters you saw to the best of your ability. If you do not remember a particular letter, use the SKIP button.<br><b>(When you are ready to lock in your answer, press ENTER)</b></p><button id = button_1 class = ""square num-button"" onclick = ""recordClick(this)""><div class = content><div class = numbers>C</div></div></button><button id = button_2 class = ""square num-button"" onclick = ""recordClick(this)""><div class = content><div class = numbers>G</div></div></button><button id = button_3 class = ""square num-button"" onclick = ""recordClick(this)""><div class = content><div class = numbers>H</div></div></button><button id = button_4 class = ""square num-button"" onclick = ""recordClick(this)""><div class = content><div class = numbers>J</div></div></button><button id = button_5 class = ""square num-button"" onclick = ""recordClick(this)""><div class = content><div class = numbers>K</div></div></button><button id = button_6 class = ""square num-button"" onclick = ""recordClick(this)""><div class = content><div class = numbers>L</div></div></button><button id = button_7 class = ""square num-button"" onclick = ""recordClick(this)""><div class = content><div class = numbers>N</div></div></button><button id = button_8 class = ""square num-button"" onclick = ""recordClick(this)""><div class = content><div class = numbers>P</div></div></button><button id = button_9 class = ""square num-button"" onclick = ""recordClick(this)""><div class = content><div class = numbers>Q</div></div></button><button id = button_10 class = ""square num-button"" onclick = ""recordClick(this)""><div class = content><div class = numbers>R</div></div></button><button id = button_11 class = ""square num-button"" onclick = ""recordClick(this)""><div class = content><div class = numbers>S</div></div></button><button id = button_12 class = ""square num-button"" onclick = ""recordClick(this)""><div class = content><div class = numbers>Y</div></div></button><button class = clear_button id = ""ClearButton"" onclick = ""clearResponse()"">BACKSPACE</button><button class = blank_button id = ""BlankButton"" onclick = ""blankResponse()"">SKIP</button><p style=""font-size: 2.4rem""><u><b>Current Answer:</b></u></p><br><br><div id=echoed_txt style=""font-size: 5rem; color:blue;""><b></b></div></div>",enter,ospan,retrieval,iDSj8ux72CNdtS3L0aRj5Yg2zOg2,html-keyboard-response,205,794758,0.0-46.0-6.0-1.0-2.0,41,26,15,8.0,"[""C"",""P"",""Q"",""H"",""L"",""J"",""Y""]","[""C"",""P"",""Q"",""L"",""K"",""Y"",""N"",""J""]",0.0,3.0,,,,,,,63615b34abde8debee56c5b8,10:58:13,03/04/2024
786.3000000715256,[''],0,ospan,feedback,iDSj8ux72CNdtS3L0aRj5Yg2zOg2,html-button-response,206,796053,0.0-46.0-6.0-1.0-3.0,,,,,,,,,,,,100.0,0.0,,63615b34abde8debee56c5b8,10:58:13,03/04/2024
10464.0,,{'Q0': 'I enjoyed trying to multitask.'},ospan,survey_ospan,iDSj8ux72CNdtS3L0aRj5Yg2zOg2,lmdlab-survey-text,207,807278,0.0-46.0-7.0,,,,,,,,,,,,,,iDSj8ux72CNdtS3L0aRj5Yg2zOg2,63615b34abde8debee56c5b8,10:58:13,03/04/2024
1433.5,<p><p style='font-size: 3rem'>Great work!<br><br>This completes the symmetry and memory task.</p><br><br><br>,0,ospan,finish,iDSj8ux72CNdtS3L0aRj5Yg2zOg2,html-button-response,208,808717,0.0-46.0-8.0,41,26,15,,,,,,,,,100.0,,,63615b34abde8debee56c5b8,10:58:13,03/04/2024
