rt,stimulus,response,exp_name,exp_stage,subjectID,trial_type,trial_index,time_elapsed,internal_node_id,ospan_shown,ospan_total,ospan_abs,length,resp_actual,resp_correct,full_correct,num_correct,feedback,accuracy,correct,math_acc,math_warning,databaseID,prolificID,start_time,date
2225.900000035763,<div class = 'left_align' style='font-size: 3.25rem; line-height: 1.3;'><p class = 'center_align'><b>Welcome to the Symmetry and Memory Task</b><br><br><br><br></p>Press 'continue' to show the instructions.<br><br><br><br></div>,0,ospan,instruct,yT5S582FOleoQCPnsg2hYHIwQTx2,html-button-response,51,654837,0.0-43.0-0.0-0.0-0.0,,,,,,,,,,,,,,,65cfd63f31c934ef41d14881,14:37:35,06/03/2024
2204.2999999523163,"<div class = 'left_align' style='font-size: 3.25rem; line-height: 1.3;'><p class = 'center_align'><b>Symmetry and Memory Task</b><br><br></p>In this task, you will try to memorize letters you see on the screen<br>while you also view black and white grid pictures.<br><br>In the next few minutes, you will have some practice to get you familiar<br>with how the task works.<br><br>It may be difficult sometimes, but please do not worry about making mistakes!<br><br>We will begin by practicing the letter part of the task.<br><br><br><br></div>",0,ospan,instruct,yT5S582FOleoQCPnsg2hYHIwQTx2,html-button-response,52,657296,0.0-43.0-0.0-0.0-1.0,,,,,,,,,,,,,,,65cfd63f31c934ef41d14881,14:37:35,06/03/2024
1469.0,"<div class = 'left_align' style='font-size: 3.25rem; line-height: 1.3;'>For this practice part, letters will appear on the screen one at a time.<br><br>Try to remember each letter in the order presented.<br><br>After some letters have been shown, you will see a response screen. Your<br>goal is to report the letters you saw <b>in order</b>. If you do not remember<br>a particular letter, you will have the option to leave it blank.<br><br><br><br></div>",0,ospan,instruct,yT5S582FOleoQCPnsg2hYHIwQTx2,html-button-response,53,659019,0.0-43.0-0.0-0.0-2.0,,,,,,,,,,,,,,,65cfd63f31c934ef41d14881,14:37:35,06/03/2024
3229.7000000476837,"<div class = 'left_align' style='font-size: 3.25rem; line-height: 1.3;'>Remember, it is very important to get the letters in the same<br>order as you see them.<br><br>When you are ready, you may begin the letter practice.</div><br><br><br><br>",0,ospan,instruct,yT5S582FOleoQCPnsg2hYHIwQTx2,html-button-response,54,662510,0.0-43.0-0.0-0.0-3.0,,,,,,,,,,,,,,,65cfd63f31c934ef41d14881,14:37:35,06/03/2024
,"<p style=""font-size:75px;"">...</p>",,ospan,iti,yT5S582FOleoQCPnsg2hYHIwQTx2,html-keyboard-response,55,663786,0.0-43.0-0.0-1.0-0.0,,,,,,,,,,,,,,,65cfd63f31c934ef41d14881,14:37:35,06/03/2024
,"<div style=""font-size: 10rem; color: #0000FF"">C</div>",,ospan,letter,yT5S582FOleoQCPnsg2hYHIwQTx2,html-keyboard-response,56,664794,0.0-43.0-0.0-1.0-1.0,,,,,,,,,,,,,,,65cfd63f31c934ef41d14881,14:37:35,06/03/2024
,"<div style=""font-size: 10rem; color: #0000FF"">S</div>",,ospan,letter,yT5S582FOleoQCPnsg2hYHIwQTx2,html-keyboard-response,57,666574,0.0-43.0-0.0-1.0-2.0,,,,,,,,,,,,,,,65cfd63f31c934ef41d14881,14:37:35,06/03/2024
6244.600000023842,"<div class = numbox><p style=""font-size: 2.4rem"">Please recall the letters you saw to the best of your ability. If you do not remember a particular letter, use the SKIP button.<br><b>(When you are ready to lock in your answer, press ENTER)</b></p><button id = button_1 class = ""square num-button"" onclick = ""recordClick(this)""><div class = content><div class = numbers>C</div></div></button><button id = button_2 class = ""square num-button"" onclick = ""recordClick(this)""><div class = content><div class = numbers>G</div></div></button><button id = button_3 class = ""square num-button"" onclick = ""recordClick(this)""><div class = content><div class = numbers>H</div></div></button><button id = button_4 class = ""square num-button"" onclick = ""recordClick(this)""><div class = content><div class = numbers>J</div></div></button><button id = button_5 class = ""square num-button"" onclick = ""recordClick(this)""><div class = content><div class = numbers>K</div></div></button><button id = button_6 class = ""square num-button"" onclick = ""recordClick(this)""><div class = content><div class = numbers>L</div></div></button><button id = button_7 class = ""square num-button"" onclick = ""recordClick(this)""><div class = content><div class = numbers>N</div></div></button><button id = button_8 class = ""square num-button"" onclick = ""recordClick(this)""><div class = content><div class = numbers>P</div></div></button><button id = button_9 class = ""square num-button"" onclick = ""recordClick(this)""><div class = content><div class = numbers>Q</div></div></button><button id = button_10 class = ""square num-button"" onclick = ""recordClick(this)""><div class = content><div class = numbers>R</div></div></button><button id = button_11 class = ""square num-button"" onclick = ""recordClick(this)""><div class = content><div class = numbers>S</div></div></button><button id = button_12 class = ""square num-button"" onclick = ""recordClick(this)""><div class = content><div class = numbers>Y</div></div></button><button class = clear_button id = ""ClearButton"" onclick = ""clearResponse()"">BACKSPACE</button><button class = blank_button id = ""BlankButton"" onclick = ""blankResponse()"">SKIP</button><p style=""font-size: 2.4rem""><u><b>Current Answer:</b></u></p><br><br><div id=echoed_txt style=""font-size: 5rem; color:blue;""><b></b></div></div>",enter,ospan,retrieval,yT5S582FOleoQCPnsg2hYHIwQTx2,html-keyboard-response,58,673577,0.0-43.0-0.0-1.0-3.0,NA,NA,NA,2.0,"[""C"",""S""]","[""C"",""S""]",1.0,2.0,"['<font color=""green"">C</font>', '<font color=""green"">S</font>']",,,,,,65cfd63f31c934ef41d14881,14:37:35,06/03/2024
3740.300000011921,"['<p style=""font-size:44px"">Letters:<br><br><br><font color=""green"">C</font> <font color=""green"">S</font></p><br><br>']",0,ospan,practice_feedback,yT5S582FOleoQCPnsg2hYHIwQTx2,html-button-response,59,677826,0.0-43.0-0.0-1.0-4.0,,,,,,,,,,,,,,,65cfd63f31c934ef41d14881,14:37:35,06/03/2024
,"<p style=""font-size:75px;"">...</p>",,ospan,iti,yT5S582FOleoQCPnsg2hYHIwQTx2,html-keyboard-response,60,678839,0.0-43.0-0.0-2.0-0.0,,,,,,,,,,,,,,,65cfd63f31c934ef41d14881,14:37:35,06/03/2024
,"<div style=""font-size: 10rem; color: #0000FF"">Q</div>",,ospan,letter,yT5S582FOleoQCPnsg2hYHIwQTx2,html-keyboard-response,61,679846,0.0-43.0-0.0-2.0-1.0,,,,,,,,,,,,,,,65cfd63f31c934ef41d14881,14:37:35,06/03/2024
,"<div style=""font-size: 10rem; color: #0000FF"">L</div>",,ospan,letter,yT5S582FOleoQCPnsg2hYHIwQTx2,html-keyboard-response,62,681605,0.0-43.0-0.0-2.0-2.0,,,,,,,,,,,,,,,65cfd63f31c934ef41d14881,14:37:35,06/03/2024
,"<div style=""font-size: 10rem; color: #0000FF"">C</div>",,ospan,letter,yT5S582FOleoQCPnsg2hYHIwQTx2,html-keyboard-response,63,683386,0.0-43.0-0.0-2.0-3.0,,,,,,,,,,,,,,,65cfd63f31c934ef41d14881,14:37:35,06/03/2024
4870.200000047684,"<div class = numbox><p style=""font-size: 2.4rem"">Please recall the letters you saw to the best of your ability. If you do not remember a particular letter, use the SKIP button.<br><b>(When you are ready to lock in your answer, press ENTER)</b></p><button id = button_1 class = ""square num-button"" onclick = ""recordClick(this)""><div class = content><div class = numbers>C</div></div></button><button id = button_2 class = ""square num-button"" onclick = ""recordClick(this)""><div class = content><div class = numbers>G</div></div></button><button id = button_3 class = ""square num-button"" onclick = ""recordClick(this)""><div class = content><div class = numbers>H</div></div></button><button id = button_4 class = ""square num-button"" onclick = ""recordClick(this)""><div class = content><div class = numbers>J</div></div></button><button id = button_5 class = ""square num-button"" onclick = ""recordClick(this)""><div class = content><div class = numbers>K</div></div></button><button id = button_6 class = ""square num-button"" onclick = ""recordClick(this)""><div class = content><div class = numbers>L</div></div></button><button id = button_7 class = ""square num-button"" onclick = ""recordClick(this)""><div class = content><div class = numbers>N</div></div></button><button id = button_8 class = ""square num-button"" onclick = ""recordClick(this)""><div class = content><div class = numbers>P</div></div></button><button id = button_9 class = ""square num-button"" onclick = ""recordClick(this)""><div class = content><div class = numbers>Q</div></div></button><button id = button_10 class = ""square num-button"" onclick = ""recordClick(this)""><div class = content><div class = numbers>R</div></div></button><button id = button_11 class = ""square num-button"" onclick = ""recordClick(this)""><div class = content><div class = numbers>S</div></div></button><button id = button_12 class = ""square num-button"" onclick = ""recordClick(this)""><div class = content><div class = numbers>Y</div></div></button><button class = clear_button id = ""ClearButton"" onclick = ""clearResponse()"">BACKSPACE</button><button class = blank_button id = ""BlankButton"" onclick = ""blankResponse()"">SKIP</button><p style=""font-size: 2.4rem""><u><b>Current Answer:</b></u></p><br><br><div id=echoed_txt style=""font-size: 5rem; color:blue;""><b></b></div></div>",enter,ospan,retrieval,yT5S582FOleoQCPnsg2hYHIwQTx2,html-keyboard-response,64,689011,0.0-43.0-0.0-2.0-4.0,NA,NA,NA,3.0,"[""Q"",""L"",""C""]","[""Q"",""L"",""C""]",1.0,3.0,"['<font color=""green"">Q</font>', '<font color=""green"">L</font>', '<font color=""green"">C</font>']",,,,,,65cfd63f31c934ef41d14881,14:37:35,06/03/2024
2048.699999988079,"['<p style=""font-size:44px"">Letters:<br><br><br><font color=""green"">Q</font> <font color=""green"">L</font> <font color=""green"">C</font></p><br><br>']",0,ospan,practice_feedback,yT5S582FOleoQCPnsg2hYHIwQTx2,html-button-response,65,691578,0.0-43.0-0.0-2.0-5.0,,,,,,,,,,,,,,,65cfd63f31c934ef41d14881,14:37:35,06/03/2024
25882.0,"<div class = 'left_align' style='font-size: 3.25rem; line-height: 1.3;'>Now you will practice doing the <b>symmetry judgment part</b> of the experiment.<br><br>A black and white grid picture will appear on the screen and you have to judge if it is <br>symmetrical or asymetrical.<br><br>A picture is 'mirror' symmetrical if its left half is identical to the right half when flipped.<br>Here are examples of a symmetrical and an asymetrical picture:<br><br><center><img src='Stimuli/img/symm_instructions_extra.png' style='height:420px; width:900'></img></center><br>To judge symmetry, imagine you were to fold each picture down the middle, like a book –<br>would the left half match the right half when folded onto each other?<br><br></div><br>",0,ospan,instruct,yT5S582FOleoQCPnsg2hYHIwQTx2,html-button-response,66,717463,0.0-43.0-1.0-0.0-0.0,,,,,,,,,,,,,,,65cfd63f31c934ef41d14881,14:37:35,06/03/2024
1175.5,"<div class = 'left_align' style='font-size: 3.25rem; line-height: 1.3;'>When you have viewed the picture and determined whether it is symmetrical or not,<br>you can <b>click the Yes or No button</b> below to answer.<br><br>If you take longer than 15 seconds, it will continue automatically<br>and record the answer as an error.</div><br>",0,ospan,instruct,yT5S582FOleoQCPnsg2hYHIwQTx2,html-button-response,67,718894,0.0-43.0-1.0-0.0-1.0,,,,,,,,,,,,,,,65cfd63f31c934ef41d14881,14:37:35,06/03/2024
5897.900000035763,"<div class = 'left_align' style='font-size: 3.25rem; line-height: 1.3;'>It is <b>very</b> important that you make the symmetry judgment correctly.<br><br>It is also important that you try and judge the picture as quickly as you can.<br><br>When you are ready, click on the button below to try some practice problems.</div><br><br><br><br>",0,ospan,instruct,yT5S582FOleoQCPnsg2hYHIwQTx2,html-button-response,68,725059,0.0-43.0-1.0-0.0-2.0,,,,,,,,,,,,,,,65cfd63f31c934ef41d14881,14:37:35,06/03/2024
5437.0,,,ospan,symmetry,yT5S582FOleoQCPnsg2hYHIwQTx2,symmetry-judgement-task,69,731398,0.0-43.0-1.0-1.0-0.0,,,,,,,,,,1.0,1.0,,,,65cfd63f31c934ef41d14881,14:37:35,06/03/2024
,"<p style=""color:green; font-size: 35px"">Correct</p>",,ospan,feedback,yT5S582FOleoQCPnsg2hYHIwQTx2,html-keyboard-response,70,732165,0.0-43.0-1.0-1.0-1.0,,,,,,,,,,,,,,,65cfd63f31c934ef41d14881,14:37:35,06/03/2024
4081.0,,,ospan,symmetry,yT5S582FOleoQCPnsg2hYHIwQTx2,symmetry-judgement-task,71,739168,0.0-43.0-1.0-1.0-2.0,,,,,,,,,,0.0,0.0,,,,65cfd63f31c934ef41d14881,14:37:35,06/03/2024
,"<p style=""color:red; font-size: 35px"">Incorrect</p>",,ospan,feedback,yT5S582FOleoQCPnsg2hYHIwQTx2,html-keyboard-response,72,739934,0.0-43.0-1.0-1.0-3.0,,,,,,,,,,,,,,,65cfd63f31c934ef41d14881,14:37:35,06/03/2024
1125.0,,,ospan,symmetry,yT5S582FOleoQCPnsg2hYHIwQTx2,symmetry-judgement-task,73,743983,0.0-43.0-1.0-1.0-4.0,,,,,,,,,,1.0,1.0,,,,65cfd63f31c934ef41d14881,14:37:35,06/03/2024
,"<p style=""color:green; font-size: 35px"">Correct</p>",,ospan,feedback,yT5S582FOleoQCPnsg2hYHIwQTx2,html-keyboard-response,74,744748,0.0-43.0-1.0-1.0-5.0,,,,,,,,,,,,,,,65cfd63f31c934ef41d14881,14:37:35,06/03/2024
2517.0,"<p style=""font-size: 3rem;"">You only responded correctly on 2 of 3 symmetry judgments.<br><br><b>In the main task, you must try harder to answer accurately.</b></p><br><br>",0,ospan,practice,yT5S582FOleoQCPnsg2hYHIwQTx2,html-button-response,75,749279,0.0-43.0-1.0-2.0,,,,,,,,,,,,,,,65cfd63f31c934ef41d14881,14:37:35,06/03/2024
2067.399999976158,"<div class = 'left_align' style='font-size: 3.25rem; line-height: 1.3;'>Now you will practice doing both parts of the experiment at the same time.<br><br>In the next practice set, you will be given one grid picture to judge.<br>Then letter will appear on the screen. Try to remember the letter.<br><br>It is <b>very important</b> to make the symmetry judgment as quickly and accurately as possible.<br><br>Just as before, once you have make the symmetry judgment, you can click Yes or No.<br><b>Note that you will no longer see Correct or Incorrect feedback.</div><br><br><br><br>",0,ospan,instruct,yT5S582FOleoQCPnsg2hYHIwQTx2,html-button-response,76,751612,0.0-43.0-2.0-0.0-0.0,,,,,,,,,,,,,,,65cfd63f31c934ef41d14881,14:37:35,06/03/2024
1136.7000000476837,"<div class = 'left_align' style='font-size: 3.25rem; line-height: 1.3;'>After the letter goes away, another grid picture will appear, and then<br>another letter.<br><br>At the end of each set of letters and grids, you will recall the letters to the best<br>of your ability. Remember, try your best to get the letters in the correct order.<br><br>It is important to <b>quickly</b> and <b>accurately</b> make the symmetry judgments.</div><br><br><br><br>",0,ospan,instruct,yT5S582FOleoQCPnsg2hYHIwQTx2,html-button-response,77,753004,0.0-43.0-2.0-0.0-1.0,,,,,,,,,,,,,,,65cfd63f31c934ef41d14881,14:37:35,06/03/2024
1936.199999988079,"<div class = 'left_align' style='font-size: 3.25rem; line-height: 1.3;'>On the feedback screen, if you are not doing well at the symmetry judgments,<br>you will also see a warning in the middle. This indicates your percent <br>correct for the grid pictures for the entire experiment.<br><br>It is <b>very</b> important for you to keep accuracy at least at 85%: <u>We can only use<br>data where the participant was at least 85% accurate on the judgments.</u> Therefore,<br> please try your best to perform well on the symmetry judgments, <b>at the same time</b><br>doing your best to recall as many letters as possible.<br><br>Click the button to try some practice problems.</div><br><br><br><br>",0,ospan,instruct,yT5S582FOleoQCPnsg2hYHIwQTx2,html-button-response,78,755199,0.0-43.0-2.0-0.0-2.0,,,,,,,,,,,,,,,65cfd63f31c934ef41d14881,14:37:35,06/03/2024
,"<p style=""font-size:75px;"">...</p>",,ospan,iti,yT5S582FOleoQCPnsg2hYHIwQTx2,html-keyboard-response,79,756461,0.0-43.0-2.0-1.0-0.0,,,,,,,,,,,,,,,65cfd63f31c934ef41d14881,14:37:35,06/03/2024
1760.0,,,ospan,symmetry,yT5S582FOleoQCPnsg2hYHIwQTx2,symmetry-judgement-task,80,759651,0.0-43.0-2.0-1.0-1.0-0.0,,,,,,,,,,1.0,1.0,,,,65cfd63f31c934ef41d14881,14:37:35,06/03/2024
,"<div style=""font-size: 10rem; color: #0000FF"">R</div>",,ospan,letter,yT5S582FOleoQCPnsg2hYHIwQTx2,html-keyboard-response,81,760662,0.0-43.0-2.0-1.0-1.0-1.0,,,,,,,,,,,,,,,65cfd63f31c934ef41d14881,14:37:35,06/03/2024
1391.0,,,ospan,symmetry,yT5S582FOleoQCPnsg2hYHIwQTx2,symmetry-judgement-task,82,764246,0.0-43.0-2.0-1.0-1.0-2.0,,,,,,,,,,1.0,1.0,,,,65cfd63f31c934ef41d14881,14:37:35,06/03/2024
,"<div style=""font-size: 10rem; color: #0000FF"">Q</div>",,ospan,letter,yT5S582FOleoQCPnsg2hYHIwQTx2,html-keyboard-response,83,765264,0.0-43.0-2.0-1.0-1.0-3.0,,,,,,,,,,,,,,,65cfd63f31c934ef41d14881,14:37:35,06/03/2024
3042.0,,,ospan,symmetry,yT5S582FOleoQCPnsg2hYHIwQTx2,symmetry-judgement-task,84,770513,0.0-43.0-2.0-1.0-1.0-4.0,,,,,,,,,,1.0,1.0,,,,65cfd63f31c934ef41d14881,14:37:35,06/03/2024
,"<div style=""font-size: 10rem; color: #0000FF"">L</div>",,ospan,letter,yT5S582FOleoQCPnsg2hYHIwQTx2,html-keyboard-response,85,771527,0.0-43.0-2.0-1.0-1.0-5.0,,,,,,,,,,,,,,,65cfd63f31c934ef41d14881,14:37:35,06/03/2024
9572.799999952316,"<div class = numbox><p style=""font-size: 2.4rem"">Please recall the letters you saw to the best of your ability. If you do not remember a particular letter, use the SKIP button.<br><b>(When you are ready to lock in your answer, press ENTER)</b></p><button id = button_1 class = ""square num-button"" onclick = ""recordClick(this)""><div class = content><div class = numbers>C</div></div></button><button id = button_2 class = ""square num-button"" onclick = ""recordClick(this)""><div class = content><div class = numbers>G</div></div></button><button id = button_3 class = ""square num-button"" onclick = ""recordClick(this)""><div class = content><div class = numbers>H</div></div></button><button id = button_4 class = ""square num-button"" onclick = ""recordClick(this)""><div class = content><div class = numbers>J</div></div></button><button id = button_5 class = ""square num-button"" onclick = ""recordClick(this)""><div class = content><div class = numbers>K</div></div></button><button id = button_6 class = ""square num-button"" onclick = ""recordClick(this)""><div class = content><div class = numbers>L</div></div></button><button id = button_7 class = ""square num-button"" onclick = ""recordClick(this)""><div class = content><div class = numbers>N</div></div></button><button id = button_8 class = ""square num-button"" onclick = ""recordClick(this)""><div class = content><div class = numbers>P</div></div></button><button id = button_9 class = ""square num-button"" onclick = ""recordClick(this)""><div class = content><div class = numbers>Q</div></div></button><button id = button_10 class = ""square num-button"" onclick = ""recordClick(this)""><div class = content><div class = numbers>R</div></div></button><button id = button_11 class = ""square num-button"" onclick = ""recordClick(this)""><div class = content><div class = numbers>S</div></div></button><button id = button_12 class = ""square num-button"" onclick = ""recordClick(this)""><div class = content><div class = numbers>Y</div></div></button><button class = clear_button id = ""ClearButton"" onclick = ""clearResponse()"">BACKSPACE</button><button class = blank_button id = ""BlankButton"" onclick = ""blankResponse()"">SKIP</button><p style=""font-size: 2.4rem""><u><b>Current Answer:</b></u></p><br><br><div id=echoed_txt style=""font-size: 5rem; color:blue;""><b></b></div></div>",enter,ospan,retrieval,yT5S582FOleoQCPnsg2hYHIwQTx2,html-keyboard-response,86,781868,0.0-43.0-2.0-1.0-2.0-0.0,NA,NA,NA,3.0,"[""R"",""Q"",""L""]","[""R"",""Q"",""L""]",1.0,3.0,"['<font color=""green"">R</font>', '<font color=""green"">Q</font>', '<font color=""green"">L</font>']",,,,,,65cfd63f31c934ef41d14881,14:37:35,06/03/2024
4683.699999988079,"['<p style=""font-size:44px"">Letters:<br><br><br><font color=""green"">R</font> <font color=""green"">Q</font> <font color=""green"">L</font></p><br><br><p style=""font-size:30px"">Symmetry:<br><br><font color=""green"">100%</font></p><br><br>']",0,ospan,practice_feedback,yT5S582FOleoQCPnsg2hYHIwQTx2,html-button-response,87,787065,0.0-43.0-2.0-1.0-2.0-1.0,,,,,,,,,,,,,,,65cfd63f31c934ef41d14881,14:37:35,06/03/2024
,"<p style=""font-size:75px;"">...</p>",,ospan,iti,yT5S582FOleoQCPnsg2hYHIwQTx2,html-keyboard-response,88,788083,0.0-43.0-2.0-2.0-0.0,,,,,,,,,,,,,,,65cfd63f31c934ef41d14881,14:37:35,06/03/2024
1292.0,,,ospan,symmetry,yT5S582FOleoQCPnsg2hYHIwQTx2,symmetry-judgement-task,89,790800,0.0-43.0-2.0-2.0-1.0-0.0,,,,,,,,,,1.0,1.0,,,,65cfd63f31c934ef41d14881,14:37:35,06/03/2024
,"<div style=""font-size: 10rem; color: #0000FF"">C</div>",,ospan,letter,yT5S582FOleoQCPnsg2hYHIwQTx2,html-keyboard-response,90,791808,0.0-43.0-2.0-2.0-1.0-1.0,,,,,,,,,,,,,,,65cfd63f31c934ef41d14881,14:37:35,06/03/2024
1302.0,,,ospan,symmetry,yT5S582FOleoQCPnsg2hYHIwQTx2,symmetry-judgement-task,91,795341,0.0-43.0-2.0-2.0-1.0-2.0,,,,,,,,,,1.0,1.0,,,,65cfd63f31c934ef41d14881,14:37:35,06/03/2024
,"<div style=""font-size: 10rem; color: #0000FF"">P</div>",,ospan,letter,yT5S582FOleoQCPnsg2hYHIwQTx2,html-keyboard-response,92,796355,0.0-43.0-2.0-2.0-1.0-3.0,,,,,,,,,,,,,,,65cfd63f31c934ef41d14881,14:37:35,06/03/2024
1396.0,,,ospan,symmetry,yT5S582FOleoQCPnsg2hYHIwQTx2,symmetry-judgement-task,93,799964,0.0-43.0-2.0-2.0-1.0-4.0,,,,,,,,,,1.0,1.0,,,,65cfd63f31c934ef41d14881,14:37:35,06/03/2024
,"<div style=""font-size: 10rem; color: #0000FF"">L</div>",,ospan,letter,yT5S582FOleoQCPnsg2hYHIwQTx2,html-keyboard-response,94,800972,0.0-43.0-2.0-2.0-1.0-5.0,,,,,,,,,,,,,,,65cfd63f31c934ef41d14881,14:37:35,06/03/2024
4500.400000035763,"<div class = numbox><p style=""font-size: 2.4rem"">Please recall the letters you saw to the best of your ability. If you do not remember a particular letter, use the SKIP button.<br><b>(When you are ready to lock in your answer, press ENTER)</b></p><button id = button_1 class = ""square num-button"" onclick = ""recordClick(this)""><div class = content><div class = numbers>C</div></div></button><button id = button_2 class = ""square num-button"" onclick = ""recordClick(this)""><div class = content><div class = numbers>G</div></div></button><button id = button_3 class = ""square num-button"" onclick = ""recordClick(this)""><div class = content><div class = numbers>H</div></div></button><button id = button_4 class = ""square num-button"" onclick = ""recordClick(this)""><div class = content><div class = numbers>J</div></div></button><button id = button_5 class = ""square num-button"" onclick = ""recordClick(this)""><div class = content><div class = numbers>K</div></div></button><button id = button_6 class = ""square num-button"" onclick = ""recordClick(this)""><div class = content><div class = numbers>L</div></div></button><button id = button_7 class = ""square num-button"" onclick = ""recordClick(this)""><div class = content><div class = numbers>N</div></div></button><button id = button_8 class = ""square num-button"" onclick = ""recordClick(this)""><div class = content><div class = numbers>P</div></div></button><button id = button_9 class = ""square num-button"" onclick = ""recordClick(this)""><div class = content><div class = numbers>Q</div></div></button><button id = button_10 class = ""square num-button"" onclick = ""recordClick(this)""><div class = content><div class = numbers>R</div></div></button><button id = button_11 class = ""square num-button"" onclick = ""recordClick(this)""><div class = content><div class = numbers>S</div></div></button><button id = button_12 class = ""square num-button"" onclick = ""recordClick(this)""><div class = content><div class = numbers>Y</div></div></button><button class = clear_button id = ""ClearButton"" onclick = ""clearResponse()"">BACKSPACE</button><button class = blank_button id = ""BlankButton"" onclick = ""blankResponse()"">SKIP</button><p style=""font-size: 2.4rem""><u><b>Current Answer:</b></u></p><br><br><div id=echoed_txt style=""font-size: 5rem; color:blue;""><b></b></div></div>",enter,ospan,retrieval,yT5S582FOleoQCPnsg2hYHIwQTx2,html-keyboard-response,95,806232,0.0-43.0-2.0-2.0-2.0-0.0,NA,NA,NA,3.0,"[""C"",""P"",""L""]","[""C"",""P"",""L""]",1.0,3.0,"['<font color=""green"">C</font>', '<font color=""green"">P</font>', '<font color=""green"">L</font>']",,,,,,65cfd63f31c934ef41d14881,14:37:35,06/03/2024
1369.800000011921,"['<p style=""font-size:44px"">Letters:<br><br><br><font color=""green"">C</font> <font color=""green"">P</font> <font color=""green"">L</font></p><br><br><p style=""font-size:30px"">Symmetry:<br><br><font color=""green"">100%</font></p><br><br>']",0,ospan,practice_feedback,yT5S582FOleoQCPnsg2hYHIwQTx2,html-button-response,96,808111,0.0-43.0-2.0-2.0-2.0-1.0,,,,,,,,,,,,,,,65cfd63f31c934ef41d14881,14:37:35,06/03/2024
1817.300000011921,"<div class = 'left_align' style='font-size: 3rem; line-height: 1.3;'><b>Great work! That is the end of practice.</b><br><br>The real trials will look just like the practice trials you just completed.<br><br><u>Here, you will not see feedback</u>. First, you will see an grid picture to judge,<br>then a letter to remember. When the recall screen appears, report the letters in the<br>order presented. If you forget a letter, remember to use the <b>blank</b> button to move to the<br>next letter. Some of the sets will have more symmetry grids and letters than others.<br><br>It is important that you do your best on both the symmetry judgments and the letter recall<br>parts of the experiment. For for the symmetry judgments, try to work as <b>quickly</b> and <br>as <b>accurately</b> as possible. Remember to keep your symmetry accuracy at 85% or above.<br><br><b>For the letters, do NOT use any external aid (e.g., writing on paper, electronic device).</b><br><br>It is <u>very important</u> to our experiment to have a <b>true</b> view of your real performance.<br><br>Do not worry if you miss some when it gets hard! This task is meant to be very challenging!<br><br>Click the button to begin.</div><br><br><br><br>",0,ospan,starting_real_here,yT5S582FOleoQCPnsg2hYHIwQTx2,html-button-response,97,809934,0.0-43.0-2.0-3.0,,,,,,,,,,,,,,,65cfd63f31c934ef41d14881,14:37:35,06/03/2024
,"<p style=""font-size:75px;"">...</p>",,ospan,iti,yT5S582FOleoQCPnsg2hYHIwQTx2,html-keyboard-response,98,811216,0.0-43.0-3.0-0.0-0.0,,,,,,,,,,,,,,,65cfd63f31c934ef41d14881,14:37:35,06/03/2024
1441.0,,,ospan,symmetry,yT5S582FOleoQCPnsg2hYHIwQTx2,symmetry-judgement-task,99,814075,0.0-43.0-3.0-0.0-1.0-0.0,,,,,,,,,,1.0,1.0,,,,65cfd63f31c934ef41d14881,14:37:35,06/03/2024
,"<div style=""font-size: 10rem; color: #0000FF"">Y</div>",,ospan,letter,yT5S582FOleoQCPnsg2hYHIwQTx2,html-keyboard-response,100,815090,0.0-43.0-3.0-0.0-1.0-1.0,,,,,,,,,,,,,,,65cfd63f31c934ef41d14881,14:37:35,06/03/2024
1040.0,,,ospan,symmetry,yT5S582FOleoQCPnsg2hYHIwQTx2,symmetry-judgement-task,101,818339,0.0-43.0-3.0-0.0-1.0-2.0,,,,,,,,,,1.0,1.0,,,,65cfd63f31c934ef41d14881,14:37:35,06/03/2024
,"<div style=""font-size: 10rem; color: #0000FF"">P</div>",,ospan,letter,yT5S582FOleoQCPnsg2hYHIwQTx2,html-keyboard-response,102,819350,0.0-43.0-3.0-0.0-1.0-3.0,,,,,,,,,,,,,,,65cfd63f31c934ef41d14881,14:37:35,06/03/2024
1756.0,,,ospan,symmetry,yT5S582FOleoQCPnsg2hYHIwQTx2,symmetry-judgement-task,103,823324,0.0-43.0-3.0-0.0-1.0-4.0,,,,,,,,,,1.0,1.0,,,,65cfd63f31c934ef41d14881,14:37:35,06/03/2024
,"<div style=""font-size: 10rem; color: #0000FF"">L</div>",,ospan,letter,yT5S582FOleoQCPnsg2hYHIwQTx2,html-keyboard-response,104,824332,0.0-43.0-3.0-0.0-1.0-5.0,,,,,,,,,,,,,,,65cfd63f31c934ef41d14881,14:37:35,06/03/2024
9529.400000035763,"<div class = numbox><p style=""font-size: 2.4rem"">Please recall the letters you saw to the best of your ability. If you do not remember a particular letter, use the SKIP button.<br><b>(When you are ready to lock in your answer, press ENTER)</b></p><button id = button_1 class = ""square num-button"" onclick = ""recordClick(this)""><div class = content><div class = numbers>C</div></div></button><button id = button_2 class = ""square num-button"" onclick = ""recordClick(this)""><div class = content><div class = numbers>G</div></div></button><button id = button_3 class = ""square num-button"" onclick = ""recordClick(this)""><div class = content><div class = numbers>H</div></div></button><button id = button_4 class = ""square num-button"" onclick = ""recordClick(this)""><div class = content><div class = numbers>J</div></div></button><button id = button_5 class = ""square num-button"" onclick = ""recordClick(this)""><div class = content><div class = numbers>K</div></div></button><button id = button_6 class = ""square num-button"" onclick = ""recordClick(this)""><div class = content><div class = numbers>L</div></div></button><button id = button_7 class = ""square num-button"" onclick = ""recordClick(this)""><div class = content><div class = numbers>N</div></div></button><button id = button_8 class = ""square num-button"" onclick = ""recordClick(this)""><div class = content><div class = numbers>P</div></div></button><button id = button_9 class = ""square num-button"" onclick = ""recordClick(this)""><div class = content><div class = numbers>Q</div></div></button><button id = button_10 class = ""square num-button"" onclick = ""recordClick(this)""><div class = content><div class = numbers>R</div></div></button><button id = button_11 class = ""square num-button"" onclick = ""recordClick(this)""><div class = content><div class = numbers>S</div></div></button><button id = button_12 class = ""square num-button"" onclick = ""recordClick(this)""><div class = content><div class = numbers>Y</div></div></button><button class = clear_button id = ""ClearButton"" onclick = ""clearResponse()"">BACKSPACE</button><button class = blank_button id = ""BlankButton"" onclick = ""blankResponse()"">SKIP</button><p style=""font-size: 2.4rem""><u><b>Current Answer:</b></u></p><br><br><div id=echoed_txt style=""font-size: 5rem; color:blue;""><b></b></div></div>",enter,ospan,retrieval,yT5S582FOleoQCPnsg2hYHIwQTx2,html-keyboard-response,105,834621,0.0-43.0-3.0-0.0-2.0,3,3,3,3.0,"[""Y"",""P"",""L""]","[""Y"",""P"",""L""]",1.0,3.0,,,,,,,65cfd63f31c934ef41d14881,14:37:35,06/03/2024
2367.300000011921,[''],0,ospan,feedback,yT5S582FOleoQCPnsg2hYHIwQTx2,html-button-response,106,837499,0.0-43.0-3.0-0.0-3.0,,,,,,,,,,,,100.0,0.0,,65cfd63f31c934ef41d14881,14:37:35,06/03/2024
,"<p style=""font-size:75px;"">...</p>",,ospan,iti,yT5S582FOleoQCPnsg2hYHIwQTx2,html-keyboard-response,107,838511,0.0-43.0-4.0-0.0-0.0,,,,,,,,,,,,,,,65cfd63f31c934ef41d14881,14:37:35,06/03/2024
5787.0,,,ospan,symmetry,yT5S582FOleoQCPnsg2hYHIwQTx2,symmetry-judgement-task,108,845701,0.0-43.0-4.0-0.0-1.0-0.0,,,,,,,,,,1.0,1.0,,,,65cfd63f31c934ef41d14881,14:37:35,06/03/2024
,"<div style=""font-size: 10rem; color: #0000FF"">C</div>",,ospan,letter,yT5S582FOleoQCPnsg2hYHIwQTx2,html-keyboard-response,109,846717,0.0-43.0-4.0-0.0-1.0-1.0,,,,,,,,,,,,,,,65cfd63f31c934ef41d14881,14:37:35,06/03/2024
1111.0,,,ospan,symmetry,yT5S582FOleoQCPnsg2hYHIwQTx2,symmetry-judgement-task,110,850043,0.0-43.0-4.0-0.0-1.0-2.0,,,,,,,,,,1.0,1.0,,,,65cfd63f31c934ef41d14881,14:37:35,06/03/2024
,"<div style=""font-size: 10rem; color: #0000FF"">G</div>",,ospan,letter,yT5S582FOleoQCPnsg2hYHIwQTx2,html-keyboard-response,111,851058,0.0-43.0-4.0-0.0-1.0-3.0,,,,,,,,,,,,,,,65cfd63f31c934ef41d14881,14:37:35,06/03/2024
3398.0,,,ospan,symmetry,yT5S582FOleoQCPnsg2hYHIwQTx2,symmetry-judgement-task,112,856667,0.0-43.0-4.0-0.0-1.0-4.0,,,,,,,,,,1.0,1.0,,,,65cfd63f31c934ef41d14881,14:37:35,06/03/2024
,"<div style=""font-size: 10rem; color: #0000FF"">P</div>",,ospan,letter,yT5S582FOleoQCPnsg2hYHIwQTx2,html-keyboard-response,113,857676,0.0-43.0-4.0-0.0-1.0-5.0,,,,,,,,,,,,,,,65cfd63f31c934ef41d14881,14:37:35,06/03/2024
1161.0,,,ospan,symmetry,yT5S582FOleoQCPnsg2hYHIwQTx2,symmetry-judgement-task,114,861033,0.0-43.0-4.0-0.0-1.0-6.0,,,,,,,,,,1.0,1.0,,,,65cfd63f31c934ef41d14881,14:37:35,06/03/2024
,"<div style=""font-size: 10rem; color: #0000FF"">H</div>",,ospan,letter,yT5S582FOleoQCPnsg2hYHIwQTx2,html-keyboard-response,115,862041,0.0-43.0-4.0-0.0-1.0-7.0,,,,,,,,,,,,,,,65cfd63f31c934ef41d14881,14:37:35,06/03/2024
5940.800000011921,"<div class = numbox><p style=""font-size: 2.4rem"">Please recall the letters you saw to the best of your ability. If you do not remember a particular letter, use the SKIP button.<br><b>(When you are ready to lock in your answer, press ENTER)</b></p><button id = button_1 class = ""square num-button"" onclick = ""recordClick(this)""><div class = content><div class = numbers>C</div></div></button><button id = button_2 class = ""square num-button"" onclick = ""recordClick(this)""><div class = content><div class = numbers>G</div></div></button><button id = button_3 class = ""square num-button"" onclick = ""recordClick(this)""><div class = content><div class = numbers>H</div></div></button><button id = button_4 class = ""square num-button"" onclick = ""recordClick(this)""><div class = content><div class = numbers>J</div></div></button><button id = button_5 class = ""square num-button"" onclick = ""recordClick(this)""><div class = content><div class = numbers>K</div></div></button><button id = button_6 class = ""square num-button"" onclick = ""recordClick(this)""><div class = content><div class = numbers>L</div></div></button><button id = button_7 class = ""square num-button"" onclick = ""recordClick(this)""><div class = content><div class = numbers>N</div></div></button><button id = button_8 class = ""square num-button"" onclick = ""recordClick(this)""><div class = content><div class = numbers>P</div></div></button><button id = button_9 class = ""square num-button"" onclick = ""recordClick(this)""><div class = content><div class = numbers>Q</div></div></button><button id = button_10 class = ""square num-button"" onclick = ""recordClick(this)""><div class = content><div class = numbers>R</div></div></button><button id = button_11 class = ""square num-button"" onclick = ""recordClick(this)""><div class = content><div class = numbers>S</div></div></button><button id = button_12 class = ""square num-button"" onclick = ""recordClick(this)""><div class = content><div class = numbers>Y</div></div></button><button class = clear_button id = ""ClearButton"" onclick = ""clearResponse()"">BACKSPACE</button><button class = blank_button id = ""BlankButton"" onclick = ""blankResponse()"">SKIP</button><p style=""font-size: 2.4rem""><u><b>Current Answer:</b></u></p><br><br><div id=echoed_txt style=""font-size: 5rem; color:blue;""><b></b></div></div>",enter,ospan,retrieval,yT5S582FOleoQCPnsg2hYHIwQTx2,html-keyboard-response,116,868754,0.0-43.0-4.0-0.0-2.0,7,5,3,4.0,"[""C"",""P"",""G"",""H""]","[""C"",""G"",""P"",""H""]",0.0,2.0,,,,,,,65cfd63f31c934ef41d14881,14:37:35,06/03/2024
1110.3999999761581,[''],0,ospan,feedback,yT5S582FOleoQCPnsg2hYHIwQTx2,html-button-response,117,870368,0.0-43.0-4.0-0.0-3.0,,,,,,,,,,,,100.0,0.0,,65cfd63f31c934ef41d14881,14:37:35,06/03/2024
,"<p style=""font-size:75px;"">...</p>",,ospan,iti,yT5S582FOleoQCPnsg2hYHIwQTx2,html-keyboard-response,118,871386,0.0-43.0-4.0-1.0-0.0,,,,,,,,,,,,,,,65cfd63f31c934ef41d14881,14:37:35,06/03/2024
2558.0,,,ospan,symmetry,yT5S582FOleoQCPnsg2hYHIwQTx2,symmetry-judgement-task,119,875387,0.0-43.0-4.0-1.0-1.0-0.0,,,,,,,,,,0.0,0.0,,,,65cfd63f31c934ef41d14881,14:37:35,06/03/2024
,"<div style=""font-size: 10rem; color: #0000FF"">R</div>",,ospan,letter,yT5S582FOleoQCPnsg2hYHIwQTx2,html-keyboard-response,120,876395,0.0-43.0-4.0-1.0-1.0-1.0,,,,,,,,,,,,,,,65cfd63f31c934ef41d14881,14:37:35,06/03/2024
1665.0,,,ospan,symmetry,yT5S582FOleoQCPnsg2hYHIwQTx2,symmetry-judgement-task,121,880230,0.0-43.0-4.0-1.0-1.0-2.0,,,,,,,,,,1.0,1.0,,,,65cfd63f31c934ef41d14881,14:37:35,06/03/2024
,"<div style=""font-size: 10rem; color: #0000FF"">S</div>",,ospan,letter,yT5S582FOleoQCPnsg2hYHIwQTx2,html-keyboard-response,122,881238,0.0-43.0-4.0-1.0-1.0-3.0,,,,,,,,,,,,,,,65cfd63f31c934ef41d14881,14:37:35,06/03/2024
1272.0,,,ospan,symmetry,yT5S582FOleoQCPnsg2hYHIwQTx2,symmetry-judgement-task,123,884715,0.0-43.0-4.0-1.0-1.0-4.0,,,,,,,,,,1.0,1.0,,,,65cfd63f31c934ef41d14881,14:37:35,06/03/2024
,"<div style=""font-size: 10rem; color: #0000FF"">G</div>",,ospan,letter,yT5S582FOleoQCPnsg2hYHIwQTx2,html-keyboard-response,124,885729,0.0-43.0-4.0-1.0-1.0-5.0,,,,,,,,,,,,,,,65cfd63f31c934ef41d14881,14:37:35,06/03/2024
1926.0,,,ospan,symmetry,yT5S582FOleoQCPnsg2hYHIwQTx2,symmetry-judgement-task,125,889839,0.0-43.0-4.0-1.0-1.0-6.0,,,,,,,,,,1.0,1.0,,,,65cfd63f31c934ef41d14881,14:37:35,06/03/2024
,"<div style=""font-size: 10rem; color: #0000FF"">K</div>",,ospan,letter,yT5S582FOleoQCPnsg2hYHIwQTx2,html-keyboard-response,126,890848,0.0-43.0-4.0-1.0-1.0-7.0,,,,,,,,,,,,,,,65cfd63f31c934ef41d14881,14:37:35,06/03/2024
1360.0,,,ospan,symmetry,yT5S582FOleoQCPnsg2hYHIwQTx2,symmetry-judgement-task,127,894414,0.0-43.0-4.0-1.0-1.0-8.0,,,,,,,,,,1.0,1.0,,,,65cfd63f31c934ef41d14881,14:37:35,06/03/2024
,"<div style=""font-size: 10rem; color: #0000FF"">L</div>",,ospan,letter,yT5S582FOleoQCPnsg2hYHIwQTx2,html-keyboard-response,128,895434,0.0-43.0-4.0-1.0-1.0-9.0,,,,,,,,,,,,,,,65cfd63f31c934ef41d14881,14:37:35,06/03/2024
6986.0,"<div class = numbox><p style=""font-size: 2.4rem"">Please recall the letters you saw to the best of your ability. If you do not remember a particular letter, use the SKIP button.<br><b>(When you are ready to lock in your answer, press ENTER)</b></p><button id = button_1 class = ""square num-button"" onclick = ""recordClick(this)""><div class = content><div class = numbers>C</div></div></button><button id = button_2 class = ""square num-button"" onclick = ""recordClick(this)""><div class = content><div class = numbers>G</div></div></button><button id = button_3 class = ""square num-button"" onclick = ""recordClick(this)""><div class = content><div class = numbers>H</div></div></button><button id = button_4 class = ""square num-button"" onclick = ""recordClick(this)""><div class = content><div class = numbers>J</div></div></button><button id = button_5 class = ""square num-button"" onclick = ""recordClick(this)""><div class = content><div class = numbers>K</div></div></button><button id = button_6 class = ""square num-button"" onclick = ""recordClick(this)""><div class = content><div class = numbers>L</div></div></button><button id = button_7 class = ""square num-button"" onclick = ""recordClick(this)""><div class = content><div class = numbers>N</div></div></button><button id = button_8 class = ""square num-button"" onclick = ""recordClick(this)""><div class = content><div class = numbers>P</div></div></button><button id = button_9 class = ""square num-button"" onclick = ""recordClick(this)""><div class = content><div class = numbers>Q</div></div></button><button id = button_10 class = ""square num-button"" onclick = ""recordClick(this)""><div class = content><div class = numbers>R</div></div></button><button id = button_11 class = ""square num-button"" onclick = ""recordClick(this)""><div class = content><div class = numbers>S</div></div></button><button id = button_12 class = ""square num-button"" onclick = ""recordClick(this)""><div class = content><div class = numbers>Y</div></div></button><button class = clear_button id = ""ClearButton"" onclick = ""clearResponse()"">BACKSPACE</button><button class = blank_button id = ""BlankButton"" onclick = ""blankResponse()"">SKIP</button><p style=""font-size: 2.4rem""><u><b>Current Answer:</b></u></p><br><br><div id=echoed_txt style=""font-size: 5rem; color:blue;""><b></b></div></div>",enter,ospan,retrieval,yT5S582FOleoQCPnsg2hYHIwQTx2,html-keyboard-response,129,903187,0.0-43.0-4.0-1.0-2.0,12,10,8,5.0,"[""R"",""S"",""G"",""K"",""L""]","[""R"",""S"",""G"",""K"",""L""]",1.0,5.0,,,,,,,65cfd63f31c934ef41d14881,14:37:35,06/03/2024
3487.100000023842,[''],0,ospan,feedback,yT5S582FOleoQCPnsg2hYHIwQTx2,html-button-response,130,907190,0.0-43.0-4.0-1.0-3.0,,,,,,,,,,,,92.0,0.0,,65cfd63f31c934ef41d14881,14:37:35,06/03/2024
,"<p style=""font-size:75px;"">...</p>",,ospan,iti,yT5S582FOleoQCPnsg2hYHIwQTx2,html-keyboard-response,131,908215,0.0-43.0-4.0-2.0-0.0,,,,,,,,,,,,,,,65cfd63f31c934ef41d14881,14:37:35,06/03/2024
1849.0,,,ospan,symmetry,yT5S582FOleoQCPnsg2hYHIwQTx2,symmetry-judgement-task,132,911496,0.0-43.0-4.0-2.0-1.0-0.0,,,,,,,,,,1.0,1.0,,,,65cfd63f31c934ef41d14881,14:37:35,06/03/2024
,"<div style=""font-size: 10rem; color: #0000FF"">Y</div>",,ospan,letter,yT5S582FOleoQCPnsg2hYHIwQTx2,html-keyboard-response,133,912512,0.0-43.0-4.0-2.0-1.0-1.0,,,,,,,,,,,,,,,65cfd63f31c934ef41d14881,14:37:35,06/03/2024
1140.0,,,ospan,symmetry,yT5S582FOleoQCPnsg2hYHIwQTx2,symmetry-judgement-task,134,915864,0.0-43.0-4.0-2.0-1.0-2.0,,,,,,,,,,1.0,1.0,,,,65cfd63f31c934ef41d14881,14:37:35,06/03/2024
,"<div style=""font-size: 10rem; color: #0000FF"">H</div>",,ospan,letter,yT5S582FOleoQCPnsg2hYHIwQTx2,html-keyboard-response,135,916875,0.0-43.0-4.0-2.0-1.0-3.0,,,,,,,,,,,,,,,65cfd63f31c934ef41d14881,14:37:35,06/03/2024
1051.0,,,ospan,symmetry,yT5S582FOleoQCPnsg2hYHIwQTx2,symmetry-judgement-task,136,920097,0.0-43.0-4.0-2.0-1.0-4.0,,,,,,,,,,1.0,1.0,,,,65cfd63f31c934ef41d14881,14:37:35,06/03/2024
,"<div style=""font-size: 10rem; color: #0000FF"">C</div>",,ospan,letter,yT5S582FOleoQCPnsg2hYHIwQTx2,html-keyboard-response,137,921105,0.0-43.0-4.0-2.0-1.0-5.0,,,,,,,,,,,,,,,65cfd63f31c934ef41d14881,14:37:35,06/03/2024
6090.099999964237,"<div class = numbox><p style=""font-size: 2.4rem"">Please recall the letters you saw to the best of your ability. If you do not remember a particular letter, use the SKIP button.<br><b>(When you are ready to lock in your answer, press ENTER)</b></p><button id = button_1 class = ""square num-button"" onclick = ""recordClick(this)""><div class = content><div class = numbers>C</div></div></button><button id = button_2 class = ""square num-button"" onclick = ""recordClick(this)""><div class = content><div class = numbers>G</div></div></button><button id = button_3 class = ""square num-button"" onclick = ""recordClick(this)""><div class = content><div class = numbers>H</div></div></button><button id = button_4 class = ""square num-button"" onclick = ""recordClick(this)""><div class = content><div class = numbers>J</div></div></button><button id = button_5 class = ""square num-button"" onclick = ""recordClick(this)""><div class = content><div class = numbers>K</div></div></button><button id = button_6 class = ""square num-button"" onclick = ""recordClick(this)""><div class = content><div class = numbers>L</div></div></button><button id = button_7 class = ""square num-button"" onclick = ""recordClick(this)""><div class = content><div class = numbers>N</div></div></button><button id = button_8 class = ""square num-button"" onclick = ""recordClick(this)""><div class = content><div class = numbers>P</div></div></button><button id = button_9 class = ""square num-button"" onclick = ""recordClick(this)""><div class = content><div class = numbers>Q</div></div></button><button id = button_10 class = ""square num-button"" onclick = ""recordClick(this)""><div class = content><div class = numbers>R</div></div></button><button id = button_11 class = ""square num-button"" onclick = ""recordClick(this)""><div class = content><div class = numbers>S</div></div></button><button id = button_12 class = ""square num-button"" onclick = ""recordClick(this)""><div class = content><div class = numbers>Y</div></div></button><button class = clear_button id = ""ClearButton"" onclick = ""clearResponse()"">BACKSPACE</button><button class = blank_button id = ""BlankButton"" onclick = ""blankResponse()"">SKIP</button><p style=""font-size: 2.4rem""><u><b>Current Answer:</b></u></p><br><br><div id=echoed_txt style=""font-size: 5rem; color:blue;""><b></b></div></div>",enter,ospan,retrieval,yT5S582FOleoQCPnsg2hYHIwQTx2,html-keyboard-response,138,927962,0.0-43.0-4.0-2.0-2.0,15,13,11,3.0,"[""Y"",""H"",""C""]","[""Y"",""H"",""C""]",1.0,3.0,,,,,,,65cfd63f31c934ef41d14881,14:37:35,06/03/2024
2013.4000000357628,[''],0,ospan,feedback,yT5S582FOleoQCPnsg2hYHIwQTx2,html-button-response,139,930479,0.0-43.0-4.0-2.0-3.0,,,,,,,,,,,,93.0,0.0,,65cfd63f31c934ef41d14881,14:37:35,06/03/2024
,"<p style=""font-size:75px;"">...</p>",,ospan,iti,yT5S582FOleoQCPnsg2hYHIwQTx2,html-keyboard-response,140,931496,0.0-43.0-5.0-0.0-0.0,,,,,,,,,,,,,,,65cfd63f31c934ef41d14881,14:37:35,06/03/2024
1918.0,,,ospan,symmetry,yT5S582FOleoQCPnsg2hYHIwQTx2,symmetry-judgement-task,141,934827,0.0-43.0-5.0-0.0-1.0-0.0,,,,,,,,,,1.0,1.0,,,,65cfd63f31c934ef41d14881,14:37:35,06/03/2024
,"<div style=""font-size: 10rem; color: #0000FF"">J</div>",,ospan,letter,yT5S582FOleoQCPnsg2hYHIwQTx2,html-keyboard-response,142,935839,0.0-43.0-5.0-0.0-1.0-1.0,,,,,,,,,,,,,,,65cfd63f31c934ef41d14881,14:37:35,06/03/2024
1445.0,,,ospan,symmetry,yT5S582FOleoQCPnsg2hYHIwQTx2,symmetry-judgement-task,143,939481,0.0-43.0-5.0-0.0-1.0-2.0,,,,,,,,,,1.0,1.0,,,,65cfd63f31c934ef41d14881,14:37:35,06/03/2024
,"<div style=""font-size: 10rem; color: #0000FF"">K</div>",,ospan,letter,yT5S582FOleoQCPnsg2hYHIwQTx2,html-keyboard-response,144,940495,0.0-43.0-5.0-0.0-1.0-3.0,,,,,,,,,,,,,,,65cfd63f31c934ef41d14881,14:37:35,06/03/2024
1359.0,,,ospan,symmetry,yT5S582FOleoQCPnsg2hYHIwQTx2,symmetry-judgement-task,145,944063,0.0-43.0-5.0-0.0-1.0-4.0,,,,,,,,,,1.0,1.0,,,,65cfd63f31c934ef41d14881,14:37:35,06/03/2024
,"<div style=""font-size: 10rem; color: #0000FF"">Y</div>",,ospan,letter,yT5S582FOleoQCPnsg2hYHIwQTx2,html-keyboard-response,146,945066,0.0-43.0-5.0-0.0-1.0-5.0,,,,,,,,,,,,,,,65cfd63f31c934ef41d14881,14:37:35,06/03/2024
1581.0,,,ospan,symmetry,yT5S582FOleoQCPnsg2hYHIwQTx2,symmetry-judgement-task,147,948870,0.0-43.0-5.0-0.0-1.0-6.0,,,,,,,,,,1.0,1.0,,,,65cfd63f31c934ef41d14881,14:37:35,06/03/2024
,"<div style=""font-size: 10rem; color: #0000FF"">Q</div>",,ospan,letter,yT5S582FOleoQCPnsg2hYHIwQTx2,html-keyboard-response,148,949885,0.0-43.0-5.0-0.0-1.0-7.0,,,,,,,,,,,,,,,65cfd63f31c934ef41d14881,14:37:35,06/03/2024
2761.0,,,ospan,symmetry,yT5S582FOleoQCPnsg2hYHIwQTx2,symmetry-judgement-task,149,954854,0.0-43.0-5.0-0.0-1.0-8.0,,,,,,,,,,1.0,1.0,,,,65cfd63f31c934ef41d14881,14:37:35,06/03/2024
,"<div style=""font-size: 10rem; color: #0000FF"">R</div>",,ospan,letter,yT5S582FOleoQCPnsg2hYHIwQTx2,html-keyboard-response,150,955867,0.0-43.0-5.0-0.0-1.0-9.0,,,,,,,,,,,,,,,65cfd63f31c934ef41d14881,14:37:35,06/03/2024
13024.0,,,ospan,symmetry,yT5S582FOleoQCPnsg2hYHIwQTx2,symmetry-judgement-task,151,971078,0.0-43.0-5.0-0.0-1.0-10.0,,,,,,,,,,1.0,1.0,,,,65cfd63f31c934ef41d14881,14:37:35,06/03/2024
,"<div style=""font-size: 10rem; color: #0000FF"">L</div>",,ospan,letter,yT5S582FOleoQCPnsg2hYHIwQTx2,html-keyboard-response,152,972088,0.0-43.0-5.0-0.0-1.0-11.0,,,,,,,,,,,,,,,65cfd63f31c934ef41d14881,14:37:35,06/03/2024
14094.599999964237,"<div class = numbox><p style=""font-size: 2.4rem"">Please recall the letters you saw to the best of your ability. If you do not remember a particular letter, use the SKIP button.<br><b>(When you are ready to lock in your answer, press ENTER)</b></p><button id = button_1 class = ""square num-button"" onclick = ""recordClick(this)""><div class = content><div class = numbers>C</div></div></button><button id = button_2 class = ""square num-button"" onclick = ""recordClick(this)""><div class = content><div class = numbers>G</div></div></button><button id = button_3 class = ""square num-button"" onclick = ""recordClick(this)""><div class = content><div class = numbers>H</div></div></button><button id = button_4 class = ""square num-button"" onclick = ""recordClick(this)""><div class = content><div class = numbers>J</div></div></button><button id = button_5 class = ""square num-button"" onclick = ""recordClick(this)""><div class = content><div class = numbers>K</div></div></button><button id = button_6 class = ""square num-button"" onclick = ""recordClick(this)""><div class = content><div class = numbers>L</div></div></button><button id = button_7 class = ""square num-button"" onclick = ""recordClick(this)""><div class = content><div class = numbers>N</div></div></button><button id = button_8 class = ""square num-button"" onclick = ""recordClick(this)""><div class = content><div class = numbers>P</div></div></button><button id = button_9 class = ""square num-button"" onclick = ""recordClick(this)""><div class = content><div class = numbers>Q</div></div></button><button id = button_10 class = ""square num-button"" onclick = ""recordClick(this)""><div class = content><div class = numbers>R</div></div></button><button id = button_11 class = ""square num-button"" onclick = ""recordClick(this)""><div class = content><div class = numbers>S</div></div></button><button id = button_12 class = ""square num-button"" onclick = ""recordClick(this)""><div class = content><div class = numbers>Y</div></div></button><button class = clear_button id = ""ClearButton"" onclick = ""clearResponse()"">BACKSPACE</button><button class = blank_button id = ""BlankButton"" onclick = ""blankResponse()"">SKIP</button><p style=""font-size: 2.4rem""><u><b>Current Answer:</b></u></p><br><br><div id=echoed_txt style=""font-size: 5rem; color:blue;""><b></b></div></div>",enter,ospan,retrieval,yT5S582FOleoQCPnsg2hYHIwQTx2,html-keyboard-response,153,986937,0.0-43.0-5.0-0.0-2.0,21,19,17,6.0,"[""J"",""K"",""Y"",""Q"",""R"",""L""]","[""J"",""K"",""Y"",""Q"",""R"",""L""]",1.0,6.0,,,,,,,65cfd63f31c934ef41d14881,14:37:35,06/03/2024
1957.2000000476837,[''],0,ospan,feedback,yT5S582FOleoQCPnsg2hYHIwQTx2,html-button-response,154,989402,0.0-43.0-5.0-0.0-3.0,,,,,,,,,,,,95.0,0.0,,65cfd63f31c934ef41d14881,14:37:35,06/03/2024
,"<p style=""font-size:75px;"">...</p>",,ospan,iti,yT5S582FOleoQCPnsg2hYHIwQTx2,html-keyboard-response,155,990406,0.0-43.0-5.0-1.0-0.0,,,,,,,,,,,,,,,65cfd63f31c934ef41d14881,14:37:35,06/03/2024
9928.0,,,ospan,symmetry,yT5S582FOleoQCPnsg2hYHIwQTx2,symmetry-judgement-task,156,1001737,0.0-43.0-5.0-1.0-1.0-0.0,,,,,,,,,,1.0,1.0,,,,65cfd63f31c934ef41d14881,14:37:35,06/03/2024
,"<div style=""font-size: 10rem; color: #0000FF"">L</div>",,ospan,letter,yT5S582FOleoQCPnsg2hYHIwQTx2,html-keyboard-response,157,1002752,0.0-43.0-5.0-1.0-1.0-1.0,,,,,,,,,,,,,,,65cfd63f31c934ef41d14881,14:37:35,06/03/2024
1101.0,,,ospan,symmetry,yT5S582FOleoQCPnsg2hYHIwQTx2,symmetry-judgement-task,158,1006089,0.0-43.0-5.0-1.0-1.0-2.0,,,,,,,,,,1.0,1.0,,,,65cfd63f31c934ef41d14881,14:37:35,06/03/2024
,"<div style=""font-size: 10rem; color: #0000FF"">K</div>",,ospan,letter,yT5S582FOleoQCPnsg2hYHIwQTx2,html-keyboard-response,159,1007105,0.0-43.0-5.0-1.0-1.0-3.0,,,,,,,,,,,,,,,65cfd63f31c934ef41d14881,14:37:35,06/03/2024
1901.0,,,ospan,symmetry,yT5S582FOleoQCPnsg2hYHIwQTx2,symmetry-judgement-task,160,1011214,0.0-43.0-5.0-1.0-1.0-4.0,,,,,,,,,,1.0,1.0,,,,65cfd63f31c934ef41d14881,14:37:35,06/03/2024
,"<div style=""font-size: 10rem; color: #0000FF"">H</div>",,ospan,letter,yT5S582FOleoQCPnsg2hYHIwQTx2,html-keyboard-response,161,1012223,0.0-43.0-5.0-1.0-1.0-5.0,,,,,,,,,,,,,,,65cfd63f31c934ef41d14881,14:37:35,06/03/2024
1216.0,,,ospan,symmetry,yT5S582FOleoQCPnsg2hYHIwQTx2,symmetry-judgement-task,162,1015620,0.0-43.0-5.0-1.0-1.0-6.0,,,,,,,,,,1.0,1.0,,,,65cfd63f31c934ef41d14881,14:37:35,06/03/2024
,"<div style=""font-size: 10rem; color: #0000FF"">P</div>",,ospan,letter,yT5S582FOleoQCPnsg2hYHIwQTx2,html-keyboard-response,163,1016636,0.0-43.0-5.0-1.0-1.0-7.0,,,,,,,,,,,,,,,65cfd63f31c934ef41d14881,14:37:35,06/03/2024
1437.0,,,ospan,symmetry,yT5S582FOleoQCPnsg2hYHIwQTx2,symmetry-judgement-task,164,1020278,0.0-43.0-5.0-1.0-1.0-8.0,,,,,,,,,,1.0,1.0,,,,65cfd63f31c934ef41d14881,14:37:35,06/03/2024
,"<div style=""font-size: 10rem; color: #0000FF"">N</div>",,ospan,letter,yT5S582FOleoQCPnsg2hYHIwQTx2,html-keyboard-response,165,1021295,0.0-43.0-5.0-1.0-1.0-9.0,,,,,,,,,,,,,,,65cfd63f31c934ef41d14881,14:37:35,06/03/2024
3525.0,,,ospan,symmetry,yT5S582FOleoQCPnsg2hYHIwQTx2,symmetry-judgement-task,166,1026987,0.0-43.0-5.0-1.0-1.0-10.0,,,,,,,,,,0.0,0.0,,,,65cfd63f31c934ef41d14881,14:37:35,06/03/2024
,"<div style=""font-size: 10rem; color: #0000FF"">Y</div>",,ospan,letter,yT5S582FOleoQCPnsg2hYHIwQTx2,html-keyboard-response,167,1027995,0.0-43.0-5.0-1.0-1.0-11.0,,,,,,,,,,,,,,,65cfd63f31c934ef41d14881,14:37:35,06/03/2024
1286.0,,,ospan,symmetry,yT5S582FOleoQCPnsg2hYHIwQTx2,symmetry-judgement-task,168,1031558,0.0-43.0-5.0-1.0-1.0-12.0,,,,,,,,,,1.0,1.0,,,,65cfd63f31c934ef41d14881,14:37:35,06/03/2024
,"<div style=""font-size: 10rem; color: #0000FF"">Q</div>",,ospan,letter,yT5S582FOleoQCPnsg2hYHIwQTx2,html-keyboard-response,169,1032566,0.0-43.0-5.0-1.0-1.0-13.0,,,,,,,,,,,,,,,65cfd63f31c934ef41d14881,14:37:35,06/03/2024
14003.5,"<div class = numbox><p style=""font-size: 2.4rem"">Please recall the letters you saw to the best of your ability. If you do not remember a particular letter, use the SKIP button.<br><b>(When you are ready to lock in your answer, press ENTER)</b></p><button id = button_1 class = ""square num-button"" onclick = ""recordClick(this)""><div class = content><div class = numbers>C</div></div></button><button id = button_2 class = ""square num-button"" onclick = ""recordClick(this)""><div class = content><div class = numbers>G</div></div></button><button id = button_3 class = ""square num-button"" onclick = ""recordClick(this)""><div class = content><div class = numbers>H</div></div></button><button id = button_4 class = ""square num-button"" onclick = ""recordClick(this)""><div class = content><div class = numbers>J</div></div></button><button id = button_5 class = ""square num-button"" onclick = ""recordClick(this)""><div class = content><div class = numbers>K</div></div></button><button id = button_6 class = ""square num-button"" onclick = ""recordClick(this)""><div class = content><div class = numbers>L</div></div></button><button id = button_7 class = ""square num-button"" onclick = ""recordClick(this)""><div class = content><div class = numbers>N</div></div></button><button id = button_8 class = ""square num-button"" onclick = ""recordClick(this)""><div class = content><div class = numbers>P</div></div></button><button id = button_9 class = ""square num-button"" onclick = ""recordClick(this)""><div class = content><div class = numbers>Q</div></div></button><button id = button_10 class = ""square num-button"" onclick = ""recordClick(this)""><div class = content><div class = numbers>R</div></div></button><button id = button_11 class = ""square num-button"" onclick = ""recordClick(this)""><div class = content><div class = numbers>S</div></div></button><button id = button_12 class = ""square num-button"" onclick = ""recordClick(this)""><div class = content><div class = numbers>Y</div></div></button><button class = clear_button id = ""ClearButton"" onclick = ""clearResponse()"">BACKSPACE</button><button class = blank_button id = ""BlankButton"" onclick = ""blankResponse()"">SKIP</button><p style=""font-size: 2.4rem""><u><b>Current Answer:</b></u></p><br><br><div id=echoed_txt style=""font-size: 5rem; color:blue;""><b></b></div></div>",enter,ospan,retrieval,yT5S582FOleoQCPnsg2hYHIwQTx2,html-keyboard-response,170,1047334,0.0-43.0-5.0-1.0-2.0,28,26,24,7.0,"[""L"",""K"",""H"",""P"",""N"",""Y"",""Q""]","[""L"",""K"",""H"",""P"",""N"",""Y"",""Q""]",1.0,7.0,,,,,,,65cfd63f31c934ef41d14881,14:37:35,06/03/2024
984.7999999523163,[''],0,ospan,feedback,yT5S582FOleoQCPnsg2hYHIwQTx2,html-button-response,171,1048824,0.0-43.0-5.0-1.0-3.0,,,,,,,,,,,,93.0,0.0,,65cfd63f31c934ef41d14881,14:37:35,06/03/2024
,"<p style=""font-size:75px;"">...</p>",,ospan,iti,yT5S582FOleoQCPnsg2hYHIwQTx2,html-keyboard-response,172,1049840,0.0-43.0-6.0-0.0-0.0,,,,,,,,,,,,,,,65cfd63f31c934ef41d14881,14:37:35,06/03/2024
6379.0,,,ospan,symmetry,yT5S582FOleoQCPnsg2hYHIwQTx2,symmetry-judgement-task,173,1057683,0.0-43.0-6.0-0.0-1.0-0.0,,,,,,,,,,1.0,1.0,,,,65cfd63f31c934ef41d14881,14:37:35,06/03/2024
,"<div style=""font-size: 10rem; color: #0000FF"">C</div>",,ospan,letter,yT5S582FOleoQCPnsg2hYHIwQTx2,html-keyboard-response,174,1058698,0.0-43.0-6.0-0.0-1.0-1.0,,,,,,,,,,,,,,,65cfd63f31c934ef41d14881,14:37:35,06/03/2024
3835.0,,,ospan,symmetry,yT5S582FOleoQCPnsg2hYHIwQTx2,symmetry-judgement-task,175,1064699,0.0-43.0-6.0-0.0-1.0-2.0,,,,,,,,,,1.0,1.0,,,,65cfd63f31c934ef41d14881,14:37:35,06/03/2024
,"<div style=""font-size: 10rem; color: #0000FF"">H</div>",,ospan,letter,yT5S582FOleoQCPnsg2hYHIwQTx2,html-keyboard-response,176,1065709,0.0-43.0-6.0-0.0-1.0-3.0,,,,,,,,,,,,,,,65cfd63f31c934ef41d14881,14:37:35,06/03/2024
1353.0,,,ospan,symmetry,yT5S582FOleoQCPnsg2hYHIwQTx2,symmetry-judgement-task,177,1069293,0.0-43.0-6.0-0.0-1.0-4.0,,,,,,,,,,1.0,1.0,,,,65cfd63f31c934ef41d14881,14:37:35,06/03/2024
,"<div style=""font-size: 10rem; color: #0000FF"">S</div>",,ospan,letter,yT5S582FOleoQCPnsg2hYHIwQTx2,html-keyboard-response,178,1070308,0.0-43.0-6.0-0.0-1.0-5.0,,,,,,,,,,,,,,,65cfd63f31c934ef41d14881,14:37:35,06/03/2024
1079.0,,,ospan,symmetry,yT5S582FOleoQCPnsg2hYHIwQTx2,symmetry-judgement-task,179,1073589,0.0-43.0-6.0-0.0-1.0-6.0,,,,,,,,,,1.0,1.0,,,,65cfd63f31c934ef41d14881,14:37:35,06/03/2024
,"<div style=""font-size: 10rem; color: #0000FF"">L</div>",,ospan,letter,yT5S582FOleoQCPnsg2hYHIwQTx2,html-keyboard-response,180,1074605,0.0-43.0-6.0-0.0-1.0-7.0,,,,,,,,,,,,,,,65cfd63f31c934ef41d14881,14:37:35,06/03/2024
1376.0,,,ospan,symmetry,yT5S582FOleoQCPnsg2hYHIwQTx2,symmetry-judgement-task,181,1078167,0.0-43.0-6.0-0.0-1.0-8.0,,,,,,,,,,1.0,1.0,,,,65cfd63f31c934ef41d14881,14:37:35,06/03/2024
,"<div style=""font-size: 10rem; color: #0000FF"">Q</div>",,ospan,letter,yT5S582FOleoQCPnsg2hYHIwQTx2,html-keyboard-response,182,1079184,0.0-43.0-6.0-0.0-1.0-9.0,,,,,,,,,,,,,,,65cfd63f31c934ef41d14881,14:37:35,06/03/2024
8592.699999988079,"<div class = numbox><p style=""font-size: 2.4rem"">Please recall the letters you saw to the best of your ability. If you do not remember a particular letter, use the SKIP button.<br><b>(When you are ready to lock in your answer, press ENTER)</b></p><button id = button_1 class = ""square num-button"" onclick = ""recordClick(this)""><div class = content><div class = numbers>C</div></div></button><button id = button_2 class = ""square num-button"" onclick = ""recordClick(this)""><div class = content><div class = numbers>G</div></div></button><button id = button_3 class = ""square num-button"" onclick = ""recordClick(this)""><div class = content><div class = numbers>H</div></div></button><button id = button_4 class = ""square num-button"" onclick = ""recordClick(this)""><div class = content><div class = numbers>J</div></div></button><button id = button_5 class = ""square num-button"" onclick = ""recordClick(this)""><div class = content><div class = numbers>K</div></div></button><button id = button_6 class = ""square num-button"" onclick = ""recordClick(this)""><div class = content><div class = numbers>L</div></div></button><button id = button_7 class = ""square num-button"" onclick = ""recordClick(this)""><div class = content><div class = numbers>N</div></div></button><button id = button_8 class = ""square num-button"" onclick = ""recordClick(this)""><div class = content><div class = numbers>P</div></div></button><button id = button_9 class = ""square num-button"" onclick = ""recordClick(this)""><div class = content><div class = numbers>Q</div></div></button><button id = button_10 class = ""square num-button"" onclick = ""recordClick(this)""><div class = content><div class = numbers>R</div></div></button><button id = button_11 class = ""square num-button"" onclick = ""recordClick(this)""><div class = content><div class = numbers>S</div></div></button><button id = button_12 class = ""square num-button"" onclick = ""recordClick(this)""><div class = content><div class = numbers>Y</div></div></button><button class = clear_button id = ""ClearButton"" onclick = ""clearResponse()"">BACKSPACE</button><button class = blank_button id = ""BlankButton"" onclick = ""blankResponse()"">SKIP</button><p style=""font-size: 2.4rem""><u><b>Current Answer:</b></u></p><br><br><div id=echoed_txt style=""font-size: 5rem; color:blue;""><b></b></div></div>",enter,ospan,retrieval,yT5S582FOleoQCPnsg2hYHIwQTx2,html-keyboard-response,183,1088543,0.0-43.0-6.0-0.0-2.0,33,31,29,5.0,"[""C"",""H"",""S"",""L"",""Q""]","[""C"",""H"",""S"",""L"",""Q""]",1.0,5.0,,,,,,,65cfd63f31c934ef41d14881,14:37:35,06/03/2024
1121.0,[''],0,ospan,feedback,yT5S582FOleoQCPnsg2hYHIwQTx2,html-button-response,184,1090167,0.0-43.0-6.0-0.0-3.0,,,,,,,,,,,,94.0,0.0,,65cfd63f31c934ef41d14881,14:37:35,06/03/2024
,"<p style=""font-size:75px;"">...</p>",,ospan,iti,yT5S582FOleoQCPnsg2hYHIwQTx2,html-keyboard-response,185,1091183,0.0-43.0-6.0-1.0-0.0,,,,,,,,,,,,,,,65cfd63f31c934ef41d14881,14:37:35,06/03/2024
3887.0,,,ospan,symmetry,yT5S582FOleoQCPnsg2hYHIwQTx2,symmetry-judgement-task,186,1096528,0.0-43.0-6.0-1.0-1.0-0.0,,,,,,,,,,1.0,1.0,,,,65cfd63f31c934ef41d14881,14:37:35,06/03/2024
,"<div style=""font-size: 10rem; color: #0000FF"">G</div>",,ospan,letter,yT5S582FOleoQCPnsg2hYHIwQTx2,html-keyboard-response,187,1097536,0.0-43.0-6.0-1.0-1.0-1.0,,,,,,,,,,,,,,,65cfd63f31c934ef41d14881,14:37:35,06/03/2024
1323.0,,,ospan,symmetry,yT5S582FOleoQCPnsg2hYHIwQTx2,symmetry-judgement-task,188,1101105,0.0-43.0-6.0-1.0-1.0-2.0,,,,,,,,,,1.0,1.0,,,,65cfd63f31c934ef41d14881,14:37:35,06/03/2024
,"<div style=""font-size: 10rem; color: #0000FF"">R</div>",,ospan,letter,yT5S582FOleoQCPnsg2hYHIwQTx2,html-keyboard-response,189,1102120,0.0-43.0-6.0-1.0-1.0-3.0,,,,,,,,,,,,,,,65cfd63f31c934ef41d14881,14:37:35,06/03/2024
3060.0,,,ospan,symmetry,yT5S582FOleoQCPnsg2hYHIwQTx2,symmetry-judgement-task,190,1107387,0.0-43.0-6.0-1.0-1.0-4.0,,,,,,,,,,1.0,1.0,,,,65cfd63f31c934ef41d14881,14:37:35,06/03/2024
,"<div style=""font-size: 10rem; color: #0000FF"">S</div>",,ospan,letter,yT5S582FOleoQCPnsg2hYHIwQTx2,html-keyboard-response,191,1108408,0.0-43.0-6.0-1.0-1.0-5.0,,,,,,,,,,,,,,,65cfd63f31c934ef41d14881,14:37:35,06/03/2024
1555.0,,,ospan,symmetry,yT5S582FOleoQCPnsg2hYHIwQTx2,symmetry-judgement-task,192,1112154,0.0-43.0-6.0-1.0-1.0-6.0,,,,,,,,,,1.0,1.0,,,,65cfd63f31c934ef41d14881,14:37:35,06/03/2024
,"<div style=""font-size: 10rem; color: #0000FF"">L</div>",,ospan,letter,yT5S582FOleoQCPnsg2hYHIwQTx2,html-keyboard-response,193,1113167,0.0-43.0-6.0-1.0-1.0-7.0,,,,,,,,,,,,,,,65cfd63f31c934ef41d14881,14:37:35,06/03/2024
1103.0,,,ospan,symmetry,yT5S582FOleoQCPnsg2hYHIwQTx2,symmetry-judgement-task,194,1116465,0.0-43.0-6.0-1.0-1.0-8.0,,,,,,,,,,1.0,1.0,,,,65cfd63f31c934ef41d14881,14:37:35,06/03/2024
,"<div style=""font-size: 10rem; color: #0000FF"">P</div>",,ospan,letter,yT5S582FOleoQCPnsg2hYHIwQTx2,html-keyboard-response,195,1117480,0.0-43.0-6.0-1.0-1.0-9.0,,,,,,,,,,,,,,,65cfd63f31c934ef41d14881,14:37:35,06/03/2024
1024.0,,,ospan,symmetry,yT5S582FOleoQCPnsg2hYHIwQTx2,symmetry-judgement-task,196,1120683,0.0-43.0-6.0-1.0-1.0-10.0,,,,,,,,,,1.0,1.0,,,,65cfd63f31c934ef41d14881,14:37:35,06/03/2024
,"<div style=""font-size: 10rem; color: #0000FF"">Y</div>",,ospan,letter,yT5S582FOleoQCPnsg2hYHIwQTx2,html-keyboard-response,197,1121699,0.0-43.0-6.0-1.0-1.0-11.0,,,,,,,,,,,,,,,65cfd63f31c934ef41d14881,14:37:35,06/03/2024
2319.0,,,ospan,symmetry,yT5S582FOleoQCPnsg2hYHIwQTx2,symmetry-judgement-task,198,1126245,0.0-43.0-6.0-1.0-1.0-12.0,,,,,,,,,,1.0,1.0,,,,65cfd63f31c934ef41d14881,14:37:35,06/03/2024
,"<div style=""font-size: 10rem; color: #0000FF"">K</div>",,ospan,letter,yT5S582FOleoQCPnsg2hYHIwQTx2,html-keyboard-response,199,1127261,0.0-43.0-6.0-1.0-1.0-13.0,,,,,,,,,,,,,,,65cfd63f31c934ef41d14881,14:37:35,06/03/2024
2331.0,,,ospan,symmetry,yT5S582FOleoQCPnsg2hYHIwQTx2,symmetry-judgement-task,200,1131777,0.0-43.0-6.0-1.0-1.0-14.0,,,,,,,,,,1.0,1.0,,,,65cfd63f31c934ef41d14881,14:37:35,06/03/2024
,"<div style=""font-size: 10rem; color: #0000FF"">Q</div>",,ospan,letter,yT5S582FOleoQCPnsg2hYHIwQTx2,html-keyboard-response,201,1132792,0.0-43.0-6.0-1.0-1.0-15.0,,,,,,,,,,,,,,,65cfd63f31c934ef41d14881,14:37:35,06/03/2024
18932.19999998808,"<div class = numbox><p style=""font-size: 2.4rem"">Please recall the letters you saw to the best of your ability. If you do not remember a particular letter, use the SKIP button.<br><b>(When you are ready to lock in your answer, press ENTER)</b></p><button id = button_1 class = ""square num-button"" onclick = ""recordClick(this)""><div class = content><div class = numbers>C</div></div></button><button id = button_2 class = ""square num-button"" onclick = ""recordClick(this)""><div class = content><div class = numbers>G</div></div></button><button id = button_3 class = ""square num-button"" onclick = ""recordClick(this)""><div class = content><div class = numbers>H</div></div></button><button id = button_4 class = ""square num-button"" onclick = ""recordClick(this)""><div class = content><div class = numbers>J</div></div></button><button id = button_5 class = ""square num-button"" onclick = ""recordClick(this)""><div class = content><div class = numbers>K</div></div></button><button id = button_6 class = ""square num-button"" onclick = ""recordClick(this)""><div class = content><div class = numbers>L</div></div></button><button id = button_7 class = ""square num-button"" onclick = ""recordClick(this)""><div class = content><div class = numbers>N</div></div></button><button id = button_8 class = ""square num-button"" onclick = ""recordClick(this)""><div class = content><div class = numbers>P</div></div></button><button id = button_9 class = ""square num-button"" onclick = ""recordClick(this)""><div class = content><div class = numbers>Q</div></div></button><button id = button_10 class = ""square num-button"" onclick = ""recordClick(this)""><div class = content><div class = numbers>R</div></div></button><button id = button_11 class = ""square num-button"" onclick = ""recordClick(this)""><div class = content><div class = numbers>S</div></div></button><button id = button_12 class = ""square num-button"" onclick = ""recordClick(this)""><div class = content><div class = numbers>Y</div></div></button><button class = clear_button id = ""ClearButton"" onclick = ""clearResponse()"">BACKSPACE</button><button class = blank_button id = ""BlankButton"" onclick = ""blankResponse()"">SKIP</button><p style=""font-size: 2.4rem""><u><b>Current Answer:</b></u></p><br><br><div id=echoed_txt style=""font-size: 5rem; color:blue;""><b></b></div></div>",enter,ospan,retrieval,yT5S582FOleoQCPnsg2hYHIwQTx2,html-keyboard-response,202,1152491,0.0-43.0-6.0-1.0-2.0,41,38,29,8.0,"[""G"",""R"",""S"",""L"",""P"",""Y"",""K"",""G""]","[""G"",""R"",""S"",""L"",""P"",""Y"",""K"",""Q""]",0.0,7.0,,,,,,,65cfd63f31c934ef41d14881,14:37:35,06/03/2024
947.6999999880791,[''],0,ospan,feedback,yT5S582FOleoQCPnsg2hYHIwQTx2,html-button-response,203,1153954,0.0-43.0-6.0-1.0-3.0,,,,,,,,,,,,95.0,0.0,,65cfd63f31c934ef41d14881,14:37:35,06/03/2024
47449.59999996424,,{'Q0': 'It was fun memorizing.'},ospan,survey_ospan,yT5S582FOleoQCPnsg2hYHIwQTx2,lmdlab-survey-text,204,1202161,0.0-43.0-7.0,,,,,,,,,,,,,,yT5S582FOleoQCPnsg2hYHIwQTx2,65cfd63f31c934ef41d14881,14:37:35,06/03/2024
2838.300000011921,<p><p style='font-size: 3rem'>Great work!<br><br>This completes the symmetry and memory task.</p><br><br><br>,0,ospan,finish,yT5S582FOleoQCPnsg2hYHIwQTx2,html-button-response,205,1205005,0.0-43.0-8.0,41,38,29,,,,,,,,,95.0,,,65cfd63f31c934ef41d14881,14:37:35,06/03/2024
