rt,stimulus,response,exp_name,exp_stage,subjectID,trial_type,trial_index,time_elapsed,internal_node_id,ospan_shown,ospan_total,ospan_abs,length,resp_actual,resp_correct,full_correct,num_correct,feedback,accuracy,correct,math_acc,math_warning,databaseID,prolificID,start_time,date
1993.5,<div class = 'left_align' style='font-size: 3.25rem; line-height: 1.3;'><p class = 'center_align'><b>Welcome to the Symmetry and Memory Task</b><br><br><br><br></p>Press 'continue' to show the instructions.<br><br><br><br></div>,0,ospan,instruct,RZap1o11GzZsLm6wCX3iTG84Ayu2,html-button-response,54,803428,0.0-46.0-0.0-0.0-0.0,,,,,,,,,,,,,,,5f5b4aa99a3ef626581a1473,09:13:21,03/04/2024
7225.60000038147,"<div class = 'left_align' style='font-size: 3.25rem; line-height: 1.3;'><p class = 'center_align'><b>Symmetry and Memory Task</b><br><br></p>In this task, you will try to memorize letters you see on the screen<br>while you also view black and white grid pictures.<br><br>In the next few minutes, you will have some practice to get you familiar<br>with how the task works.<br><br>It may be difficult sometimes, but please do not worry about making mistakes!<br><br>We will begin by practicing the letter part of the task.<br><br><br><br></div>",0,ospan,instruct,RZap1o11GzZsLm6wCX3iTG84Ayu2,html-button-response,55,810916,0.0-46.0-0.0-0.0-1.0,,,,,,,,,,,,,,,5f5b4aa99a3ef626581a1473,09:13:21,03/04/2024
7478.300000190735,"<div class = 'left_align' style='font-size: 3.25rem; line-height: 1.3;'>For this practice part, letters will appear on the screen one at a time.<br><br>Try to remember each letter in the order presented.<br><br>After some letters have been shown, you will see a response screen. Your<br>goal is to report the letters you saw <b>in order</b>. If you do not remember<br>a particular letter, you will have the option to leave it blank.<br><br><br><br></div>",0,ospan,instruct,RZap1o11GzZsLm6wCX3iTG84Ayu2,html-button-response,56,818661,0.0-46.0-0.0-0.0-2.0,,,,,,,,,,,,,,,5f5b4aa99a3ef626581a1473,09:13:21,03/04/2024
6651.099999427795,"<div class = 'left_align' style='font-size: 3.25rem; line-height: 1.3;'>Remember, it is very important to get the letters in the same<br>order as you see them.<br><br>When you are ready, you may begin the letter practice.</div><br><br><br><br>",0,ospan,instruct,RZap1o11GzZsLm6wCX3iTG84Ayu2,html-button-response,57,825567,0.0-46.0-0.0-0.0-3.0,,,,,,,,,,,,,,,5f5b4aa99a3ef626581a1473,09:13:21,03/04/2024
,"<p style=""font-size:75px;"">...</p>",,ospan,iti,RZap1o11GzZsLm6wCX3iTG84Ayu2,html-keyboard-response,58,826833,0.0-46.0-0.0-1.0-0.0,,,,,,,,,,,,,,,5f5b4aa99a3ef626581a1473,09:13:21,03/04/2024
,"<div style=""font-size: 10rem; color: #0000FF"">Q</div>",,ospan,letter,RZap1o11GzZsLm6wCX3iTG84Ayu2,html-keyboard-response,59,827838,0.0-46.0-0.0-1.0-1.0,,,,,,,,,,,,,,,5f5b4aa99a3ef626581a1473,09:13:21,03/04/2024
,"<div style=""font-size: 10rem; color: #0000FF"">K</div>",,ospan,letter,RZap1o11GzZsLm6wCX3iTG84Ayu2,html-keyboard-response,60,829612,0.0-46.0-0.0-1.0-2.0,,,,,,,,,,,,,,,5f5b4aa99a3ef626581a1473,09:13:21,03/04/2024
8793.400000572205,"<div class = numbox><p style=""font-size: 2.4rem"">Please recall the letters you saw to the best of your ability. If you do not remember a particular letter, use the SKIP button.<br><b>(When you are ready to lock in your answer, press ENTER)</b></p><button id = button_1 class = ""square num-button"" onclick = ""recordClick(this)""><div class = content><div class = numbers>C</div></div></button><button id = button_2 class = ""square num-button"" onclick = ""recordClick(this)""><div class = content><div class = numbers>G</div></div></button><button id = button_3 class = ""square num-button"" onclick = ""recordClick(this)""><div class = content><div class = numbers>H</div></div></button><button id = button_4 class = ""square num-button"" onclick = ""recordClick(this)""><div class = content><div class = numbers>J</div></div></button><button id = button_5 class = ""square num-button"" onclick = ""recordClick(this)""><div class = content><div class = numbers>K</div></div></button><button id = button_6 class = ""square num-button"" onclick = ""recordClick(this)""><div class = content><div class = numbers>L</div></div></button><button id = button_7 class = ""square num-button"" onclick = ""recordClick(this)""><div class = content><div class = numbers>N</div></div></button><button id = button_8 class = ""square num-button"" onclick = ""recordClick(this)""><div class = content><div class = numbers>P</div></div></button><button id = button_9 class = ""square num-button"" onclick = ""recordClick(this)""><div class = content><div class = numbers>Q</div></div></button><button id = button_10 class = ""square num-button"" onclick = ""recordClick(this)""><div class = content><div class = numbers>R</div></div></button><button id = button_11 class = ""square num-button"" onclick = ""recordClick(this)""><div class = content><div class = numbers>S</div></div></button><button id = button_12 class = ""square num-button"" onclick = ""recordClick(this)""><div class = content><div class = numbers>Y</div></div></button><button class = clear_button id = ""ClearButton"" onclick = ""clearResponse()"">BACKSPACE</button><button class = blank_button id = ""BlankButton"" onclick = ""blankResponse()"">SKIP</button><p style=""font-size: 2.4rem""><u><b>Current Answer:</b></u></p><br><br><div id=echoed_txt style=""font-size: 5rem; color:blue;""><b></b></div></div>",enter,ospan,retrieval,RZap1o11GzZsLm6wCX3iTG84Ayu2,html-keyboard-response,61,839171,0.0-46.0-0.0-1.0-3.0,NA,NA,NA,2.0,"[""Q"",""K""]","[""Q"",""K""]",1.0,2.0,"['<font color=""green"">Q</font>', '<font color=""green"">K</font>']",,,,,,5f5b4aa99a3ef626581a1473,09:13:21,03/04/2024
1836.3999996185303,"['<p style=""font-size:44px"">Letters:<br><br><br><font color=""green"">Q</font> <font color=""green"">K</font></p><br><br>']",0,ospan,practice_feedback,RZap1o11GzZsLm6wCX3iTG84Ayu2,html-button-response,62,841521,0.0-46.0-0.0-1.0-4.0,,,,,,,,,,,,,,,5f5b4aa99a3ef626581a1473,09:13:21,03/04/2024
,"<p style=""font-size:75px;"">...</p>",,ospan,iti,RZap1o11GzZsLm6wCX3iTG84Ayu2,html-keyboard-response,63,842537,0.0-46.0-0.0-2.0-0.0,,,,,,,,,,,,,,,5f5b4aa99a3ef626581a1473,09:13:21,03/04/2024
,"<div style=""font-size: 10rem; color: #0000FF"">R</div>",,ospan,letter,RZap1o11GzZsLm6wCX3iTG84Ayu2,html-keyboard-response,64,843549,0.0-46.0-0.0-2.0-1.0,,,,,,,,,,,,,,,5f5b4aa99a3ef626581a1473,09:13:21,03/04/2024
,"<div style=""font-size: 10rem; color: #0000FF"">J</div>",,ospan,letter,RZap1o11GzZsLm6wCX3iTG84Ayu2,html-keyboard-response,65,845321,0.0-46.0-0.0-2.0-2.0,,,,,,,,,,,,,,,5f5b4aa99a3ef626581a1473,09:13:21,03/04/2024
,"<div style=""font-size: 10rem; color: #0000FF"">H</div>",,ospan,letter,RZap1o11GzZsLm6wCX3iTG84Ayu2,html-keyboard-response,66,847095,0.0-46.0-0.0-2.0-3.0,,,,,,,,,,,,,,,5f5b4aa99a3ef626581a1473,09:13:21,03/04/2024
5278.5,"<div class = numbox><p style=""font-size: 2.4rem"">Please recall the letters you saw to the best of your ability. If you do not remember a particular letter, use the SKIP button.<br><b>(When you are ready to lock in your answer, press ENTER)</b></p><button id = button_1 class = ""square num-button"" onclick = ""recordClick(this)""><div class = content><div class = numbers>C</div></div></button><button id = button_2 class = ""square num-button"" onclick = ""recordClick(this)""><div class = content><div class = numbers>G</div></div></button><button id = button_3 class = ""square num-button"" onclick = ""recordClick(this)""><div class = content><div class = numbers>H</div></div></button><button id = button_4 class = ""square num-button"" onclick = ""recordClick(this)""><div class = content><div class = numbers>J</div></div></button><button id = button_5 class = ""square num-button"" onclick = ""recordClick(this)""><div class = content><div class = numbers>K</div></div></button><button id = button_6 class = ""square num-button"" onclick = ""recordClick(this)""><div class = content><div class = numbers>L</div></div></button><button id = button_7 class = ""square num-button"" onclick = ""recordClick(this)""><div class = content><div class = numbers>N</div></div></button><button id = button_8 class = ""square num-button"" onclick = ""recordClick(this)""><div class = content><div class = numbers>P</div></div></button><button id = button_9 class = ""square num-button"" onclick = ""recordClick(this)""><div class = content><div class = numbers>Q</div></div></button><button id = button_10 class = ""square num-button"" onclick = ""recordClick(this)""><div class = content><div class = numbers>R</div></div></button><button id = button_11 class = ""square num-button"" onclick = ""recordClick(this)""><div class = content><div class = numbers>S</div></div></button><button id = button_12 class = ""square num-button"" onclick = ""recordClick(this)""><div class = content><div class = numbers>Y</div></div></button><button class = clear_button id = ""ClearButton"" onclick = ""clearResponse()"">BACKSPACE</button><button class = blank_button id = ""BlankButton"" onclick = ""blankResponse()"">SKIP</button><p style=""font-size: 2.4rem""><u><b>Current Answer:</b></u></p><br><br><div id=echoed_txt style=""font-size: 5rem; color:blue;""><b></b></div></div>",enter,ospan,retrieval,RZap1o11GzZsLm6wCX3iTG84Ayu2,html-keyboard-response,67,853127,0.0-46.0-0.0-2.0-4.0,NA,NA,NA,3.0,"[""R"",""J"",""H""]","[""R"",""J"",""H""]",1.0,3.0,"['<font color=""green"">R</font>', '<font color=""green"">J</font>', '<font color=""green"">H</font>']",,,,,,5f5b4aa99a3ef626581a1473,09:13:21,03/04/2024
1457.5999994277954,"['<p style=""font-size:44px"">Letters:<br><br><br><font color=""green"">R</font> <font color=""green"">J</font> <font color=""green"">H</font></p><br><br>']",0,ospan,practice_feedback,RZap1o11GzZsLm6wCX3iTG84Ayu2,html-button-response,68,855102,0.0-46.0-0.0-2.0-5.0,,,,,,,,,,,,,,,5f5b4aa99a3ef626581a1473,09:13:21,03/04/2024
8954.5,"<div class = 'left_align' style='font-size: 3.25rem; line-height: 1.3;'>Now you will practice doing the <b>symmetry judgment part</b> of the experiment.<br><br>A black and white grid picture will appear on the screen and you have to judge if it is <br>symmetrical or asymetrical.<br><br>A picture is 'mirror' symmetrical if its left half is identical to the right half when flipped.<br>Here are examples of a symmetrical and an asymetrical picture:<br><br><center><img src='Stimuli/img/symm_instructions_extra.png' style='height:420px; width:900'></img></center><br>To judge symmetry, imagine you were to fold each picture down the middle, like a book –<br>would the left half match the right half when folded onto each other?<br><br></div><br>",0,ospan,instruct,RZap1o11GzZsLm6wCX3iTG84Ayu2,html-button-response,69,864059,0.0-46.0-1.0-0.0-0.0,,,,,,,,,,,,,,,5f5b4aa99a3ef626581a1473,09:13:21,03/04/2024
4136.400000572205,"<div class = 'left_align' style='font-size: 3.25rem; line-height: 1.3;'>When you have viewed the picture and determined whether it is symmetrical or not,<br>you can <b>click the Yes or No button</b> below to answer.<br><br>If you take longer than 15 seconds, it will continue automatically<br>and record the answer as an error.</div><br>",0,ospan,instruct,RZap1o11GzZsLm6wCX3iTG84Ayu2,html-button-response,70,868449,0.0-46.0-1.0-0.0-1.0,,,,,,,,,,,,,,,5f5b4aa99a3ef626581a1473,09:13:21,03/04/2024
2851.5,"<div class = 'left_align' style='font-size: 3.25rem; line-height: 1.3;'>It is <b>very</b> important that you make the symmetry judgment correctly.<br><br>It is also important that you try and judge the picture as quickly as you can.<br><br>When you are ready, click on the button below to try some practice problems.</div><br><br><br><br>",0,ospan,instruct,RZap1o11GzZsLm6wCX3iTG84Ayu2,html-button-response,71,871560,0.0-46.0-1.0-0.0-2.0,,,,,,,,,,,,,,,5f5b4aa99a3ef626581a1473,09:13:21,03/04/2024
1394.0,,,ospan,symmetry,RZap1o11GzZsLm6wCX3iTG84Ayu2,symmetry-judgement-task,72,873766,0.0-46.0-1.0-1.0-0.0,,,,,,,,,,1.0,1.0,,,,5f5b4aa99a3ef626581a1473,09:13:21,03/04/2024
,"<p style=""color:green; font-size: 35px"">Correct</p>",,ospan,feedback,RZap1o11GzZsLm6wCX3iTG84Ayu2,html-keyboard-response,73,874532,0.0-46.0-1.0-1.0-1.0,,,,,,,,,,,,,,,5f5b4aa99a3ef626581a1473,09:13:21,03/04/2024
862.0,,,ospan,symmetry,RZap1o11GzZsLm6wCX3iTG84Ayu2,symmetry-judgement-task,74,878073,0.0-46.0-1.0-1.0-2.0,,,,,,,,,,1.0,1.0,,,,5f5b4aa99a3ef626581a1473,09:13:21,03/04/2024
,"<p style=""color:green; font-size: 35px"">Correct</p>",,ospan,feedback,RZap1o11GzZsLm6wCX3iTG84Ayu2,html-keyboard-response,75,878836,0.0-46.0-1.0-1.0-3.0,,,,,,,,,,,,,,,5f5b4aa99a3ef626581a1473,09:13:21,03/04/2024
833.0,,,ospan,symmetry,RZap1o11GzZsLm6wCX3iTG84Ayu2,symmetry-judgement-task,76,882319,0.0-46.0-1.0-1.0-4.0,,,,,,,,,,1.0,1.0,,,,5f5b4aa99a3ef626581a1473,09:13:21,03/04/2024
,"<p style=""color:green; font-size: 35px"">Correct</p>",,ospan,feedback,RZap1o11GzZsLm6wCX3iTG84Ayu2,html-keyboard-response,77,883082,0.0-46.0-1.0-1.0-5.0,,,,,,,,,,,,,,,5f5b4aa99a3ef626581a1473,09:13:21,03/04/2024
1721.8000001907349,"<p style=""font-size: 3rem;"">You responded correctly on 3 of 3 symmetry judgments. Good job!</p><br><br>",0,ospan,practice,RZap1o11GzZsLm6wCX3iTG84Ayu2,html-button-response,78,886818,0.0-46.0-1.0-2.0,,,,,,,,,,,,,,,5f5b4aa99a3ef626581a1473,09:13:21,03/04/2024
3571.699999809265,"<div class = 'left_align' style='font-size: 3.25rem; line-height: 1.3;'>Now you will practice doing both parts of the experiment at the same time.<br><br>In the next practice set, you will be given one grid picture to judge.<br>Then letter will appear on the screen. Try to remember the letter.<br><br>It is <b>very important</b> to make the symmetry judgment as quickly and accurately as possible.<br><br>Just as before, once you have make the symmetry judgment, you can click Yes or No.<br><b>Note that you will no longer see Correct or Incorrect feedback.</div><br><br><br><br>",0,ospan,instruct,RZap1o11GzZsLm6wCX3iTG84Ayu2,html-button-response,79,890649,0.0-46.0-2.0-0.0-0.0,,,,,,,,,,,,,,,5f5b4aa99a3ef626581a1473,09:13:21,03/04/2024
1691.0,"<div class = 'left_align' style='font-size: 3.25rem; line-height: 1.3;'>After the letter goes away, another grid picture will appear, and then<br>another letter.<br><br>At the end of each set of letters and grids, you will recall the letters to the best<br>of your ability. Remember, try your best to get the letters in the correct order.<br><br>It is important to <b>quickly</b> and <b>accurately</b> make the symmetry judgments.</div><br><br><br><br>",0,ospan,instruct,RZap1o11GzZsLm6wCX3iTG84Ayu2,html-button-response,80,892605,0.0-46.0-2.0-0.0-1.0,,,,,,,,,,,,,,,5f5b4aa99a3ef626581a1473,09:13:21,03/04/2024
8996.0,"<div class = 'left_align' style='font-size: 3.25rem; line-height: 1.3;'>On the feedback screen, if you are not doing well at the symmetry judgments,<br>you will also see a warning in the middle. This indicates your percent <br>correct for the grid pictures for the entire experiment.<br><br>It is <b>very</b> important for you to keep accuracy at least at 85%: <u>We can only use<br>data where the participant was at least 85% accurate on the judgments.</u> Therefore,<br> please try your best to perform well on the symmetry judgments, <b>at the same time</b><br>doing your best to recall as many letters as possible.<br><br>Click the button to try some practice problems.</div><br><br><br><br>",0,ospan,instruct,RZap1o11GzZsLm6wCX3iTG84Ayu2,html-button-response,81,901868,0.0-46.0-2.0-0.0-2.0,,,,,,,,,,,,,,,5f5b4aa99a3ef626581a1473,09:13:21,03/04/2024
,"<p style=""font-size:75px;"">...</p>",,ospan,iti,RZap1o11GzZsLm6wCX3iTG84Ayu2,html-keyboard-response,82,903133,0.0-46.0-2.0-1.0-0.0,,,,,,,,,,,,,,,5f5b4aa99a3ef626581a1473,09:13:21,03/04/2024
1686.0,,,ospan,symmetry,RZap1o11GzZsLm6wCX3iTG84Ayu2,symmetry-judgement-task,83,905967,0.0-46.0-2.0-1.0-1.0-0.0,,,,,,,,,,1.0,1.0,,,,5f5b4aa99a3ef626581a1473,09:13:21,03/04/2024
,"<div style=""font-size: 10rem; color: #0000FF"">H</div>",,ospan,letter,RZap1o11GzZsLm6wCX3iTG84Ayu2,html-keyboard-response,84,906980,0.0-46.0-2.0-1.0-1.0-1.0,,,,,,,,,,,,,,,5f5b4aa99a3ef626581a1473,09:13:21,03/04/2024
835.0,,,ospan,symmetry,RZap1o11GzZsLm6wCX3iTG84Ayu2,symmetry-judgement-task,85,909735,0.0-46.0-2.0-1.0-1.0-2.0,,,,,,,,,,1.0,1.0,,,,5f5b4aa99a3ef626581a1473,09:13:21,03/04/2024
,"<div style=""font-size: 10rem; color: #0000FF"">L</div>",,ospan,letter,RZap1o11GzZsLm6wCX3iTG84Ayu2,html-keyboard-response,86,910738,0.0-46.0-2.0-1.0-1.0-3.0,,,,,,,,,,,,,,,5f5b4aa99a3ef626581a1473,09:13:21,03/04/2024
717.0,,,ospan,symmetry,RZap1o11GzZsLm6wCX3iTG84Ayu2,symmetry-judgement-task,87,913366,0.0-46.0-2.0-1.0-1.0-4.0,,,,,,,,,,1.0,1.0,,,,5f5b4aa99a3ef626581a1473,09:13:21,03/04/2024
,"<div style=""font-size: 10rem; color: #0000FF"">Q</div>",,ospan,letter,RZap1o11GzZsLm6wCX3iTG84Ayu2,html-keyboard-response,88,914378,0.0-46.0-2.0-1.0-1.0-5.0,,,,,,,,,,,,,,,5f5b4aa99a3ef626581a1473,09:13:21,03/04/2024
4422.599999427795,"<div class = numbox><p style=""font-size: 2.4rem"">Please recall the letters you saw to the best of your ability. If you do not remember a particular letter, use the SKIP button.<br><b>(When you are ready to lock in your answer, press ENTER)</b></p><button id = button_1 class = ""square num-button"" onclick = ""recordClick(this)""><div class = content><div class = numbers>C</div></div></button><button id = button_2 class = ""square num-button"" onclick = ""recordClick(this)""><div class = content><div class = numbers>G</div></div></button><button id = button_3 class = ""square num-button"" onclick = ""recordClick(this)""><div class = content><div class = numbers>H</div></div></button><button id = button_4 class = ""square num-button"" onclick = ""recordClick(this)""><div class = content><div class = numbers>J</div></div></button><button id = button_5 class = ""square num-button"" onclick = ""recordClick(this)""><div class = content><div class = numbers>K</div></div></button><button id = button_6 class = ""square num-button"" onclick = ""recordClick(this)""><div class = content><div class = numbers>L</div></div></button><button id = button_7 class = ""square num-button"" onclick = ""recordClick(this)""><div class = content><div class = numbers>N</div></div></button><button id = button_8 class = ""square num-button"" onclick = ""recordClick(this)""><div class = content><div class = numbers>P</div></div></button><button id = button_9 class = ""square num-button"" onclick = ""recordClick(this)""><div class = content><div class = numbers>Q</div></div></button><button id = button_10 class = ""square num-button"" onclick = ""recordClick(this)""><div class = content><div class = numbers>R</div></div></button><button id = button_11 class = ""square num-button"" onclick = ""recordClick(this)""><div class = content><div class = numbers>S</div></div></button><button id = button_12 class = ""square num-button"" onclick = ""recordClick(this)""><div class = content><div class = numbers>Y</div></div></button><button class = clear_button id = ""ClearButton"" onclick = ""clearResponse()"">BACKSPACE</button><button class = blank_button id = ""BlankButton"" onclick = ""blankResponse()"">SKIP</button><p style=""font-size: 2.4rem""><u><b>Current Answer:</b></u></p><br><br><div id=echoed_txt style=""font-size: 5rem; color:blue;""><b></b></div></div>",enter,ospan,retrieval,RZap1o11GzZsLm6wCX3iTG84Ayu2,html-keyboard-response,89,919567,0.0-46.0-2.0-1.0-2.0-0.0,NA,NA,NA,3.0,"[""H"",""L"",""Q""]","[""H"",""L"",""Q""]",1.0,3.0,"['<font color=""green"">H</font>', '<font color=""green"">L</font>', '<font color=""green"">Q</font>']",,,,,,5f5b4aa99a3ef626581a1473,09:13:21,03/04/2024
1018.8999996185303,"['<p style=""font-size:44px"">Letters:<br><br><br><font color=""green"">H</font> <font color=""green"">L</font> <font color=""green"">Q</font></p><br><br><p style=""font-size:30px"">Symmetry:<br><br><font color=""green"">100%</font></p><br><br>']",0,ospan,practice_feedback,RZap1o11GzZsLm6wCX3iTG84Ayu2,html-button-response,90,921095,0.0-46.0-2.0-1.0-2.0-1.0,,,,,,,,,,,,,,,5f5b4aa99a3ef626581a1473,09:13:21,03/04/2024
,"<p style=""font-size:75px;"">...</p>",,ospan,iti,RZap1o11GzZsLm6wCX3iTG84Ayu2,html-keyboard-response,91,922108,0.0-46.0-2.0-2.0-0.0,,,,,,,,,,,,,,,5f5b4aa99a3ef626581a1473,09:13:21,03/04/2024
1419.0,,,ospan,symmetry,RZap1o11GzZsLm6wCX3iTG84Ayu2,symmetry-judgement-task,92,924688,0.0-46.0-2.0-2.0-1.0-0.0,,,,,,,,,,1.0,1.0,,,,5f5b4aa99a3ef626581a1473,09:13:21,03/04/2024
,"<div style=""font-size: 10rem; color: #0000FF"">K</div>",,ospan,letter,RZap1o11GzZsLm6wCX3iTG84Ayu2,html-keyboard-response,93,925699,0.0-46.0-2.0-2.0-1.0-1.0,,,,,,,,,,,,,,,5f5b4aa99a3ef626581a1473,09:13:21,03/04/2024
2049.0,,,ospan,symmetry,RZap1o11GzZsLm6wCX3iTG84Ayu2,symmetry-judgement-task,94,929665,0.0-46.0-2.0-2.0-1.0-2.0,,,,,,,,,,1.0,1.0,,,,5f5b4aa99a3ef626581a1473,09:13:21,03/04/2024
,"<div style=""font-size: 10rem; color: #0000FF"">R</div>",,ospan,letter,RZap1o11GzZsLm6wCX3iTG84Ayu2,html-keyboard-response,95,930667,0.0-46.0-2.0-2.0-1.0-3.0,,,,,,,,,,,,,,,5f5b4aa99a3ef626581a1473,09:13:21,03/04/2024
982.0,,,ospan,symmetry,RZap1o11GzZsLm6wCX3iTG84Ayu2,symmetry-judgement-task,96,933554,0.0-46.0-2.0-2.0-1.0-4.0,,,,,,,,,,1.0,1.0,,,,5f5b4aa99a3ef626581a1473,09:13:21,03/04/2024
,"<div style=""font-size: 10rem; color: #0000FF"">L</div>",,ospan,letter,RZap1o11GzZsLm6wCX3iTG84Ayu2,html-keyboard-response,97,934569,0.0-46.0-2.0-2.0-1.0-5.0,,,,,,,,,,,,,,,5f5b4aa99a3ef626581a1473,09:13:21,03/04/2024
3866.6000003814697,"<div class = numbox><p style=""font-size: 2.4rem"">Please recall the letters you saw to the best of your ability. If you do not remember a particular letter, use the SKIP button.<br><b>(When you are ready to lock in your answer, press ENTER)</b></p><button id = button_1 class = ""square num-button"" onclick = ""recordClick(this)""><div class = content><div class = numbers>C</div></div></button><button id = button_2 class = ""square num-button"" onclick = ""recordClick(this)""><div class = content><div class = numbers>G</div></div></button><button id = button_3 class = ""square num-button"" onclick = ""recordClick(this)""><div class = content><div class = numbers>H</div></div></button><button id = button_4 class = ""square num-button"" onclick = ""recordClick(this)""><div class = content><div class = numbers>J</div></div></button><button id = button_5 class = ""square num-button"" onclick = ""recordClick(this)""><div class = content><div class = numbers>K</div></div></button><button id = button_6 class = ""square num-button"" onclick = ""recordClick(this)""><div class = content><div class = numbers>L</div></div></button><button id = button_7 class = ""square num-button"" onclick = ""recordClick(this)""><div class = content><div class = numbers>N</div></div></button><button id = button_8 class = ""square num-button"" onclick = ""recordClick(this)""><div class = content><div class = numbers>P</div></div></button><button id = button_9 class = ""square num-button"" onclick = ""recordClick(this)""><div class = content><div class = numbers>Q</div></div></button><button id = button_10 class = ""square num-button"" onclick = ""recordClick(this)""><div class = content><div class = numbers>R</div></div></button><button id = button_11 class = ""square num-button"" onclick = ""recordClick(this)""><div class = content><div class = numbers>S</div></div></button><button id = button_12 class = ""square num-button"" onclick = ""recordClick(this)""><div class = content><div class = numbers>Y</div></div></button><button class = clear_button id = ""ClearButton"" onclick = ""clearResponse()"">BACKSPACE</button><button class = blank_button id = ""BlankButton"" onclick = ""blankResponse()"">SKIP</button><p style=""font-size: 2.4rem""><u><b>Current Answer:</b></u></p><br><br><div id=echoed_txt style=""font-size: 5rem; color:blue;""><b></b></div></div>",enter,ospan,retrieval,RZap1o11GzZsLm6wCX3iTG84Ayu2,html-keyboard-response,98,939199,0.0-46.0-2.0-2.0-2.0-0.0,NA,NA,NA,3.0,"[""K"",""R"",""L""]","[""K"",""R"",""L""]",1.0,3.0,"['<font color=""green"">K</font>', '<font color=""green"">R</font>', '<font color=""green"">L</font>']",,,,,,5f5b4aa99a3ef626581a1473,09:13:21,03/04/2024
994.6999998092651,"['<p style=""font-size:44px"">Letters:<br><br><br><font color=""green"">K</font> <font color=""green"">R</font> <font color=""green"">L</font></p><br><br><p style=""font-size:30px"">Symmetry:<br><br><font color=""green"">100%</font></p><br><br>']",0,ospan,practice_feedback,RZap1o11GzZsLm6wCX3iTG84Ayu2,html-button-response,99,940704,0.0-46.0-2.0-2.0-2.0-1.0,,,,,,,,,,,,,,,5f5b4aa99a3ef626581a1473,09:13:21,03/04/2024
31030.89999961853,"<div class = 'left_align' style='font-size: 3rem; line-height: 1.3;'><b>Great work! That is the end of practice.</b><br><br>The real trials will look just like the practice trials you just completed.<br><br><u>Here, you will not see feedback</u>. First, you will see an grid picture to judge,<br>then a letter to remember. When the recall screen appears, report the letters in the<br>order presented. If you forget a letter, remember to use the <b>blank</b> button to move to the<br>next letter. Some of the sets will have more symmetry grids and letters than others.<br><br>It is important that you do your best on both the symmetry judgments and the letter recall<br>parts of the experiment. For for the symmetry judgments, try to work as <b>quickly</b> and <br>as <b>accurately</b> as possible. Remember to keep your symmetry accuracy at 85% or above.<br><br><b>For the letters, do NOT use any external aid (e.g., writing on paper, electronic device).</b><br><br>It is <u>very important</u> to our experiment to have a <b>true</b> view of your real performance.<br><br>Do not worry if you miss some when it gets hard! This task is meant to be very challenging!<br><br>Click the button to begin.</div><br><br><br><br>",0,ospan,starting_real_here,RZap1o11GzZsLm6wCX3iTG84Ayu2,html-button-response,100,971737,0.0-46.0-2.0-3.0,,,,,,,,,,,,,,,5f5b4aa99a3ef626581a1473,09:13:21,03/04/2024
,"<p style=""font-size:75px;"">...</p>",,ospan,iti,RZap1o11GzZsLm6wCX3iTG84Ayu2,html-keyboard-response,101,973013,0.0-46.0-3.0-0.0-0.0,,,,,,,,,,,,,,,5f5b4aa99a3ef626581a1473,09:13:21,03/04/2024
1234.0,,,ospan,symmetry,RZap1o11GzZsLm6wCX3iTG84Ayu2,symmetry-judgement-task,102,975413,0.0-46.0-3.0-0.0-1.0-0.0,,,,,,,,,,1.0,1.0,,,,5f5b4aa99a3ef626581a1473,09:13:21,03/04/2024
,"<div style=""font-size: 10rem; color: #0000FF"">J</div>",,ospan,letter,RZap1o11GzZsLm6wCX3iTG84Ayu2,html-keyboard-response,103,976418,0.0-46.0-3.0-0.0-1.0-1.0,,,,,,,,,,,,,,,5f5b4aa99a3ef626581a1473,09:13:21,03/04/2024
1126.0,,,ospan,symmetry,RZap1o11GzZsLm6wCX3iTG84Ayu2,symmetry-judgement-task,104,979466,0.0-46.0-3.0-0.0-1.0-2.0,,,,,,,,,,1.0,1.0,,,,5f5b4aa99a3ef626581a1473,09:13:21,03/04/2024
,"<div style=""font-size: 10rem; color: #0000FF"">G</div>",,ospan,letter,RZap1o11GzZsLm6wCX3iTG84Ayu2,html-keyboard-response,105,980477,0.0-46.0-3.0-0.0-1.0-3.0,,,,,,,,,,,,,,,5f5b4aa99a3ef626581a1473,09:13:21,03/04/2024
965.0,,,ospan,symmetry,RZap1o11GzZsLm6wCX3iTG84Ayu2,symmetry-judgement-task,106,983354,0.0-46.0-3.0-0.0-1.0-4.0,,,,,,,,,,1.0,1.0,,,,5f5b4aa99a3ef626581a1473,09:13:21,03/04/2024
,"<div style=""font-size: 10rem; color: #0000FF"">Y</div>",,ospan,letter,RZap1o11GzZsLm6wCX3iTG84Ayu2,html-keyboard-response,107,984364,0.0-46.0-3.0-0.0-1.0-5.0,,,,,,,,,,,,,,,5f5b4aa99a3ef626581a1473,09:13:21,03/04/2024
4056.300000190735,"<div class = numbox><p style=""font-size: 2.4rem"">Please recall the letters you saw to the best of your ability. If you do not remember a particular letter, use the SKIP button.<br><b>(When you are ready to lock in your answer, press ENTER)</b></p><button id = button_1 class = ""square num-button"" onclick = ""recordClick(this)""><div class = content><div class = numbers>C</div></div></button><button id = button_2 class = ""square num-button"" onclick = ""recordClick(this)""><div class = content><div class = numbers>G</div></div></button><button id = button_3 class = ""square num-button"" onclick = ""recordClick(this)""><div class = content><div class = numbers>H</div></div></button><button id = button_4 class = ""square num-button"" onclick = ""recordClick(this)""><div class = content><div class = numbers>J</div></div></button><button id = button_5 class = ""square num-button"" onclick = ""recordClick(this)""><div class = content><div class = numbers>K</div></div></button><button id = button_6 class = ""square num-button"" onclick = ""recordClick(this)""><div class = content><div class = numbers>L</div></div></button><button id = button_7 class = ""square num-button"" onclick = ""recordClick(this)""><div class = content><div class = numbers>N</div></div></button><button id = button_8 class = ""square num-button"" onclick = ""recordClick(this)""><div class = content><div class = numbers>P</div></div></button><button id = button_9 class = ""square num-button"" onclick = ""recordClick(this)""><div class = content><div class = numbers>Q</div></div></button><button id = button_10 class = ""square num-button"" onclick = ""recordClick(this)""><div class = content><div class = numbers>R</div></div></button><button id = button_11 class = ""square num-button"" onclick = ""recordClick(this)""><div class = content><div class = numbers>S</div></div></button><button id = button_12 class = ""square num-button"" onclick = ""recordClick(this)""><div class = content><div class = numbers>Y</div></div></button><button class = clear_button id = ""ClearButton"" onclick = ""clearResponse()"">BACKSPACE</button><button class = blank_button id = ""BlankButton"" onclick = ""blankResponse()"">SKIP</button><p style=""font-size: 2.4rem""><u><b>Current Answer:</b></u></p><br><br><div id=echoed_txt style=""font-size: 5rem; color:blue;""><b></b></div></div>",enter,ospan,retrieval,RZap1o11GzZsLm6wCX3iTG84Ayu2,html-keyboard-response,108,989185,0.0-46.0-3.0-0.0-2.0,3,3,3,3.0,"[""J"",""G"",""Y""]","[""J"",""G"",""Y""]",1.0,3.0,,,,,,,5f5b4aa99a3ef626581a1473,09:13:21,03/04/2024
1194.0999994277954,[''],0,ospan,feedback,RZap1o11GzZsLm6wCX3iTG84Ayu2,html-button-response,109,990896,0.0-46.0-3.0-0.0-3.0,,,,,,,,,,,,100.0,0.0,,5f5b4aa99a3ef626581a1473,09:13:21,03/04/2024
,"<p style=""font-size:75px;"">...</p>",,ospan,iti,RZap1o11GzZsLm6wCX3iTG84Ayu2,html-keyboard-response,110,991905,0.0-46.0-4.0-0.0-0.0,,,,,,,,,,,,,,,5f5b4aa99a3ef626581a1473,09:13:21,03/04/2024
1677.0,,,ospan,symmetry,RZap1o11GzZsLm6wCX3iTG84Ayu2,symmetry-judgement-task,111,994745,0.0-46.0-4.0-0.0-1.0-0.0,,,,,,,,,,1.0,1.0,,,,5f5b4aa99a3ef626581a1473,09:13:21,03/04/2024
,"<div style=""font-size: 10rem; color: #0000FF"">R</div>",,ospan,letter,RZap1o11GzZsLm6wCX3iTG84Ayu2,html-keyboard-response,112,995761,0.0-46.0-4.0-0.0-1.0-1.0,,,,,,,,,,,,,,,5f5b4aa99a3ef626581a1473,09:13:21,03/04/2024
1183.0,,,ospan,symmetry,RZap1o11GzZsLm6wCX3iTG84Ayu2,symmetry-judgement-task,113,998851,0.0-46.0-4.0-0.0-1.0-2.0,,,,,,,,,,1.0,1.0,,,,5f5b4aa99a3ef626581a1473,09:13:21,03/04/2024
,"<div style=""font-size: 10rem; color: #0000FF"">J</div>",,ospan,letter,RZap1o11GzZsLm6wCX3iTG84Ayu2,html-keyboard-response,114,999864,0.0-46.0-4.0-0.0-1.0-3.0,,,,,,,,,,,,,,,5f5b4aa99a3ef626581a1473,09:13:21,03/04/2024
1002.0,,,ospan,symmetry,RZap1o11GzZsLm6wCX3iTG84Ayu2,symmetry-judgement-task,115,1002775,0.0-46.0-4.0-0.0-1.0-4.0,,,,,,,,,,1.0,1.0,,,,5f5b4aa99a3ef626581a1473,09:13:21,03/04/2024
,"<div style=""font-size: 10rem; color: #0000FF"">P</div>",,ospan,letter,RZap1o11GzZsLm6wCX3iTG84Ayu2,html-keyboard-response,116,1003787,0.0-46.0-4.0-0.0-1.0-5.0,,,,,,,,,,,,,,,5f5b4aa99a3ef626581a1473,09:13:21,03/04/2024
1631.0,,,ospan,symmetry,RZap1o11GzZsLm6wCX3iTG84Ayu2,symmetry-judgement-task,117,1007342,0.0-46.0-4.0-0.0-1.0-6.0,,,,,,,,,,1.0,1.0,,,,5f5b4aa99a3ef626581a1473,09:13:21,03/04/2024
,"<div style=""font-size: 10rem; color: #0000FF"">L</div>",,ospan,letter,RZap1o11GzZsLm6wCX3iTG84Ayu2,html-keyboard-response,118,1008352,0.0-46.0-4.0-0.0-1.0-7.0,,,,,,,,,,,,,,,5f5b4aa99a3ef626581a1473,09:13:21,03/04/2024
4881.799999237061,"<div class = numbox><p style=""font-size: 2.4rem"">Please recall the letters you saw to the best of your ability. If you do not remember a particular letter, use the SKIP button.<br><b>(When you are ready to lock in your answer, press ENTER)</b></p><button id = button_1 class = ""square num-button"" onclick = ""recordClick(this)""><div class = content><div class = numbers>C</div></div></button><button id = button_2 class = ""square num-button"" onclick = ""recordClick(this)""><div class = content><div class = numbers>G</div></div></button><button id = button_3 class = ""square num-button"" onclick = ""recordClick(this)""><div class = content><div class = numbers>H</div></div></button><button id = button_4 class = ""square num-button"" onclick = ""recordClick(this)""><div class = content><div class = numbers>J</div></div></button><button id = button_5 class = ""square num-button"" onclick = ""recordClick(this)""><div class = content><div class = numbers>K</div></div></button><button id = button_6 class = ""square num-button"" onclick = ""recordClick(this)""><div class = content><div class = numbers>L</div></div></button><button id = button_7 class = ""square num-button"" onclick = ""recordClick(this)""><div class = content><div class = numbers>N</div></div></button><button id = button_8 class = ""square num-button"" onclick = ""recordClick(this)""><div class = content><div class = numbers>P</div></div></button><button id = button_9 class = ""square num-button"" onclick = ""recordClick(this)""><div class = content><div class = numbers>Q</div></div></button><button id = button_10 class = ""square num-button"" onclick = ""recordClick(this)""><div class = content><div class = numbers>R</div></div></button><button id = button_11 class = ""square num-button"" onclick = ""recordClick(this)""><div class = content><div class = numbers>S</div></div></button><button id = button_12 class = ""square num-button"" onclick = ""recordClick(this)""><div class = content><div class = numbers>Y</div></div></button><button class = clear_button id = ""ClearButton"" onclick = ""clearResponse()"">BACKSPACE</button><button class = blank_button id = ""BlankButton"" onclick = ""blankResponse()"">SKIP</button><p style=""font-size: 2.4rem""><u><b>Current Answer:</b></u></p><br><br><div id=echoed_txt style=""font-size: 5rem; color:blue;""><b></b></div></div>",enter,ospan,retrieval,RZap1o11GzZsLm6wCX3iTG84Ayu2,html-keyboard-response,119,1013996,0.0-46.0-4.0-0.0-2.0,7,7,7,4.0,"[""R"",""J"",""P"",""L""]","[""R"",""J"",""P"",""L""]",1.0,4.0,,,,,,,5f5b4aa99a3ef626581a1473,09:13:21,03/04/2024
1076.4000005722046,[''],0,ospan,feedback,RZap1o11GzZsLm6wCX3iTG84Ayu2,html-button-response,120,1015582,0.0-46.0-4.0-0.0-3.0,,,,,,,,,,,,100.0,0.0,,5f5b4aa99a3ef626581a1473,09:13:21,03/04/2024
,"<p style=""font-size:75px;"">...</p>",,ospan,iti,RZap1o11GzZsLm6wCX3iTG84Ayu2,html-keyboard-response,121,1016585,0.0-46.0-4.0-1.0-0.0,,,,,,,,,,,,,,,5f5b4aa99a3ef626581a1473,09:13:21,03/04/2024
1651.0,,,ospan,symmetry,RZap1o11GzZsLm6wCX3iTG84Ayu2,symmetry-judgement-task,122,1019399,0.0-46.0-4.0-1.0-1.0-0.0,,,,,,,,,,1.0,1.0,,,,5f5b4aa99a3ef626581a1473,09:13:21,03/04/2024
,"<div style=""font-size: 10rem; color: #0000FF"">G</div>",,ospan,letter,RZap1o11GzZsLm6wCX3iTG84Ayu2,html-keyboard-response,123,1020410,0.0-46.0-4.0-1.0-1.0-1.0,,,,,,,,,,,,,,,5f5b4aa99a3ef626581a1473,09:13:21,03/04/2024
1127.0,,,ospan,symmetry,RZap1o11GzZsLm6wCX3iTG84Ayu2,symmetry-judgement-task,124,1023462,0.0-46.0-4.0-1.0-1.0-2.0,,,,,,,,,,1.0,1.0,,,,5f5b4aa99a3ef626581a1473,09:13:21,03/04/2024
,"<div style=""font-size: 10rem; color: #0000FF"">P</div>",,ospan,letter,RZap1o11GzZsLm6wCX3iTG84Ayu2,html-keyboard-response,125,1024472,0.0-46.0-4.0-1.0-1.0-3.0,,,,,,,,,,,,,,,5f5b4aa99a3ef626581a1473,09:13:21,03/04/2024
812.0,,,ospan,symmetry,RZap1o11GzZsLm6wCX3iTG84Ayu2,symmetry-judgement-task,126,1027192,0.0-46.0-4.0-1.0-1.0-4.0,,,,,,,,,,1.0,1.0,,,,5f5b4aa99a3ef626581a1473,09:13:21,03/04/2024
,"<div style=""font-size: 10rem; color: #0000FF"">K</div>",,ospan,letter,RZap1o11GzZsLm6wCX3iTG84Ayu2,html-keyboard-response,127,1028194,0.0-46.0-4.0-1.0-1.0-5.0,,,,,,,,,,,,,,,5f5b4aa99a3ef626581a1473,09:13:21,03/04/2024
1093.0,,,ospan,symmetry,RZap1o11GzZsLm6wCX3iTG84Ayu2,symmetry-judgement-task,128,1031196,0.0-46.0-4.0-1.0-1.0-6.0,,,,,,,,,,1.0,1.0,,,,5f5b4aa99a3ef626581a1473,09:13:21,03/04/2024
,"<div style=""font-size: 10rem; color: #0000FF"">Q</div>",,ospan,letter,RZap1o11GzZsLm6wCX3iTG84Ayu2,html-keyboard-response,129,1032200,0.0-46.0-4.0-1.0-1.0-7.0,,,,,,,,,,,,,,,5f5b4aa99a3ef626581a1473,09:13:21,03/04/2024
1036.0,,,ospan,symmetry,RZap1o11GzZsLm6wCX3iTG84Ayu2,symmetry-judgement-task,130,1035159,0.0-46.0-4.0-1.0-1.0-8.0,,,,,,,,,,1.0,1.0,,,,5f5b4aa99a3ef626581a1473,09:13:21,03/04/2024
,"<div style=""font-size: 10rem; color: #0000FF"">J</div>",,ospan,letter,RZap1o11GzZsLm6wCX3iTG84Ayu2,html-keyboard-response,131,1036171,0.0-46.0-4.0-1.0-1.0-9.0,,,,,,,,,,,,,,,5f5b4aa99a3ef626581a1473,09:13:21,03/04/2024
10788.0,"<div class = numbox><p style=""font-size: 2.4rem"">Please recall the letters you saw to the best of your ability. If you do not remember a particular letter, use the SKIP button.<br><b>(When you are ready to lock in your answer, press ENTER)</b></p><button id = button_1 class = ""square num-button"" onclick = ""recordClick(this)""><div class = content><div class = numbers>C</div></div></button><button id = button_2 class = ""square num-button"" onclick = ""recordClick(this)""><div class = content><div class = numbers>G</div></div></button><button id = button_3 class = ""square num-button"" onclick = ""recordClick(this)""><div class = content><div class = numbers>H</div></div></button><button id = button_4 class = ""square num-button"" onclick = ""recordClick(this)""><div class = content><div class = numbers>J</div></div></button><button id = button_5 class = ""square num-button"" onclick = ""recordClick(this)""><div class = content><div class = numbers>K</div></div></button><button id = button_6 class = ""square num-button"" onclick = ""recordClick(this)""><div class = content><div class = numbers>L</div></div></button><button id = button_7 class = ""square num-button"" onclick = ""recordClick(this)""><div class = content><div class = numbers>N</div></div></button><button id = button_8 class = ""square num-button"" onclick = ""recordClick(this)""><div class = content><div class = numbers>P</div></div></button><button id = button_9 class = ""square num-button"" onclick = ""recordClick(this)""><div class = content><div class = numbers>Q</div></div></button><button id = button_10 class = ""square num-button"" onclick = ""recordClick(this)""><div class = content><div class = numbers>R</div></div></button><button id = button_11 class = ""square num-button"" onclick = ""recordClick(this)""><div class = content><div class = numbers>S</div></div></button><button id = button_12 class = ""square num-button"" onclick = ""recordClick(this)""><div class = content><div class = numbers>Y</div></div></button><button class = clear_button id = ""ClearButton"" onclick = ""clearResponse()"">BACKSPACE</button><button class = blank_button id = ""BlankButton"" onclick = ""blankResponse()"">SKIP</button><p style=""font-size: 2.4rem""><u><b>Current Answer:</b></u></p><br><br><div id=echoed_txt style=""font-size: 5rem; color:blue;""><b></b></div></div>",enter,ospan,retrieval,RZap1o11GzZsLm6wCX3iTG84Ayu2,html-keyboard-response,132,1047717,0.0-46.0-4.0-1.0-2.0,12,10,7,5.0,"[""J"",""P"",""K"",""G"",""J""]","[""G"",""P"",""K"",""Q"",""J""]",0.0,3.0,,,,,,,5f5b4aa99a3ef626581a1473,09:13:21,03/04/2024
5808.300000190735,[''],0,ospan,feedback,RZap1o11GzZsLm6wCX3iTG84Ayu2,html-button-response,133,1054042,0.0-46.0-4.0-1.0-3.0,,,,,,,,,,,,100.0,0.0,,5f5b4aa99a3ef626581a1473,09:13:21,03/04/2024
,"<p style=""font-size:75px;"">...</p>",,ospan,iti,RZap1o11GzZsLm6wCX3iTG84Ayu2,html-keyboard-response,134,1055049,0.0-46.0-4.0-2.0-0.0,,,,,,,,,,,,,,,5f5b4aa99a3ef626581a1473,09:13:21,03/04/2024
2011.0,,,ospan,symmetry,RZap1o11GzZsLm6wCX3iTG84Ayu2,symmetry-judgement-task,135,1058223,0.0-46.0-4.0-2.0-1.0-0.0,,,,,,,,,,1.0,1.0,,,,5f5b4aa99a3ef626581a1473,09:13:21,03/04/2024
,"<div style=""font-size: 10rem; color: #0000FF"">G</div>",,ospan,letter,RZap1o11GzZsLm6wCX3iTG84Ayu2,html-keyboard-response,136,1059226,0.0-46.0-4.0-2.0-1.0-1.0,,,,,,,,,,,,,,,5f5b4aa99a3ef626581a1473,09:13:21,03/04/2024
1012.0,,,ospan,symmetry,RZap1o11GzZsLm6wCX3iTG84Ayu2,symmetry-judgement-task,137,1062158,0.0-46.0-4.0-2.0-1.0-2.0,,,,,,,,,,1.0,1.0,,,,5f5b4aa99a3ef626581a1473,09:13:21,03/04/2024
,"<div style=""font-size: 10rem; color: #0000FF"">L</div>",,ospan,letter,RZap1o11GzZsLm6wCX3iTG84Ayu2,html-keyboard-response,138,1063170,0.0-46.0-4.0-2.0-1.0-3.0,,,,,,,,,,,,,,,5f5b4aa99a3ef626581a1473,09:13:21,03/04/2024
1257.0,,,ospan,symmetry,RZap1o11GzZsLm6wCX3iTG84Ayu2,symmetry-judgement-task,139,1066342,0.0-46.0-4.0-2.0-1.0-4.0,,,,,,,,,,1.0,1.0,,,,5f5b4aa99a3ef626581a1473,09:13:21,03/04/2024
,"<div style=""font-size: 10rem; color: #0000FF"">K</div>",,ospan,letter,RZap1o11GzZsLm6wCX3iTG84Ayu2,html-keyboard-response,140,1067351,0.0-46.0-4.0-2.0-1.0-5.0,,,,,,,,,,,,,,,5f5b4aa99a3ef626581a1473,09:13:21,03/04/2024
3452.5,"<div class = numbox><p style=""font-size: 2.4rem"">Please recall the letters you saw to the best of your ability. If you do not remember a particular letter, use the SKIP button.<br><b>(When you are ready to lock in your answer, press ENTER)</b></p><button id = button_1 class = ""square num-button"" onclick = ""recordClick(this)""><div class = content><div class = numbers>C</div></div></button><button id = button_2 class = ""square num-button"" onclick = ""recordClick(this)""><div class = content><div class = numbers>G</div></div></button><button id = button_3 class = ""square num-button"" onclick = ""recordClick(this)""><div class = content><div class = numbers>H</div></div></button><button id = button_4 class = ""square num-button"" onclick = ""recordClick(this)""><div class = content><div class = numbers>J</div></div></button><button id = button_5 class = ""square num-button"" onclick = ""recordClick(this)""><div class = content><div class = numbers>K</div></div></button><button id = button_6 class = ""square num-button"" onclick = ""recordClick(this)""><div class = content><div class = numbers>L</div></div></button><button id = button_7 class = ""square num-button"" onclick = ""recordClick(this)""><div class = content><div class = numbers>N</div></div></button><button id = button_8 class = ""square num-button"" onclick = ""recordClick(this)""><div class = content><div class = numbers>P</div></div></button><button id = button_9 class = ""square num-button"" onclick = ""recordClick(this)""><div class = content><div class = numbers>Q</div></div></button><button id = button_10 class = ""square num-button"" onclick = ""recordClick(this)""><div class = content><div class = numbers>R</div></div></button><button id = button_11 class = ""square num-button"" onclick = ""recordClick(this)""><div class = content><div class = numbers>S</div></div></button><button id = button_12 class = ""square num-button"" onclick = ""recordClick(this)""><div class = content><div class = numbers>Y</div></div></button><button class = clear_button id = ""ClearButton"" onclick = ""clearResponse()"">BACKSPACE</button><button class = blank_button id = ""BlankButton"" onclick = ""blankResponse()"">SKIP</button><p style=""font-size: 2.4rem""><u><b>Current Answer:</b></u></p><br><br><div id=echoed_txt style=""font-size: 5rem; color:blue;""><b></b></div></div>",enter,ospan,retrieval,RZap1o11GzZsLm6wCX3iTG84Ayu2,html-keyboard-response,141,1071557,0.0-46.0-4.0-2.0-2.0,15,13,10,3.0,"[""G"",""L"",""K""]","[""G"",""L"",""K""]",1.0,3.0,,,,,,,5f5b4aa99a3ef626581a1473,09:13:21,03/04/2024
1242.4000005722046,[''],0,ospan,feedback,RZap1o11GzZsLm6wCX3iTG84Ayu2,html-button-response,142,1073312,0.0-46.0-4.0-2.0-3.0,,,,,,,,,,,,100.0,0.0,,5f5b4aa99a3ef626581a1473,09:13:21,03/04/2024
,"<p style=""font-size:75px;"">...</p>",,ospan,iti,RZap1o11GzZsLm6wCX3iTG84Ayu2,html-keyboard-response,143,1074316,0.0-46.0-5.0-0.0-0.0,,,,,,,,,,,,,,,5f5b4aa99a3ef626581a1473,09:13:21,03/04/2024
1417.0,,,ospan,symmetry,RZap1o11GzZsLm6wCX3iTG84Ayu2,symmetry-judgement-task,144,1076775,0.0-46.0-5.0-0.0-1.0-0.0,,,,,,,,,,1.0,1.0,,,,5f5b4aa99a3ef626581a1473,09:13:21,03/04/2024
,"<div style=""font-size: 10rem; color: #0000FF"">Q</div>",,ospan,letter,RZap1o11GzZsLm6wCX3iTG84Ayu2,html-keyboard-response,145,1077785,0.0-46.0-5.0-0.0-1.0-1.0,,,,,,,,,,,,,,,5f5b4aa99a3ef626581a1473,09:13:21,03/04/2024
699.0,,,ospan,symmetry,RZap1o11GzZsLm6wCX3iTG84Ayu2,symmetry-judgement-task,146,1080390,0.0-46.0-5.0-0.0-1.0-2.0,,,,,,,,,,1.0,1.0,,,,5f5b4aa99a3ef626581a1473,09:13:21,03/04/2024
,"<div style=""font-size: 10rem; color: #0000FF"">R</div>",,ospan,letter,RZap1o11GzZsLm6wCX3iTG84Ayu2,html-keyboard-response,147,1081401,0.0-46.0-5.0-0.0-1.0-3.0,,,,,,,,,,,,,,,5f5b4aa99a3ef626581a1473,09:13:21,03/04/2024
725.0,,,ospan,symmetry,RZap1o11GzZsLm6wCX3iTG84Ayu2,symmetry-judgement-task,148,1084053,0.0-46.0-5.0-0.0-1.0-4.0,,,,,,,,,,1.0,1.0,,,,5f5b4aa99a3ef626581a1473,09:13:21,03/04/2024
,"<div style=""font-size: 10rem; color: #0000FF"">K</div>",,ospan,letter,RZap1o11GzZsLm6wCX3iTG84Ayu2,html-keyboard-response,149,1085069,0.0-46.0-5.0-0.0-1.0-5.0,,,,,,,,,,,,,,,5f5b4aa99a3ef626581a1473,09:13:21,03/04/2024
1124.0,,,ospan,symmetry,RZap1o11GzZsLm6wCX3iTG84Ayu2,symmetry-judgement-task,150,1088122,0.0-46.0-5.0-0.0-1.0-6.0,,,,,,,,,,1.0,1.0,,,,5f5b4aa99a3ef626581a1473,09:13:21,03/04/2024
,"<div style=""font-size: 10rem; color: #0000FF"">Y</div>",,ospan,letter,RZap1o11GzZsLm6wCX3iTG84Ayu2,html-keyboard-response,151,1089133,0.0-46.0-5.0-0.0-1.0-7.0,,,,,,,,,,,,,,,5f5b4aa99a3ef626581a1473,09:13:21,03/04/2024
937.0,,,ospan,symmetry,RZap1o11GzZsLm6wCX3iTG84Ayu2,symmetry-judgement-task,152,1091974,0.0-46.0-5.0-0.0-1.0-8.0,,,,,,,,,,1.0,1.0,,,,5f5b4aa99a3ef626581a1473,09:13:21,03/04/2024
,"<div style=""font-size: 10rem; color: #0000FF"">J</div>",,ospan,letter,RZap1o11GzZsLm6wCX3iTG84Ayu2,html-keyboard-response,153,1092986,0.0-46.0-5.0-0.0-1.0-9.0,,,,,,,,,,,,,,,5f5b4aa99a3ef626581a1473,09:13:21,03/04/2024
873.0,,,ospan,symmetry,RZap1o11GzZsLm6wCX3iTG84Ayu2,symmetry-judgement-task,154,1095766,0.0-46.0-5.0-0.0-1.0-10.0,,,,,,,,,,1.0,1.0,,,,5f5b4aa99a3ef626581a1473,09:13:21,03/04/2024
,"<div style=""font-size: 10rem; color: #0000FF"">N</div>",,ospan,letter,RZap1o11GzZsLm6wCX3iTG84Ayu2,html-keyboard-response,155,1096782,0.0-46.0-5.0-0.0-1.0-11.0,,,,,,,,,,,,,,,5f5b4aa99a3ef626581a1473,09:13:21,03/04/2024
7627.60000038147,"<div class = numbox><p style=""font-size: 2.4rem"">Please recall the letters you saw to the best of your ability. If you do not remember a particular letter, use the SKIP button.<br><b>(When you are ready to lock in your answer, press ENTER)</b></p><button id = button_1 class = ""square num-button"" onclick = ""recordClick(this)""><div class = content><div class = numbers>C</div></div></button><button id = button_2 class = ""square num-button"" onclick = ""recordClick(this)""><div class = content><div class = numbers>G</div></div></button><button id = button_3 class = ""square num-button"" onclick = ""recordClick(this)""><div class = content><div class = numbers>H</div></div></button><button id = button_4 class = ""square num-button"" onclick = ""recordClick(this)""><div class = content><div class = numbers>J</div></div></button><button id = button_5 class = ""square num-button"" onclick = ""recordClick(this)""><div class = content><div class = numbers>K</div></div></button><button id = button_6 class = ""square num-button"" onclick = ""recordClick(this)""><div class = content><div class = numbers>L</div></div></button><button id = button_7 class = ""square num-button"" onclick = ""recordClick(this)""><div class = content><div class = numbers>N</div></div></button><button id = button_8 class = ""square num-button"" onclick = ""recordClick(this)""><div class = content><div class = numbers>P</div></div></button><button id = button_9 class = ""square num-button"" onclick = ""recordClick(this)""><div class = content><div class = numbers>Q</div></div></button><button id = button_10 class = ""square num-button"" onclick = ""recordClick(this)""><div class = content><div class = numbers>R</div></div></button><button id = button_11 class = ""square num-button"" onclick = ""recordClick(this)""><div class = content><div class = numbers>S</div></div></button><button id = button_12 class = ""square num-button"" onclick = ""recordClick(this)""><div class = content><div class = numbers>Y</div></div></button><button class = clear_button id = ""ClearButton"" onclick = ""clearResponse()"">BACKSPACE</button><button class = blank_button id = ""BlankButton"" onclick = ""blankResponse()"">SKIP</button><p style=""font-size: 2.4rem""><u><b>Current Answer:</b></u></p><br><br><div id=echoed_txt style=""font-size: 5rem; color:blue;""><b></b></div></div>",enter,ospan,retrieval,RZap1o11GzZsLm6wCX3iTG84Ayu2,html-keyboard-response,156,1105174,0.0-46.0-5.0-0.0-2.0,21,16,10,6.0,"[""Q"",""R"",""K"",""J"",""N""]","[""Q"",""R"",""K"",""Y"",""J"",""N""]",0.0,3.0,,,,,,,5f5b4aa99a3ef626581a1473,09:13:21,03/04/2024
1258.0,[''],0,ospan,feedback,RZap1o11GzZsLm6wCX3iTG84Ayu2,html-button-response,157,1106939,0.0-46.0-5.0-0.0-3.0,,,,,,,,,,,,100.0,0.0,,5f5b4aa99a3ef626581a1473,09:13:21,03/04/2024
,"<p style=""font-size:75px;"">...</p>",,ospan,iti,RZap1o11GzZsLm6wCX3iTG84Ayu2,html-keyboard-response,158,1107943,0.0-46.0-5.0-1.0-0.0,,,,,,,,,,,,,,,5f5b4aa99a3ef626581a1473,09:13:21,03/04/2024
1246.0,,,ospan,symmetry,RZap1o11GzZsLm6wCX3iTG84Ayu2,symmetry-judgement-task,159,1110347,0.0-46.0-5.0-1.0-1.0-0.0,,,,,,,,,,1.0,1.0,,,,5f5b4aa99a3ef626581a1473,09:13:21,03/04/2024
,"<div style=""font-size: 10rem; color: #0000FF"">N</div>",,ospan,letter,RZap1o11GzZsLm6wCX3iTG84Ayu2,html-keyboard-response,160,1111359,0.0-46.0-5.0-1.0-1.0-1.0,,,,,,,,,,,,,,,5f5b4aa99a3ef626581a1473,09:13:21,03/04/2024
660.0,,,ospan,symmetry,RZap1o11GzZsLm6wCX3iTG84Ayu2,symmetry-judgement-task,161,1113925,0.0-46.0-5.0-1.0-1.0-2.0,,,,,,,,,,1.0,1.0,,,,5f5b4aa99a3ef626581a1473,09:13:21,03/04/2024
,"<div style=""font-size: 10rem; color: #0000FF"">J</div>",,ospan,letter,RZap1o11GzZsLm6wCX3iTG84Ayu2,html-keyboard-response,162,1114942,0.0-46.0-5.0-1.0-1.0-3.0,,,,,,,,,,,,,,,5f5b4aa99a3ef626581a1473,09:13:21,03/04/2024
985.0,,,ospan,symmetry,RZap1o11GzZsLm6wCX3iTG84Ayu2,symmetry-judgement-task,163,1117837,0.0-46.0-5.0-1.0-1.0-4.0,,,,,,,,,,1.0,1.0,,,,5f5b4aa99a3ef626581a1473,09:13:21,03/04/2024
,"<div style=""font-size: 10rem; color: #0000FF"">R</div>",,ospan,letter,RZap1o11GzZsLm6wCX3iTG84Ayu2,html-keyboard-response,164,1118851,0.0-46.0-5.0-1.0-1.0-5.0,,,,,,,,,,,,,,,5f5b4aa99a3ef626581a1473,09:13:21,03/04/2024
920.0,,,ospan,symmetry,RZap1o11GzZsLm6wCX3iTG84Ayu2,symmetry-judgement-task,165,1121700,0.0-46.0-5.0-1.0-1.0-6.0,,,,,,,,,,1.0,1.0,,,,5f5b4aa99a3ef626581a1473,09:13:21,03/04/2024
,"<div style=""font-size: 10rem; color: #0000FF"">G</div>",,ospan,letter,RZap1o11GzZsLm6wCX3iTG84Ayu2,html-keyboard-response,166,1122711,0.0-46.0-5.0-1.0-1.0-7.0,,,,,,,,,,,,,,,5f5b4aa99a3ef626581a1473,09:13:21,03/04/2024
560.0,,,ospan,symmetry,RZap1o11GzZsLm6wCX3iTG84Ayu2,symmetry-judgement-task,167,1125170,0.0-46.0-5.0-1.0-1.0-8.0,,,,,,,,,,1.0,1.0,,,,5f5b4aa99a3ef626581a1473,09:13:21,03/04/2024
,"<div style=""font-size: 10rem; color: #0000FF"">S</div>",,ospan,letter,RZap1o11GzZsLm6wCX3iTG84Ayu2,html-keyboard-response,168,1126180,0.0-46.0-5.0-1.0-1.0-9.0,,,,,,,,,,,,,,,5f5b4aa99a3ef626581a1473,09:13:21,03/04/2024
1133.0,,,ospan,symmetry,RZap1o11GzZsLm6wCX3iTG84Ayu2,symmetry-judgement-task,169,1129228,0.0-46.0-5.0-1.0-1.0-10.0,,,,,,,,,,1.0,1.0,,,,5f5b4aa99a3ef626581a1473,09:13:21,03/04/2024
,"<div style=""font-size: 10rem; color: #0000FF"">P</div>",,ospan,letter,RZap1o11GzZsLm6wCX3iTG84Ayu2,html-keyboard-response,170,1130240,0.0-46.0-5.0-1.0-1.0-11.0,,,,,,,,,,,,,,,5f5b4aa99a3ef626581a1473,09:13:21,03/04/2024
1270.0,,,ospan,symmetry,RZap1o11GzZsLm6wCX3iTG84Ayu2,symmetry-judgement-task,171,1133426,0.0-46.0-5.0-1.0-1.0-12.0,,,,,,,,,,1.0,1.0,,,,5f5b4aa99a3ef626581a1473,09:13:21,03/04/2024
,"<div style=""font-size: 10rem; color: #0000FF"">Y</div>",,ospan,letter,RZap1o11GzZsLm6wCX3iTG84Ayu2,html-keyboard-response,172,1134438,0.0-46.0-5.0-1.0-1.0-13.0,,,,,,,,,,,,,,,5f5b4aa99a3ef626581a1473,09:13:21,03/04/2024
11642.800000190735,"<div class = numbox><p style=""font-size: 2.4rem"">Please recall the letters you saw to the best of your ability. If you do not remember a particular letter, use the SKIP button.<br><b>(When you are ready to lock in your answer, press ENTER)</b></p><button id = button_1 class = ""square num-button"" onclick = ""recordClick(this)""><div class = content><div class = numbers>C</div></div></button><button id = button_2 class = ""square num-button"" onclick = ""recordClick(this)""><div class = content><div class = numbers>G</div></div></button><button id = button_3 class = ""square num-button"" onclick = ""recordClick(this)""><div class = content><div class = numbers>H</div></div></button><button id = button_4 class = ""square num-button"" onclick = ""recordClick(this)""><div class = content><div class = numbers>J</div></div></button><button id = button_5 class = ""square num-button"" onclick = ""recordClick(this)""><div class = content><div class = numbers>K</div></div></button><button id = button_6 class = ""square num-button"" onclick = ""recordClick(this)""><div class = content><div class = numbers>L</div></div></button><button id = button_7 class = ""square num-button"" onclick = ""recordClick(this)""><div class = content><div class = numbers>N</div></div></button><button id = button_8 class = ""square num-button"" onclick = ""recordClick(this)""><div class = content><div class = numbers>P</div></div></button><button id = button_9 class = ""square num-button"" onclick = ""recordClick(this)""><div class = content><div class = numbers>Q</div></div></button><button id = button_10 class = ""square num-button"" onclick = ""recordClick(this)""><div class = content><div class = numbers>R</div></div></button><button id = button_11 class = ""square num-button"" onclick = ""recordClick(this)""><div class = content><div class = numbers>S</div></div></button><button id = button_12 class = ""square num-button"" onclick = ""recordClick(this)""><div class = content><div class = numbers>Y</div></div></button><button class = clear_button id = ""ClearButton"" onclick = ""clearResponse()"">BACKSPACE</button><button class = blank_button id = ""BlankButton"" onclick = ""blankResponse()"">SKIP</button><p style=""font-size: 2.4rem""><u><b>Current Answer:</b></u></p><br><br><div id=echoed_txt style=""font-size: 5rem; color:blue;""><b></b></div></div>",enter,ospan,retrieval,RZap1o11GzZsLm6wCX3iTG84Ayu2,html-keyboard-response,173,1146846,0.0-46.0-5.0-1.0-2.0,28,20,10,7.0,"[""N"",""J"",""R"",""J"",""P"",""S"",""Y""]","[""N"",""J"",""R"",""G"",""S"",""P"",""Y""]",0.0,4.0,,,,,,,5f5b4aa99a3ef626581a1473,09:13:21,03/04/2024
1254.0,[''],0,ospan,feedback,RZap1o11GzZsLm6wCX3iTG84Ayu2,html-button-response,174,1148617,0.0-46.0-5.0-1.0-3.0,,,,,,,,,,,,100.0,0.0,,5f5b4aa99a3ef626581a1473,09:13:21,03/04/2024
,"<p style=""font-size:75px;"">...</p>",,ospan,iti,RZap1o11GzZsLm6wCX3iTG84Ayu2,html-keyboard-response,175,1149622,0.0-46.0-6.0-0.0-0.0,,,,,,,,,,,,,,,5f5b4aa99a3ef626581a1473,09:13:21,03/04/2024
1368.0,,,ospan,symmetry,RZap1o11GzZsLm6wCX3iTG84Ayu2,symmetry-judgement-task,176,1152150,0.0-46.0-6.0-0.0-1.0-0.0,,,,,,,,,,1.0,1.0,,,,5f5b4aa99a3ef626581a1473,09:13:21,03/04/2024
,"<div style=""font-size: 10rem; color: #0000FF"">K</div>",,ospan,letter,RZap1o11GzZsLm6wCX3iTG84Ayu2,html-keyboard-response,177,1153163,0.0-46.0-6.0-0.0-1.0-1.0,,,,,,,,,,,,,,,5f5b4aa99a3ef626581a1473,09:13:21,03/04/2024
1018.0,,,ospan,symmetry,RZap1o11GzZsLm6wCX3iTG84Ayu2,symmetry-judgement-task,178,1156085,0.0-46.0-6.0-0.0-1.0-2.0,,,,,,,,,,1.0,1.0,,,,5f5b4aa99a3ef626581a1473,09:13:21,03/04/2024
,"<div style=""font-size: 10rem; color: #0000FF"">S</div>",,ospan,letter,RZap1o11GzZsLm6wCX3iTG84Ayu2,html-keyboard-response,179,1157094,0.0-46.0-6.0-0.0-1.0-3.0,,,,,,,,,,,,,,,5f5b4aa99a3ef626581a1473,09:13:21,03/04/2024
672.0,,,ospan,symmetry,RZap1o11GzZsLm6wCX3iTG84Ayu2,symmetry-judgement-task,180,1159677,0.0-46.0-6.0-0.0-1.0-4.0,,,,,,,,,,1.0,1.0,,,,5f5b4aa99a3ef626581a1473,09:13:21,03/04/2024
,"<div style=""font-size: 10rem; color: #0000FF"">L</div>",,ospan,letter,RZap1o11GzZsLm6wCX3iTG84Ayu2,html-keyboard-response,181,1160688,0.0-46.0-6.0-0.0-1.0-5.0,,,,,,,,,,,,,,,5f5b4aa99a3ef626581a1473,09:13:21,03/04/2024
1360.0,,,ospan,symmetry,RZap1o11GzZsLm6wCX3iTG84Ayu2,symmetry-judgement-task,182,1163952,0.0-46.0-6.0-0.0-1.0-6.0,,,,,,,,,,1.0,1.0,,,,5f5b4aa99a3ef626581a1473,09:13:21,03/04/2024
,"<div style=""font-size: 10rem; color: #0000FF"">H</div>",,ospan,letter,RZap1o11GzZsLm6wCX3iTG84Ayu2,html-keyboard-response,183,1164964,0.0-46.0-6.0-0.0-1.0-7.0,,,,,,,,,,,,,,,5f5b4aa99a3ef626581a1473,09:13:21,03/04/2024
1191.0,,,ospan,symmetry,RZap1o11GzZsLm6wCX3iTG84Ayu2,symmetry-judgement-task,184,1168074,0.0-46.0-6.0-0.0-1.0-8.0,,,,,,,,,,1.0,1.0,,,,5f5b4aa99a3ef626581a1473,09:13:21,03/04/2024
,"<div style=""font-size: 10rem; color: #0000FF"">J</div>",,ospan,letter,RZap1o11GzZsLm6wCX3iTG84Ayu2,html-keyboard-response,185,1169086,0.0-46.0-6.0-0.0-1.0-9.0,,,,,,,,,,,,,,,5f5b4aa99a3ef626581a1473,09:13:21,03/04/2024
8195.5,"<div class = numbox><p style=""font-size: 2.4rem"">Please recall the letters you saw to the best of your ability. If you do not remember a particular letter, use the SKIP button.<br><b>(When you are ready to lock in your answer, press ENTER)</b></p><button id = button_1 class = ""square num-button"" onclick = ""recordClick(this)""><div class = content><div class = numbers>C</div></div></button><button id = button_2 class = ""square num-button"" onclick = ""recordClick(this)""><div class = content><div class = numbers>G</div></div></button><button id = button_3 class = ""square num-button"" onclick = ""recordClick(this)""><div class = content><div class = numbers>H</div></div></button><button id = button_4 class = ""square num-button"" onclick = ""recordClick(this)""><div class = content><div class = numbers>J</div></div></button><button id = button_5 class = ""square num-button"" onclick = ""recordClick(this)""><div class = content><div class = numbers>K</div></div></button><button id = button_6 class = ""square num-button"" onclick = ""recordClick(this)""><div class = content><div class = numbers>L</div></div></button><button id = button_7 class = ""square num-button"" onclick = ""recordClick(this)""><div class = content><div class = numbers>N</div></div></button><button id = button_8 class = ""square num-button"" onclick = ""recordClick(this)""><div class = content><div class = numbers>P</div></div></button><button id = button_9 class = ""square num-button"" onclick = ""recordClick(this)""><div class = content><div class = numbers>Q</div></div></button><button id = button_10 class = ""square num-button"" onclick = ""recordClick(this)""><div class = content><div class = numbers>R</div></div></button><button id = button_11 class = ""square num-button"" onclick = ""recordClick(this)""><div class = content><div class = numbers>S</div></div></button><button id = button_12 class = ""square num-button"" onclick = ""recordClick(this)""><div class = content><div class = numbers>Y</div></div></button><button class = clear_button id = ""ClearButton"" onclick = ""clearResponse()"">BACKSPACE</button><button class = blank_button id = ""BlankButton"" onclick = ""blankResponse()"">SKIP</button><p style=""font-size: 2.4rem""><u><b>Current Answer:</b></u></p><br><br><div id=echoed_txt style=""font-size: 5rem; color:blue;""><b></b></div></div>",enter,ospan,retrieval,RZap1o11GzZsLm6wCX3iTG84Ayu2,html-keyboard-response,186,1178045,0.0-46.0-6.0-0.0-2.0,33,23,10,5.0,"[""K"",""L"",""S"",""H"",""J""]","[""K"",""S"",""L"",""H"",""J""]",0.0,3.0,,,,,,,5f5b4aa99a3ef626581a1473,09:13:21,03/04/2024
1208.0,[''],0,ospan,feedback,RZap1o11GzZsLm6wCX3iTG84Ayu2,html-button-response,187,1179772,0.0-46.0-6.0-0.0-3.0,,,,,,,,,,,,100.0,0.0,,5f5b4aa99a3ef626581a1473,09:13:21,03/04/2024
,"<p style=""font-size:75px;"">...</p>",,ospan,iti,RZap1o11GzZsLm6wCX3iTG84Ayu2,html-keyboard-response,188,1180788,0.0-46.0-6.0-1.0-0.0,,,,,,,,,,,,,,,5f5b4aa99a3ef626581a1473,09:13:21,03/04/2024
1210.0,,,ospan,symmetry,RZap1o11GzZsLm6wCX3iTG84Ayu2,symmetry-judgement-task,189,1183150,0.0-46.0-6.0-1.0-1.0-0.0,,,,,,,,,,1.0,1.0,,,,5f5b4aa99a3ef626581a1473,09:13:21,03/04/2024
,"<div style=""font-size: 10rem; color: #0000FF"">Q</div>",,ospan,letter,RZap1o11GzZsLm6wCX3iTG84Ayu2,html-keyboard-response,190,1184159,0.0-46.0-6.0-1.0-1.0-1.0,,,,,,,,,,,,,,,5f5b4aa99a3ef626581a1473,09:13:21,03/04/2024
668.0,,,ospan,symmetry,RZap1o11GzZsLm6wCX3iTG84Ayu2,symmetry-judgement-task,191,1186742,0.0-46.0-6.0-1.0-1.0-2.0,,,,,,,,,,1.0,1.0,,,,5f5b4aa99a3ef626581a1473,09:13:21,03/04/2024
,"<div style=""font-size: 10rem; color: #0000FF"">N</div>",,ospan,letter,RZap1o11GzZsLm6wCX3iTG84Ayu2,html-keyboard-response,192,1187752,0.0-46.0-6.0-1.0-1.0-3.0,,,,,,,,,,,,,,,5f5b4aa99a3ef626581a1473,09:13:21,03/04/2024
1044.0,,,ospan,symmetry,RZap1o11GzZsLm6wCX3iTG84Ayu2,symmetry-judgement-task,193,1190713,0.0-46.0-6.0-1.0-1.0-4.0,,,,,,,,,,1.0,1.0,,,,5f5b4aa99a3ef626581a1473,09:13:21,03/04/2024
,"<div style=""font-size: 10rem; color: #0000FF"">G</div>",,ospan,letter,RZap1o11GzZsLm6wCX3iTG84Ayu2,html-keyboard-response,194,1191724,0.0-46.0-6.0-1.0-1.0-5.0,,,,,,,,,,,,,,,5f5b4aa99a3ef626581a1473,09:13:21,03/04/2024
985.0,,,ospan,symmetry,RZap1o11GzZsLm6wCX3iTG84Ayu2,symmetry-judgement-task,195,1194643,0.0-46.0-6.0-1.0-1.0-6.0,,,,,,,,,,1.0,1.0,,,,5f5b4aa99a3ef626581a1473,09:13:21,03/04/2024
,"<div style=""font-size: 10rem; color: #0000FF"">S</div>",,ospan,letter,RZap1o11GzZsLm6wCX3iTG84Ayu2,html-keyboard-response,196,1195656,0.0-46.0-6.0-1.0-1.0-7.0,,,,,,,,,,,,,,,5f5b4aa99a3ef626581a1473,09:13:21,03/04/2024
628.0,,,ospan,symmetry,RZap1o11GzZsLm6wCX3iTG84Ayu2,symmetry-judgement-task,197,1198198,0.0-46.0-6.0-1.0-1.0-8.0,,,,,,,,,,1.0,1.0,,,,5f5b4aa99a3ef626581a1473,09:13:21,03/04/2024
,"<div style=""font-size: 10rem; color: #0000FF"">K</div>",,ospan,letter,RZap1o11GzZsLm6wCX3iTG84Ayu2,html-keyboard-response,198,1199212,0.0-46.0-6.0-1.0-1.0-9.0,,,,,,,,,,,,,,,5f5b4aa99a3ef626581a1473,09:13:21,03/04/2024
1450.0,,,ospan,symmetry,RZap1o11GzZsLm6wCX3iTG84Ayu2,symmetry-judgement-task,199,1202575,0.0-46.0-6.0-1.0-1.0-10.0,,,,,,,,,,1.0,1.0,,,,5f5b4aa99a3ef626581a1473,09:13:21,03/04/2024
,"<div style=""font-size: 10rem; color: #0000FF"">L</div>",,ospan,letter,RZap1o11GzZsLm6wCX3iTG84Ayu2,html-keyboard-response,200,1203580,0.0-46.0-6.0-1.0-1.0-11.0,,,,,,,,,,,,,,,5f5b4aa99a3ef626581a1473,09:13:21,03/04/2024
1224.0,,,ospan,symmetry,RZap1o11GzZsLm6wCX3iTG84Ayu2,symmetry-judgement-task,201,1206723,0.0-46.0-6.0-1.0-1.0-12.0,,,,,,,,,,1.0,1.0,,,,5f5b4aa99a3ef626581a1473,09:13:21,03/04/2024
,"<div style=""font-size: 10rem; color: #0000FF"">R</div>",,ospan,letter,RZap1o11GzZsLm6wCX3iTG84Ayu2,html-keyboard-response,202,1207737,0.0-46.0-6.0-1.0-1.0-13.0,,,,,,,,,,,,,,,5f5b4aa99a3ef626581a1473,09:13:21,03/04/2024
1178.0,,,ospan,symmetry,RZap1o11GzZsLm6wCX3iTG84Ayu2,symmetry-judgement-task,203,1210845,0.0-46.0-6.0-1.0-1.0-14.0,,,,,,,,,,1.0,1.0,,,,5f5b4aa99a3ef626581a1473,09:13:21,03/04/2024
,"<div style=""font-size: 10rem; color: #0000FF"">P</div>",,ospan,letter,RZap1o11GzZsLm6wCX3iTG84Ayu2,html-keyboard-response,204,1211855,0.0-46.0-6.0-1.0-1.0-15.0,,,,,,,,,,,,,,,5f5b4aa99a3ef626581a1473,09:13:21,03/04/2024
7063.10000038147,"<div class = numbox><p style=""font-size: 2.4rem"">Please recall the letters you saw to the best of your ability. If you do not remember a particular letter, use the SKIP button.<br><b>(When you are ready to lock in your answer, press ENTER)</b></p><button id = button_1 class = ""square num-button"" onclick = ""recordClick(this)""><div class = content><div class = numbers>C</div></div></button><button id = button_2 class = ""square num-button"" onclick = ""recordClick(this)""><div class = content><div class = numbers>G</div></div></button><button id = button_3 class = ""square num-button"" onclick = ""recordClick(this)""><div class = content><div class = numbers>H</div></div></button><button id = button_4 class = ""square num-button"" onclick = ""recordClick(this)""><div class = content><div class = numbers>J</div></div></button><button id = button_5 class = ""square num-button"" onclick = ""recordClick(this)""><div class = content><div class = numbers>K</div></div></button><button id = button_6 class = ""square num-button"" onclick = ""recordClick(this)""><div class = content><div class = numbers>L</div></div></button><button id = button_7 class = ""square num-button"" onclick = ""recordClick(this)""><div class = content><div class = numbers>N</div></div></button><button id = button_8 class = ""square num-button"" onclick = ""recordClick(this)""><div class = content><div class = numbers>P</div></div></button><button id = button_9 class = ""square num-button"" onclick = ""recordClick(this)""><div class = content><div class = numbers>Q</div></div></button><button id = button_10 class = ""square num-button"" onclick = ""recordClick(this)""><div class = content><div class = numbers>R</div></div></button><button id = button_11 class = ""square num-button"" onclick = ""recordClick(this)""><div class = content><div class = numbers>S</div></div></button><button id = button_12 class = ""square num-button"" onclick = ""recordClick(this)""><div class = content><div class = numbers>Y</div></div></button><button class = clear_button id = ""ClearButton"" onclick = ""clearResponse()"">BACKSPACE</button><button class = blank_button id = ""BlankButton"" onclick = ""blankResponse()"">SKIP</button><p style=""font-size: 2.4rem""><u><b>Current Answer:</b></u></p><br><br><div id=echoed_txt style=""font-size: 5rem; color:blue;""><b></b></div></div>",enter,ospan,retrieval,RZap1o11GzZsLm6wCX3iTG84Ayu2,html-keyboard-response,205,1219681,0.0-46.0-6.0-1.0-2.0,41,25,10,8.0,"[""K"",""N"",""J"",""S"",""R""]","[""Q"",""N"",""G"",""S"",""K"",""L"",""R"",""P""]",0.0,2.0,,,,,,,5f5b4aa99a3ef626581a1473,09:13:21,03/04/2024
4587.89999961853,[''],0,ospan,feedback,RZap1o11GzZsLm6wCX3iTG84Ayu2,html-button-response,206,1224773,0.0-46.0-6.0-1.0-3.0,,,,,,,,,,,,100.0,0.0,,5f5b4aa99a3ef626581a1473,09:13:21,03/04/2024
17851.699999809265,,"{'Q0': 'This one was hard, especially without feedback, but instructions were very clear'}",ospan,survey_ospan,RZap1o11GzZsLm6wCX3iTG84Ayu2,lmdlab-survey-text,207,1243389,0.0-46.0-7.0,,,,,,,,,,,,,,RZap1o11GzZsLm6wCX3iTG84Ayu2,5f5b4aa99a3ef626581a1473,09:13:21,03/04/2024
1262.5,<p><p style='font-size: 3rem'>Great work!<br><br>This completes the symmetry and memory task.</p><br><br><br>,0,ospan,finish,RZap1o11GzZsLm6wCX3iTG84Ayu2,html-button-response,208,1244656,0.0-46.0-8.0,41,25,10,,,,,,,,,100.0,,,5f5b4aa99a3ef626581a1473,09:13:21,03/04/2024
