rt,stimulus,response,exp_name,exp_stage,subjectID,trial_type,trial_index,time_elapsed,internal_node_id,ospan_shown,ospan_total,ospan_abs,length,resp_actual,resp_correct,full_correct,num_correct,feedback,accuracy,correct,math_acc,math_warning,databaseID,prolificID,start_time,date
17299.70000001788,<div class = 'left_align' style='font-size: 3.25rem; line-height: 1.3;'><p class = 'center_align'><b>Welcome to the Symmetry and Memory Task</b><br><br><br><br></p>Press 'continue' to show the instructions.<br><br><br><br></div>,0,ospan,instruct,s7DCY2mN1uOYLG9avI2vcsGXjvF2,html-button-response,54,487233,0.0-46.0-0.0-0.0-0.0,,,,,,,,,,,,,,,5c4765349afd7b000196f770,11:28:40,03/04/2024
26352.90000000596,"<div class = 'left_align' style='font-size: 3.25rem; line-height: 1.3;'><p class = 'center_align'><b>Symmetry and Memory Task</b><br><br></p>In this task, you will try to memorize letters you see on the screen<br>while you also view black and white grid pictures.<br><br>In the next few minutes, you will have some practice to get you familiar<br>with how the task works.<br><br>It may be difficult sometimes, but please do not worry about making mistakes!<br><br>We will begin by practicing the letter part of the task.<br><br><br><br></div>",0,ospan,instruct,s7DCY2mN1uOYLG9avI2vcsGXjvF2,html-button-response,55,513837,0.0-46.0-0.0-0.0-1.0,,,,,,,,,,,,,,,5c4765349afd7b000196f770,11:28:40,03/04/2024
4444.800000011921,"<div class = 'left_align' style='font-size: 3.25rem; line-height: 1.3;'>For this practice part, letters will appear on the screen one at a time.<br><br>Try to remember each letter in the order presented.<br><br>After some letters have been shown, you will see a response screen. Your<br>goal is to report the letters you saw <b>in order</b>. If you do not remember<br>a particular letter, you will have the option to leave it blank.<br><br><br><br></div>",0,ospan,instruct,s7DCY2mN1uOYLG9avI2vcsGXjvF2,html-button-response,56,518542,0.0-46.0-0.0-0.0-2.0,,,,,,,,,,,,,,,5c4765349afd7b000196f770,11:28:40,03/04/2024
4379.4000000059605,"<div class = 'left_align' style='font-size: 3.25rem; line-height: 1.3;'>Remember, it is very important to get the letters in the same<br>order as you see them.<br><br>When you are ready, you may begin the letter practice.</div><br><br><br><br>",0,ospan,instruct,s7DCY2mN1uOYLG9avI2vcsGXjvF2,html-button-response,57,523172,0.0-46.0-0.0-0.0-3.0,,,,,,,,,,,,,,,5c4765349afd7b000196f770,11:28:40,03/04/2024
,"<p style=""font-size:75px;"">...</p>",,ospan,iti,s7DCY2mN1uOYLG9avI2vcsGXjvF2,html-keyboard-response,58,524433,0.0-46.0-0.0-1.0-0.0,,,,,,,,,,,,,,,5c4765349afd7b000196f770,11:28:40,03/04/2024
,"<div style=""font-size: 10rem; color: #0000FF"">K</div>",,ospan,letter,s7DCY2mN1uOYLG9avI2vcsGXjvF2,html-keyboard-response,59,525444,0.0-46.0-0.0-1.0-1.0,,,,,,,,,,,,,,,5c4765349afd7b000196f770,11:28:40,03/04/2024
,"<div style=""font-size: 10rem; color: #0000FF"">G</div>",,ospan,letter,s7DCY2mN1uOYLG9avI2vcsGXjvF2,html-keyboard-response,60,527207,0.0-46.0-0.0-1.0-2.0,,,,,,,,,,,,,,,5c4765349afd7b000196f770,11:28:40,03/04/2024
10401.40000000596,"<div class = numbox><p style=""font-size: 2.4rem"">Please recall the letters you saw to the best of your ability. If you do not remember a particular letter, use the SKIP button.<br><b>(When you are ready to lock in your answer, press ENTER)</b></p><button id = button_1 class = ""square num-button"" onclick = ""recordClick(this)""><div class = content><div class = numbers>C</div></div></button><button id = button_2 class = ""square num-button"" onclick = ""recordClick(this)""><div class = content><div class = numbers>G</div></div></button><button id = button_3 class = ""square num-button"" onclick = ""recordClick(this)""><div class = content><div class = numbers>H</div></div></button><button id = button_4 class = ""square num-button"" onclick = ""recordClick(this)""><div class = content><div class = numbers>J</div></div></button><button id = button_5 class = ""square num-button"" onclick = ""recordClick(this)""><div class = content><div class = numbers>K</div></div></button><button id = button_6 class = ""square num-button"" onclick = ""recordClick(this)""><div class = content><div class = numbers>L</div></div></button><button id = button_7 class = ""square num-button"" onclick = ""recordClick(this)""><div class = content><div class = numbers>N</div></div></button><button id = button_8 class = ""square num-button"" onclick = ""recordClick(this)""><div class = content><div class = numbers>P</div></div></button><button id = button_9 class = ""square num-button"" onclick = ""recordClick(this)""><div class = content><div class = numbers>Q</div></div></button><button id = button_10 class = ""square num-button"" onclick = ""recordClick(this)""><div class = content><div class = numbers>R</div></div></button><button id = button_11 class = ""square num-button"" onclick = ""recordClick(this)""><div class = content><div class = numbers>S</div></div></button><button id = button_12 class = ""square num-button"" onclick = ""recordClick(this)""><div class = content><div class = numbers>Y</div></div></button><button class = clear_button id = ""ClearButton"" onclick = ""clearResponse()"">BACKSPACE</button><button class = blank_button id = ""BlankButton"" onclick = ""blankResponse()"">SKIP</button><p style=""font-size: 2.4rem""><u><b>Current Answer:</b></u></p><br><br><div id=echoed_txt style=""font-size: 5rem; color:blue;""><b></b></div></div>",enter,ospan,retrieval,s7DCY2mN1uOYLG9avI2vcsGXjvF2,html-keyboard-response,61,538372,0.0-46.0-0.0-1.0-3.0,NA,NA,NA,2.0,"[""K"",""G""]","[""K"",""G""]",1.0,2.0,"['<font color=""green"">K</font>', '<font color=""green"">G</font>']",,,,,,5c4765349afd7b000196f770,11:28:40,03/04/2024
1806.0,"['<p style=""font-size:44px"">Letters:<br><br><br><font color=""green"">K</font> <font color=""green"">G</font></p><br><br>']",0,ospan,practice_feedback,s7DCY2mN1uOYLG9avI2vcsGXjvF2,html-button-response,62,540692,0.0-46.0-0.0-1.0-4.0,,,,,,,,,,,,,,,5c4765349afd7b000196f770,11:28:40,03/04/2024
,"<p style=""font-size:75px;"">...</p>",,ospan,iti,s7DCY2mN1uOYLG9avI2vcsGXjvF2,html-keyboard-response,63,541693,0.0-46.0-0.0-2.0-0.0,,,,,,,,,,,,,,,5c4765349afd7b000196f770,11:28:40,03/04/2024
,"<div style=""font-size: 10rem; color: #0000FF"">G</div>",,ospan,letter,s7DCY2mN1uOYLG9avI2vcsGXjvF2,html-keyboard-response,64,542706,0.0-46.0-0.0-2.0-1.0,,,,,,,,,,,,,,,5c4765349afd7b000196f770,11:28:40,03/04/2024
,"<div style=""font-size: 10rem; color: #0000FF"">K</div>",,ospan,letter,s7DCY2mN1uOYLG9avI2vcsGXjvF2,html-keyboard-response,65,544469,0.0-46.0-0.0-2.0-2.0,,,,,,,,,,,,,,,5c4765349afd7b000196f770,11:28:40,03/04/2024
,"<div style=""font-size: 10rem; color: #0000FF"">R</div>",,ospan,letter,s7DCY2mN1uOYLG9avI2vcsGXjvF2,html-keyboard-response,66,546246,0.0-46.0-0.0-2.0-3.0,,,,,,,,,,,,,,,5c4765349afd7b000196f770,11:28:40,03/04/2024
3807.0999999940395,"<div class = numbox><p style=""font-size: 2.4rem"">Please recall the letters you saw to the best of your ability. If you do not remember a particular letter, use the SKIP button.<br><b>(When you are ready to lock in your answer, press ENTER)</b></p><button id = button_1 class = ""square num-button"" onclick = ""recordClick(this)""><div class = content><div class = numbers>C</div></div></button><button id = button_2 class = ""square num-button"" onclick = ""recordClick(this)""><div class = content><div class = numbers>G</div></div></button><button id = button_3 class = ""square num-button"" onclick = ""recordClick(this)""><div class = content><div class = numbers>H</div></div></button><button id = button_4 class = ""square num-button"" onclick = ""recordClick(this)""><div class = content><div class = numbers>J</div></div></button><button id = button_5 class = ""square num-button"" onclick = ""recordClick(this)""><div class = content><div class = numbers>K</div></div></button><button id = button_6 class = ""square num-button"" onclick = ""recordClick(this)""><div class = content><div class = numbers>L</div></div></button><button id = button_7 class = ""square num-button"" onclick = ""recordClick(this)""><div class = content><div class = numbers>N</div></div></button><button id = button_8 class = ""square num-button"" onclick = ""recordClick(this)""><div class = content><div class = numbers>P</div></div></button><button id = button_9 class = ""square num-button"" onclick = ""recordClick(this)""><div class = content><div class = numbers>Q</div></div></button><button id = button_10 class = ""square num-button"" onclick = ""recordClick(this)""><div class = content><div class = numbers>R</div></div></button><button id = button_11 class = ""square num-button"" onclick = ""recordClick(this)""><div class = content><div class = numbers>S</div></div></button><button id = button_12 class = ""square num-button"" onclick = ""recordClick(this)""><div class = content><div class = numbers>Y</div></div></button><button class = clear_button id = ""ClearButton"" onclick = ""clearResponse()"">BACKSPACE</button><button class = blank_button id = ""BlankButton"" onclick = ""blankResponse()"">SKIP</button><p style=""font-size: 2.4rem""><u><b>Current Answer:</b></u></p><br><br><div id=echoed_txt style=""font-size: 5rem; color:blue;""><b></b></div></div>",enter,ospan,retrieval,s7DCY2mN1uOYLG9avI2vcsGXjvF2,html-keyboard-response,67,550820,0.0-46.0-0.0-2.0-4.0,NA,NA,NA,3.0,"[""G"",""K"",""R""]","[""G"",""K"",""R""]",1.0,3.0,"['<font color=""green"">G</font>', '<font color=""green"">K</font>', '<font color=""green"">R</font>']",,,,,,5c4765349afd7b000196f770,11:28:40,03/04/2024
2962.699999988079,"['<p style=""font-size:44px"">Letters:<br><br><br><font color=""green"">G</font> <font color=""green"">K</font> <font color=""green"">R</font></p><br><br>']",0,ospan,practice_feedback,s7DCY2mN1uOYLG9avI2vcsGXjvF2,html-button-response,68,554297,0.0-46.0-0.0-2.0-5.0,,,,,,,,,,,,,,,5c4765349afd7b000196f770,11:28:40,03/04/2024
4805.899999976158,"<div class = 'left_align' style='font-size: 3.25rem; line-height: 1.3;'>Now you will practice doing the <b>symmetry judgment part</b> of the experiment.<br><br>A black and white grid picture will appear on the screen and you have to judge if it is <br>symmetrical or asymetrical.<br><br>A picture is 'mirror' symmetrical if its left half is identical to the right half when flipped.<br>Here are examples of a symmetrical and an asymetrical picture:<br><br><center><img src='Stimuli/img/symm_instructions_extra.png' style='height:420px; width:900'></img></center><br>To judge symmetry, imagine you were to fold each picture down the middle, like a book –<br>would the left half match the right half when folded onto each other?<br><br></div><br>",0,ospan,instruct,s7DCY2mN1uOYLG9avI2vcsGXjvF2,html-button-response,69,559104,0.0-46.0-1.0-0.0-0.0,,,,,,,,,,,,,,,5c4765349afd7b000196f770,11:28:40,03/04/2024
3133.0,"<div class = 'left_align' style='font-size: 3.25rem; line-height: 1.3;'>When you have viewed the picture and determined whether it is symmetrical or not,<br>you can <b>click the Yes or No button</b> below to answer.<br><br>If you take longer than 15 seconds, it will continue automatically<br>and record the answer as an error.</div><br>",0,ospan,instruct,s7DCY2mN1uOYLG9avI2vcsGXjvF2,html-button-response,70,562489,0.0-46.0-1.0-0.0-1.0,,,,,,,,,,,,,,,5c4765349afd7b000196f770,11:28:40,03/04/2024
3533.2999999821186,"<div class = 'left_align' style='font-size: 3.25rem; line-height: 1.3;'>It is <b>very</b> important that you make the symmetry judgment correctly.<br><br>It is also important that you try and judge the picture as quickly as you can.<br><br>When you are ready, click on the button below to try some practice problems.</div><br><br><br><br>",0,ospan,instruct,s7DCY2mN1uOYLG9avI2vcsGXjvF2,html-button-response,71,566274,0.0-46.0-1.0-0.0-2.0,,,,,,,,,,,,,,,5c4765349afd7b000196f770,11:28:40,03/04/2024
4419.0,,,ospan,symmetry,s7DCY2mN1uOYLG9avI2vcsGXjvF2,symmetry-judgement-task,72,571493,0.0-46.0-1.0-1.0-0.0,,,,,,,,,,1.0,1.0,,,,5c4765349afd7b000196f770,11:28:40,03/04/2024
,"<p style=""color:green; font-size: 35px"">Correct</p>",,ospan,feedback,s7DCY2mN1uOYLG9avI2vcsGXjvF2,html-keyboard-response,73,572249,0.0-46.0-1.0-1.0-1.0,,,,,,,,,,,,,,,5c4765349afd7b000196f770,11:28:40,03/04/2024
1909.0,,,ospan,symmetry,s7DCY2mN1uOYLG9avI2vcsGXjvF2,symmetry-judgement-task,74,576809,0.0-46.0-1.0-1.0-2.0,,,,,,,,,,1.0,1.0,,,,5c4765349afd7b000196f770,11:28:40,03/04/2024
,"<p style=""color:green; font-size: 35px"">Correct</p>",,ospan,feedback,s7DCY2mN1uOYLG9avI2vcsGXjvF2,html-keyboard-response,75,577561,0.0-46.0-1.0-1.0-3.0,,,,,,,,,,,,,,,5c4765349afd7b000196f770,11:28:40,03/04/2024
1934.0,,,ospan,symmetry,s7DCY2mN1uOYLG9avI2vcsGXjvF2,symmetry-judgement-task,76,582151,0.0-46.0-1.0-1.0-4.0,,,,,,,,,,1.0,1.0,,,,5c4765349afd7b000196f770,11:28:40,03/04/2024
,"<p style=""color:green; font-size: 35px"">Correct</p>",,ospan,feedback,s7DCY2mN1uOYLG9avI2vcsGXjvF2,html-keyboard-response,77,582918,0.0-46.0-1.0-1.0-5.0,,,,,,,,,,,,,,,5c4765349afd7b000196f770,11:28:40,03/04/2024
33072.09999999404,"<p style=""font-size: 3rem;"">You responded correctly on 3 of 3 symmetry judgments. Good job!</p><br><br>",0,ospan,practice,s7DCY2mN1uOYLG9avI2vcsGXjvF2,html-button-response,78,617998,0.0-46.0-1.0-2.0,,,,,,,,,,,,,,,5c4765349afd7b000196f770,11:28:40,03/04/2024
34292.90000000596,"<div class = 'left_align' style='font-size: 3.25rem; line-height: 1.3;'>Now you will practice doing both parts of the experiment at the same time.<br><br>In the next practice set, you will be given one grid picture to judge.<br>Then letter will appear on the screen. Try to remember the letter.<br><br>It is <b>very important</b> to make the symmetry judgment as quickly and accurately as possible.<br><br>Just as before, once you have make the symmetry judgment, you can click Yes or No.<br><b>Note that you will no longer see Correct or Incorrect feedback.</div><br><br><br><br>",0,ospan,instruct,s7DCY2mN1uOYLG9avI2vcsGXjvF2,html-button-response,79,652553,0.0-46.0-2.0-0.0-0.0,,,,,,,,,,,,,,,5c4765349afd7b000196f770,11:28:40,03/04/2024
3128.0,"<div class = 'left_align' style='font-size: 3.25rem; line-height: 1.3;'>After the letter goes away, another grid picture will appear, and then<br>another letter.<br><br>At the end of each set of letters and grids, you will recall the letters to the best<br>of your ability. Remember, try your best to get the letters in the correct order.<br><br>It is important to <b>quickly</b> and <b>accurately</b> make the symmetry judgments.</div><br><br><br><br>",0,ospan,instruct,s7DCY2mN1uOYLG9avI2vcsGXjvF2,html-button-response,80,655933,0.0-46.0-2.0-0.0-1.0,,,,,,,,,,,,,,,5c4765349afd7b000196f770,11:28:40,03/04/2024
9357.300000011921,"<div class = 'left_align' style='font-size: 3.25rem; line-height: 1.3;'>On the feedback screen, if you are not doing well at the symmetry judgments,<br>you will also see a warning in the middle. This indicates your percent <br>correct for the grid pictures for the entire experiment.<br><br>It is <b>very</b> important for you to keep accuracy at least at 85%: <u>We can only use<br>data where the participant was at least 85% accurate on the judgments.</u> Therefore,<br> please try your best to perform well on the symmetry judgments, <b>at the same time</b><br>doing your best to recall as many letters as possible.<br><br>Click the button to try some practice problems.</div><br><br><br><br>",0,ospan,instruct,s7DCY2mN1uOYLG9avI2vcsGXjvF2,html-button-response,81,665548,0.0-46.0-2.0-0.0-2.0,,,,,,,,,,,,,,,5c4765349afd7b000196f770,11:28:40,03/04/2024
,"<p style=""font-size:75px;"">...</p>",,ospan,iti,s7DCY2mN1uOYLG9avI2vcsGXjvF2,html-keyboard-response,82,666801,0.0-46.0-2.0-1.0-0.0,,,,,,,,,,,,,,,5c4765349afd7b000196f770,11:28:40,03/04/2024
2745.0,,,ospan,symmetry,s7DCY2mN1uOYLG9avI2vcsGXjvF2,symmetry-judgement-task,83,670697,0.0-46.0-2.0-1.0-1.0-0.0,,,,,,,,,,1.0,1.0,,,,5c4765349afd7b000196f770,11:28:40,03/04/2024
,"<div style=""font-size: 10rem; color: #0000FF"">P</div>",,ospan,letter,s7DCY2mN1uOYLG9avI2vcsGXjvF2,html-keyboard-response,84,671702,0.0-46.0-2.0-1.0-1.0-1.0,,,,,,,,,,,,,,,5c4765349afd7b000196f770,11:28:40,03/04/2024
2146.0,,,ospan,symmetry,s7DCY2mN1uOYLG9avI2vcsGXjvF2,symmetry-judgement-task,85,675771,0.0-46.0-2.0-1.0-1.0-2.0,,,,,,,,,,1.0,1.0,,,,5c4765349afd7b000196f770,11:28:40,03/04/2024
,"<div style=""font-size: 10rem; color: #0000FF"">L</div>",,ospan,letter,s7DCY2mN1uOYLG9avI2vcsGXjvF2,html-keyboard-response,86,676784,0.0-46.0-2.0-1.0-1.0-3.0,,,,,,,,,,,,,,,5c4765349afd7b000196f770,11:28:40,03/04/2024
2184.0,,,ospan,symmetry,s7DCY2mN1uOYLG9avI2vcsGXjvF2,symmetry-judgement-task,87,680886,0.0-46.0-2.0-1.0-1.0-4.0,,,,,,,,,,1.0,1.0,,,,5c4765349afd7b000196f770,11:28:40,03/04/2024
,"<div style=""font-size: 10rem; color: #0000FF"">K</div>",,ospan,letter,s7DCY2mN1uOYLG9avI2vcsGXjvF2,html-keyboard-response,88,681898,0.0-46.0-2.0-1.0-1.0-5.0,,,,,,,,,,,,,,,5c4765349afd7b000196f770,11:28:40,03/04/2024
3708.899999976158,"<div class = numbox><p style=""font-size: 2.4rem"">Please recall the letters you saw to the best of your ability. If you do not remember a particular letter, use the SKIP button.<br><b>(When you are ready to lock in your answer, press ENTER)</b></p><button id = button_1 class = ""square num-button"" onclick = ""recordClick(this)""><div class = content><div class = numbers>C</div></div></button><button id = button_2 class = ""square num-button"" onclick = ""recordClick(this)""><div class = content><div class = numbers>G</div></div></button><button id = button_3 class = ""square num-button"" onclick = ""recordClick(this)""><div class = content><div class = numbers>H</div></div></button><button id = button_4 class = ""square num-button"" onclick = ""recordClick(this)""><div class = content><div class = numbers>J</div></div></button><button id = button_5 class = ""square num-button"" onclick = ""recordClick(this)""><div class = content><div class = numbers>K</div></div></button><button id = button_6 class = ""square num-button"" onclick = ""recordClick(this)""><div class = content><div class = numbers>L</div></div></button><button id = button_7 class = ""square num-button"" onclick = ""recordClick(this)""><div class = content><div class = numbers>N</div></div></button><button id = button_8 class = ""square num-button"" onclick = ""recordClick(this)""><div class = content><div class = numbers>P</div></div></button><button id = button_9 class = ""square num-button"" onclick = ""recordClick(this)""><div class = content><div class = numbers>Q</div></div></button><button id = button_10 class = ""square num-button"" onclick = ""recordClick(this)""><div class = content><div class = numbers>R</div></div></button><button id = button_11 class = ""square num-button"" onclick = ""recordClick(this)""><div class = content><div class = numbers>S</div></div></button><button id = button_12 class = ""square num-button"" onclick = ""recordClick(this)""><div class = content><div class = numbers>Y</div></div></button><button class = clear_button id = ""ClearButton"" onclick = ""clearResponse()"">BACKSPACE</button><button class = blank_button id = ""BlankButton"" onclick = ""blankResponse()"">SKIP</button><p style=""font-size: 2.4rem""><u><b>Current Answer:</b></u></p><br><br><div id=echoed_txt style=""font-size: 5rem; color:blue;""><b></b></div></div>",enter,ospan,retrieval,s7DCY2mN1uOYLG9avI2vcsGXjvF2,html-keyboard-response,89,686372,0.0-46.0-2.0-1.0-2.0-0.0,NA,NA,NA,3.0,"[""P"",""L"",""K""]","[""P"",""L"",""K""]",1.0,3.0,"['<font color=""green"">P</font>', '<font color=""green"">L</font>', '<font color=""green"">K</font>']",,,,,,5c4765349afd7b000196f770,11:28:40,03/04/2024
1032.4000000059605,"['<p style=""font-size:44px"">Letters:<br><br><br><font color=""green"">P</font> <font color=""green"">L</font> <font color=""green"">K</font></p><br><br><p style=""font-size:30px"">Symmetry:<br><br><font color=""green"">100%</font></p><br><br>']",0,ospan,practice_feedback,s7DCY2mN1uOYLG9avI2vcsGXjvF2,html-button-response,90,687921,0.0-46.0-2.0-1.0-2.0-1.0,,,,,,,,,,,,,,,5c4765349afd7b000196f770,11:28:40,03/04/2024
,"<p style=""font-size:75px;"">...</p>",,ospan,iti,s7DCY2mN1uOYLG9avI2vcsGXjvF2,html-keyboard-response,91,688926,0.0-46.0-2.0-2.0-0.0,,,,,,,,,,,,,,,5c4765349afd7b000196f770,11:28:40,03/04/2024
2043.0,,,ospan,symmetry,s7DCY2mN1uOYLG9avI2vcsGXjvF2,symmetry-judgement-task,92,692122,0.0-46.0-2.0-2.0-1.0-0.0,,,,,,,,,,1.0,1.0,,,,5c4765349afd7b000196f770,11:28:40,03/04/2024
,"<div style=""font-size: 10rem; color: #0000FF"">R</div>",,ospan,letter,s7DCY2mN1uOYLG9avI2vcsGXjvF2,html-keyboard-response,93,693133,0.0-46.0-2.0-2.0-1.0-1.0,,,,,,,,,,,,,,,5c4765349afd7b000196f770,11:28:40,03/04/2024
1628.0,,,ospan,symmetry,s7DCY2mN1uOYLG9avI2vcsGXjvF2,symmetry-judgement-task,94,696679,0.0-46.0-2.0-2.0-1.0-2.0,,,,,,,,,,1.0,1.0,,,,5c4765349afd7b000196f770,11:28:40,03/04/2024
,"<div style=""font-size: 10rem; color: #0000FF"">J</div>",,ospan,letter,s7DCY2mN1uOYLG9avI2vcsGXjvF2,html-keyboard-response,95,697690,0.0-46.0-2.0-2.0-1.0-3.0,,,,,,,,,,,,,,,5c4765349afd7b000196f770,11:28:40,03/04/2024
2067.0,,,ospan,symmetry,s7DCY2mN1uOYLG9avI2vcsGXjvF2,symmetry-judgement-task,96,701689,0.0-46.0-2.0-2.0-1.0-4.0,,,,,,,,,,1.0,1.0,,,,5c4765349afd7b000196f770,11:28:40,03/04/2024
,"<div style=""font-size: 10rem; color: #0000FF"">L</div>",,ospan,letter,s7DCY2mN1uOYLG9avI2vcsGXjvF2,html-keyboard-response,97,702704,0.0-46.0-2.0-2.0-1.0-5.0,,,,,,,,,,,,,,,5c4765349afd7b000196f770,11:28:40,03/04/2024
5082.199999988079,"<div class = numbox><p style=""font-size: 2.4rem"">Please recall the letters you saw to the best of your ability. If you do not remember a particular letter, use the SKIP button.<br><b>(When you are ready to lock in your answer, press ENTER)</b></p><button id = button_1 class = ""square num-button"" onclick = ""recordClick(this)""><div class = content><div class = numbers>C</div></div></button><button id = button_2 class = ""square num-button"" onclick = ""recordClick(this)""><div class = content><div class = numbers>G</div></div></button><button id = button_3 class = ""square num-button"" onclick = ""recordClick(this)""><div class = content><div class = numbers>H</div></div></button><button id = button_4 class = ""square num-button"" onclick = ""recordClick(this)""><div class = content><div class = numbers>J</div></div></button><button id = button_5 class = ""square num-button"" onclick = ""recordClick(this)""><div class = content><div class = numbers>K</div></div></button><button id = button_6 class = ""square num-button"" onclick = ""recordClick(this)""><div class = content><div class = numbers>L</div></div></button><button id = button_7 class = ""square num-button"" onclick = ""recordClick(this)""><div class = content><div class = numbers>N</div></div></button><button id = button_8 class = ""square num-button"" onclick = ""recordClick(this)""><div class = content><div class = numbers>P</div></div></button><button id = button_9 class = ""square num-button"" onclick = ""recordClick(this)""><div class = content><div class = numbers>Q</div></div></button><button id = button_10 class = ""square num-button"" onclick = ""recordClick(this)""><div class = content><div class = numbers>R</div></div></button><button id = button_11 class = ""square num-button"" onclick = ""recordClick(this)""><div class = content><div class = numbers>S</div></div></button><button id = button_12 class = ""square num-button"" onclick = ""recordClick(this)""><div class = content><div class = numbers>Y</div></div></button><button class = clear_button id = ""ClearButton"" onclick = ""clearResponse()"">BACKSPACE</button><button class = blank_button id = ""BlankButton"" onclick = ""blankResponse()"">SKIP</button><p style=""font-size: 2.4rem""><u><b>Current Answer:</b></u></p><br><br><div id=echoed_txt style=""font-size: 5rem; color:blue;""><b></b></div></div>",enter,ospan,retrieval,s7DCY2mN1uOYLG9avI2vcsGXjvF2,html-keyboard-response,98,708542,0.0-46.0-2.0-2.0-2.0-0.0,NA,NA,NA,3.0,"[""R"",""J"",""L""]","[""R"",""J"",""L""]",1.0,3.0,"['<font color=""green"">R</font>', '<font color=""green"">J</font>', '<font color=""green"">L</font>']",,,,,,5c4765349afd7b000196f770,11:28:40,03/04/2024
1071.0,"['<p style=""font-size:44px"">Letters:<br><br><br><font color=""green"">R</font> <font color=""green"">J</font> <font color=""green"">L</font></p><br><br><p style=""font-size:30px"">Symmetry:<br><br><font color=""green"">100%</font></p><br><br>']",0,ospan,practice_feedback,s7DCY2mN1uOYLG9avI2vcsGXjvF2,html-button-response,99,710123,0.0-46.0-2.0-2.0-2.0-1.0,,,,,,,,,,,,,,,5c4765349afd7b000196f770,11:28:40,03/04/2024
11600.59999999404,"<div class = 'left_align' style='font-size: 3rem; line-height: 1.3;'><b>Great work! That is the end of practice.</b><br><br>The real trials will look just like the practice trials you just completed.<br><br><u>Here, you will not see feedback</u>. First, you will see an grid picture to judge,<br>then a letter to remember. When the recall screen appears, report the letters in the<br>order presented. If you forget a letter, remember to use the <b>blank</b> button to move to the<br>next letter. Some of the sets will have more symmetry grids and letters than others.<br><br>It is important that you do your best on both the symmetry judgments and the letter recall<br>parts of the experiment. For for the symmetry judgments, try to work as <b>quickly</b> and <br>as <b>accurately</b> as possible. Remember to keep your symmetry accuracy at 85% or above.<br><br><b>For the letters, do NOT use any external aid (e.g., writing on paper, electronic device).</b><br><br>It is <u>very important</u> to our experiment to have a <b>true</b> view of your real performance.<br><br>Do not worry if you miss some when it gets hard! This task is meant to be very challenging!<br><br>Click the button to begin.</div><br><br><br><br>",0,ospan,starting_real_here,s7DCY2mN1uOYLG9avI2vcsGXjvF2,html-button-response,100,721725,0.0-46.0-2.0-3.0,,,,,,,,,,,,,,,5c4765349afd7b000196f770,11:28:40,03/04/2024
,"<p style=""font-size:75px;"">...</p>",,ospan,iti,s7DCY2mN1uOYLG9avI2vcsGXjvF2,html-keyboard-response,101,722987,0.0-46.0-3.0-0.0-0.0,,,,,,,,,,,,,,,5c4765349afd7b000196f770,11:28:40,03/04/2024
2215.0,,,ospan,symmetry,s7DCY2mN1uOYLG9avI2vcsGXjvF2,symmetry-judgement-task,102,726246,0.0-46.0-3.0-0.0-1.0-0.0,,,,,,,,,,1.0,1.0,,,,5c4765349afd7b000196f770,11:28:40,03/04/2024
,"<div style=""font-size: 10rem; color: #0000FF"">H</div>",,ospan,letter,s7DCY2mN1uOYLG9avI2vcsGXjvF2,html-keyboard-response,103,727260,0.0-46.0-3.0-0.0-1.0-1.0,,,,,,,,,,,,,,,5c4765349afd7b000196f770,11:28:40,03/04/2024
1916.0,,,ospan,symmetry,s7DCY2mN1uOYLG9avI2vcsGXjvF2,symmetry-judgement-task,104,731071,0.0-46.0-3.0-0.0-1.0-2.0,,,,,,,,,,1.0,1.0,,,,5c4765349afd7b000196f770,11:28:40,03/04/2024
,"<div style=""font-size: 10rem; color: #0000FF"">Y</div>",,ospan,letter,s7DCY2mN1uOYLG9avI2vcsGXjvF2,html-keyboard-response,105,732085,0.0-46.0-3.0-0.0-1.0-3.0,,,,,,,,,,,,,,,5c4765349afd7b000196f770,11:28:40,03/04/2024
1623.0,,,ospan,symmetry,s7DCY2mN1uOYLG9avI2vcsGXjvF2,symmetry-judgement-task,106,735602,0.0-46.0-3.0-0.0-1.0-4.0,,,,,,,,,,1.0,1.0,,,,5c4765349afd7b000196f770,11:28:40,03/04/2024
,"<div style=""font-size: 10rem; color: #0000FF"">P</div>",,ospan,letter,s7DCY2mN1uOYLG9avI2vcsGXjvF2,html-keyboard-response,107,736614,0.0-46.0-3.0-0.0-1.0-5.0,,,,,,,,,,,,,,,5c4765349afd7b000196f770,11:28:40,03/04/2024
3787.2999999821186,"<div class = numbox><p style=""font-size: 2.4rem"">Please recall the letters you saw to the best of your ability. If you do not remember a particular letter, use the SKIP button.<br><b>(When you are ready to lock in your answer, press ENTER)</b></p><button id = button_1 class = ""square num-button"" onclick = ""recordClick(this)""><div class = content><div class = numbers>C</div></div></button><button id = button_2 class = ""square num-button"" onclick = ""recordClick(this)""><div class = content><div class = numbers>G</div></div></button><button id = button_3 class = ""square num-button"" onclick = ""recordClick(this)""><div class = content><div class = numbers>H</div></div></button><button id = button_4 class = ""square num-button"" onclick = ""recordClick(this)""><div class = content><div class = numbers>J</div></div></button><button id = button_5 class = ""square num-button"" onclick = ""recordClick(this)""><div class = content><div class = numbers>K</div></div></button><button id = button_6 class = ""square num-button"" onclick = ""recordClick(this)""><div class = content><div class = numbers>L</div></div></button><button id = button_7 class = ""square num-button"" onclick = ""recordClick(this)""><div class = content><div class = numbers>N</div></div></button><button id = button_8 class = ""square num-button"" onclick = ""recordClick(this)""><div class = content><div class = numbers>P</div></div></button><button id = button_9 class = ""square num-button"" onclick = ""recordClick(this)""><div class = content><div class = numbers>Q</div></div></button><button id = button_10 class = ""square num-button"" onclick = ""recordClick(this)""><div class = content><div class = numbers>R</div></div></button><button id = button_11 class = ""square num-button"" onclick = ""recordClick(this)""><div class = content><div class = numbers>S</div></div></button><button id = button_12 class = ""square num-button"" onclick = ""recordClick(this)""><div class = content><div class = numbers>Y</div></div></button><button class = clear_button id = ""ClearButton"" onclick = ""clearResponse()"">BACKSPACE</button><button class = blank_button id = ""BlankButton"" onclick = ""blankResponse()"">SKIP</button><p style=""font-size: 2.4rem""><u><b>Current Answer:</b></u></p><br><br><div id=echoed_txt style=""font-size: 5rem; color:blue;""><b></b></div></div>",enter,ospan,retrieval,s7DCY2mN1uOYLG9avI2vcsGXjvF2,html-keyboard-response,108,741156,0.0-46.0-3.0-0.0-2.0,3,3,3,3.0,"[""H"",""Y"",""P""]","[""H"",""Y"",""P""]",1.0,3.0,,,,,,,5c4765349afd7b000196f770,11:28:40,03/04/2024
998.0,[''],0,ospan,feedback,s7DCY2mN1uOYLG9avI2vcsGXjvF2,html-button-response,109,742666,0.0-46.0-3.0-0.0-3.0,,,,,,,,,,,,100.0,0.0,,5c4765349afd7b000196f770,11:28:40,03/04/2024
,"<p style=""font-size:75px;"">...</p>",,ospan,iti,s7DCY2mN1uOYLG9avI2vcsGXjvF2,html-keyboard-response,110,743667,0.0-46.0-4.0-0.0-0.0,,,,,,,,,,,,,,,5c4765349afd7b000196f770,11:28:40,03/04/2024
1514.0,,,ospan,symmetry,s7DCY2mN1uOYLG9avI2vcsGXjvF2,symmetry-judgement-task,111,746339,0.0-46.0-4.0-0.0-1.0-0.0,,,,,,,,,,1.0,1.0,,,,5c4765349afd7b000196f770,11:28:40,03/04/2024
,"<div style=""font-size: 10rem; color: #0000FF"">P</div>",,ospan,letter,s7DCY2mN1uOYLG9avI2vcsGXjvF2,html-keyboard-response,112,747353,0.0-46.0-4.0-0.0-1.0-1.0,,,,,,,,,,,,,,,5c4765349afd7b000196f770,11:28:40,03/04/2024
2883.0,,,ospan,symmetry,s7DCY2mN1uOYLG9avI2vcsGXjvF2,symmetry-judgement-task,113,752159,0.0-46.0-4.0-0.0-1.0-2.0,,,,,,,,,,1.0,1.0,,,,5c4765349afd7b000196f770,11:28:40,03/04/2024
,"<div style=""font-size: 10rem; color: #0000FF"">S</div>",,ospan,letter,s7DCY2mN1uOYLG9avI2vcsGXjvF2,html-keyboard-response,114,753169,0.0-46.0-4.0-0.0-1.0-3.0,,,,,,,,,,,,,,,5c4765349afd7b000196f770,11:28:40,03/04/2024
2033.0,,,ospan,symmetry,s7DCY2mN1uOYLG9avI2vcsGXjvF2,symmetry-judgement-task,115,757117,0.0-46.0-4.0-0.0-1.0-4.0,,,,,,,,,,1.0,1.0,,,,5c4765349afd7b000196f770,11:28:40,03/04/2024
,"<div style=""font-size: 10rem; color: #0000FF"">K</div>",,ospan,letter,s7DCY2mN1uOYLG9avI2vcsGXjvF2,html-keyboard-response,116,758127,0.0-46.0-4.0-0.0-1.0-5.0,,,,,,,,,,,,,,,5c4765349afd7b000196f770,11:28:40,03/04/2024
1191.0,,,ospan,symmetry,s7DCY2mN1uOYLG9avI2vcsGXjvF2,symmetry-judgement-task,117,761240,0.0-46.0-4.0-0.0-1.0-6.0,,,,,,,,,,1.0,1.0,,,,5c4765349afd7b000196f770,11:28:40,03/04/2024
,"<div style=""font-size: 10rem; color: #0000FF"">H</div>",,ospan,letter,s7DCY2mN1uOYLG9avI2vcsGXjvF2,html-keyboard-response,118,762249,0.0-46.0-4.0-0.0-1.0-7.0,,,,,,,,,,,,,,,5c4765349afd7b000196f770,11:28:40,03/04/2024
5369.799999982119,"<div class = numbox><p style=""font-size: 2.4rem"">Please recall the letters you saw to the best of your ability. If you do not remember a particular letter, use the SKIP button.<br><b>(When you are ready to lock in your answer, press ENTER)</b></p><button id = button_1 class = ""square num-button"" onclick = ""recordClick(this)""><div class = content><div class = numbers>C</div></div></button><button id = button_2 class = ""square num-button"" onclick = ""recordClick(this)""><div class = content><div class = numbers>G</div></div></button><button id = button_3 class = ""square num-button"" onclick = ""recordClick(this)""><div class = content><div class = numbers>H</div></div></button><button id = button_4 class = ""square num-button"" onclick = ""recordClick(this)""><div class = content><div class = numbers>J</div></div></button><button id = button_5 class = ""square num-button"" onclick = ""recordClick(this)""><div class = content><div class = numbers>K</div></div></button><button id = button_6 class = ""square num-button"" onclick = ""recordClick(this)""><div class = content><div class = numbers>L</div></div></button><button id = button_7 class = ""square num-button"" onclick = ""recordClick(this)""><div class = content><div class = numbers>N</div></div></button><button id = button_8 class = ""square num-button"" onclick = ""recordClick(this)""><div class = content><div class = numbers>P</div></div></button><button id = button_9 class = ""square num-button"" onclick = ""recordClick(this)""><div class = content><div class = numbers>Q</div></div></button><button id = button_10 class = ""square num-button"" onclick = ""recordClick(this)""><div class = content><div class = numbers>R</div></div></button><button id = button_11 class = ""square num-button"" onclick = ""recordClick(this)""><div class = content><div class = numbers>S</div></div></button><button id = button_12 class = ""square num-button"" onclick = ""recordClick(this)""><div class = content><div class = numbers>Y</div></div></button><button class = clear_button id = ""ClearButton"" onclick = ""clearResponse()"">BACKSPACE</button><button class = blank_button id = ""BlankButton"" onclick = ""blankResponse()"">SKIP</button><p style=""font-size: 2.4rem""><u><b>Current Answer:</b></u></p><br><br><div id=echoed_txt style=""font-size: 5rem; color:blue;""><b></b></div></div>",enter,ospan,retrieval,s7DCY2mN1uOYLG9avI2vcsGXjvF2,html-keyboard-response,119,768386,0.0-46.0-4.0-0.0-2.0,7,7,7,4.0,"[""P"",""S"",""K"",""H""]","[""P"",""S"",""K"",""H""]",1.0,4.0,,,,,,,5c4765349afd7b000196f770,11:28:40,03/04/2024
994.3000000119209,[''],0,ospan,feedback,s7DCY2mN1uOYLG9avI2vcsGXjvF2,html-button-response,120,769885,0.0-46.0-4.0-0.0-3.0,,,,,,,,,,,,100.0,0.0,,5c4765349afd7b000196f770,11:28:40,03/04/2024
,"<p style=""font-size:75px;"">...</p>",,ospan,iti,s7DCY2mN1uOYLG9avI2vcsGXjvF2,html-keyboard-response,121,770887,0.0-46.0-4.0-1.0-0.0,,,,,,,,,,,,,,,5c4765349afd7b000196f770,11:28:40,03/04/2024
2337.0,,,ospan,symmetry,s7DCY2mN1uOYLG9avI2vcsGXjvF2,symmetry-judgement-task,122,774380,0.0-46.0-4.0-1.0-1.0-0.0,,,,,,,,,,1.0,1.0,,,,5c4765349afd7b000196f770,11:28:40,03/04/2024
,"<div style=""font-size: 10rem; color: #0000FF"">H</div>",,ospan,letter,s7DCY2mN1uOYLG9avI2vcsGXjvF2,html-keyboard-response,123,775394,0.0-46.0-4.0-1.0-1.0-1.0,,,,,,,,,,,,,,,5c4765349afd7b000196f770,11:28:40,03/04/2024
1245.0,,,ospan,symmetry,s7DCY2mN1uOYLG9avI2vcsGXjvF2,symmetry-judgement-task,124,778555,0.0-46.0-4.0-1.0-1.0-2.0,,,,,,,,,,1.0,1.0,,,,5c4765349afd7b000196f770,11:28:40,03/04/2024
,"<div style=""font-size: 10rem; color: #0000FF"">J</div>",,ospan,letter,s7DCY2mN1uOYLG9avI2vcsGXjvF2,html-keyboard-response,125,779570,0.0-46.0-4.0-1.0-1.0-3.0,,,,,,,,,,,,,,,5c4765349afd7b000196f770,11:28:40,03/04/2024
1279.0,,,ospan,symmetry,s7DCY2mN1uOYLG9avI2vcsGXjvF2,symmetry-judgement-task,126,782760,0.0-46.0-4.0-1.0-1.0-4.0,,,,,,,,,,1.0,1.0,,,,5c4765349afd7b000196f770,11:28:40,03/04/2024
,"<div style=""font-size: 10rem; color: #0000FF"">Q</div>",,ospan,letter,s7DCY2mN1uOYLG9avI2vcsGXjvF2,html-keyboard-response,127,783781,0.0-46.0-4.0-1.0-1.0-5.0,,,,,,,,,,,,,,,5c4765349afd7b000196f770,11:28:40,03/04/2024
2103.0,,,ospan,symmetry,s7DCY2mN1uOYLG9avI2vcsGXjvF2,symmetry-judgement-task,128,787790,0.0-46.0-4.0-1.0-1.0-6.0,,,,,,,,,,1.0,1.0,,,,5c4765349afd7b000196f770,11:28:40,03/04/2024
,"<div style=""font-size: 10rem; color: #0000FF"">P</div>",,ospan,letter,s7DCY2mN1uOYLG9avI2vcsGXjvF2,html-keyboard-response,129,788801,0.0-46.0-4.0-1.0-1.0-7.0,,,,,,,,,,,,,,,5c4765349afd7b000196f770,11:28:40,03/04/2024
1181.0,,,ospan,symmetry,s7DCY2mN1uOYLG9avI2vcsGXjvF2,symmetry-judgement-task,130,791897,0.0-46.0-4.0-1.0-1.0-8.0,,,,,,,,,,1.0,1.0,,,,5c4765349afd7b000196f770,11:28:40,03/04/2024
,"<div style=""font-size: 10rem; color: #0000FF"">C</div>",,ospan,letter,s7DCY2mN1uOYLG9avI2vcsGXjvF2,html-keyboard-response,131,792909,0.0-46.0-4.0-1.0-1.0-9.0,,,,,,,,,,,,,,,5c4765349afd7b000196f770,11:28:40,03/04/2024
8002.0,"<div class = numbox><p style=""font-size: 2.4rem"">Please recall the letters you saw to the best of your ability. If you do not remember a particular letter, use the SKIP button.<br><b>(When you are ready to lock in your answer, press ENTER)</b></p><button id = button_1 class = ""square num-button"" onclick = ""recordClick(this)""><div class = content><div class = numbers>C</div></div></button><button id = button_2 class = ""square num-button"" onclick = ""recordClick(this)""><div class = content><div class = numbers>G</div></div></button><button id = button_3 class = ""square num-button"" onclick = ""recordClick(this)""><div class = content><div class = numbers>H</div></div></button><button id = button_4 class = ""square num-button"" onclick = ""recordClick(this)""><div class = content><div class = numbers>J</div></div></button><button id = button_5 class = ""square num-button"" onclick = ""recordClick(this)""><div class = content><div class = numbers>K</div></div></button><button id = button_6 class = ""square num-button"" onclick = ""recordClick(this)""><div class = content><div class = numbers>L</div></div></button><button id = button_7 class = ""square num-button"" onclick = ""recordClick(this)""><div class = content><div class = numbers>N</div></div></button><button id = button_8 class = ""square num-button"" onclick = ""recordClick(this)""><div class = content><div class = numbers>P</div></div></button><button id = button_9 class = ""square num-button"" onclick = ""recordClick(this)""><div class = content><div class = numbers>Q</div></div></button><button id = button_10 class = ""square num-button"" onclick = ""recordClick(this)""><div class = content><div class = numbers>R</div></div></button><button id = button_11 class = ""square num-button"" onclick = ""recordClick(this)""><div class = content><div class = numbers>S</div></div></button><button id = button_12 class = ""square num-button"" onclick = ""recordClick(this)""><div class = content><div class = numbers>Y</div></div></button><button class = clear_button id = ""ClearButton"" onclick = ""clearResponse()"">BACKSPACE</button><button class = blank_button id = ""BlankButton"" onclick = ""blankResponse()"">SKIP</button><p style=""font-size: 2.4rem""><u><b>Current Answer:</b></u></p><br><br><div id=echoed_txt style=""font-size: 5rem; color:blue;""><b></b></div></div>",enter,ospan,retrieval,s7DCY2mN1uOYLG9avI2vcsGXjvF2,html-keyboard-response,132,801663,0.0-46.0-4.0-1.0-2.0,12,12,12,5.0,"[""H"",""J"",""Q"",""P"",""C""]","[""H"",""J"",""Q"",""P"",""C""]",1.0,5.0,,,,,,,5c4765349afd7b000196f770,11:28:40,03/04/2024
965.5,[''],0,ospan,feedback,s7DCY2mN1uOYLG9avI2vcsGXjvF2,html-button-response,133,803132,0.0-46.0-4.0-1.0-3.0,,,,,,,,,,,,100.0,0.0,,5c4765349afd7b000196f770,11:28:40,03/04/2024
,"<p style=""font-size:75px;"">...</p>",,ospan,iti,s7DCY2mN1uOYLG9avI2vcsGXjvF2,html-keyboard-response,134,804143,0.0-46.0-4.0-2.0-0.0,,,,,,,,,,,,,,,5c4765349afd7b000196f770,11:28:40,03/04/2024
1307.0,,,ospan,symmetry,s7DCY2mN1uOYLG9avI2vcsGXjvF2,symmetry-judgement-task,135,806599,0.0-46.0-4.0-2.0-1.0-0.0,,,,,,,,,,1.0,1.0,,,,5c4765349afd7b000196f770,11:28:40,03/04/2024
,"<div style=""font-size: 10rem; color: #0000FF"">Q</div>",,ospan,letter,s7DCY2mN1uOYLG9avI2vcsGXjvF2,html-keyboard-response,136,807606,0.0-46.0-4.0-2.0-1.0-1.0,,,,,,,,,,,,,,,5c4765349afd7b000196f770,11:28:40,03/04/2024
1432.0,,,ospan,symmetry,s7DCY2mN1uOYLG9avI2vcsGXjvF2,symmetry-judgement-task,137,810943,0.0-46.0-4.0-2.0-1.0-2.0,,,,,,,,,,1.0,1.0,,,,5c4765349afd7b000196f770,11:28:40,03/04/2024
,"<div style=""font-size: 10rem; color: #0000FF"">H</div>",,ospan,letter,s7DCY2mN1uOYLG9avI2vcsGXjvF2,html-keyboard-response,138,811959,0.0-46.0-4.0-2.0-1.0-3.0,,,,,,,,,,,,,,,5c4765349afd7b000196f770,11:28:40,03/04/2024
981.0,,,ospan,symmetry,s7DCY2mN1uOYLG9avI2vcsGXjvF2,symmetry-judgement-task,139,814842,0.0-46.0-4.0-2.0-1.0-4.0,,,,,,,,,,1.0,1.0,,,,5c4765349afd7b000196f770,11:28:40,03/04/2024
,"<div style=""font-size: 10rem; color: #0000FF"">Y</div>",,ospan,letter,s7DCY2mN1uOYLG9avI2vcsGXjvF2,html-keyboard-response,140,815858,0.0-46.0-4.0-2.0-1.0-5.0,,,,,,,,,,,,,,,5c4765349afd7b000196f770,11:28:40,03/04/2024
4066.899999976158,"<div class = numbox><p style=""font-size: 2.4rem"">Please recall the letters you saw to the best of your ability. If you do not remember a particular letter, use the SKIP button.<br><b>(When you are ready to lock in your answer, press ENTER)</b></p><button id = button_1 class = ""square num-button"" onclick = ""recordClick(this)""><div class = content><div class = numbers>C</div></div></button><button id = button_2 class = ""square num-button"" onclick = ""recordClick(this)""><div class = content><div class = numbers>G</div></div></button><button id = button_3 class = ""square num-button"" onclick = ""recordClick(this)""><div class = content><div class = numbers>H</div></div></button><button id = button_4 class = ""square num-button"" onclick = ""recordClick(this)""><div class = content><div class = numbers>J</div></div></button><button id = button_5 class = ""square num-button"" onclick = ""recordClick(this)""><div class = content><div class = numbers>K</div></div></button><button id = button_6 class = ""square num-button"" onclick = ""recordClick(this)""><div class = content><div class = numbers>L</div></div></button><button id = button_7 class = ""square num-button"" onclick = ""recordClick(this)""><div class = content><div class = numbers>N</div></div></button><button id = button_8 class = ""square num-button"" onclick = ""recordClick(this)""><div class = content><div class = numbers>P</div></div></button><button id = button_9 class = ""square num-button"" onclick = ""recordClick(this)""><div class = content><div class = numbers>Q</div></div></button><button id = button_10 class = ""square num-button"" onclick = ""recordClick(this)""><div class = content><div class = numbers>R</div></div></button><button id = button_11 class = ""square num-button"" onclick = ""recordClick(this)""><div class = content><div class = numbers>S</div></div></button><button id = button_12 class = ""square num-button"" onclick = ""recordClick(this)""><div class = content><div class = numbers>Y</div></div></button><button class = clear_button id = ""ClearButton"" onclick = ""clearResponse()"">BACKSPACE</button><button class = blank_button id = ""BlankButton"" onclick = ""blankResponse()"">SKIP</button><p style=""font-size: 2.4rem""><u><b>Current Answer:</b></u></p><br><br><div id=echoed_txt style=""font-size: 5rem; color:blue;""><b></b></div></div>",enter,ospan,retrieval,s7DCY2mN1uOYLG9avI2vcsGXjvF2,html-keyboard-response,141,820679,0.0-46.0-4.0-2.0-2.0,15,15,15,3.0,"[""Q"",""H"",""Y""]","[""Q"",""H"",""Y""]",1.0,3.0,,,,,,,5c4765349afd7b000196f770,11:28:40,03/04/2024
971.0,[''],0,ospan,feedback,s7DCY2mN1uOYLG9avI2vcsGXjvF2,html-button-response,142,822156,0.0-46.0-4.0-2.0-3.0,,,,,,,,,,,,100.0,0.0,,5c4765349afd7b000196f770,11:28:40,03/04/2024
,"<p style=""font-size:75px;"">...</p>",,ospan,iti,s7DCY2mN1uOYLG9avI2vcsGXjvF2,html-keyboard-response,143,823158,0.0-46.0-5.0-0.0-0.0,,,,,,,,,,,,,,,5c4765349afd7b000196f770,11:28:40,03/04/2024
1167.0,,,ospan,symmetry,s7DCY2mN1uOYLG9avI2vcsGXjvF2,symmetry-judgement-task,144,825489,0.0-46.0-5.0-0.0-1.0-0.0,,,,,,,,,,1.0,1.0,,,,5c4765349afd7b000196f770,11:28:40,03/04/2024
,"<div style=""font-size: 10rem; color: #0000FF"">H</div>",,ospan,letter,s7DCY2mN1uOYLG9avI2vcsGXjvF2,html-keyboard-response,145,826502,0.0-46.0-5.0-0.0-1.0-1.0,,,,,,,,,,,,,,,5c4765349afd7b000196f770,11:28:40,03/04/2024
1331.0,,,ospan,symmetry,s7DCY2mN1uOYLG9avI2vcsGXjvF2,symmetry-judgement-task,146,829750,0.0-46.0-5.0-0.0-1.0-2.0,,,,,,,,,,1.0,1.0,,,,5c4765349afd7b000196f770,11:28:40,03/04/2024
,"<div style=""font-size: 10rem; color: #0000FF"">G</div>",,ospan,letter,s7DCY2mN1uOYLG9avI2vcsGXjvF2,html-keyboard-response,147,830754,0.0-46.0-5.0-0.0-1.0-3.0,,,,,,,,,,,,,,,5c4765349afd7b000196f770,11:28:40,03/04/2024
1066.0,,,ospan,symmetry,s7DCY2mN1uOYLG9avI2vcsGXjvF2,symmetry-judgement-task,148,833738,0.0-46.0-5.0-0.0-1.0-4.0,,,,,,,,,,1.0,1.0,,,,5c4765349afd7b000196f770,11:28:40,03/04/2024
,"<div style=""font-size: 10rem; color: #0000FF"">C</div>",,ospan,letter,s7DCY2mN1uOYLG9avI2vcsGXjvF2,html-keyboard-response,149,834753,0.0-46.0-5.0-0.0-1.0-5.0,,,,,,,,,,,,,,,5c4765349afd7b000196f770,11:28:40,03/04/2024
993.0,,,ospan,symmetry,s7DCY2mN1uOYLG9avI2vcsGXjvF2,symmetry-judgement-task,150,837654,0.0-46.0-5.0-0.0-1.0-6.0,,,,,,,,,,1.0,1.0,,,,5c4765349afd7b000196f770,11:28:40,03/04/2024
,"<div style=""font-size: 10rem; color: #0000FF"">Q</div>",,ospan,letter,s7DCY2mN1uOYLG9avI2vcsGXjvF2,html-keyboard-response,151,838663,0.0-46.0-5.0-0.0-1.0-7.0,,,,,,,,,,,,,,,5c4765349afd7b000196f770,11:28:40,03/04/2024
1959.0,,,ospan,symmetry,s7DCY2mN1uOYLG9avI2vcsGXjvF2,symmetry-judgement-task,152,842548,0.0-46.0-5.0-0.0-1.0-8.0,,,,,,,,,,1.0,1.0,,,,5c4765349afd7b000196f770,11:28:40,03/04/2024
,"<div style=""font-size: 10rem; color: #0000FF"">R</div>",,ospan,letter,s7DCY2mN1uOYLG9avI2vcsGXjvF2,html-keyboard-response,153,843560,0.0-46.0-5.0-0.0-1.0-9.0,,,,,,,,,,,,,,,5c4765349afd7b000196f770,11:28:40,03/04/2024
1939.0,,,ospan,symmetry,s7DCY2mN1uOYLG9avI2vcsGXjvF2,symmetry-judgement-task,154,847421,0.0-46.0-5.0-0.0-1.0-10.0,,,,,,,,,,1.0,1.0,,,,5c4765349afd7b000196f770,11:28:40,03/04/2024
,"<div style=""font-size: 10rem; color: #0000FF"">P</div>",,ospan,letter,s7DCY2mN1uOYLG9avI2vcsGXjvF2,html-keyboard-response,155,848435,0.0-46.0-5.0-0.0-1.0-11.0,,,,,,,,,,,,,,,5c4765349afd7b000196f770,11:28:40,03/04/2024
6404.5,"<div class = numbox><p style=""font-size: 2.4rem"">Please recall the letters you saw to the best of your ability. If you do not remember a particular letter, use the SKIP button.<br><b>(When you are ready to lock in your answer, press ENTER)</b></p><button id = button_1 class = ""square num-button"" onclick = ""recordClick(this)""><div class = content><div class = numbers>C</div></div></button><button id = button_2 class = ""square num-button"" onclick = ""recordClick(this)""><div class = content><div class = numbers>G</div></div></button><button id = button_3 class = ""square num-button"" onclick = ""recordClick(this)""><div class = content><div class = numbers>H</div></div></button><button id = button_4 class = ""square num-button"" onclick = ""recordClick(this)""><div class = content><div class = numbers>J</div></div></button><button id = button_5 class = ""square num-button"" onclick = ""recordClick(this)""><div class = content><div class = numbers>K</div></div></button><button id = button_6 class = ""square num-button"" onclick = ""recordClick(this)""><div class = content><div class = numbers>L</div></div></button><button id = button_7 class = ""square num-button"" onclick = ""recordClick(this)""><div class = content><div class = numbers>N</div></div></button><button id = button_8 class = ""square num-button"" onclick = ""recordClick(this)""><div class = content><div class = numbers>P</div></div></button><button id = button_9 class = ""square num-button"" onclick = ""recordClick(this)""><div class = content><div class = numbers>Q</div></div></button><button id = button_10 class = ""square num-button"" onclick = ""recordClick(this)""><div class = content><div class = numbers>R</div></div></button><button id = button_11 class = ""square num-button"" onclick = ""recordClick(this)""><div class = content><div class = numbers>S</div></div></button><button id = button_12 class = ""square num-button"" onclick = ""recordClick(this)""><div class = content><div class = numbers>Y</div></div></button><button class = clear_button id = ""ClearButton"" onclick = ""clearResponse()"">BACKSPACE</button><button class = blank_button id = ""BlankButton"" onclick = ""blankResponse()"">SKIP</button><p style=""font-size: 2.4rem""><u><b>Current Answer:</b></u></p><br><br><div id=echoed_txt style=""font-size: 5rem; color:blue;""><b></b></div></div>",enter,ospan,retrieval,s7DCY2mN1uOYLG9avI2vcsGXjvF2,html-keyboard-response,156,855594,0.0-46.0-5.0-0.0-2.0,21,21,21,6.0,"[""H"",""G"",""C"",""Q"",""R"",""P""]","[""H"",""G"",""C"",""Q"",""R"",""P""]",1.0,6.0,,,,,,,5c4765349afd7b000196f770,11:28:40,03/04/2024
813.7000000178814,[''],0,ospan,feedback,s7DCY2mN1uOYLG9avI2vcsGXjvF2,html-button-response,157,856920,0.0-46.0-5.0-0.0-3.0,,,,,,,,,,,,100.0,0.0,,5c4765349afd7b000196f770,11:28:40,03/04/2024
,"<p style=""font-size:75px;"">...</p>",,ospan,iti,s7DCY2mN1uOYLG9avI2vcsGXjvF2,html-keyboard-response,158,857924,0.0-46.0-5.0-1.0-0.0,,,,,,,,,,,,,,,5c4765349afd7b000196f770,11:28:40,03/04/2024
1794.0,,,ospan,symmetry,s7DCY2mN1uOYLG9avI2vcsGXjvF2,symmetry-judgement-task,159,860769,0.0-46.0-5.0-1.0-1.0-0.0,,,,,,,,,,1.0,1.0,,,,5c4765349afd7b000196f770,11:28:40,03/04/2024
,"<div style=""font-size: 10rem; color: #0000FF"">K</div>",,ospan,letter,s7DCY2mN1uOYLG9avI2vcsGXjvF2,html-keyboard-response,160,861780,0.0-46.0-5.0-1.0-1.0-1.0,,,,,,,,,,,,,,,5c4765349afd7b000196f770,11:28:40,03/04/2024
1048.0,,,ospan,symmetry,s7DCY2mN1uOYLG9avI2vcsGXjvF2,symmetry-judgement-task,161,864742,0.0-46.0-5.0-1.0-1.0-2.0,,,,,,,,,,1.0,1.0,,,,5c4765349afd7b000196f770,11:28:40,03/04/2024
,"<div style=""font-size: 10rem; color: #0000FF"">H</div>",,ospan,letter,s7DCY2mN1uOYLG9avI2vcsGXjvF2,html-keyboard-response,162,865745,0.0-46.0-5.0-1.0-1.0-3.0,,,,,,,,,,,,,,,5c4765349afd7b000196f770,11:28:40,03/04/2024
1395.0,,,ospan,symmetry,s7DCY2mN1uOYLG9avI2vcsGXjvF2,symmetry-judgement-task,163,869055,0.0-46.0-5.0-1.0-1.0-4.0,,,,,,,,,,1.0,1.0,,,,5c4765349afd7b000196f770,11:28:40,03/04/2024
,"<div style=""font-size: 10rem; color: #0000FF"">C</div>",,ospan,letter,s7DCY2mN1uOYLG9avI2vcsGXjvF2,html-keyboard-response,164,870067,0.0-46.0-5.0-1.0-1.0-5.0,,,,,,,,,,,,,,,5c4765349afd7b000196f770,11:28:40,03/04/2024
1295.0,,,ospan,symmetry,s7DCY2mN1uOYLG9avI2vcsGXjvF2,symmetry-judgement-task,165,873276,0.0-46.0-5.0-1.0-1.0-6.0,,,,,,,,,,1.0,1.0,,,,5c4765349afd7b000196f770,11:28:40,03/04/2024
,"<div style=""font-size: 10rem; color: #0000FF"">J</div>",,ospan,letter,s7DCY2mN1uOYLG9avI2vcsGXjvF2,html-keyboard-response,166,874292,0.0-46.0-5.0-1.0-1.0-7.0,,,,,,,,,,,,,,,5c4765349afd7b000196f770,11:28:40,03/04/2024
2444.0,,,ospan,symmetry,s7DCY2mN1uOYLG9avI2vcsGXjvF2,symmetry-judgement-task,167,878661,0.0-46.0-5.0-1.0-1.0-8.0,,,,,,,,,,1.0,1.0,,,,5c4765349afd7b000196f770,11:28:40,03/04/2024
,"<div style=""font-size: 10rem; color: #0000FF"">Y</div>",,ospan,letter,s7DCY2mN1uOYLG9avI2vcsGXjvF2,html-keyboard-response,168,879677,0.0-46.0-5.0-1.0-1.0-9.0,,,,,,,,,,,,,,,5c4765349afd7b000196f770,11:28:40,03/04/2024
1654.0,,,ospan,symmetry,s7DCY2mN1uOYLG9avI2vcsGXjvF2,symmetry-judgement-task,169,883233,0.0-46.0-5.0-1.0-1.0-10.0,,,,,,,,,,1.0,1.0,,,,5c4765349afd7b000196f770,11:28:40,03/04/2024
,"<div style=""font-size: 10rem; color: #0000FF"">G</div>",,ospan,letter,s7DCY2mN1uOYLG9avI2vcsGXjvF2,html-keyboard-response,170,884247,0.0-46.0-5.0-1.0-1.0-11.0,,,,,,,,,,,,,,,5c4765349afd7b000196f770,11:28:40,03/04/2024
948.0,,,ospan,symmetry,s7DCY2mN1uOYLG9avI2vcsGXjvF2,symmetry-judgement-task,171,887095,0.0-46.0-5.0-1.0-1.0-12.0,,,,,,,,,,1.0,1.0,,,,5c4765349afd7b000196f770,11:28:40,03/04/2024
,"<div style=""font-size: 10rem; color: #0000FF"">N</div>",,ospan,letter,s7DCY2mN1uOYLG9avI2vcsGXjvF2,html-keyboard-response,172,888103,0.0-46.0-5.0-1.0-1.0-13.0,,,,,,,,,,,,,,,5c4765349afd7b000196f770,11:28:40,03/04/2024
10256.5,"<div class = numbox><p style=""font-size: 2.4rem"">Please recall the letters you saw to the best of your ability. If you do not remember a particular letter, use the SKIP button.<br><b>(When you are ready to lock in your answer, press ENTER)</b></p><button id = button_1 class = ""square num-button"" onclick = ""recordClick(this)""><div class = content><div class = numbers>C</div></div></button><button id = button_2 class = ""square num-button"" onclick = ""recordClick(this)""><div class = content><div class = numbers>G</div></div></button><button id = button_3 class = ""square num-button"" onclick = ""recordClick(this)""><div class = content><div class = numbers>H</div></div></button><button id = button_4 class = ""square num-button"" onclick = ""recordClick(this)""><div class = content><div class = numbers>J</div></div></button><button id = button_5 class = ""square num-button"" onclick = ""recordClick(this)""><div class = content><div class = numbers>K</div></div></button><button id = button_6 class = ""square num-button"" onclick = ""recordClick(this)""><div class = content><div class = numbers>L</div></div></button><button id = button_7 class = ""square num-button"" onclick = ""recordClick(this)""><div class = content><div class = numbers>N</div></div></button><button id = button_8 class = ""square num-button"" onclick = ""recordClick(this)""><div class = content><div class = numbers>P</div></div></button><button id = button_9 class = ""square num-button"" onclick = ""recordClick(this)""><div class = content><div class = numbers>Q</div></div></button><button id = button_10 class = ""square num-button"" onclick = ""recordClick(this)""><div class = content><div class = numbers>R</div></div></button><button id = button_11 class = ""square num-button"" onclick = ""recordClick(this)""><div class = content><div class = numbers>S</div></div></button><button id = button_12 class = ""square num-button"" onclick = ""recordClick(this)""><div class = content><div class = numbers>Y</div></div></button><button class = clear_button id = ""ClearButton"" onclick = ""clearResponse()"">BACKSPACE</button><button class = blank_button id = ""BlankButton"" onclick = ""blankResponse()"">SKIP</button><p style=""font-size: 2.4rem""><u><b>Current Answer:</b></u></p><br><br><div id=echoed_txt style=""font-size: 5rem; color:blue;""><b></b></div></div>",enter,ospan,retrieval,s7DCY2mN1uOYLG9avI2vcsGXjvF2,html-keyboard-response,173,899114,0.0-46.0-5.0-1.0-2.0,28,23,21,7.0,"[""K"",""H"",""J"",""C"",""_"",""Y""]","[""K"",""H"",""C"",""J"",""Y"",""G"",""N""]",0.0,2.0,,,,,,,5c4765349afd7b000196f770,11:28:40,03/04/2024
1348.0,[''],0,ospan,feedback,s7DCY2mN1uOYLG9avI2vcsGXjvF2,html-button-response,174,900977,0.0-46.0-5.0-1.0-3.0,,,,,,,,,,,,100.0,0.0,,5c4765349afd7b000196f770,11:28:40,03/04/2024
,"<p style=""font-size:75px;"">...</p>",,ospan,iti,s7DCY2mN1uOYLG9avI2vcsGXjvF2,html-keyboard-response,175,901993,0.0-46.0-6.0-0.0-0.0,,,,,,,,,,,,,,,5c4765349afd7b000196f770,11:28:40,03/04/2024
1105.0,,,ospan,symmetry,s7DCY2mN1uOYLG9avI2vcsGXjvF2,symmetry-judgement-task,176,904271,0.0-46.0-6.0-0.0-1.0-0.0,,,,,,,,,,1.0,1.0,,,,5c4765349afd7b000196f770,11:28:40,03/04/2024
,"<div style=""font-size: 10rem; color: #0000FF"">P</div>",,ospan,letter,s7DCY2mN1uOYLG9avI2vcsGXjvF2,html-keyboard-response,177,905285,0.0-46.0-6.0-0.0-1.0-1.0,,,,,,,,,,,,,,,5c4765349afd7b000196f770,11:28:40,03/04/2024
1206.0,,,ospan,symmetry,s7DCY2mN1uOYLG9avI2vcsGXjvF2,symmetry-judgement-task,178,908385,0.0-46.0-6.0-0.0-1.0-2.0,,,,,,,,,,1.0,1.0,,,,5c4765349afd7b000196f770,11:28:40,03/04/2024
,"<div style=""font-size: 10rem; color: #0000FF"">R</div>",,ospan,letter,s7DCY2mN1uOYLG9avI2vcsGXjvF2,html-keyboard-response,179,909387,0.0-46.0-6.0-0.0-1.0-3.0,,,,,,,,,,,,,,,5c4765349afd7b000196f770,11:28:40,03/04/2024
1727.0,,,ospan,symmetry,s7DCY2mN1uOYLG9avI2vcsGXjvF2,symmetry-judgement-task,180,913024,0.0-46.0-6.0-0.0-1.0-4.0,,,,,,,,,,1.0,1.0,,,,5c4765349afd7b000196f770,11:28:40,03/04/2024
,"<div style=""font-size: 10rem; color: #0000FF"">C</div>",,ospan,letter,s7DCY2mN1uOYLG9avI2vcsGXjvF2,html-keyboard-response,181,914035,0.0-46.0-6.0-0.0-1.0-5.0,,,,,,,,,,,,,,,5c4765349afd7b000196f770,11:28:40,03/04/2024
2360.0,,,ospan,symmetry,s7DCY2mN1uOYLG9avI2vcsGXjvF2,symmetry-judgement-task,182,918287,0.0-46.0-6.0-0.0-1.0-6.0,,,,,,,,,,1.0,1.0,,,,5c4765349afd7b000196f770,11:28:40,03/04/2024
,"<div style=""font-size: 10rem; color: #0000FF"">Q</div>",,ospan,letter,s7DCY2mN1uOYLG9avI2vcsGXjvF2,html-keyboard-response,183,919300,0.0-46.0-6.0-0.0-1.0-7.0,,,,,,,,,,,,,,,5c4765349afd7b000196f770,11:28:40,03/04/2024
2353.0,,,ospan,symmetry,s7DCY2mN1uOYLG9avI2vcsGXjvF2,symmetry-judgement-task,184,923562,0.0-46.0-6.0-0.0-1.0-8.0,,,,,,,,,,1.0,1.0,,,,5c4765349afd7b000196f770,11:28:40,03/04/2024
,"<div style=""font-size: 10rem; color: #0000FF"">J</div>",,ospan,letter,s7DCY2mN1uOYLG9avI2vcsGXjvF2,html-keyboard-response,185,924566,0.0-46.0-6.0-0.0-1.0-9.0,,,,,,,,,,,,,,,5c4765349afd7b000196f770,11:28:40,03/04/2024
6350.300000011921,"<div class = numbox><p style=""font-size: 2.4rem"">Please recall the letters you saw to the best of your ability. If you do not remember a particular letter, use the SKIP button.<br><b>(When you are ready to lock in your answer, press ENTER)</b></p><button id = button_1 class = ""square num-button"" onclick = ""recordClick(this)""><div class = content><div class = numbers>C</div></div></button><button id = button_2 class = ""square num-button"" onclick = ""recordClick(this)""><div class = content><div class = numbers>G</div></div></button><button id = button_3 class = ""square num-button"" onclick = ""recordClick(this)""><div class = content><div class = numbers>H</div></div></button><button id = button_4 class = ""square num-button"" onclick = ""recordClick(this)""><div class = content><div class = numbers>J</div></div></button><button id = button_5 class = ""square num-button"" onclick = ""recordClick(this)""><div class = content><div class = numbers>K</div></div></button><button id = button_6 class = ""square num-button"" onclick = ""recordClick(this)""><div class = content><div class = numbers>L</div></div></button><button id = button_7 class = ""square num-button"" onclick = ""recordClick(this)""><div class = content><div class = numbers>N</div></div></button><button id = button_8 class = ""square num-button"" onclick = ""recordClick(this)""><div class = content><div class = numbers>P</div></div></button><button id = button_9 class = ""square num-button"" onclick = ""recordClick(this)""><div class = content><div class = numbers>Q</div></div></button><button id = button_10 class = ""square num-button"" onclick = ""recordClick(this)""><div class = content><div class = numbers>R</div></div></button><button id = button_11 class = ""square num-button"" onclick = ""recordClick(this)""><div class = content><div class = numbers>S</div></div></button><button id = button_12 class = ""square num-button"" onclick = ""recordClick(this)""><div class = content><div class = numbers>Y</div></div></button><button class = clear_button id = ""ClearButton"" onclick = ""clearResponse()"">BACKSPACE</button><button class = blank_button id = ""BlankButton"" onclick = ""blankResponse()"">SKIP</button><p style=""font-size: 2.4rem""><u><b>Current Answer:</b></u></p><br><br><div id=echoed_txt style=""font-size: 5rem; color:blue;""><b></b></div></div>",enter,ospan,retrieval,s7DCY2mN1uOYLG9avI2vcsGXjvF2,html-keyboard-response,186,931669,0.0-46.0-6.0-0.0-2.0,33,28,26,5.0,"[""P"",""R"",""C"",""Q"",""J""]","[""P"",""R"",""C"",""Q"",""J""]",1.0,5.0,,,,,,,5c4765349afd7b000196f770,11:28:40,03/04/2024
1227.0999999940395,[''],0,ospan,feedback,s7DCY2mN1uOYLG9avI2vcsGXjvF2,html-button-response,187,933404,0.0-46.0-6.0-0.0-3.0,,,,,,,,,,,,100.0,0.0,,5c4765349afd7b000196f770,11:28:40,03/04/2024
,"<p style=""font-size:75px;"">...</p>",,ospan,iti,s7DCY2mN1uOYLG9avI2vcsGXjvF2,html-keyboard-response,188,934408,0.0-46.0-6.0-1.0-0.0,,,,,,,,,,,,,,,5c4765349afd7b000196f770,11:28:40,03/04/2024
2315.0,,,ospan,symmetry,s7DCY2mN1uOYLG9avI2vcsGXjvF2,symmetry-judgement-task,189,937771,0.0-46.0-6.0-1.0-1.0-0.0,,,,,,,,,,1.0,1.0,,,,5c4765349afd7b000196f770,11:28:40,03/04/2024
,"<div style=""font-size: 10rem; color: #0000FF"">Y</div>",,ospan,letter,s7DCY2mN1uOYLG9avI2vcsGXjvF2,html-keyboard-response,190,938780,0.0-46.0-6.0-1.0-1.0-1.0,,,,,,,,,,,,,,,5c4765349afd7b000196f770,11:28:40,03/04/2024
1004.0,,,ospan,symmetry,s7DCY2mN1uOYLG9avI2vcsGXjvF2,symmetry-judgement-task,191,941678,0.0-46.0-6.0-1.0-1.0-2.0,,,,,,,,,,1.0,1.0,,,,5c4765349afd7b000196f770,11:28:40,03/04/2024
,"<div style=""font-size: 10rem; color: #0000FF"">J</div>",,ospan,letter,s7DCY2mN1uOYLG9avI2vcsGXjvF2,html-keyboard-response,192,942692,0.0-46.0-6.0-1.0-1.0-3.0,,,,,,,,,,,,,,,5c4765349afd7b000196f770,11:28:40,03/04/2024
1710.0,,,ospan,symmetry,s7DCY2mN1uOYLG9avI2vcsGXjvF2,symmetry-judgement-task,193,946305,0.0-46.0-6.0-1.0-1.0-4.0,,,,,,,,,,1.0,1.0,,,,5c4765349afd7b000196f770,11:28:40,03/04/2024
,"<div style=""font-size: 10rem; color: #0000FF"">Q</div>",,ospan,letter,s7DCY2mN1uOYLG9avI2vcsGXjvF2,html-keyboard-response,194,947320,0.0-46.0-6.0-1.0-1.0-5.0,,,,,,,,,,,,,,,5c4765349afd7b000196f770,11:28:40,03/04/2024
947.0,,,ospan,symmetry,s7DCY2mN1uOYLG9avI2vcsGXjvF2,symmetry-judgement-task,195,950183,0.0-46.0-6.0-1.0-1.0-6.0,,,,,,,,,,1.0,1.0,,,,5c4765349afd7b000196f770,11:28:40,03/04/2024
,"<div style=""font-size: 10rem; color: #0000FF"">S</div>",,ospan,letter,s7DCY2mN1uOYLG9avI2vcsGXjvF2,html-keyboard-response,196,951185,0.0-46.0-6.0-1.0-1.0-7.0,,,,,,,,,,,,,,,5c4765349afd7b000196f770,11:28:40,03/04/2024
924.0,,,ospan,symmetry,s7DCY2mN1uOYLG9avI2vcsGXjvF2,symmetry-judgement-task,197,954022,0.0-46.0-6.0-1.0-1.0-8.0,,,,,,,,,,1.0,1.0,,,,5c4765349afd7b000196f770,11:28:40,03/04/2024
,"<div style=""font-size: 10rem; color: #0000FF"">K</div>",,ospan,letter,s7DCY2mN1uOYLG9avI2vcsGXjvF2,html-keyboard-response,198,955036,0.0-46.0-6.0-1.0-1.0-9.0,,,,,,,,,,,,,,,5c4765349afd7b000196f770,11:28:40,03/04/2024
3046.0,,,ospan,symmetry,s7DCY2mN1uOYLG9avI2vcsGXjvF2,symmetry-judgement-task,199,959976,0.0-46.0-6.0-1.0-1.0-10.0,,,,,,,,,,1.0,1.0,,,,5c4765349afd7b000196f770,11:28:40,03/04/2024
,"<div style=""font-size: 10rem; color: #0000FF"">P</div>",,ospan,letter,s7DCY2mN1uOYLG9avI2vcsGXjvF2,html-keyboard-response,200,960988,0.0-46.0-6.0-1.0-1.0-11.0,,,,,,,,,,,,,,,5c4765349afd7b000196f770,11:28:40,03/04/2024
2193.0,,,ospan,symmetry,s7DCY2mN1uOYLG9avI2vcsGXjvF2,symmetry-judgement-task,201,965072,0.0-46.0-6.0-1.0-1.0-12.0,,,,,,,,,,1.0,1.0,,,,5c4765349afd7b000196f770,11:28:40,03/04/2024
,"<div style=""font-size: 10rem; color: #0000FF"">L</div>",,ospan,letter,s7DCY2mN1uOYLG9avI2vcsGXjvF2,html-keyboard-response,202,966091,0.0-46.0-6.0-1.0-1.0-13.0,,,,,,,,,,,,,,,5c4765349afd7b000196f770,11:28:40,03/04/2024
1256.0,,,ospan,symmetry,s7DCY2mN1uOYLG9avI2vcsGXjvF2,symmetry-judgement-task,203,969259,0.0-46.0-6.0-1.0-1.0-14.0,,,,,,,,,,1.0,1.0,,,,5c4765349afd7b000196f770,11:28:40,03/04/2024
,"<div style=""font-size: 10rem; color: #0000FF"">N</div>",,ospan,letter,s7DCY2mN1uOYLG9avI2vcsGXjvF2,html-keyboard-response,204,970276,0.0-46.0-6.0-1.0-1.0-15.0,,,,,,,,,,,,,,,5c4765349afd7b000196f770,11:28:40,03/04/2024
9206.199999988079,"<div class = numbox><p style=""font-size: 2.4rem"">Please recall the letters you saw to the best of your ability. If you do not remember a particular letter, use the SKIP button.<br><b>(When you are ready to lock in your answer, press ENTER)</b></p><button id = button_1 class = ""square num-button"" onclick = ""recordClick(this)""><div class = content><div class = numbers>C</div></div></button><button id = button_2 class = ""square num-button"" onclick = ""recordClick(this)""><div class = content><div class = numbers>G</div></div></button><button id = button_3 class = ""square num-button"" onclick = ""recordClick(this)""><div class = content><div class = numbers>H</div></div></button><button id = button_4 class = ""square num-button"" onclick = ""recordClick(this)""><div class = content><div class = numbers>J</div></div></button><button id = button_5 class = ""square num-button"" onclick = ""recordClick(this)""><div class = content><div class = numbers>K</div></div></button><button id = button_6 class = ""square num-button"" onclick = ""recordClick(this)""><div class = content><div class = numbers>L</div></div></button><button id = button_7 class = ""square num-button"" onclick = ""recordClick(this)""><div class = content><div class = numbers>N</div></div></button><button id = button_8 class = ""square num-button"" onclick = ""recordClick(this)""><div class = content><div class = numbers>P</div></div></button><button id = button_9 class = ""square num-button"" onclick = ""recordClick(this)""><div class = content><div class = numbers>Q</div></div></button><button id = button_10 class = ""square num-button"" onclick = ""recordClick(this)""><div class = content><div class = numbers>R</div></div></button><button id = button_11 class = ""square num-button"" onclick = ""recordClick(this)""><div class = content><div class = numbers>S</div></div></button><button id = button_12 class = ""square num-button"" onclick = ""recordClick(this)""><div class = content><div class = numbers>Y</div></div></button><button class = clear_button id = ""ClearButton"" onclick = ""clearResponse()"">BACKSPACE</button><button class = blank_button id = ""BlankButton"" onclick = ""blankResponse()"">SKIP</button><p style=""font-size: 2.4rem""><u><b>Current Answer:</b></u></p><br><br><div id=echoed_txt style=""font-size: 5rem; color:blue;""><b></b></div></div>",enter,ospan,retrieval,s7DCY2mN1uOYLG9avI2vcsGXjvF2,html-keyboard-response,205,980234,0.0-46.0-6.0-1.0-2.0,41,35,26,8.0,"[""Y"",""J"",""Q"",""S"",""K"",""P"",""L""]","[""Y"",""J"",""Q"",""S"",""K"",""P"",""L"",""N""]",0.0,7.0,,,,,,,5c4765349afd7b000196f770,11:28:40,03/04/2024
880.2999999821186,[''],0,ospan,feedback,s7DCY2mN1uOYLG9avI2vcsGXjvF2,html-button-response,206,981629,0.0-46.0-6.0-1.0-3.0,,,,,,,,,,,,100.0,0.0,,5c4765349afd7b000196f770,11:28:40,03/04/2024
10386.90000000596,,{'Q0': 'everything was clear'},ospan,survey_ospan,s7DCY2mN1uOYLG9avI2vcsGXjvF2,lmdlab-survey-text,207,992775,0.0-46.0-7.0,,,,,,,,,,,,,,s7DCY2mN1uOYLG9avI2vcsGXjvF2,5c4765349afd7b000196f770,11:28:40,03/04/2024
769.9000000059605,<p><p style='font-size: 3rem'>Great work!<br><br>This completes the symmetry and memory task.</p><br><br><br>,0,ospan,finish,s7DCY2mN1uOYLG9avI2vcsGXjvF2,html-button-response,208,993548,0.0-46.0-8.0,41,35,26,,,,,,,,,100.0,,,5c4765349afd7b000196f770,11:28:40,03/04/2024
