rt,stimulus,response,exp_name,exp_stage,subjectID,trial_type,trial_index,time_elapsed,internal_node_id,ospan_shown,ospan_total,ospan_abs,length,resp_actual,resp_correct,full_correct,num_correct,feedback,accuracy,correct,math_acc,math_warning,databaseID,prolificID,start_time,date
15399.099999964237,<div class = 'left_align' style='font-size: 3.25rem; line-height: 1.3;'><p class = 'center_align'><b>Welcome to the Symmetry and Memory Task</b><br><br><br><br></p>Press 'continue' to show the instructions.<br><br><br><br></div>,0,ospan,instruct,Dm7PTEkP74O8O4vz0N3eeugAWAo1,html-button-response,54,554303,0.0-46.0-0.0-0.0-0.0,,,,,,,,,,,,,,,6103d7b00cb90ef8d5c5260a,18:41:36,05/04/2024
23063.69999998808,"<div class = 'left_align' style='font-size: 3.25rem; line-height: 1.3;'><p class = 'center_align'><b>Symmetry and Memory Task</b><br><br></p>In this task, you will try to memorize letters you see on the screen<br>while you also view black and white grid pictures.<br><br>In the next few minutes, you will have some practice to get you familiar<br>with how the task works.<br><br>It may be difficult sometimes, but please do not worry about making mistakes!<br><br>We will begin by practicing the letter part of the task.<br><br><br><br></div>",0,ospan,instruct,Dm7PTEkP74O8O4vz0N3eeugAWAo1,html-button-response,55,577628,0.0-46.0-0.0-0.0-1.0,,,,,,,,,,,,,,,6103d7b00cb90ef8d5c5260a,18:41:36,05/04/2024
8534.699999988079,"<div class = 'left_align' style='font-size: 3.25rem; line-height: 1.3;'>For this practice part, letters will appear on the screen one at a time.<br><br>Try to remember each letter in the order presented.<br><br>After some letters have been shown, you will see a response screen. Your<br>goal is to report the letters you saw <b>in order</b>. If you do not remember<br>a particular letter, you will have the option to leave it blank.<br><br><br><br></div>",0,ospan,instruct,Dm7PTEkP74O8O4vz0N3eeugAWAo1,html-button-response,56,586428,0.0-46.0-0.0-0.0-2.0,,,,,,,,,,,,,,,6103d7b00cb90ef8d5c5260a,18:41:36,05/04/2024
4825.199999988079,"<div class = 'left_align' style='font-size: 3.25rem; line-height: 1.3;'>Remember, it is very important to get the letters in the same<br>order as you see them.<br><br>When you are ready, you may begin the letter practice.</div><br><br><br><br>",0,ospan,instruct,Dm7PTEkP74O8O4vz0N3eeugAWAo1,html-button-response,57,591517,0.0-46.0-0.0-0.0-3.0,,,,,,,,,,,,,,,6103d7b00cb90ef8d5c5260a,18:41:36,05/04/2024
,"<p style=""font-size:75px;"">...</p>",,ospan,iti,Dm7PTEkP74O8O4vz0N3eeugAWAo1,html-keyboard-response,58,592789,0.0-46.0-0.0-1.0-0.0,,,,,,,,,,,,,,,6103d7b00cb90ef8d5c5260a,18:41:36,05/04/2024
,"<div style=""font-size: 10rem; color: #0000FF"">G</div>",,ospan,letter,Dm7PTEkP74O8O4vz0N3eeugAWAo1,html-keyboard-response,59,593798,0.0-46.0-0.0-1.0-1.0,,,,,,,,,,,,,,,6103d7b00cb90ef8d5c5260a,18:41:36,05/04/2024
,"<div style=""font-size: 10rem; color: #0000FF"">C</div>",,ospan,letter,Dm7PTEkP74O8O4vz0N3eeugAWAo1,html-keyboard-response,60,595575,0.0-46.0-0.0-1.0-2.0,,,,,,,,,,,,,,,6103d7b00cb90ef8d5c5260a,18:41:36,05/04/2024
8354.599999964237,"<div class = numbox><p style=""font-size: 2.4rem"">Please recall the letters you saw to the best of your ability. If you do not remember a particular letter, use the SKIP button.<br><b>(When you are ready to lock in your answer, press ENTER)</b></p><button id = button_1 class = ""square num-button"" onclick = ""recordClick(this)""><div class = content><div class = numbers>C</div></div></button><button id = button_2 class = ""square num-button"" onclick = ""recordClick(this)""><div class = content><div class = numbers>G</div></div></button><button id = button_3 class = ""square num-button"" onclick = ""recordClick(this)""><div class = content><div class = numbers>H</div></div></button><button id = button_4 class = ""square num-button"" onclick = ""recordClick(this)""><div class = content><div class = numbers>J</div></div></button><button id = button_5 class = ""square num-button"" onclick = ""recordClick(this)""><div class = content><div class = numbers>K</div></div></button><button id = button_6 class = ""square num-button"" onclick = ""recordClick(this)""><div class = content><div class = numbers>L</div></div></button><button id = button_7 class = ""square num-button"" onclick = ""recordClick(this)""><div class = content><div class = numbers>N</div></div></button><button id = button_8 class = ""square num-button"" onclick = ""recordClick(this)""><div class = content><div class = numbers>P</div></div></button><button id = button_9 class = ""square num-button"" onclick = ""recordClick(this)""><div class = content><div class = numbers>Q</div></div></button><button id = button_10 class = ""square num-button"" onclick = ""recordClick(this)""><div class = content><div class = numbers>R</div></div></button><button id = button_11 class = ""square num-button"" onclick = ""recordClick(this)""><div class = content><div class = numbers>S</div></div></button><button id = button_12 class = ""square num-button"" onclick = ""recordClick(this)""><div class = content><div class = numbers>Y</div></div></button><button class = clear_button id = ""ClearButton"" onclick = ""clearResponse()"">BACKSPACE</button><button class = blank_button id = ""BlankButton"" onclick = ""blankResponse()"">SKIP</button><p style=""font-size: 2.4rem""><u><b>Current Answer:</b></u></p><br><br><div id=echoed_txt style=""font-size: 5rem; color:blue;""><b></b></div></div>",enter,ospan,retrieval,Dm7PTEkP74O8O4vz0N3eeugAWAo1,html-keyboard-response,61,604693,0.0-46.0-0.0-1.0-3.0,NA,NA,NA,2.0,"[""G"",""C""]","[""G"",""C""]",1.0,2.0,"['<font color=""green"">G</font>', '<font color=""green"">C</font>']",,,,,,6103d7b00cb90ef8d5c5260a,18:41:36,05/04/2024
1180.5999999642372,"['<p style=""font-size:44px"">Letters:<br><br><br><font color=""green"">G</font> <font color=""green"">C</font></p><br><br>']",0,ospan,practice_feedback,Dm7PTEkP74O8O4vz0N3eeugAWAo1,html-button-response,62,606381,0.0-46.0-0.0-1.0-4.0,,,,,,,,,,,,,,,6103d7b00cb90ef8d5c5260a,18:41:36,05/04/2024
,"<p style=""font-size:75px;"">...</p>",,ospan,iti,Dm7PTEkP74O8O4vz0N3eeugAWAo1,html-keyboard-response,63,607394,0.0-46.0-0.0-2.0-0.0,,,,,,,,,,,,,,,6103d7b00cb90ef8d5c5260a,18:41:36,05/04/2024
,"<div style=""font-size: 10rem; color: #0000FF"">Y</div>",,ospan,letter,Dm7PTEkP74O8O4vz0N3eeugAWAo1,html-keyboard-response,64,608404,0.0-46.0-0.0-2.0-1.0,,,,,,,,,,,,,,,6103d7b00cb90ef8d5c5260a,18:41:36,05/04/2024
,"<div style=""font-size: 10rem; color: #0000FF"">P</div>",,ospan,letter,Dm7PTEkP74O8O4vz0N3eeugAWAo1,html-keyboard-response,65,610183,0.0-46.0-0.0-2.0-2.0,,,,,,,,,,,,,,,6103d7b00cb90ef8d5c5260a,18:41:36,05/04/2024
,"<div style=""font-size: 10rem; color: #0000FF"">C</div>",,ospan,letter,Dm7PTEkP74O8O4vz0N3eeugAWAo1,html-keyboard-response,66,611959,0.0-46.0-0.0-2.0-3.0,,,,,,,,,,,,,,,6103d7b00cb90ef8d5c5260a,18:41:36,05/04/2024
4504.899999976158,"<div class = numbox><p style=""font-size: 2.4rem"">Please recall the letters you saw to the best of your ability. If you do not remember a particular letter, use the SKIP button.<br><b>(When you are ready to lock in your answer, press ENTER)</b></p><button id = button_1 class = ""square num-button"" onclick = ""recordClick(this)""><div class = content><div class = numbers>C</div></div></button><button id = button_2 class = ""square num-button"" onclick = ""recordClick(this)""><div class = content><div class = numbers>G</div></div></button><button id = button_3 class = ""square num-button"" onclick = ""recordClick(this)""><div class = content><div class = numbers>H</div></div></button><button id = button_4 class = ""square num-button"" onclick = ""recordClick(this)""><div class = content><div class = numbers>J</div></div></button><button id = button_5 class = ""square num-button"" onclick = ""recordClick(this)""><div class = content><div class = numbers>K</div></div></button><button id = button_6 class = ""square num-button"" onclick = ""recordClick(this)""><div class = content><div class = numbers>L</div></div></button><button id = button_7 class = ""square num-button"" onclick = ""recordClick(this)""><div class = content><div class = numbers>N</div></div></button><button id = button_8 class = ""square num-button"" onclick = ""recordClick(this)""><div class = content><div class = numbers>P</div></div></button><button id = button_9 class = ""square num-button"" onclick = ""recordClick(this)""><div class = content><div class = numbers>Q</div></div></button><button id = button_10 class = ""square num-button"" onclick = ""recordClick(this)""><div class = content><div class = numbers>R</div></div></button><button id = button_11 class = ""square num-button"" onclick = ""recordClick(this)""><div class = content><div class = numbers>S</div></div></button><button id = button_12 class = ""square num-button"" onclick = ""recordClick(this)""><div class = content><div class = numbers>Y</div></div></button><button class = clear_button id = ""ClearButton"" onclick = ""clearResponse()"">BACKSPACE</button><button class = blank_button id = ""BlankButton"" onclick = ""blankResponse()"">SKIP</button><p style=""font-size: 2.4rem""><u><b>Current Answer:</b></u></p><br><br><div id=echoed_txt style=""font-size: 5rem; color:blue;""><b></b></div></div>",enter,ospan,retrieval,Dm7PTEkP74O8O4vz0N3eeugAWAo1,html-keyboard-response,67,617227,0.0-46.0-0.0-2.0-4.0,NA,NA,NA,3.0,"[""Y"",""P"",""C""]","[""Y"",""P"",""C""]",1.0,3.0,"['<font color=""green"">Y</font>', '<font color=""green"">P</font>', '<font color=""green"">C</font>']",,,,,,6103d7b00cb90ef8d5c5260a,18:41:36,05/04/2024
3938.0,"['<p style=""font-size:44px"">Letters:<br><br><br><font color=""green"">Y</font> <font color=""green"">P</font> <font color=""green"">C</font></p><br><br>']",0,ospan,practice_feedback,Dm7PTEkP74O8O4vz0N3eeugAWAo1,html-button-response,68,621671,0.0-46.0-0.0-2.0-5.0,,,,,,,,,,,,,,,6103d7b00cb90ef8d5c5260a,18:41:36,05/04/2024
18240.19999998808,"<div class = 'left_align' style='font-size: 3.25rem; line-height: 1.3;'>Now you will practice doing the <b>symmetry judgment part</b> of the experiment.<br><br>A black and white grid picture will appear on the screen and you have to judge if it is <br>symmetrical or asymetrical.<br><br>A picture is 'mirror' symmetrical if its left half is identical to the right half when flipped.<br>Here are examples of a symmetrical and an asymetrical picture:<br><br><center><img src='Stimuli/img/symm_instructions_extra.png' style='height:420px; width:900'></img></center><br>To judge symmetry, imagine you were to fold each picture down the middle, like a book –<br>would the left half match the right half when folded onto each other?<br><br></div><br>",0,ospan,instruct,Dm7PTEkP74O8O4vz0N3eeugAWAo1,html-button-response,69,639913,0.0-46.0-1.0-0.0-0.0,,,,,,,,,,,,,,,6103d7b00cb90ef8d5c5260a,18:41:36,05/04/2024
8770.5,"<div class = 'left_align' style='font-size: 3.25rem; line-height: 1.3;'>When you have viewed the picture and determined whether it is symmetrical or not,<br>you can <b>click the Yes or No button</b> below to answer.<br><br>If you take longer than 15 seconds, it will continue automatically<br>and record the answer as an error.</div><br>",0,ospan,instruct,Dm7PTEkP74O8O4vz0N3eeugAWAo1,html-button-response,70,648942,0.0-46.0-1.0-0.0-1.0,,,,,,,,,,,,,,,6103d7b00cb90ef8d5c5260a,18:41:36,05/04/2024
41354.90000003576,"<div class = 'left_align' style='font-size: 3.25rem; line-height: 1.3;'>It is <b>very</b> important that you make the symmetry judgment correctly.<br><br>It is also important that you try and judge the picture as quickly as you can.<br><br>When you are ready, click on the button below to try some practice problems.</div><br><br><br><br>",0,ospan,instruct,Dm7PTEkP74O8O4vz0N3eeugAWAo1,html-button-response,71,690559,0.0-46.0-1.0-0.0-2.0,,,,,,,,,,,,,,,6103d7b00cb90ef8d5c5260a,18:41:36,05/04/2024
1794.0,,,ospan,symmetry,Dm7PTEkP74O8O4vz0N3eeugAWAo1,symmetry-judgement-task,72,693240,0.0-46.0-1.0-1.0-0.0,,,,,,,,,,1.0,1.0,,,,6103d7b00cb90ef8d5c5260a,18:41:36,05/04/2024
,"<p style=""color:green; font-size: 35px"">Correct</p>",,ospan,feedback,Dm7PTEkP74O8O4vz0N3eeugAWAo1,html-keyboard-response,73,693997,0.0-46.0-1.0-1.0-1.0,,,,,,,,,,,,,,,6103d7b00cb90ef8d5c5260a,18:41:36,05/04/2024
1374.0,,,ospan,symmetry,Dm7PTEkP74O8O4vz0N3eeugAWAo1,symmetry-judgement-task,74,698023,0.0-46.0-1.0-1.0-2.0,,,,,,,,,,1.0,1.0,,,,6103d7b00cb90ef8d5c5260a,18:41:36,05/04/2024
,"<p style=""color:green; font-size: 35px"">Correct</p>",,ospan,feedback,Dm7PTEkP74O8O4vz0N3eeugAWAo1,html-keyboard-response,75,698790,0.0-46.0-1.0-1.0-3.0,,,,,,,,,,,,,,,6103d7b00cb90ef8d5c5260a,18:41:36,05/04/2024
1335.0,,,ospan,symmetry,Dm7PTEkP74O8O4vz0N3eeugAWAo1,symmetry-judgement-task,76,702808,0.0-46.0-1.0-1.0-4.0,,,,,,,,,,1.0,1.0,,,,6103d7b00cb90ef8d5c5260a,18:41:36,05/04/2024
,"<p style=""color:green; font-size: 35px"">Correct</p>",,ospan,feedback,Dm7PTEkP74O8O4vz0N3eeugAWAo1,html-keyboard-response,77,703574,0.0-46.0-1.0-1.0-5.0,,,,,,,,,,,,,,,6103d7b00cb90ef8d5c5260a,18:41:36,05/04/2024
1442.800000011921,"<p style=""font-size: 3rem;"">You responded correctly on 3 of 3 symmetry judgments. Good job!</p><br><br>",0,ospan,practice,Dm7PTEkP74O8O4vz0N3eeugAWAo1,html-button-response,78,707020,0.0-46.0-1.0-2.0,,,,,,,,,,,,,,,6103d7b00cb90ef8d5c5260a,18:41:36,05/04/2024
10895.5,"<div class = 'left_align' style='font-size: 3.25rem; line-height: 1.3;'>Now you will practice doing both parts of the experiment at the same time.<br><br>In the next practice set, you will be given one grid picture to judge.<br>Then letter will appear on the screen. Try to remember the letter.<br><br>It is <b>very important</b> to make the symmetry judgment as quickly and accurately as possible.<br><br>Just as before, once you have make the symmetry judgment, you can click Yes or No.<br><b>Note that you will no longer see Correct or Incorrect feedback.</div><br><br><br><br>",0,ospan,instruct,Dm7PTEkP74O8O4vz0N3eeugAWAo1,html-button-response,79,718170,0.0-46.0-2.0-0.0-0.0,,,,,,,,,,,,,,,6103d7b00cb90ef8d5c5260a,18:41:36,05/04/2024
5143.0,"<div class = 'left_align' style='font-size: 3.25rem; line-height: 1.3;'>After the letter goes away, another grid picture will appear, and then<br>another letter.<br><br>At the end of each set of letters and grids, you will recall the letters to the best<br>of your ability. Remember, try your best to get the letters in the correct order.<br><br>It is important to <b>quickly</b> and <b>accurately</b> make the symmetry judgments.</div><br><br><br><br>",0,ospan,instruct,Dm7PTEkP74O8O4vz0N3eeugAWAo1,html-button-response,80,723577,0.0-46.0-2.0-0.0-1.0,,,,,,,,,,,,,,,6103d7b00cb90ef8d5c5260a,18:41:36,05/04/2024
6384.199999988079,"<div class = 'left_align' style='font-size: 3.25rem; line-height: 1.3;'>On the feedback screen, if you are not doing well at the symmetry judgments,<br>you will also see a warning in the middle. This indicates your percent <br>correct for the grid pictures for the entire experiment.<br><br>It is <b>very</b> important for you to keep accuracy at least at 85%: <u>We can only use<br>data where the participant was at least 85% accurate on the judgments.</u> Therefore,<br> please try your best to perform well on the symmetry judgments, <b>at the same time</b><br>doing your best to recall as many letters as possible.<br><br>Click the button to try some practice problems.</div><br><br><br><br>",0,ospan,instruct,Dm7PTEkP74O8O4vz0N3eeugAWAo1,html-button-response,81,730229,0.0-46.0-2.0-0.0-2.0,,,,,,,,,,,,,,,6103d7b00cb90ef8d5c5260a,18:41:36,05/04/2024
,"<p style=""font-size:75px;"">...</p>",,ospan,iti,Dm7PTEkP74O8O4vz0N3eeugAWAo1,html-keyboard-response,82,731502,0.0-46.0-2.0-1.0-0.0,,,,,,,,,,,,,,,6103d7b00cb90ef8d5c5260a,18:41:36,05/04/2024
1444.0,,,ospan,symmetry,Dm7PTEkP74O8O4vz0N3eeugAWAo1,symmetry-judgement-task,83,734122,0.0-46.0-2.0-1.0-1.0-0.0,,,,,,,,,,1.0,1.0,,,,6103d7b00cb90ef8d5c5260a,18:41:36,05/04/2024
,"<div style=""font-size: 10rem; color: #0000FF"">H</div>",,ospan,letter,Dm7PTEkP74O8O4vz0N3eeugAWAo1,html-keyboard-response,84,735136,0.0-46.0-2.0-1.0-1.0-1.0,,,,,,,,,,,,,,,6103d7b00cb90ef8d5c5260a,18:41:36,05/04/2024
1855.0,,,ospan,symmetry,Dm7PTEkP74O8O4vz0N3eeugAWAo1,symmetry-judgement-task,85,739056,0.0-46.0-2.0-1.0-1.0-2.0,,,,,,,,,,1.0,1.0,,,,6103d7b00cb90ef8d5c5260a,18:41:36,05/04/2024
,"<div style=""font-size: 10rem; color: #0000FF"">J</div>",,ospan,letter,Dm7PTEkP74O8O4vz0N3eeugAWAo1,html-keyboard-response,86,740061,0.0-46.0-2.0-1.0-1.0-3.0,,,,,,,,,,,,,,,6103d7b00cb90ef8d5c5260a,18:41:36,05/04/2024
1538.0,,,ospan,symmetry,Dm7PTEkP74O8O4vz0N3eeugAWAo1,symmetry-judgement-task,87,743628,0.0-46.0-2.0-1.0-1.0-4.0,,,,,,,,,,1.0,1.0,,,,6103d7b00cb90ef8d5c5260a,18:41:36,05/04/2024
,"<div style=""font-size: 10rem; color: #0000FF"">Q</div>",,ospan,letter,Dm7PTEkP74O8O4vz0N3eeugAWAo1,html-keyboard-response,88,744639,0.0-46.0-2.0-1.0-1.0-5.0,,,,,,,,,,,,,,,6103d7b00cb90ef8d5c5260a,18:41:36,05/04/2024
4829.699999988079,"<div class = numbox><p style=""font-size: 2.4rem"">Please recall the letters you saw to the best of your ability. If you do not remember a particular letter, use the SKIP button.<br><b>(When you are ready to lock in your answer, press ENTER)</b></p><button id = button_1 class = ""square num-button"" onclick = ""recordClick(this)""><div class = content><div class = numbers>C</div></div></button><button id = button_2 class = ""square num-button"" onclick = ""recordClick(this)""><div class = content><div class = numbers>G</div></div></button><button id = button_3 class = ""square num-button"" onclick = ""recordClick(this)""><div class = content><div class = numbers>H</div></div></button><button id = button_4 class = ""square num-button"" onclick = ""recordClick(this)""><div class = content><div class = numbers>J</div></div></button><button id = button_5 class = ""square num-button"" onclick = ""recordClick(this)""><div class = content><div class = numbers>K</div></div></button><button id = button_6 class = ""square num-button"" onclick = ""recordClick(this)""><div class = content><div class = numbers>L</div></div></button><button id = button_7 class = ""square num-button"" onclick = ""recordClick(this)""><div class = content><div class = numbers>N</div></div></button><button id = button_8 class = ""square num-button"" onclick = ""recordClick(this)""><div class = content><div class = numbers>P</div></div></button><button id = button_9 class = ""square num-button"" onclick = ""recordClick(this)""><div class = content><div class = numbers>Q</div></div></button><button id = button_10 class = ""square num-button"" onclick = ""recordClick(this)""><div class = content><div class = numbers>R</div></div></button><button id = button_11 class = ""square num-button"" onclick = ""recordClick(this)""><div class = content><div class = numbers>S</div></div></button><button id = button_12 class = ""square num-button"" onclick = ""recordClick(this)""><div class = content><div class = numbers>Y</div></div></button><button class = clear_button id = ""ClearButton"" onclick = ""clearResponse()"">BACKSPACE</button><button class = blank_button id = ""BlankButton"" onclick = ""blankResponse()"">SKIP</button><p style=""font-size: 2.4rem""><u><b>Current Answer:</b></u></p><br><br><div id=echoed_txt style=""font-size: 5rem; color:blue;""><b></b></div></div>",enter,ospan,retrieval,Dm7PTEkP74O8O4vz0N3eeugAWAo1,html-keyboard-response,89,750233,0.0-46.0-2.0-1.0-2.0-0.0,NA,NA,NA,3.0,"[""H"",""J"",""Q""]","[""H"",""J"",""Q""]",1.0,3.0,"['<font color=""green"">H</font>', '<font color=""green"">J</font>', '<font color=""green"">Q</font>']",,,,,,6103d7b00cb90ef8d5c5260a,18:41:36,05/04/2024
2029.6000000238419,"['<p style=""font-size:44px"">Letters:<br><br><br><font color=""green"">H</font> <font color=""green"">J</font> <font color=""green"">Q</font></p><br><br><p style=""font-size:30px"">Symmetry:<br><br><font color=""green"">100%</font></p><br><br>']",0,ospan,practice_feedback,Dm7PTEkP74O8O4vz0N3eeugAWAo1,html-button-response,90,752770,0.0-46.0-2.0-1.0-2.0-1.0,,,,,,,,,,,,,,,6103d7b00cb90ef8d5c5260a,18:41:36,05/04/2024
,"<p style=""font-size:75px;"">...</p>",,ospan,iti,Dm7PTEkP74O8O4vz0N3eeugAWAo1,html-keyboard-response,91,753775,0.0-46.0-2.0-2.0-0.0,,,,,,,,,,,,,,,6103d7b00cb90ef8d5c5260a,18:41:36,05/04/2024
1460.0,,,ospan,symmetry,Dm7PTEkP74O8O4vz0N3eeugAWAo1,symmetry-judgement-task,92,756463,0.0-46.0-2.0-2.0-1.0-0.0,,,,,,,,,,1.0,1.0,,,,6103d7b00cb90ef8d5c5260a,18:41:36,05/04/2024
,"<div style=""font-size: 10rem; color: #0000FF"">N</div>",,ospan,letter,Dm7PTEkP74O8O4vz0N3eeugAWAo1,html-keyboard-response,93,757473,0.0-46.0-2.0-2.0-1.0-1.0,,,,,,,,,,,,,,,6103d7b00cb90ef8d5c5260a,18:41:36,05/04/2024
1301.0,,,ospan,symmetry,Dm7PTEkP74O8O4vz0N3eeugAWAo1,symmetry-judgement-task,94,760735,0.0-46.0-2.0-2.0-1.0-2.0,,,,,,,,,,1.0,1.0,,,,6103d7b00cb90ef8d5c5260a,18:41:36,05/04/2024
,"<div style=""font-size: 10rem; color: #0000FF"">K</div>",,ospan,letter,Dm7PTEkP74O8O4vz0N3eeugAWAo1,html-keyboard-response,95,761740,0.0-46.0-2.0-2.0-1.0-3.0,,,,,,,,,,,,,,,6103d7b00cb90ef8d5c5260a,18:41:36,05/04/2024
1243.0,,,ospan,symmetry,Dm7PTEkP74O8O4vz0N3eeugAWAo1,symmetry-judgement-task,96,764915,0.0-46.0-2.0-2.0-1.0-4.0,,,,,,,,,,1.0,1.0,,,,6103d7b00cb90ef8d5c5260a,18:41:36,05/04/2024
,"<div style=""font-size: 10rem; color: #0000FF"">C</div>",,ospan,letter,Dm7PTEkP74O8O4vz0N3eeugAWAo1,html-keyboard-response,97,765933,0.0-46.0-2.0-2.0-1.0-5.0,,,,,,,,,,,,,,,6103d7b00cb90ef8d5c5260a,18:41:36,05/04/2024
2892.599999964237,"<div class = numbox><p style=""font-size: 2.4rem"">Please recall the letters you saw to the best of your ability. If you do not remember a particular letter, use the SKIP button.<br><b>(When you are ready to lock in your answer, press ENTER)</b></p><button id = button_1 class = ""square num-button"" onclick = ""recordClick(this)""><div class = content><div class = numbers>C</div></div></button><button id = button_2 class = ""square num-button"" onclick = ""recordClick(this)""><div class = content><div class = numbers>G</div></div></button><button id = button_3 class = ""square num-button"" onclick = ""recordClick(this)""><div class = content><div class = numbers>H</div></div></button><button id = button_4 class = ""square num-button"" onclick = ""recordClick(this)""><div class = content><div class = numbers>J</div></div></button><button id = button_5 class = ""square num-button"" onclick = ""recordClick(this)""><div class = content><div class = numbers>K</div></div></button><button id = button_6 class = ""square num-button"" onclick = ""recordClick(this)""><div class = content><div class = numbers>L</div></div></button><button id = button_7 class = ""square num-button"" onclick = ""recordClick(this)""><div class = content><div class = numbers>N</div></div></button><button id = button_8 class = ""square num-button"" onclick = ""recordClick(this)""><div class = content><div class = numbers>P</div></div></button><button id = button_9 class = ""square num-button"" onclick = ""recordClick(this)""><div class = content><div class = numbers>Q</div></div></button><button id = button_10 class = ""square num-button"" onclick = ""recordClick(this)""><div class = content><div class = numbers>R</div></div></button><button id = button_11 class = ""square num-button"" onclick = ""recordClick(this)""><div class = content><div class = numbers>S</div></div></button><button id = button_12 class = ""square num-button"" onclick = ""recordClick(this)""><div class = content><div class = numbers>Y</div></div></button><button class = clear_button id = ""ClearButton"" onclick = ""clearResponse()"">BACKSPACE</button><button class = blank_button id = ""BlankButton"" onclick = ""blankResponse()"">SKIP</button><p style=""font-size: 2.4rem""><u><b>Current Answer:</b></u></p><br><br><div id=echoed_txt style=""font-size: 5rem; color:blue;""><b></b></div></div>",enter,ospan,retrieval,Dm7PTEkP74O8O4vz0N3eeugAWAo1,html-keyboard-response,98,769589,0.0-46.0-2.0-2.0-2.0-0.0,NA,NA,NA,3.0,"[""N"",""K"",""C""]","[""N"",""K"",""C""]",1.0,3.0,"['<font color=""green"">N</font>', '<font color=""green"">K</font>', '<font color=""green"">C</font>']",,,,,,6103d7b00cb90ef8d5c5260a,18:41:36,05/04/2024
982.1999999880791,"['<p style=""font-size:44px"">Letters:<br><br><br><font color=""green"">N</font> <font color=""green"">K</font> <font color=""green"">C</font></p><br><br><p style=""font-size:30px"">Symmetry:<br><br><font color=""green"">100%</font></p><br><br>']",0,ospan,practice_feedback,Dm7PTEkP74O8O4vz0N3eeugAWAo1,html-button-response,99,771083,0.0-46.0-2.0-2.0-2.0-1.0,,,,,,,,,,,,,,,6103d7b00cb90ef8d5c5260a,18:41:36,05/04/2024
11730.300000011921,"<div class = 'left_align' style='font-size: 3rem; line-height: 1.3;'><b>Great work! That is the end of practice.</b><br><br>The real trials will look just like the practice trials you just completed.<br><br><u>Here, you will not see feedback</u>. First, you will see an grid picture to judge,<br>then a letter to remember. When the recall screen appears, report the letters in the<br>order presented. If you forget a letter, remember to use the <b>blank</b> button to move to the<br>next letter. Some of the sets will have more symmetry grids and letters than others.<br><br>It is important that you do your best on both the symmetry judgments and the letter recall<br>parts of the experiment. For for the symmetry judgments, try to work as <b>quickly</b> and <br>as <b>accurately</b> as possible. Remember to keep your symmetry accuracy at 85% or above.<br><br><b>For the letters, do NOT use any external aid (e.g., writing on paper, electronic device).</b><br><br>It is <u>very important</u> to our experiment to have a <b>true</b> view of your real performance.<br><br>Do not worry if you miss some when it gets hard! This task is meant to be very challenging!<br><br>Click the button to begin.</div><br><br><br><br>",0,ospan,starting_real_here,Dm7PTEkP74O8O4vz0N3eeugAWAo1,html-button-response,100,782819,0.0-46.0-2.0-3.0,,,,,,,,,,,,,,,6103d7b00cb90ef8d5c5260a,18:41:36,05/04/2024
,"<p style=""font-size:75px;"">...</p>",,ospan,iti,Dm7PTEkP74O8O4vz0N3eeugAWAo1,html-keyboard-response,101,784088,0.0-46.0-3.0-0.0-0.0,,,,,,,,,,,,,,,6103d7b00cb90ef8d5c5260a,18:41:36,05/04/2024
1608.0,,,ospan,symmetry,Dm7PTEkP74O8O4vz0N3eeugAWAo1,symmetry-judgement-task,102,786853,0.0-46.0-3.0-0.0-1.0-0.0,,,,,,,,,,1.0,1.0,,,,6103d7b00cb90ef8d5c5260a,18:41:36,05/04/2024
,"<div style=""font-size: 10rem; color: #0000FF"">H</div>",,ospan,letter,Dm7PTEkP74O8O4vz0N3eeugAWAo1,html-keyboard-response,103,787869,0.0-46.0-3.0-0.0-1.0-1.0,,,,,,,,,,,,,,,6103d7b00cb90ef8d5c5260a,18:41:36,05/04/2024
990.0,,,ospan,symmetry,Dm7PTEkP74O8O4vz0N3eeugAWAo1,symmetry-judgement-task,104,790783,0.0-46.0-3.0-0.0-1.0-2.0,,,,,,,,,,1.0,1.0,,,,6103d7b00cb90ef8d5c5260a,18:41:36,05/04/2024
,"<div style=""font-size: 10rem; color: #0000FF"">R</div>",,ospan,letter,Dm7PTEkP74O8O4vz0N3eeugAWAo1,html-keyboard-response,105,791796,0.0-46.0-3.0-0.0-1.0-3.0,,,,,,,,,,,,,,,6103d7b00cb90ef8d5c5260a,18:41:36,05/04/2024
903.0,,,ospan,symmetry,Dm7PTEkP74O8O4vz0N3eeugAWAo1,symmetry-judgement-task,106,794675,0.0-46.0-3.0-0.0-1.0-4.0,,,,,,,,,,1.0,1.0,,,,6103d7b00cb90ef8d5c5260a,18:41:36,05/04/2024
,"<div style=""font-size: 10rem; color: #0000FF"">K</div>",,ospan,letter,Dm7PTEkP74O8O4vz0N3eeugAWAo1,html-keyboard-response,107,795685,0.0-46.0-3.0-0.0-1.0-5.0,,,,,,,,,,,,,,,6103d7b00cb90ef8d5c5260a,18:41:36,05/04/2024
3706.599999964237,"<div class = numbox><p style=""font-size: 2.4rem"">Please recall the letters you saw to the best of your ability. If you do not remember a particular letter, use the SKIP button.<br><b>(When you are ready to lock in your answer, press ENTER)</b></p><button id = button_1 class = ""square num-button"" onclick = ""recordClick(this)""><div class = content><div class = numbers>C</div></div></button><button id = button_2 class = ""square num-button"" onclick = ""recordClick(this)""><div class = content><div class = numbers>G</div></div></button><button id = button_3 class = ""square num-button"" onclick = ""recordClick(this)""><div class = content><div class = numbers>H</div></div></button><button id = button_4 class = ""square num-button"" onclick = ""recordClick(this)""><div class = content><div class = numbers>J</div></div></button><button id = button_5 class = ""square num-button"" onclick = ""recordClick(this)""><div class = content><div class = numbers>K</div></div></button><button id = button_6 class = ""square num-button"" onclick = ""recordClick(this)""><div class = content><div class = numbers>L</div></div></button><button id = button_7 class = ""square num-button"" onclick = ""recordClick(this)""><div class = content><div class = numbers>N</div></div></button><button id = button_8 class = ""square num-button"" onclick = ""recordClick(this)""><div class = content><div class = numbers>P</div></div></button><button id = button_9 class = ""square num-button"" onclick = ""recordClick(this)""><div class = content><div class = numbers>Q</div></div></button><button id = button_10 class = ""square num-button"" onclick = ""recordClick(this)""><div class = content><div class = numbers>R</div></div></button><button id = button_11 class = ""square num-button"" onclick = ""recordClick(this)""><div class = content><div class = numbers>S</div></div></button><button id = button_12 class = ""square num-button"" onclick = ""recordClick(this)""><div class = content><div class = numbers>Y</div></div></button><button class = clear_button id = ""ClearButton"" onclick = ""clearResponse()"">BACKSPACE</button><button class = blank_button id = ""BlankButton"" onclick = ""blankResponse()"">SKIP</button><p style=""font-size: 2.4rem""><u><b>Current Answer:</b></u></p><br><br><div id=echoed_txt style=""font-size: 5rem; color:blue;""><b></b></div></div>",enter,ospan,retrieval,Dm7PTEkP74O8O4vz0N3eeugAWAo1,html-keyboard-response,108,800152,0.0-46.0-3.0-0.0-2.0,3,3,3,3.0,"[""H"",""R"",""K""]","[""H"",""R"",""K""]",1.0,3.0,,,,,,,6103d7b00cb90ef8d5c5260a,18:41:36,05/04/2024
1252.5,[''],0,ospan,feedback,Dm7PTEkP74O8O4vz0N3eeugAWAo1,html-button-response,109,801921,0.0-46.0-3.0-0.0-3.0,,,,,,,,,,,,100.0,0.0,,6103d7b00cb90ef8d5c5260a,18:41:36,05/04/2024
,"<p style=""font-size:75px;"">...</p>",,ospan,iti,Dm7PTEkP74O8O4vz0N3eeugAWAo1,html-keyboard-response,110,802925,0.0-46.0-4.0-0.0-0.0,,,,,,,,,,,,,,,6103d7b00cb90ef8d5c5260a,18:41:36,05/04/2024
2181.0,,,ospan,symmetry,Dm7PTEkP74O8O4vz0N3eeugAWAo1,symmetry-judgement-task,111,806222,0.0-46.0-4.0-0.0-1.0-0.0,,,,,,,,,,1.0,1.0,,,,6103d7b00cb90ef8d5c5260a,18:41:36,05/04/2024
,"<div style=""font-size: 10rem; color: #0000FF"">K</div>",,ospan,letter,Dm7PTEkP74O8O4vz0N3eeugAWAo1,html-keyboard-response,112,807232,0.0-46.0-4.0-0.0-1.0-1.0,,,,,,,,,,,,,,,6103d7b00cb90ef8d5c5260a,18:41:36,05/04/2024
1182.0,,,ospan,symmetry,Dm7PTEkP74O8O4vz0N3eeugAWAo1,symmetry-judgement-task,113,810420,0.0-46.0-4.0-0.0-1.0-2.0,,,,,,,,,,1.0,1.0,,,,6103d7b00cb90ef8d5c5260a,18:41:36,05/04/2024
,"<div style=""font-size: 10rem; color: #0000FF"">N</div>",,ospan,letter,Dm7PTEkP74O8O4vz0N3eeugAWAo1,html-keyboard-response,114,811434,0.0-46.0-4.0-0.0-1.0-3.0,,,,,,,,,,,,,,,6103d7b00cb90ef8d5c5260a,18:41:36,05/04/2024
1523.0,,,ospan,symmetry,Dm7PTEkP74O8O4vz0N3eeugAWAo1,symmetry-judgement-task,115,814946,0.0-46.0-4.0-0.0-1.0-4.0,,,,,,,,,,1.0,1.0,,,,6103d7b00cb90ef8d5c5260a,18:41:36,05/04/2024
,"<div style=""font-size: 10rem; color: #0000FF"">Q</div>",,ospan,letter,Dm7PTEkP74O8O4vz0N3eeugAWAo1,html-keyboard-response,116,815963,0.0-46.0-4.0-0.0-1.0-5.0,,,,,,,,,,,,,,,6103d7b00cb90ef8d5c5260a,18:41:36,05/04/2024
927.0,,,ospan,symmetry,Dm7PTEkP74O8O4vz0N3eeugAWAo1,symmetry-judgement-task,117,818953,0.0-46.0-4.0-0.0-1.0-6.0,,,,,,,,,,1.0,1.0,,,,6103d7b00cb90ef8d5c5260a,18:41:36,05/04/2024
,"<div style=""font-size: 10rem; color: #0000FF"">L</div>",,ospan,letter,Dm7PTEkP74O8O4vz0N3eeugAWAo1,html-keyboard-response,118,819967,0.0-46.0-4.0-0.0-1.0-7.0,,,,,,,,,,,,,,,6103d7b00cb90ef8d5c5260a,18:41:36,05/04/2024
6137.099999964237,"<div class = numbox><p style=""font-size: 2.4rem"">Please recall the letters you saw to the best of your ability. If you do not remember a particular letter, use the SKIP button.<br><b>(When you are ready to lock in your answer, press ENTER)</b></p><button id = button_1 class = ""square num-button"" onclick = ""recordClick(this)""><div class = content><div class = numbers>C</div></div></button><button id = button_2 class = ""square num-button"" onclick = ""recordClick(this)""><div class = content><div class = numbers>G</div></div></button><button id = button_3 class = ""square num-button"" onclick = ""recordClick(this)""><div class = content><div class = numbers>H</div></div></button><button id = button_4 class = ""square num-button"" onclick = ""recordClick(this)""><div class = content><div class = numbers>J</div></div></button><button id = button_5 class = ""square num-button"" onclick = ""recordClick(this)""><div class = content><div class = numbers>K</div></div></button><button id = button_6 class = ""square num-button"" onclick = ""recordClick(this)""><div class = content><div class = numbers>L</div></div></button><button id = button_7 class = ""square num-button"" onclick = ""recordClick(this)""><div class = content><div class = numbers>N</div></div></button><button id = button_8 class = ""square num-button"" onclick = ""recordClick(this)""><div class = content><div class = numbers>P</div></div></button><button id = button_9 class = ""square num-button"" onclick = ""recordClick(this)""><div class = content><div class = numbers>Q</div></div></button><button id = button_10 class = ""square num-button"" onclick = ""recordClick(this)""><div class = content><div class = numbers>R</div></div></button><button id = button_11 class = ""square num-button"" onclick = ""recordClick(this)""><div class = content><div class = numbers>S</div></div></button><button id = button_12 class = ""square num-button"" onclick = ""recordClick(this)""><div class = content><div class = numbers>Y</div></div></button><button class = clear_button id = ""ClearButton"" onclick = ""clearResponse()"">BACKSPACE</button><button class = blank_button id = ""BlankButton"" onclick = ""blankResponse()"">SKIP</button><p style=""font-size: 2.4rem""><u><b>Current Answer:</b></u></p><br><br><div id=echoed_txt style=""font-size: 5rem; color:blue;""><b></b></div></div>",enter,ospan,retrieval,Dm7PTEkP74O8O4vz0N3eeugAWAo1,html-keyboard-response,119,826866,0.0-46.0-4.0-0.0-2.0,7,7,7,4.0,"[""K"",""N"",""Q"",""L""]","[""K"",""N"",""Q"",""L""]",1.0,4.0,,,,,,,6103d7b00cb90ef8d5c5260a,18:41:36,05/04/2024
7380.400000035763,[''],0,ospan,feedback,Dm7PTEkP74O8O4vz0N3eeugAWAo1,html-button-response,120,834764,0.0-46.0-4.0-0.0-3.0,,,,,,,,,,,,100.0,0.0,,6103d7b00cb90ef8d5c5260a,18:41:36,05/04/2024
,"<p style=""font-size:75px;"">...</p>",,ospan,iti,Dm7PTEkP74O8O4vz0N3eeugAWAo1,html-keyboard-response,121,835767,0.0-46.0-4.0-1.0-0.0,,,,,,,,,,,,,,,6103d7b00cb90ef8d5c5260a,18:41:36,05/04/2024
1686.0,,,ospan,symmetry,Dm7PTEkP74O8O4vz0N3eeugAWAo1,symmetry-judgement-task,122,838807,0.0-46.0-4.0-1.0-1.0-0.0,,,,,,,,,,1.0,1.0,,,,6103d7b00cb90ef8d5c5260a,18:41:36,05/04/2024
,"<div style=""font-size: 10rem; color: #0000FF"">P</div>",,ospan,letter,Dm7PTEkP74O8O4vz0N3eeugAWAo1,html-keyboard-response,123,839819,0.0-46.0-4.0-1.0-1.0-1.0,,,,,,,,,,,,,,,6103d7b00cb90ef8d5c5260a,18:41:36,05/04/2024
1367.0,,,ospan,symmetry,Dm7PTEkP74O8O4vz0N3eeugAWAo1,symmetry-judgement-task,124,843140,0.0-46.0-4.0-1.0-1.0-2.0,,,,,,,,,,1.0,1.0,,,,6103d7b00cb90ef8d5c5260a,18:41:36,05/04/2024
,"<div style=""font-size: 10rem; color: #0000FF"">Y</div>",,ospan,letter,Dm7PTEkP74O8O4vz0N3eeugAWAo1,html-keyboard-response,125,844144,0.0-46.0-4.0-1.0-1.0-3.0,,,,,,,,,,,,,,,6103d7b00cb90ef8d5c5260a,18:41:36,05/04/2024
1424.0,,,ospan,symmetry,Dm7PTEkP74O8O4vz0N3eeugAWAo1,symmetry-judgement-task,126,847581,0.0-46.0-4.0-1.0-1.0-4.0,,,,,,,,,,1.0,1.0,,,,6103d7b00cb90ef8d5c5260a,18:41:36,05/04/2024
,"<div style=""font-size: 10rem; color: #0000FF"">R</div>",,ospan,letter,Dm7PTEkP74O8O4vz0N3eeugAWAo1,html-keyboard-response,127,848594,0.0-46.0-4.0-1.0-1.0-5.0,,,,,,,,,,,,,,,6103d7b00cb90ef8d5c5260a,18:41:36,05/04/2024
1577.0,,,ospan,symmetry,Dm7PTEkP74O8O4vz0N3eeugAWAo1,symmetry-judgement-task,128,852082,0.0-46.0-4.0-1.0-1.0-6.0,,,,,,,,,,1.0,1.0,,,,6103d7b00cb90ef8d5c5260a,18:41:36,05/04/2024
,"<div style=""font-size: 10rem; color: #0000FF"">K</div>",,ospan,letter,Dm7PTEkP74O8O4vz0N3eeugAWAo1,html-keyboard-response,129,853099,0.0-46.0-4.0-1.0-1.0-7.0,,,,,,,,,,,,,,,6103d7b00cb90ef8d5c5260a,18:41:36,05/04/2024
1314.0,,,ospan,symmetry,Dm7PTEkP74O8O4vz0N3eeugAWAo1,symmetry-judgement-task,130,856370,0.0-46.0-4.0-1.0-1.0-8.0,,,,,,,,,,1.0,1.0,,,,6103d7b00cb90ef8d5c5260a,18:41:36,05/04/2024
,"<div style=""font-size: 10rem; color: #0000FF"">J</div>",,ospan,letter,Dm7PTEkP74O8O4vz0N3eeugAWAo1,html-keyboard-response,131,857384,0.0-46.0-4.0-1.0-1.0-9.0,,,,,,,,,,,,,,,6103d7b00cb90ef8d5c5260a,18:41:36,05/04/2024
5140.199999988079,"<div class = numbox><p style=""font-size: 2.4rem"">Please recall the letters you saw to the best of your ability. If you do not remember a particular letter, use the SKIP button.<br><b>(When you are ready to lock in your answer, press ENTER)</b></p><button id = button_1 class = ""square num-button"" onclick = ""recordClick(this)""><div class = content><div class = numbers>C</div></div></button><button id = button_2 class = ""square num-button"" onclick = ""recordClick(this)""><div class = content><div class = numbers>G</div></div></button><button id = button_3 class = ""square num-button"" onclick = ""recordClick(this)""><div class = content><div class = numbers>H</div></div></button><button id = button_4 class = ""square num-button"" onclick = ""recordClick(this)""><div class = content><div class = numbers>J</div></div></button><button id = button_5 class = ""square num-button"" onclick = ""recordClick(this)""><div class = content><div class = numbers>K</div></div></button><button id = button_6 class = ""square num-button"" onclick = ""recordClick(this)""><div class = content><div class = numbers>L</div></div></button><button id = button_7 class = ""square num-button"" onclick = ""recordClick(this)""><div class = content><div class = numbers>N</div></div></button><button id = button_8 class = ""square num-button"" onclick = ""recordClick(this)""><div class = content><div class = numbers>P</div></div></button><button id = button_9 class = ""square num-button"" onclick = ""recordClick(this)""><div class = content><div class = numbers>Q</div></div></button><button id = button_10 class = ""square num-button"" onclick = ""recordClick(this)""><div class = content><div class = numbers>R</div></div></button><button id = button_11 class = ""square num-button"" onclick = ""recordClick(this)""><div class = content><div class = numbers>S</div></div></button><button id = button_12 class = ""square num-button"" onclick = ""recordClick(this)""><div class = content><div class = numbers>Y</div></div></button><button class = clear_button id = ""ClearButton"" onclick = ""clearResponse()"">BACKSPACE</button><button class = blank_button id = ""BlankButton"" onclick = ""blankResponse()"">SKIP</button><p style=""font-size: 2.4rem""><u><b>Current Answer:</b></u></p><br><br><div id=echoed_txt style=""font-size: 5rem; color:blue;""><b></b></div></div>",enter,ospan,retrieval,Dm7PTEkP74O8O4vz0N3eeugAWAo1,html-keyboard-response,132,863296,0.0-46.0-4.0-1.0-2.0,12,12,12,5.0,"[""P"",""Y"",""R"",""K"",""J""]","[""P"",""Y"",""R"",""K"",""J""]",1.0,5.0,,,,,,,6103d7b00cb90ef8d5c5260a,18:41:36,05/04/2024
895.3000000119209,[''],0,ospan,feedback,Dm7PTEkP74O8O4vz0N3eeugAWAo1,html-button-response,133,864701,0.0-46.0-4.0-1.0-3.0,,,,,,,,,,,,100.0,0.0,,6103d7b00cb90ef8d5c5260a,18:41:36,05/04/2024
,"<p style=""font-size:75px;"">...</p>",,ospan,iti,Dm7PTEkP74O8O4vz0N3eeugAWAo1,html-keyboard-response,134,865722,0.0-46.0-4.0-2.0-0.0,,,,,,,,,,,,,,,6103d7b00cb90ef8d5c5260a,18:41:36,05/04/2024
1580.0,,,ospan,symmetry,Dm7PTEkP74O8O4vz0N3eeugAWAo1,symmetry-judgement-task,135,868481,0.0-46.0-4.0-2.0-1.0-0.0,,,,,,,,,,1.0,1.0,,,,6103d7b00cb90ef8d5c5260a,18:41:36,05/04/2024
,"<div style=""font-size: 10rem; color: #0000FF"">C</div>",,ospan,letter,Dm7PTEkP74O8O4vz0N3eeugAWAo1,html-keyboard-response,136,869490,0.0-46.0-4.0-2.0-1.0-1.0,,,,,,,,,,,,,,,6103d7b00cb90ef8d5c5260a,18:41:36,05/04/2024
1125.0,,,ospan,symmetry,Dm7PTEkP74O8O4vz0N3eeugAWAo1,symmetry-judgement-task,137,872563,0.0-46.0-4.0-2.0-1.0-2.0,,,,,,,,,,1.0,1.0,,,,6103d7b00cb90ef8d5c5260a,18:41:36,05/04/2024
,"<div style=""font-size: 10rem; color: #0000FF"">Y</div>",,ospan,letter,Dm7PTEkP74O8O4vz0N3eeugAWAo1,html-keyboard-response,138,873570,0.0-46.0-4.0-2.0-1.0-3.0,,,,,,,,,,,,,,,6103d7b00cb90ef8d5c5260a,18:41:36,05/04/2024
1366.0,,,ospan,symmetry,Dm7PTEkP74O8O4vz0N3eeugAWAo1,symmetry-judgement-task,139,876965,0.0-46.0-4.0-2.0-1.0-4.0,,,,,,,,,,1.0,1.0,,,,6103d7b00cb90ef8d5c5260a,18:41:36,05/04/2024
,"<div style=""font-size: 10rem; color: #0000FF"">H</div>",,ospan,letter,Dm7PTEkP74O8O4vz0N3eeugAWAo1,html-keyboard-response,140,877979,0.0-46.0-4.0-2.0-1.0-5.0,,,,,,,,,,,,,,,6103d7b00cb90ef8d5c5260a,18:41:36,05/04/2024
3890.899999976158,"<div class = numbox><p style=""font-size: 2.4rem"">Please recall the letters you saw to the best of your ability. If you do not remember a particular letter, use the SKIP button.<br><b>(When you are ready to lock in your answer, press ENTER)</b></p><button id = button_1 class = ""square num-button"" onclick = ""recordClick(this)""><div class = content><div class = numbers>C</div></div></button><button id = button_2 class = ""square num-button"" onclick = ""recordClick(this)""><div class = content><div class = numbers>G</div></div></button><button id = button_3 class = ""square num-button"" onclick = ""recordClick(this)""><div class = content><div class = numbers>H</div></div></button><button id = button_4 class = ""square num-button"" onclick = ""recordClick(this)""><div class = content><div class = numbers>J</div></div></button><button id = button_5 class = ""square num-button"" onclick = ""recordClick(this)""><div class = content><div class = numbers>K</div></div></button><button id = button_6 class = ""square num-button"" onclick = ""recordClick(this)""><div class = content><div class = numbers>L</div></div></button><button id = button_7 class = ""square num-button"" onclick = ""recordClick(this)""><div class = content><div class = numbers>N</div></div></button><button id = button_8 class = ""square num-button"" onclick = ""recordClick(this)""><div class = content><div class = numbers>P</div></div></button><button id = button_9 class = ""square num-button"" onclick = ""recordClick(this)""><div class = content><div class = numbers>Q</div></div></button><button id = button_10 class = ""square num-button"" onclick = ""recordClick(this)""><div class = content><div class = numbers>R</div></div></button><button id = button_11 class = ""square num-button"" onclick = ""recordClick(this)""><div class = content><div class = numbers>S</div></div></button><button id = button_12 class = ""square num-button"" onclick = ""recordClick(this)""><div class = content><div class = numbers>Y</div></div></button><button class = clear_button id = ""ClearButton"" onclick = ""clearResponse()"">BACKSPACE</button><button class = blank_button id = ""BlankButton"" onclick = ""blankResponse()"">SKIP</button><p style=""font-size: 2.4rem""><u><b>Current Answer:</b></u></p><br><br><div id=echoed_txt style=""font-size: 5rem; color:blue;""><b></b></div></div>",enter,ospan,retrieval,Dm7PTEkP74O8O4vz0N3eeugAWAo1,html-keyboard-response,141,882624,0.0-46.0-4.0-2.0-2.0,15,15,15,3.0,"[""C"",""Y"",""H""]","[""C"",""Y"",""H""]",1.0,3.0,,,,,,,6103d7b00cb90ef8d5c5260a,18:41:36,05/04/2024
1057.5,[''],0,ospan,feedback,Dm7PTEkP74O8O4vz0N3eeugAWAo1,html-button-response,142,884197,0.0-46.0-4.0-2.0-3.0,,,,,,,,,,,,100.0,0.0,,6103d7b00cb90ef8d5c5260a,18:41:36,05/04/2024
,"<p style=""font-size:75px;"">...</p>",,ospan,iti,Dm7PTEkP74O8O4vz0N3eeugAWAo1,html-keyboard-response,143,885201,0.0-46.0-5.0-0.0-0.0,,,,,,,,,,,,,,,6103d7b00cb90ef8d5c5260a,18:41:36,05/04/2024
1613.0,,,ospan,symmetry,Dm7PTEkP74O8O4vz0N3eeugAWAo1,symmetry-judgement-task,144,888164,0.0-46.0-5.0-0.0-1.0-0.0,,,,,,,,,,1.0,1.0,,,,6103d7b00cb90ef8d5c5260a,18:41:36,05/04/2024
,"<div style=""font-size: 10rem; color: #0000FF"">R</div>",,ospan,letter,Dm7PTEkP74O8O4vz0N3eeugAWAo1,html-keyboard-response,145,889178,0.0-46.0-5.0-0.0-1.0-1.0,,,,,,,,,,,,,,,6103d7b00cb90ef8d5c5260a,18:41:36,05/04/2024
1160.0,,,ospan,symmetry,Dm7PTEkP74O8O4vz0N3eeugAWAo1,symmetry-judgement-task,146,892347,0.0-46.0-5.0-0.0-1.0-2.0,,,,,,,,,,1.0,1.0,,,,6103d7b00cb90ef8d5c5260a,18:41:36,05/04/2024
,"<div style=""font-size: 10rem; color: #0000FF"">J</div>",,ospan,letter,Dm7PTEkP74O8O4vz0N3eeugAWAo1,html-keyboard-response,147,893359,0.0-46.0-5.0-0.0-1.0-3.0,,,,,,,,,,,,,,,6103d7b00cb90ef8d5c5260a,18:41:36,05/04/2024
1034.0,,,ospan,symmetry,Dm7PTEkP74O8O4vz0N3eeugAWAo1,symmetry-judgement-task,148,896412,0.0-46.0-5.0-0.0-1.0-4.0,,,,,,,,,,1.0,1.0,,,,6103d7b00cb90ef8d5c5260a,18:41:36,05/04/2024
,"<div style=""font-size: 10rem; color: #0000FF"">K</div>",,ospan,letter,Dm7PTEkP74O8O4vz0N3eeugAWAo1,html-keyboard-response,149,897427,0.0-46.0-5.0-0.0-1.0-5.0,,,,,,,,,,,,,,,6103d7b00cb90ef8d5c5260a,18:41:36,05/04/2024
1371.0,,,ospan,symmetry,Dm7PTEkP74O8O4vz0N3eeugAWAo1,symmetry-judgement-task,150,900613,0.0-46.0-5.0-0.0-1.0-6.0,,,,,,,,,,1.0,1.0,,,,6103d7b00cb90ef8d5c5260a,18:41:36,05/04/2024
,"<div style=""font-size: 10rem; color: #0000FF"">H</div>",,ospan,letter,Dm7PTEkP74O8O4vz0N3eeugAWAo1,html-keyboard-response,151,901630,0.0-46.0-5.0-0.0-1.0-7.0,,,,,,,,,,,,,,,6103d7b00cb90ef8d5c5260a,18:41:36,05/04/2024
1361.0,,,ospan,symmetry,Dm7PTEkP74O8O4vz0N3eeugAWAo1,symmetry-judgement-task,152,905072,0.0-46.0-5.0-0.0-1.0-8.0,,,,,,,,,,1.0,1.0,,,,6103d7b00cb90ef8d5c5260a,18:41:36,05/04/2024
,"<div style=""font-size: 10rem; color: #0000FF"">G</div>",,ospan,letter,Dm7PTEkP74O8O4vz0N3eeugAWAo1,html-keyboard-response,153,906085,0.0-46.0-5.0-0.0-1.0-9.0,,,,,,,,,,,,,,,6103d7b00cb90ef8d5c5260a,18:41:36,05/04/2024
1144.0,,,ospan,symmetry,Dm7PTEkP74O8O4vz0N3eeugAWAo1,symmetry-judgement-task,154,909197,0.0-46.0-5.0-0.0-1.0-10.0,,,,,,,,,,1.0,1.0,,,,6103d7b00cb90ef8d5c5260a,18:41:36,05/04/2024
,"<div style=""font-size: 10rem; color: #0000FF"">N</div>",,ospan,letter,Dm7PTEkP74O8O4vz0N3eeugAWAo1,html-keyboard-response,155,910206,0.0-46.0-5.0-0.0-1.0-11.0,,,,,,,,,,,,,,,6103d7b00cb90ef8d5c5260a,18:41:36,05/04/2024
7548.599999964237,"<div class = numbox><p style=""font-size: 2.4rem"">Please recall the letters you saw to the best of your ability. If you do not remember a particular letter, use the SKIP button.<br><b>(When you are ready to lock in your answer, press ENTER)</b></p><button id = button_1 class = ""square num-button"" onclick = ""recordClick(this)""><div class = content><div class = numbers>C</div></div></button><button id = button_2 class = ""square num-button"" onclick = ""recordClick(this)""><div class = content><div class = numbers>G</div></div></button><button id = button_3 class = ""square num-button"" onclick = ""recordClick(this)""><div class = content><div class = numbers>H</div></div></button><button id = button_4 class = ""square num-button"" onclick = ""recordClick(this)""><div class = content><div class = numbers>J</div></div></button><button id = button_5 class = ""square num-button"" onclick = ""recordClick(this)""><div class = content><div class = numbers>K</div></div></button><button id = button_6 class = ""square num-button"" onclick = ""recordClick(this)""><div class = content><div class = numbers>L</div></div></button><button id = button_7 class = ""square num-button"" onclick = ""recordClick(this)""><div class = content><div class = numbers>N</div></div></button><button id = button_8 class = ""square num-button"" onclick = ""recordClick(this)""><div class = content><div class = numbers>P</div></div></button><button id = button_9 class = ""square num-button"" onclick = ""recordClick(this)""><div class = content><div class = numbers>Q</div></div></button><button id = button_10 class = ""square num-button"" onclick = ""recordClick(this)""><div class = content><div class = numbers>R</div></div></button><button id = button_11 class = ""square num-button"" onclick = ""recordClick(this)""><div class = content><div class = numbers>S</div></div></button><button id = button_12 class = ""square num-button"" onclick = ""recordClick(this)""><div class = content><div class = numbers>Y</div></div></button><button class = clear_button id = ""ClearButton"" onclick = ""clearResponse()"">BACKSPACE</button><button class = blank_button id = ""BlankButton"" onclick = ""blankResponse()"">SKIP</button><p style=""font-size: 2.4rem""><u><b>Current Answer:</b></u></p><br><br><div id=echoed_txt style=""font-size: 5rem; color:blue;""><b></b></div></div>",enter,ospan,retrieval,Dm7PTEkP74O8O4vz0N3eeugAWAo1,html-keyboard-response,156,918519,0.0-46.0-5.0-0.0-2.0,21,19,15,6.0,"[""R"",""J"",""K"",""H"",""N""]","[""R"",""J"",""K"",""H"",""G"",""N""]",0.0,4.0,,,,,,,6103d7b00cb90ef8d5c5260a,18:41:36,05/04/2024
1348.3999999761581,[''],0,ospan,feedback,Dm7PTEkP74O8O4vz0N3eeugAWAo1,html-button-response,157,920380,0.0-46.0-5.0-0.0-3.0,,,,,,,,,,,,100.0,0.0,,6103d7b00cb90ef8d5c5260a,18:41:36,05/04/2024
,"<p style=""font-size:75px;"">...</p>",,ospan,iti,Dm7PTEkP74O8O4vz0N3eeugAWAo1,html-keyboard-response,158,921388,0.0-46.0-5.0-1.0-0.0,,,,,,,,,,,,,,,6103d7b00cb90ef8d5c5260a,18:41:36,05/04/2024
1516.0,,,ospan,symmetry,Dm7PTEkP74O8O4vz0N3eeugAWAo1,symmetry-judgement-task,159,924073,0.0-46.0-5.0-1.0-1.0-0.0,,,,,,,,,,1.0,1.0,,,,6103d7b00cb90ef8d5c5260a,18:41:36,05/04/2024
,"<div style=""font-size: 10rem; color: #0000FF"">R</div>",,ospan,letter,Dm7PTEkP74O8O4vz0N3eeugAWAo1,html-keyboard-response,160,925082,0.0-46.0-5.0-1.0-1.0-1.0,,,,,,,,,,,,,,,6103d7b00cb90ef8d5c5260a,18:41:36,05/04/2024
1155.0,,,ospan,symmetry,Dm7PTEkP74O8O4vz0N3eeugAWAo1,symmetry-judgement-task,161,928193,0.0-46.0-5.0-1.0-1.0-2.0,,,,,,,,,,1.0,1.0,,,,6103d7b00cb90ef8d5c5260a,18:41:36,05/04/2024
,"<div style=""font-size: 10rem; color: #0000FF"">P</div>",,ospan,letter,Dm7PTEkP74O8O4vz0N3eeugAWAo1,html-keyboard-response,162,929195,0.0-46.0-5.0-1.0-1.0-3.0,,,,,,,,,,,,,,,6103d7b00cb90ef8d5c5260a,18:41:36,05/04/2024
973.0,,,ospan,symmetry,Dm7PTEkP74O8O4vz0N3eeugAWAo1,symmetry-judgement-task,163,932206,0.0-46.0-5.0-1.0-1.0-4.0,,,,,,,,,,1.0,1.0,,,,6103d7b00cb90ef8d5c5260a,18:41:36,05/04/2024
,"<div style=""font-size: 10rem; color: #0000FF"">Y</div>",,ospan,letter,Dm7PTEkP74O8O4vz0N3eeugAWAo1,html-keyboard-response,164,933224,0.0-46.0-5.0-1.0-1.0-5.0,,,,,,,,,,,,,,,6103d7b00cb90ef8d5c5260a,18:41:36,05/04/2024
950.0,,,ospan,symmetry,Dm7PTEkP74O8O4vz0N3eeugAWAo1,symmetry-judgement-task,165,936245,0.0-46.0-5.0-1.0-1.0-6.0,,,,,,,,,,1.0,1.0,,,,6103d7b00cb90ef8d5c5260a,18:41:36,05/04/2024
,"<div style=""font-size: 10rem; color: #0000FF"">K</div>",,ospan,letter,Dm7PTEkP74O8O4vz0N3eeugAWAo1,html-keyboard-response,166,937255,0.0-46.0-5.0-1.0-1.0-7.0,,,,,,,,,,,,,,,6103d7b00cb90ef8d5c5260a,18:41:36,05/04/2024
1019.0,,,ospan,symmetry,Dm7PTEkP74O8O4vz0N3eeugAWAo1,symmetry-judgement-task,167,940220,0.0-46.0-5.0-1.0-1.0-8.0,,,,,,,,,,1.0,1.0,,,,6103d7b00cb90ef8d5c5260a,18:41:36,05/04/2024
,"<div style=""font-size: 10rem; color: #0000FF"">L</div>",,ospan,letter,Dm7PTEkP74O8O4vz0N3eeugAWAo1,html-keyboard-response,168,941232,0.0-46.0-5.0-1.0-1.0-9.0,,,,,,,,,,,,,,,6103d7b00cb90ef8d5c5260a,18:41:36,05/04/2024
1124.0,,,ospan,symmetry,Dm7PTEkP74O8O4vz0N3eeugAWAo1,symmetry-judgement-task,169,944326,0.0-46.0-5.0-1.0-1.0-10.0,,,,,,,,,,1.0,1.0,,,,6103d7b00cb90ef8d5c5260a,18:41:36,05/04/2024
,"<div style=""font-size: 10rem; color: #0000FF"">J</div>",,ospan,letter,Dm7PTEkP74O8O4vz0N3eeugAWAo1,html-keyboard-response,170,945335,0.0-46.0-5.0-1.0-1.0-11.0,,,,,,,,,,,,,,,6103d7b00cb90ef8d5c5260a,18:41:36,05/04/2024
1040.0,,,ospan,symmetry,Dm7PTEkP74O8O4vz0N3eeugAWAo1,symmetry-judgement-task,171,948473,0.0-46.0-5.0-1.0-1.0-12.0,,,,,,,,,,1.0,1.0,,,,6103d7b00cb90ef8d5c5260a,18:41:36,05/04/2024
,"<div style=""font-size: 10rem; color: #0000FF"">G</div>",,ospan,letter,Dm7PTEkP74O8O4vz0N3eeugAWAo1,html-keyboard-response,172,949483,0.0-46.0-5.0-1.0-1.0-13.0,,,,,,,,,,,,,,,6103d7b00cb90ef8d5c5260a,18:41:36,05/04/2024
6799.5,"<div class = numbox><p style=""font-size: 2.4rem"">Please recall the letters you saw to the best of your ability. If you do not remember a particular letter, use the SKIP button.<br><b>(When you are ready to lock in your answer, press ENTER)</b></p><button id = button_1 class = ""square num-button"" onclick = ""recordClick(this)""><div class = content><div class = numbers>C</div></div></button><button id = button_2 class = ""square num-button"" onclick = ""recordClick(this)""><div class = content><div class = numbers>G</div></div></button><button id = button_3 class = ""square num-button"" onclick = ""recordClick(this)""><div class = content><div class = numbers>H</div></div></button><button id = button_4 class = ""square num-button"" onclick = ""recordClick(this)""><div class = content><div class = numbers>J</div></div></button><button id = button_5 class = ""square num-button"" onclick = ""recordClick(this)""><div class = content><div class = numbers>K</div></div></button><button id = button_6 class = ""square num-button"" onclick = ""recordClick(this)""><div class = content><div class = numbers>L</div></div></button><button id = button_7 class = ""square num-button"" onclick = ""recordClick(this)""><div class = content><div class = numbers>N</div></div></button><button id = button_8 class = ""square num-button"" onclick = ""recordClick(this)""><div class = content><div class = numbers>P</div></div></button><button id = button_9 class = ""square num-button"" onclick = ""recordClick(this)""><div class = content><div class = numbers>Q</div></div></button><button id = button_10 class = ""square num-button"" onclick = ""recordClick(this)""><div class = content><div class = numbers>R</div></div></button><button id = button_11 class = ""square num-button"" onclick = ""recordClick(this)""><div class = content><div class = numbers>S</div></div></button><button id = button_12 class = ""square num-button"" onclick = ""recordClick(this)""><div class = content><div class = numbers>Y</div></div></button><button class = clear_button id = ""ClearButton"" onclick = ""clearResponse()"">BACKSPACE</button><button class = blank_button id = ""BlankButton"" onclick = ""blankResponse()"">SKIP</button><p style=""font-size: 2.4rem""><u><b>Current Answer:</b></u></p><br><br><div id=echoed_txt style=""font-size: 5rem; color:blue;""><b></b></div></div>",enter,ospan,retrieval,Dm7PTEkP74O8O4vz0N3eeugAWAo1,html-keyboard-response,173,957041,0.0-46.0-5.0-1.0-2.0,28,26,22,7.0,"[""R"",""P"",""Y"",""K"",""L"",""J"",""G""]","[""R"",""P"",""Y"",""K"",""L"",""J"",""G""]",1.0,7.0,,,,,,,6103d7b00cb90ef8d5c5260a,18:41:36,05/04/2024
4230.700000047684,[''],0,ospan,feedback,Dm7PTEkP74O8O4vz0N3eeugAWAo1,html-button-response,174,961776,0.0-46.0-5.0-1.0-3.0,,,,,,,,,,,,100.0,0.0,,6103d7b00cb90ef8d5c5260a,18:41:36,05/04/2024
,"<p style=""font-size:75px;"">...</p>",,ospan,iti,Dm7PTEkP74O8O4vz0N3eeugAWAo1,html-keyboard-response,175,962786,0.0-46.0-6.0-0.0-0.0,,,,,,,,,,,,,,,6103d7b00cb90ef8d5c5260a,18:41:36,05/04/2024
1883.0,,,ospan,symmetry,Dm7PTEkP74O8O4vz0N3eeugAWAo1,symmetry-judgement-task,176,965787,0.0-46.0-6.0-0.0-1.0-0.0,,,,,,,,,,1.0,1.0,,,,6103d7b00cb90ef8d5c5260a,18:41:36,05/04/2024
,"<div style=""font-size: 10rem; color: #0000FF"">P</div>",,ospan,letter,Dm7PTEkP74O8O4vz0N3eeugAWAo1,html-keyboard-response,177,966797,0.0-46.0-6.0-0.0-1.0-1.0,,,,,,,,,,,,,,,6103d7b00cb90ef8d5c5260a,18:41:36,05/04/2024
1040.0,,,ospan,symmetry,Dm7PTEkP74O8O4vz0N3eeugAWAo1,symmetry-judgement-task,178,969802,0.0-46.0-6.0-0.0-1.0-2.0,,,,,,,,,,1.0,1.0,,,,6103d7b00cb90ef8d5c5260a,18:41:36,05/04/2024
,"<div style=""font-size: 10rem; color: #0000FF"">K</div>",,ospan,letter,Dm7PTEkP74O8O4vz0N3eeugAWAo1,html-keyboard-response,179,970807,0.0-46.0-6.0-0.0-1.0-3.0,,,,,,,,,,,,,,,6103d7b00cb90ef8d5c5260a,18:41:36,05/04/2024
1106.0,,,ospan,symmetry,Dm7PTEkP74O8O4vz0N3eeugAWAo1,symmetry-judgement-task,180,973887,0.0-46.0-6.0-0.0-1.0-4.0,,,,,,,,,,1.0,1.0,,,,6103d7b00cb90ef8d5c5260a,18:41:36,05/04/2024
,"<div style=""font-size: 10rem; color: #0000FF"">N</div>",,ospan,letter,Dm7PTEkP74O8O4vz0N3eeugAWAo1,html-keyboard-response,181,974901,0.0-46.0-6.0-0.0-1.0-5.0,,,,,,,,,,,,,,,6103d7b00cb90ef8d5c5260a,18:41:36,05/04/2024
1180.0,,,ospan,symmetry,Dm7PTEkP74O8O4vz0N3eeugAWAo1,symmetry-judgement-task,182,978098,0.0-46.0-6.0-0.0-1.0-6.0,,,,,,,,,,1.0,1.0,,,,6103d7b00cb90ef8d5c5260a,18:41:36,05/04/2024
,"<div style=""font-size: 10rem; color: #0000FF"">Q</div>",,ospan,letter,Dm7PTEkP74O8O4vz0N3eeugAWAo1,html-keyboard-response,183,979113,0.0-46.0-6.0-0.0-1.0-7.0,,,,,,,,,,,,,,,6103d7b00cb90ef8d5c5260a,18:41:36,05/04/2024
1416.0,,,ospan,symmetry,Dm7PTEkP74O8O4vz0N3eeugAWAo1,symmetry-judgement-task,184,982375,0.0-46.0-6.0-0.0-1.0-8.0,,,,,,,,,,1.0,1.0,,,,6103d7b00cb90ef8d5c5260a,18:41:36,05/04/2024
,"<div style=""font-size: 10rem; color: #0000FF"">J</div>",,ospan,letter,Dm7PTEkP74O8O4vz0N3eeugAWAo1,html-keyboard-response,185,983379,0.0-46.0-6.0-0.0-1.0-9.0,,,,,,,,,,,,,,,6103d7b00cb90ef8d5c5260a,18:41:36,05/04/2024
5310.299999952316,"<div class = numbox><p style=""font-size: 2.4rem"">Please recall the letters you saw to the best of your ability. If you do not remember a particular letter, use the SKIP button.<br><b>(When you are ready to lock in your answer, press ENTER)</b></p><button id = button_1 class = ""square num-button"" onclick = ""recordClick(this)""><div class = content><div class = numbers>C</div></div></button><button id = button_2 class = ""square num-button"" onclick = ""recordClick(this)""><div class = content><div class = numbers>G</div></div></button><button id = button_3 class = ""square num-button"" onclick = ""recordClick(this)""><div class = content><div class = numbers>H</div></div></button><button id = button_4 class = ""square num-button"" onclick = ""recordClick(this)""><div class = content><div class = numbers>J</div></div></button><button id = button_5 class = ""square num-button"" onclick = ""recordClick(this)""><div class = content><div class = numbers>K</div></div></button><button id = button_6 class = ""square num-button"" onclick = ""recordClick(this)""><div class = content><div class = numbers>L</div></div></button><button id = button_7 class = ""square num-button"" onclick = ""recordClick(this)""><div class = content><div class = numbers>N</div></div></button><button id = button_8 class = ""square num-button"" onclick = ""recordClick(this)""><div class = content><div class = numbers>P</div></div></button><button id = button_9 class = ""square num-button"" onclick = ""recordClick(this)""><div class = content><div class = numbers>Q</div></div></button><button id = button_10 class = ""square num-button"" onclick = ""recordClick(this)""><div class = content><div class = numbers>R</div></div></button><button id = button_11 class = ""square num-button"" onclick = ""recordClick(this)""><div class = content><div class = numbers>S</div></div></button><button id = button_12 class = ""square num-button"" onclick = ""recordClick(this)""><div class = content><div class = numbers>Y</div></div></button><button class = clear_button id = ""ClearButton"" onclick = ""clearResponse()"">BACKSPACE</button><button class = blank_button id = ""BlankButton"" onclick = ""blankResponse()"">SKIP</button><p style=""font-size: 2.4rem""><u><b>Current Answer:</b></u></p><br><br><div id=echoed_txt style=""font-size: 5rem; color:blue;""><b></b></div></div>",enter,ospan,retrieval,Dm7PTEkP74O8O4vz0N3eeugAWAo1,html-keyboard-response,186,989448,0.0-46.0-6.0-0.0-2.0,33,31,27,5.0,"[""P"",""K"",""N"",""Q"",""J""]","[""P"",""K"",""N"",""Q"",""J""]",1.0,5.0,,,,,,,6103d7b00cb90ef8d5c5260a,18:41:36,05/04/2024
711.8999999761581,[''],0,ospan,feedback,Dm7PTEkP74O8O4vz0N3eeugAWAo1,html-button-response,187,990671,0.0-46.0-6.0-0.0-3.0,,,,,,,,,,,,100.0,0.0,,6103d7b00cb90ef8d5c5260a,18:41:36,05/04/2024
,"<p style=""font-size:75px;"">...</p>",,ospan,iti,Dm7PTEkP74O8O4vz0N3eeugAWAo1,html-keyboard-response,188,991684,0.0-46.0-6.0-1.0-0.0,,,,,,,,,,,,,,,6103d7b00cb90ef8d5c5260a,18:41:36,05/04/2024
1476.0,,,ospan,symmetry,Dm7PTEkP74O8O4vz0N3eeugAWAo1,symmetry-judgement-task,189,994246,0.0-46.0-6.0-1.0-1.0-0.0,,,,,,,,,,1.0,1.0,,,,6103d7b00cb90ef8d5c5260a,18:41:36,05/04/2024
,"<div style=""font-size: 10rem; color: #0000FF"">Y</div>",,ospan,letter,Dm7PTEkP74O8O4vz0N3eeugAWAo1,html-keyboard-response,190,995259,0.0-46.0-6.0-1.0-1.0-1.0,,,,,,,,,,,,,,,6103d7b00cb90ef8d5c5260a,18:41:36,05/04/2024
940.0,,,ospan,symmetry,Dm7PTEkP74O8O4vz0N3eeugAWAo1,symmetry-judgement-task,191,998214,0.0-46.0-6.0-1.0-1.0-2.0,,,,,,,,,,1.0,1.0,,,,6103d7b00cb90ef8d5c5260a,18:41:36,05/04/2024
,"<div style=""font-size: 10rem; color: #0000FF"">G</div>",,ospan,letter,Dm7PTEkP74O8O4vz0N3eeugAWAo1,html-keyboard-response,192,999227,0.0-46.0-6.0-1.0-1.0-3.0,,,,,,,,,,,,,,,6103d7b00cb90ef8d5c5260a,18:41:36,05/04/2024
964.0,,,ospan,symmetry,Dm7PTEkP74O8O4vz0N3eeugAWAo1,symmetry-judgement-task,193,1002172,0.0-46.0-6.0-1.0-1.0-4.0,,,,,,,,,,1.0,1.0,,,,6103d7b00cb90ef8d5c5260a,18:41:36,05/04/2024
,"<div style=""font-size: 10rem; color: #0000FF"">N</div>",,ospan,letter,Dm7PTEkP74O8O4vz0N3eeugAWAo1,html-keyboard-response,194,1003182,0.0-46.0-6.0-1.0-1.0-5.0,,,,,,,,,,,,,,,6103d7b00cb90ef8d5c5260a,18:41:36,05/04/2024
1428.0,,,ospan,symmetry,Dm7PTEkP74O8O4vz0N3eeugAWAo1,symmetry-judgement-task,195,1006551,0.0-46.0-6.0-1.0-1.0-6.0,,,,,,,,,,1.0,1.0,,,,6103d7b00cb90ef8d5c5260a,18:41:36,05/04/2024
,"<div style=""font-size: 10rem; color: #0000FF"">L</div>",,ospan,letter,Dm7PTEkP74O8O4vz0N3eeugAWAo1,html-keyboard-response,196,1007564,0.0-46.0-6.0-1.0-1.0-7.0,,,,,,,,,,,,,,,6103d7b00cb90ef8d5c5260a,18:41:36,05/04/2024
1271.0,,,ospan,symmetry,Dm7PTEkP74O8O4vz0N3eeugAWAo1,symmetry-judgement-task,197,1010879,0.0-46.0-6.0-1.0-1.0-8.0,,,,,,,,,,1.0,1.0,,,,6103d7b00cb90ef8d5c5260a,18:41:36,05/04/2024
,"<div style=""font-size: 10rem; color: #0000FF"">R</div>",,ospan,letter,Dm7PTEkP74O8O4vz0N3eeugAWAo1,html-keyboard-response,198,1011881,0.0-46.0-6.0-1.0-1.0-9.0,,,,,,,,,,,,,,,6103d7b00cb90ef8d5c5260a,18:41:36,05/04/2024
954.0,,,ospan,symmetry,Dm7PTEkP74O8O4vz0N3eeugAWAo1,symmetry-judgement-task,199,1014935,0.0-46.0-6.0-1.0-1.0-10.0,,,,,,,,,,1.0,1.0,,,,6103d7b00cb90ef8d5c5260a,18:41:36,05/04/2024
,"<div style=""font-size: 10rem; color: #0000FF"">J</div>",,ospan,letter,Dm7PTEkP74O8O4vz0N3eeugAWAo1,html-keyboard-response,200,1015938,0.0-46.0-6.0-1.0-1.0-11.0,,,,,,,,,,,,,,,6103d7b00cb90ef8d5c5260a,18:41:36,05/04/2024
1120.0,,,ospan,symmetry,Dm7PTEkP74O8O4vz0N3eeugAWAo1,symmetry-judgement-task,201,1019045,0.0-46.0-6.0-1.0-1.0-12.0,,,,,,,,,,1.0,1.0,,,,6103d7b00cb90ef8d5c5260a,18:41:36,05/04/2024
,"<div style=""font-size: 10rem; color: #0000FF"">H</div>",,ospan,letter,Dm7PTEkP74O8O4vz0N3eeugAWAo1,html-keyboard-response,202,1020057,0.0-46.0-6.0-1.0-1.0-13.0,,,,,,,,,,,,,,,6103d7b00cb90ef8d5c5260a,18:41:36,05/04/2024
1483.0,,,ospan,symmetry,Dm7PTEkP74O8O4vz0N3eeugAWAo1,symmetry-judgement-task,203,1023500,0.0-46.0-6.0-1.0-1.0-14.0,,,,,,,,,,1.0,1.0,,,,6103d7b00cb90ef8d5c5260a,18:41:36,05/04/2024
,"<div style=""font-size: 10rem; color: #0000FF"">Q</div>",,ospan,letter,Dm7PTEkP74O8O4vz0N3eeugAWAo1,html-keyboard-response,204,1024515,0.0-46.0-6.0-1.0-1.0-15.0,,,,,,,,,,,,,,,6103d7b00cb90ef8d5c5260a,18:41:36,05/04/2024
7839.800000011921,"<div class = numbox><p style=""font-size: 2.4rem"">Please recall the letters you saw to the best of your ability. If you do not remember a particular letter, use the SKIP button.<br><b>(When you are ready to lock in your answer, press ENTER)</b></p><button id = button_1 class = ""square num-button"" onclick = ""recordClick(this)""><div class = content><div class = numbers>C</div></div></button><button id = button_2 class = ""square num-button"" onclick = ""recordClick(this)""><div class = content><div class = numbers>G</div></div></button><button id = button_3 class = ""square num-button"" onclick = ""recordClick(this)""><div class = content><div class = numbers>H</div></div></button><button id = button_4 class = ""square num-button"" onclick = ""recordClick(this)""><div class = content><div class = numbers>J</div></div></button><button id = button_5 class = ""square num-button"" onclick = ""recordClick(this)""><div class = content><div class = numbers>K</div></div></button><button id = button_6 class = ""square num-button"" onclick = ""recordClick(this)""><div class = content><div class = numbers>L</div></div></button><button id = button_7 class = ""square num-button"" onclick = ""recordClick(this)""><div class = content><div class = numbers>N</div></div></button><button id = button_8 class = ""square num-button"" onclick = ""recordClick(this)""><div class = content><div class = numbers>P</div></div></button><button id = button_9 class = ""square num-button"" onclick = ""recordClick(this)""><div class = content><div class = numbers>Q</div></div></button><button id = button_10 class = ""square num-button"" onclick = ""recordClick(this)""><div class = content><div class = numbers>R</div></div></button><button id = button_11 class = ""square num-button"" onclick = ""recordClick(this)""><div class = content><div class = numbers>S</div></div></button><button id = button_12 class = ""square num-button"" onclick = ""recordClick(this)""><div class = content><div class = numbers>Y</div></div></button><button class = clear_button id = ""ClearButton"" onclick = ""clearResponse()"">BACKSPACE</button><button class = blank_button id = ""BlankButton"" onclick = ""blankResponse()"">SKIP</button><p style=""font-size: 2.4rem""><u><b>Current Answer:</b></u></p><br><br><div id=echoed_txt style=""font-size: 5rem; color:blue;""><b></b></div></div>",enter,ospan,retrieval,Dm7PTEkP74O8O4vz0N3eeugAWAo1,html-keyboard-response,205,1033117,0.0-46.0-6.0-1.0-2.0,41,39,35,8.0,"[""Y"",""G"",""N"",""L"",""R"",""J"",""H"",""Q""]","[""Y"",""G"",""N"",""L"",""R"",""J"",""H"",""Q""]",1.0,8.0,,,,,,,6103d7b00cb90ef8d5c5260a,18:41:36,05/04/2024
1773.699999988079,[''],0,ospan,feedback,Dm7PTEkP74O8O4vz0N3eeugAWAo1,html-button-response,206,1035411,0.0-46.0-6.0-1.0-3.0,,,,,,,,,,,,100.0,0.0,,6103d7b00cb90ef8d5c5260a,18:41:36,05/04/2024
20618.0,,{'Q0': 'Got much harder as more letters were added to the sequence.'},ospan,survey_ospan,Dm7PTEkP74O8O4vz0N3eeugAWAo1,lmdlab-survey-text,207,1056799,0.0-46.0-7.0,,,,,,,,,,,,,,Dm7PTEkP74O8O4vz0N3eeugAWAo1,6103d7b00cb90ef8d5c5260a,18:41:36,05/04/2024
1499.3999999761581,<p><p style='font-size: 3rem'>Great work!<br><br>This completes the symmetry and memory task.</p><br><br><br>,0,ospan,finish,Dm7PTEkP74O8O4vz0N3eeugAWAo1,html-button-response,208,1058304,0.0-46.0-8.0,41,39,35,,,,,,,,,100.0,,,6103d7b00cb90ef8d5c5260a,18:41:36,05/04/2024
