rt,stimulus,response,exp_name,exp_stage,subjectID,trial_type,trial_index,time_elapsed,internal_node_id,ospan_shown,ospan_total,ospan_abs,length,resp_actual,resp_correct,full_correct,num_correct,feedback,accuracy,correct,math_acc,math_warning,databaseID,prolificID,start_time,date
1658.199999988079,<div class = 'left_align' style='font-size: 3.25rem; line-height: 1.3;'><p class = 'center_align'><b>Welcome to the Symmetry and Memory Task</b><br><br><br><br></p>Press 'continue' to show the instructions.<br><br><br><br></div>,0,ospan,instruct,3r4hImRixfXeaqwz1oSC0daOZlh1,html-button-response,54,817326,0.0-46.0-0.0-0.0-0.0,,,,,,,,,,,,,,,5c80367593fa450014546aca,20:56:07,03/04/2024
9573.199999988079,"<div class = 'left_align' style='font-size: 3.25rem; line-height: 1.3;'><p class = 'center_align'><b>Symmetry and Memory Task</b><br><br></p>In this task, you will try to memorize letters you see on the screen<br>while you also view black and white grid pictures.<br><br>In the next few minutes, you will have some practice to get you familiar<br>with how the task works.<br><br>It may be difficult sometimes, but please do not worry about making mistakes!<br><br>We will begin by practicing the letter part of the task.<br><br><br><br></div>",0,ospan,instruct,3r4hImRixfXeaqwz1oSC0daOZlh1,html-button-response,55,827161,0.0-46.0-0.0-0.0-1.0,,,,,,,,,,,,,,,5c80367593fa450014546aca,20:56:07,03/04/2024
10218.399999976158,"<div class = 'left_align' style='font-size: 3.25rem; line-height: 1.3;'>For this practice part, letters will appear on the screen one at a time.<br><br>Try to remember each letter in the order presented.<br><br>After some letters have been shown, you will see a response screen. Your<br>goal is to report the letters you saw <b>in order</b>. If you do not remember<br>a particular letter, you will have the option to leave it blank.<br><br><br><br></div>",0,ospan,instruct,3r4hImRixfXeaqwz1oSC0daOZlh1,html-button-response,56,837635,0.0-46.0-0.0-0.0-2.0,,,,,,,,,,,,,,,5c80367593fa450014546aca,20:56:07,03/04/2024
3540.300000011921,"<div class = 'left_align' style='font-size: 3.25rem; line-height: 1.3;'>Remember, it is very important to get the letters in the same<br>order as you see them.<br><br>When you are ready, you may begin the letter practice.</div><br><br><br><br>",0,ospan,instruct,3r4hImRixfXeaqwz1oSC0daOZlh1,html-button-response,57,841445,0.0-46.0-0.0-0.0-3.0,,,,,,,,,,,,,,,5c80367593fa450014546aca,20:56:07,03/04/2024
,"<p style=""font-size:75px;"">...</p>",,ospan,iti,3r4hImRixfXeaqwz1oSC0daOZlh1,html-keyboard-response,58,842711,0.0-46.0-0.0-1.0-0.0,,,,,,,,,,,,,,,5c80367593fa450014546aca,20:56:07,03/04/2024
,"<div style=""font-size: 10rem; color: #0000FF"">P</div>",,ospan,letter,3r4hImRixfXeaqwz1oSC0daOZlh1,html-keyboard-response,59,843726,0.0-46.0-0.0-1.0-1.0,,,,,,,,,,,,,,,5c80367593fa450014546aca,20:56:07,03/04/2024
,"<div style=""font-size: 10rem; color: #0000FF"">L</div>",,ospan,letter,3r4hImRixfXeaqwz1oSC0daOZlh1,html-keyboard-response,60,845497,0.0-46.0-0.0-1.0-2.0,,,,,,,,,,,,,,,5c80367593fa450014546aca,20:56:07,03/04/2024
6854.699999988079,"<div class = numbox><p style=""font-size: 2.4rem"">Please recall the letters you saw to the best of your ability. If you do not remember a particular letter, use the SKIP button.<br><b>(When you are ready to lock in your answer, press ENTER)</b></p><button id = button_1 class = ""square num-button"" onclick = ""recordClick(this)""><div class = content><div class = numbers>C</div></div></button><button id = button_2 class = ""square num-button"" onclick = ""recordClick(this)""><div class = content><div class = numbers>G</div></div></button><button id = button_3 class = ""square num-button"" onclick = ""recordClick(this)""><div class = content><div class = numbers>H</div></div></button><button id = button_4 class = ""square num-button"" onclick = ""recordClick(this)""><div class = content><div class = numbers>J</div></div></button><button id = button_5 class = ""square num-button"" onclick = ""recordClick(this)""><div class = content><div class = numbers>K</div></div></button><button id = button_6 class = ""square num-button"" onclick = ""recordClick(this)""><div class = content><div class = numbers>L</div></div></button><button id = button_7 class = ""square num-button"" onclick = ""recordClick(this)""><div class = content><div class = numbers>N</div></div></button><button id = button_8 class = ""square num-button"" onclick = ""recordClick(this)""><div class = content><div class = numbers>P</div></div></button><button id = button_9 class = ""square num-button"" onclick = ""recordClick(this)""><div class = content><div class = numbers>Q</div></div></button><button id = button_10 class = ""square num-button"" onclick = ""recordClick(this)""><div class = content><div class = numbers>R</div></div></button><button id = button_11 class = ""square num-button"" onclick = ""recordClick(this)""><div class = content><div class = numbers>S</div></div></button><button id = button_12 class = ""square num-button"" onclick = ""recordClick(this)""><div class = content><div class = numbers>Y</div></div></button><button class = clear_button id = ""ClearButton"" onclick = ""clearResponse()"">BACKSPACE</button><button class = blank_button id = ""BlankButton"" onclick = ""blankResponse()"">SKIP</button><p style=""font-size: 2.4rem""><u><b>Current Answer:</b></u></p><br><br><div id=echoed_txt style=""font-size: 5rem; color:blue;""><b></b></div></div>",enter,ospan,retrieval,3r4hImRixfXeaqwz1oSC0daOZlh1,html-keyboard-response,61,853115,0.0-46.0-0.0-1.0-3.0,NA,NA,NA,2.0,"[""P"",""L""]","[""P"",""L""]",1.0,2.0,"['<font color=""green"">P</font>', '<font color=""green"">L</font>']",,,,,,5c80367593fa450014546aca,20:56:07,03/04/2024
1298.1000000238419,"['<p style=""font-size:44px"">Letters:<br><br><br><font color=""green"">P</font> <font color=""green"">L</font></p><br><br>']",0,ospan,practice_feedback,3r4hImRixfXeaqwz1oSC0daOZlh1,html-button-response,62,854923,0.0-46.0-0.0-1.0-4.0,,,,,,,,,,,,,,,5c80367593fa450014546aca,20:56:07,03/04/2024
,"<p style=""font-size:75px;"">...</p>",,ospan,iti,3r4hImRixfXeaqwz1oSC0daOZlh1,html-keyboard-response,63,855937,0.0-46.0-0.0-2.0-0.0,,,,,,,,,,,,,,,5c80367593fa450014546aca,20:56:07,03/04/2024
,"<div style=""font-size: 10rem; color: #0000FF"">Y</div>",,ospan,letter,3r4hImRixfXeaqwz1oSC0daOZlh1,html-keyboard-response,64,856945,0.0-46.0-0.0-2.0-1.0,,,,,,,,,,,,,,,5c80367593fa450014546aca,20:56:07,03/04/2024
,"<div style=""font-size: 10rem; color: #0000FF"">L</div>",,ospan,letter,3r4hImRixfXeaqwz1oSC0daOZlh1,html-keyboard-response,65,858711,0.0-46.0-0.0-2.0-2.0,,,,,,,,,,,,,,,5c80367593fa450014546aca,20:56:07,03/04/2024
,"<div style=""font-size: 10rem; color: #0000FF"">C</div>",,ospan,letter,3r4hImRixfXeaqwz1oSC0daOZlh1,html-keyboard-response,66,860472,0.0-46.0-0.0-2.0-3.0,,,,,,,,,,,,,,,5c80367593fa450014546aca,20:56:07,03/04/2024
2420.099999964237,"<div class = numbox><p style=""font-size: 2.4rem"">Please recall the letters you saw to the best of your ability. If you do not remember a particular letter, use the SKIP button.<br><b>(When you are ready to lock in your answer, press ENTER)</b></p><button id = button_1 class = ""square num-button"" onclick = ""recordClick(this)""><div class = content><div class = numbers>C</div></div></button><button id = button_2 class = ""square num-button"" onclick = ""recordClick(this)""><div class = content><div class = numbers>G</div></div></button><button id = button_3 class = ""square num-button"" onclick = ""recordClick(this)""><div class = content><div class = numbers>H</div></div></button><button id = button_4 class = ""square num-button"" onclick = ""recordClick(this)""><div class = content><div class = numbers>J</div></div></button><button id = button_5 class = ""square num-button"" onclick = ""recordClick(this)""><div class = content><div class = numbers>K</div></div></button><button id = button_6 class = ""square num-button"" onclick = ""recordClick(this)""><div class = content><div class = numbers>L</div></div></button><button id = button_7 class = ""square num-button"" onclick = ""recordClick(this)""><div class = content><div class = numbers>N</div></div></button><button id = button_8 class = ""square num-button"" onclick = ""recordClick(this)""><div class = content><div class = numbers>P</div></div></button><button id = button_9 class = ""square num-button"" onclick = ""recordClick(this)""><div class = content><div class = numbers>Q</div></div></button><button id = button_10 class = ""square num-button"" onclick = ""recordClick(this)""><div class = content><div class = numbers>R</div></div></button><button id = button_11 class = ""square num-button"" onclick = ""recordClick(this)""><div class = content><div class = numbers>S</div></div></button><button id = button_12 class = ""square num-button"" onclick = ""recordClick(this)""><div class = content><div class = numbers>Y</div></div></button><button class = clear_button id = ""ClearButton"" onclick = ""clearResponse()"">BACKSPACE</button><button class = blank_button id = ""BlankButton"" onclick = ""blankResponse()"">SKIP</button><p style=""font-size: 2.4rem""><u><b>Current Answer:</b></u></p><br><br><div id=echoed_txt style=""font-size: 5rem; color:blue;""><b></b></div></div>",enter,ospan,retrieval,3r4hImRixfXeaqwz1oSC0daOZlh1,html-keyboard-response,67,863649,0.0-46.0-0.0-2.0-4.0,NA,NA,NA,3.0,"[""Y"",""L"",""C""]","[""Y"",""L"",""C""]",1.0,3.0,"['<font color=""green"">Y</font>', '<font color=""green"">L</font>', '<font color=""green"">C</font>']",,,,,,5c80367593fa450014546aca,20:56:07,03/04/2024
1071.3999999761581,"['<p style=""font-size:44px"">Letters:<br><br><br><font color=""green"">Y</font> <font color=""green"">L</font> <font color=""green"">C</font></p><br><br>']",0,ospan,practice_feedback,3r4hImRixfXeaqwz1oSC0daOZlh1,html-button-response,68,865237,0.0-46.0-0.0-2.0-5.0,,,,,,,,,,,,,,,5c80367593fa450014546aca,20:56:07,03/04/2024
10939.599999964237,"<div class = 'left_align' style='font-size: 3.25rem; line-height: 1.3;'>Now you will practice doing the <b>symmetry judgment part</b> of the experiment.<br><br>A black and white grid picture will appear on the screen and you have to judge if it is <br>symmetrical or asymetrical.<br><br>A picture is 'mirror' symmetrical if its left half is identical to the right half when flipped.<br>Here are examples of a symmetrical and an asymetrical picture:<br><br><center><img src='Stimuli/img/symm_instructions_extra.png' style='height:420px; width:900'></img></center><br>To judge symmetry, imagine you were to fold each picture down the middle, like a book –<br>would the left half match the right half when folded onto each other?<br><br></div><br>",0,ospan,instruct,3r4hImRixfXeaqwz1oSC0daOZlh1,html-button-response,69,876177,0.0-46.0-1.0-0.0-0.0,,,,,,,,,,,,,,,5c80367593fa450014546aca,20:56:07,03/04/2024
6810.399999976158,"<div class = 'left_align' style='font-size: 3.25rem; line-height: 1.3;'>When you have viewed the picture and determined whether it is symmetrical or not,<br>you can <b>click the Yes or No button</b> below to answer.<br><br>If you take longer than 15 seconds, it will continue automatically<br>and record the answer as an error.</div><br>",0,ospan,instruct,3r4hImRixfXeaqwz1oSC0daOZlh1,html-button-response,70,883242,0.0-46.0-1.0-0.0-1.0,,,,,,,,,,,,,,,5c80367593fa450014546aca,20:56:07,03/04/2024
8435.600000023842,"<div class = 'left_align' style='font-size: 3.25rem; line-height: 1.3;'>It is <b>very</b> important that you make the symmetry judgment correctly.<br><br>It is also important that you try and judge the picture as quickly as you can.<br><br>When you are ready, click on the button below to try some practice problems.</div><br><br><br><br>",0,ospan,instruct,3r4hImRixfXeaqwz1oSC0daOZlh1,html-button-response,71,891937,0.0-46.0-1.0-0.0-2.0,,,,,,,,,,,,,,,5c80367593fa450014546aca,20:56:07,03/04/2024
2062.0,,,ospan,symmetry,3r4hImRixfXeaqwz1oSC0daOZlh1,symmetry-judgement-task,72,894820,0.0-46.0-1.0-1.0-0.0,,,,,,,,,,1.0,1.0,,,,5c80367593fa450014546aca,20:56:07,03/04/2024
,"<p style=""color:green; font-size: 35px"">Correct</p>",,ospan,feedback,3r4hImRixfXeaqwz1oSC0daOZlh1,html-keyboard-response,73,895579,0.0-46.0-1.0-1.0-1.0,,,,,,,,,,,,,,,5c80367593fa450014546aca,20:56:07,03/04/2024
2001.0,,,ospan,symmetry,3r4hImRixfXeaqwz1oSC0daOZlh1,symmetry-judgement-task,74,900247,0.0-46.0-1.0-1.0-2.0,,,,,,,,,,1.0,1.0,,,,5c80367593fa450014546aca,20:56:07,03/04/2024
,"<p style=""color:green; font-size: 35px"">Correct</p>",,ospan,feedback,3r4hImRixfXeaqwz1oSC0daOZlh1,html-keyboard-response,75,901001,0.0-46.0-1.0-1.0-3.0,,,,,,,,,,,,,,,5c80367593fa450014546aca,20:56:07,03/04/2024
1266.0,,,ospan,symmetry,3r4hImRixfXeaqwz1oSC0daOZlh1,symmetry-judgement-task,76,904963,0.0-46.0-1.0-1.0-4.0,,,,,,,,,,1.0,1.0,,,,5c80367593fa450014546aca,20:56:07,03/04/2024
,"<p style=""color:green; font-size: 35px"">Correct</p>",,ospan,feedback,3r4hImRixfXeaqwz1oSC0daOZlh1,html-keyboard-response,77,905726,0.0-46.0-1.0-1.0-5.0,,,,,,,,,,,,,,,5c80367593fa450014546aca,20:56:07,03/04/2024
1999.3999999761581,"<p style=""font-size: 3rem;"">You responded correctly on 3 of 3 symmetry judgments. Good job!</p><br><br>",0,ospan,practice,3r4hImRixfXeaqwz1oSC0daOZlh1,html-button-response,78,909730,0.0-46.0-1.0-2.0,,,,,,,,,,,,,,,5c80367593fa450014546aca,20:56:07,03/04/2024
6158.300000011921,"<div class = 'left_align' style='font-size: 3.25rem; line-height: 1.3;'>Now you will practice doing both parts of the experiment at the same time.<br><br>In the next practice set, you will be given one grid picture to judge.<br>Then letter will appear on the screen. Try to remember the letter.<br><br>It is <b>very important</b> to make the symmetry judgment as quickly and accurately as possible.<br><br>Just as before, once you have make the symmetry judgment, you can click Yes or No.<br><b>Note that you will no longer see Correct or Incorrect feedback.</div><br><br><br><br>",0,ospan,instruct,3r4hImRixfXeaqwz1oSC0daOZlh1,html-button-response,79,916150,0.0-46.0-2.0-0.0-0.0,,,,,,,,,,,,,,,5c80367593fa450014546aca,20:56:07,03/04/2024
2327.600000023842,"<div class = 'left_align' style='font-size: 3.25rem; line-height: 1.3;'>After the letter goes away, another grid picture will appear, and then<br>another letter.<br><br>At the end of each set of letters and grids, you will recall the letters to the best<br>of your ability. Remember, try your best to get the letters in the correct order.<br><br>It is important to <b>quickly</b> and <b>accurately</b> make the symmetry judgments.</div><br><br><br><br>",0,ospan,instruct,3r4hImRixfXeaqwz1oSC0daOZlh1,html-button-response,80,918733,0.0-46.0-2.0-0.0-1.0,,,,,,,,,,,,,,,5c80367593fa450014546aca,20:56:07,03/04/2024
7281.0,"<div class = 'left_align' style='font-size: 3.25rem; line-height: 1.3;'>On the feedback screen, if you are not doing well at the symmetry judgments,<br>you will also see a warning in the middle. This indicates your percent <br>correct for the grid pictures for the entire experiment.<br><br>It is <b>very</b> important for you to keep accuracy at least at 85%: <u>We can only use<br>data where the participant was at least 85% accurate on the judgments.</u> Therefore,<br> please try your best to perform well on the symmetry judgments, <b>at the same time</b><br>doing your best to recall as many letters as possible.<br><br>Click the button to try some practice problems.</div><br><br><br><br>",0,ospan,instruct,3r4hImRixfXeaqwz1oSC0daOZlh1,html-button-response,81,926285,0.0-46.0-2.0-0.0-2.0,,,,,,,,,,,,,,,5c80367593fa450014546aca,20:56:07,03/04/2024
,"<p style=""font-size:75px;"">...</p>",,ospan,iti,3r4hImRixfXeaqwz1oSC0daOZlh1,html-keyboard-response,82,927550,0.0-46.0-2.0-1.0-0.0,,,,,,,,,,,,,,,5c80367593fa450014546aca,20:56:07,03/04/2024
1565.0,,,ospan,symmetry,3r4hImRixfXeaqwz1oSC0daOZlh1,symmetry-judgement-task,83,930290,0.0-46.0-2.0-1.0-1.0-0.0,,,,,,,,,,1.0,1.0,,,,5c80367593fa450014546aca,20:56:07,03/04/2024
,"<div style=""font-size: 10rem; color: #0000FF"">G</div>",,ospan,letter,3r4hImRixfXeaqwz1oSC0daOZlh1,html-keyboard-response,84,931297,0.0-46.0-2.0-1.0-1.0-1.0,,,,,,,,,,,,,,,5c80367593fa450014546aca,20:56:07,03/04/2024
1402.0,,,ospan,symmetry,3r4hImRixfXeaqwz1oSC0daOZlh1,symmetry-judgement-task,85,934625,0.0-46.0-2.0-1.0-1.0-2.0,,,,,,,,,,1.0,1.0,,,,5c80367593fa450014546aca,20:56:07,03/04/2024
,"<div style=""font-size: 10rem; color: #0000FF"">J</div>",,ospan,letter,3r4hImRixfXeaqwz1oSC0daOZlh1,html-keyboard-response,86,935638,0.0-46.0-2.0-1.0-1.0-3.0,,,,,,,,,,,,,,,5c80367593fa450014546aca,20:56:07,03/04/2024
1306.0,,,ospan,symmetry,3r4hImRixfXeaqwz1oSC0daOZlh1,symmetry-judgement-task,87,938852,0.0-46.0-2.0-1.0-1.0-4.0,,,,,,,,,,1.0,1.0,,,,5c80367593fa450014546aca,20:56:07,03/04/2024
,"<div style=""font-size: 10rem; color: #0000FF"">N</div>",,ospan,letter,3r4hImRixfXeaqwz1oSC0daOZlh1,html-keyboard-response,88,939868,0.0-46.0-2.0-1.0-1.0-5.0,,,,,,,,,,,,,,,5c80367593fa450014546aca,20:56:07,03/04/2024
5675.099999964237,"<div class = numbox><p style=""font-size: 2.4rem"">Please recall the letters you saw to the best of your ability. If you do not remember a particular letter, use the SKIP button.<br><b>(When you are ready to lock in your answer, press ENTER)</b></p><button id = button_1 class = ""square num-button"" onclick = ""recordClick(this)""><div class = content><div class = numbers>C</div></div></button><button id = button_2 class = ""square num-button"" onclick = ""recordClick(this)""><div class = content><div class = numbers>G</div></div></button><button id = button_3 class = ""square num-button"" onclick = ""recordClick(this)""><div class = content><div class = numbers>H</div></div></button><button id = button_4 class = ""square num-button"" onclick = ""recordClick(this)""><div class = content><div class = numbers>J</div></div></button><button id = button_5 class = ""square num-button"" onclick = ""recordClick(this)""><div class = content><div class = numbers>K</div></div></button><button id = button_6 class = ""square num-button"" onclick = ""recordClick(this)""><div class = content><div class = numbers>L</div></div></button><button id = button_7 class = ""square num-button"" onclick = ""recordClick(this)""><div class = content><div class = numbers>N</div></div></button><button id = button_8 class = ""square num-button"" onclick = ""recordClick(this)""><div class = content><div class = numbers>P</div></div></button><button id = button_9 class = ""square num-button"" onclick = ""recordClick(this)""><div class = content><div class = numbers>Q</div></div></button><button id = button_10 class = ""square num-button"" onclick = ""recordClick(this)""><div class = content><div class = numbers>R</div></div></button><button id = button_11 class = ""square num-button"" onclick = ""recordClick(this)""><div class = content><div class = numbers>S</div></div></button><button id = button_12 class = ""square num-button"" onclick = ""recordClick(this)""><div class = content><div class = numbers>Y</div></div></button><button class = clear_button id = ""ClearButton"" onclick = ""clearResponse()"">BACKSPACE</button><button class = blank_button id = ""BlankButton"" onclick = ""blankResponse()"">SKIP</button><p style=""font-size: 2.4rem""><u><b>Current Answer:</b></u></p><br><br><div id=echoed_txt style=""font-size: 5rem; color:blue;""><b></b></div></div>",enter,ospan,retrieval,3r4hImRixfXeaqwz1oSC0daOZlh1,html-keyboard-response,89,946309,0.0-46.0-2.0-1.0-2.0-0.0,NA,NA,NA,3.0,"[""G"",""J"",""N""]","[""G"",""J"",""N""]",1.0,3.0,"['<font color=""green"">G</font>', '<font color=""green"">J</font>', '<font color=""green"">N</font>']",,,,,,5c80367593fa450014546aca,20:56:07,03/04/2024
1868.0999999642372,"['<p style=""font-size:44px"">Letters:<br><br><br><font color=""green"">G</font> <font color=""green"">J</font> <font color=""green"">N</font></p><br><br><p style=""font-size:30px"">Symmetry:<br><br><font color=""green"">100%</font></p><br><br>']",0,ospan,practice_feedback,3r4hImRixfXeaqwz1oSC0daOZlh1,html-button-response,90,948684,0.0-46.0-2.0-1.0-2.0-1.0,,,,,,,,,,,,,,,5c80367593fa450014546aca,20:56:07,03/04/2024
,"<p style=""font-size:75px;"">...</p>",,ospan,iti,3r4hImRixfXeaqwz1oSC0daOZlh1,html-keyboard-response,91,949687,0.0-46.0-2.0-2.0-0.0,,,,,,,,,,,,,,,5c80367593fa450014546aca,20:56:07,03/04/2024
1424.0,,,ospan,symmetry,3r4hImRixfXeaqwz1oSC0daOZlh1,symmetry-judgement-task,92,952321,0.0-46.0-2.0-2.0-1.0-0.0,,,,,,,,,,1.0,1.0,,,,5c80367593fa450014546aca,20:56:07,03/04/2024
,"<div style=""font-size: 10rem; color: #0000FF"">H</div>",,ospan,letter,3r4hImRixfXeaqwz1oSC0daOZlh1,html-keyboard-response,93,953326,0.0-46.0-2.0-2.0-1.0-1.0,,,,,,,,,,,,,,,5c80367593fa450014546aca,20:56:07,03/04/2024
1024.0,,,ospan,symmetry,3r4hImRixfXeaqwz1oSC0daOZlh1,symmetry-judgement-task,94,956271,0.0-46.0-2.0-2.0-1.0-2.0,,,,,,,,,,1.0,1.0,,,,5c80367593fa450014546aca,20:56:07,03/04/2024
,"<div style=""font-size: 10rem; color: #0000FF"">P</div>",,ospan,letter,3r4hImRixfXeaqwz1oSC0daOZlh1,html-keyboard-response,95,957290,0.0-46.0-2.0-2.0-1.0-3.0,,,,,,,,,,,,,,,5c80367593fa450014546aca,20:56:07,03/04/2024
1113.0,,,ospan,symmetry,3r4hImRixfXeaqwz1oSC0daOZlh1,symmetry-judgement-task,96,960322,0.0-46.0-2.0-2.0-1.0-4.0,,,,,,,,,,1.0,1.0,,,,5c80367593fa450014546aca,20:56:07,03/04/2024
,"<div style=""font-size: 10rem; color: #0000FF"">L</div>",,ospan,letter,3r4hImRixfXeaqwz1oSC0daOZlh1,html-keyboard-response,97,961328,0.0-46.0-2.0-2.0-1.0-5.0,,,,,,,,,,,,,,,5c80367593fa450014546aca,20:56:07,03/04/2024
2307.100000023842,"<div class = numbox><p style=""font-size: 2.4rem"">Please recall the letters you saw to the best of your ability. If you do not remember a particular letter, use the SKIP button.<br><b>(When you are ready to lock in your answer, press ENTER)</b></p><button id = button_1 class = ""square num-button"" onclick = ""recordClick(this)""><div class = content><div class = numbers>C</div></div></button><button id = button_2 class = ""square num-button"" onclick = ""recordClick(this)""><div class = content><div class = numbers>G</div></div></button><button id = button_3 class = ""square num-button"" onclick = ""recordClick(this)""><div class = content><div class = numbers>H</div></div></button><button id = button_4 class = ""square num-button"" onclick = ""recordClick(this)""><div class = content><div class = numbers>J</div></div></button><button id = button_5 class = ""square num-button"" onclick = ""recordClick(this)""><div class = content><div class = numbers>K</div></div></button><button id = button_6 class = ""square num-button"" onclick = ""recordClick(this)""><div class = content><div class = numbers>L</div></div></button><button id = button_7 class = ""square num-button"" onclick = ""recordClick(this)""><div class = content><div class = numbers>N</div></div></button><button id = button_8 class = ""square num-button"" onclick = ""recordClick(this)""><div class = content><div class = numbers>P</div></div></button><button id = button_9 class = ""square num-button"" onclick = ""recordClick(this)""><div class = content><div class = numbers>Q</div></div></button><button id = button_10 class = ""square num-button"" onclick = ""recordClick(this)""><div class = content><div class = numbers>R</div></div></button><button id = button_11 class = ""square num-button"" onclick = ""recordClick(this)""><div class = content><div class = numbers>S</div></div></button><button id = button_12 class = ""square num-button"" onclick = ""recordClick(this)""><div class = content><div class = numbers>Y</div></div></button><button class = clear_button id = ""ClearButton"" onclick = ""clearResponse()"">BACKSPACE</button><button class = blank_button id = ""BlankButton"" onclick = ""blankResponse()"">SKIP</button><p style=""font-size: 2.4rem""><u><b>Current Answer:</b></u></p><br><br><div id=echoed_txt style=""font-size: 5rem; color:blue;""><b></b></div></div>",enter,ospan,retrieval,3r4hImRixfXeaqwz1oSC0daOZlh1,html-keyboard-response,98,964399,0.0-46.0-2.0-2.0-2.0-0.0,NA,NA,NA,3.0,"[""H"",""P"",""L""]","[""H"",""P"",""L""]",1.0,3.0,"['<font color=""green"">H</font>', '<font color=""green"">P</font>', '<font color=""green"">L</font>']",,,,,,5c80367593fa450014546aca,20:56:07,03/04/2024
1401.199999988079,"['<p style=""font-size:44px"">Letters:<br><br><br><font color=""green"">H</font> <font color=""green"">P</font> <font color=""green"">L</font></p><br><br><p style=""font-size:30px"">Symmetry:<br><br><font color=""green"">100%</font></p><br><br>']",0,ospan,practice_feedback,3r4hImRixfXeaqwz1oSC0daOZlh1,html-button-response,99,966306,0.0-46.0-2.0-2.0-2.0-1.0,,,,,,,,,,,,,,,5c80367593fa450014546aca,20:56:07,03/04/2024
17995.5,"<div class = 'left_align' style='font-size: 3rem; line-height: 1.3;'><b>Great work! That is the end of practice.</b><br><br>The real trials will look just like the practice trials you just completed.<br><br><u>Here, you will not see feedback</u>. First, you will see an grid picture to judge,<br>then a letter to remember. When the recall screen appears, report the letters in the<br>order presented. If you forget a letter, remember to use the <b>blank</b> button to move to the<br>next letter. Some of the sets will have more symmetry grids and letters than others.<br><br>It is important that you do your best on both the symmetry judgments and the letter recall<br>parts of the experiment. For for the symmetry judgments, try to work as <b>quickly</b> and <br>as <b>accurately</b> as possible. Remember to keep your symmetry accuracy at 85% or above.<br><br><b>For the letters, do NOT use any external aid (e.g., writing on paper, electronic device).</b><br><br>It is <u>very important</u> to our experiment to have a <b>true</b> view of your real performance.<br><br>Do not worry if you miss some when it gets hard! This task is meant to be very challenging!<br><br>Click the button to begin.</div><br><br><br><br>",0,ospan,starting_real_here,3r4hImRixfXeaqwz1oSC0daOZlh1,html-button-response,100,984304,0.0-46.0-2.0-3.0,,,,,,,,,,,,,,,5c80367593fa450014546aca,20:56:07,03/04/2024
,"<p style=""font-size:75px;"">...</p>",,ospan,iti,3r4hImRixfXeaqwz1oSC0daOZlh1,html-keyboard-response,101,985582,0.0-46.0-3.0-0.0-0.0,,,,,,,,,,,,,,,5c80367593fa450014546aca,20:56:07,03/04/2024
1160.0,,,ospan,symmetry,3r4hImRixfXeaqwz1oSC0daOZlh1,symmetry-judgement-task,102,987929,0.0-46.0-3.0-0.0-1.0-0.0,,,,,,,,,,1.0,1.0,,,,5c80367593fa450014546aca,20:56:07,03/04/2024
,"<div style=""font-size: 10rem; color: #0000FF"">C</div>",,ospan,letter,3r4hImRixfXeaqwz1oSC0daOZlh1,html-keyboard-response,103,988937,0.0-46.0-3.0-0.0-1.0-1.0,,,,,,,,,,,,,,,5c80367593fa450014546aca,20:56:07,03/04/2024
2013.0,,,ospan,symmetry,3r4hImRixfXeaqwz1oSC0daOZlh1,symmetry-judgement-task,104,992856,0.0-46.0-3.0-0.0-1.0-2.0,,,,,,,,,,1.0,1.0,,,,5c80367593fa450014546aca,20:56:07,03/04/2024
,"<div style=""font-size: 10rem; color: #0000FF"">L</div>",,ospan,letter,3r4hImRixfXeaqwz1oSC0daOZlh1,html-keyboard-response,105,993861,0.0-46.0-3.0-0.0-1.0-3.0,,,,,,,,,,,,,,,5c80367593fa450014546aca,20:56:07,03/04/2024
2315.0,,,ospan,symmetry,3r4hImRixfXeaqwz1oSC0daOZlh1,symmetry-judgement-task,106,998113,0.0-46.0-3.0-0.0-1.0-4.0,,,,,,,,,,1.0,1.0,,,,5c80367593fa450014546aca,20:56:07,03/04/2024
,"<div style=""font-size: 10rem; color: #0000FF"">Q</div>",,ospan,letter,3r4hImRixfXeaqwz1oSC0daOZlh1,html-keyboard-response,107,999118,0.0-46.0-3.0-0.0-1.0-5.0,,,,,,,,,,,,,,,5c80367593fa450014546aca,20:56:07,03/04/2024
3596.800000011921,"<div class = numbox><p style=""font-size: 2.4rem"">Please recall the letters you saw to the best of your ability. If you do not remember a particular letter, use the SKIP button.<br><b>(When you are ready to lock in your answer, press ENTER)</b></p><button id = button_1 class = ""square num-button"" onclick = ""recordClick(this)""><div class = content><div class = numbers>C</div></div></button><button id = button_2 class = ""square num-button"" onclick = ""recordClick(this)""><div class = content><div class = numbers>G</div></div></button><button id = button_3 class = ""square num-button"" onclick = ""recordClick(this)""><div class = content><div class = numbers>H</div></div></button><button id = button_4 class = ""square num-button"" onclick = ""recordClick(this)""><div class = content><div class = numbers>J</div></div></button><button id = button_5 class = ""square num-button"" onclick = ""recordClick(this)""><div class = content><div class = numbers>K</div></div></button><button id = button_6 class = ""square num-button"" onclick = ""recordClick(this)""><div class = content><div class = numbers>L</div></div></button><button id = button_7 class = ""square num-button"" onclick = ""recordClick(this)""><div class = content><div class = numbers>N</div></div></button><button id = button_8 class = ""square num-button"" onclick = ""recordClick(this)""><div class = content><div class = numbers>P</div></div></button><button id = button_9 class = ""square num-button"" onclick = ""recordClick(this)""><div class = content><div class = numbers>Q</div></div></button><button id = button_10 class = ""square num-button"" onclick = ""recordClick(this)""><div class = content><div class = numbers>R</div></div></button><button id = button_11 class = ""square num-button"" onclick = ""recordClick(this)""><div class = content><div class = numbers>S</div></div></button><button id = button_12 class = ""square num-button"" onclick = ""recordClick(this)""><div class = content><div class = numbers>Y</div></div></button><button class = clear_button id = ""ClearButton"" onclick = ""clearResponse()"">BACKSPACE</button><button class = blank_button id = ""BlankButton"" onclick = ""blankResponse()"">SKIP</button><p style=""font-size: 2.4rem""><u><b>Current Answer:</b></u></p><br><br><div id=echoed_txt style=""font-size: 5rem; color:blue;""><b></b></div></div>",enter,ospan,retrieval,3r4hImRixfXeaqwz1oSC0daOZlh1,html-keyboard-response,108,1003470,0.0-46.0-3.0-0.0-2.0,3,3,3,3.0,"[""C"",""L"",""Q""]","[""C"",""L"",""Q""]",1.0,3.0,,,,,,,5c80367593fa450014546aca,20:56:07,03/04/2024
2004.5,[''],0,ospan,feedback,3r4hImRixfXeaqwz1oSC0daOZlh1,html-button-response,109,1005988,0.0-46.0-3.0-0.0-3.0,,,,,,,,,,,,100.0,0.0,,5c80367593fa450014546aca,20:56:07,03/04/2024
,"<p style=""font-size:75px;"">...</p>",,ospan,iti,3r4hImRixfXeaqwz1oSC0daOZlh1,html-keyboard-response,110,1006990,0.0-46.0-4.0-0.0-0.0,,,,,,,,,,,,,,,5c80367593fa450014546aca,20:56:07,03/04/2024
1575.0,,,ospan,symmetry,3r4hImRixfXeaqwz1oSC0daOZlh1,symmetry-judgement-task,111,1009809,0.0-46.0-4.0-0.0-1.0-0.0,,,,,,,,,,1.0,1.0,,,,5c80367593fa450014546aca,20:56:07,03/04/2024
,"<div style=""font-size: 10rem; color: #0000FF"">H</div>",,ospan,letter,3r4hImRixfXeaqwz1oSC0daOZlh1,html-keyboard-response,112,1010813,0.0-46.0-4.0-0.0-1.0-1.0,,,,,,,,,,,,,,,5c80367593fa450014546aca,20:56:07,03/04/2024
1671.0,,,ospan,symmetry,3r4hImRixfXeaqwz1oSC0daOZlh1,symmetry-judgement-task,113,1014415,0.0-46.0-4.0-0.0-1.0-2.0,,,,,,,,,,1.0,1.0,,,,5c80367593fa450014546aca,20:56:07,03/04/2024
,"<div style=""font-size: 10rem; color: #0000FF"">Q</div>",,ospan,letter,3r4hImRixfXeaqwz1oSC0daOZlh1,html-keyboard-response,114,1015421,0.0-46.0-4.0-0.0-1.0-3.0,,,,,,,,,,,,,,,5c80367593fa450014546aca,20:56:07,03/04/2024
2437.0,,,ospan,symmetry,3r4hImRixfXeaqwz1oSC0daOZlh1,symmetry-judgement-task,115,1019787,0.0-46.0-4.0-0.0-1.0-4.0,,,,,,,,,,1.0,1.0,,,,5c80367593fa450014546aca,20:56:07,03/04/2024
,"<div style=""font-size: 10rem; color: #0000FF"">P</div>",,ospan,letter,3r4hImRixfXeaqwz1oSC0daOZlh1,html-keyboard-response,116,1020808,0.0-46.0-4.0-0.0-1.0-5.0,,,,,,,,,,,,,,,5c80367593fa450014546aca,20:56:07,03/04/2024
2044.0,,,ospan,symmetry,3r4hImRixfXeaqwz1oSC0daOZlh1,symmetry-judgement-task,117,1024799,0.0-46.0-4.0-0.0-1.0-6.0,,,,,,,,,,1.0,1.0,,,,5c80367593fa450014546aca,20:56:07,03/04/2024
,"<div style=""font-size: 10rem; color: #0000FF"">C</div>",,ospan,letter,3r4hImRixfXeaqwz1oSC0daOZlh1,html-keyboard-response,118,1025808,0.0-46.0-4.0-0.0-1.0-7.0,,,,,,,,,,,,,,,5c80367593fa450014546aca,20:56:07,03/04/2024
6119.100000023842,"<div class = numbox><p style=""font-size: 2.4rem"">Please recall the letters you saw to the best of your ability. If you do not remember a particular letter, use the SKIP button.<br><b>(When you are ready to lock in your answer, press ENTER)</b></p><button id = button_1 class = ""square num-button"" onclick = ""recordClick(this)""><div class = content><div class = numbers>C</div></div></button><button id = button_2 class = ""square num-button"" onclick = ""recordClick(this)""><div class = content><div class = numbers>G</div></div></button><button id = button_3 class = ""square num-button"" onclick = ""recordClick(this)""><div class = content><div class = numbers>H</div></div></button><button id = button_4 class = ""square num-button"" onclick = ""recordClick(this)""><div class = content><div class = numbers>J</div></div></button><button id = button_5 class = ""square num-button"" onclick = ""recordClick(this)""><div class = content><div class = numbers>K</div></div></button><button id = button_6 class = ""square num-button"" onclick = ""recordClick(this)""><div class = content><div class = numbers>L</div></div></button><button id = button_7 class = ""square num-button"" onclick = ""recordClick(this)""><div class = content><div class = numbers>N</div></div></button><button id = button_8 class = ""square num-button"" onclick = ""recordClick(this)""><div class = content><div class = numbers>P</div></div></button><button id = button_9 class = ""square num-button"" onclick = ""recordClick(this)""><div class = content><div class = numbers>Q</div></div></button><button id = button_10 class = ""square num-button"" onclick = ""recordClick(this)""><div class = content><div class = numbers>R</div></div></button><button id = button_11 class = ""square num-button"" onclick = ""recordClick(this)""><div class = content><div class = numbers>S</div></div></button><button id = button_12 class = ""square num-button"" onclick = ""recordClick(this)""><div class = content><div class = numbers>Y</div></div></button><button class = clear_button id = ""ClearButton"" onclick = ""clearResponse()"">BACKSPACE</button><button class = blank_button id = ""BlankButton"" onclick = ""blankResponse()"">SKIP</button><p style=""font-size: 2.4rem""><u><b>Current Answer:</b></u></p><br><br><div id=echoed_txt style=""font-size: 5rem; color:blue;""><b></b></div></div>",enter,ospan,retrieval,3r4hImRixfXeaqwz1oSC0daOZlh1,html-keyboard-response,119,1032688,0.0-46.0-4.0-0.0-2.0,7,5,3,4.0,"[""H"",""Q"",""C"",""P""]","[""H"",""Q"",""P"",""C""]",0.0,2.0,,,,,,,5c80367593fa450014546aca,20:56:07,03/04/2024
2182.399999976158,[''],0,ospan,feedback,3r4hImRixfXeaqwz1oSC0daOZlh1,html-button-response,120,1035375,0.0-46.0-4.0-0.0-3.0,,,,,,,,,,,,100.0,0.0,,5c80367593fa450014546aca,20:56:07,03/04/2024
,"<p style=""font-size:75px;"">...</p>",,ospan,iti,3r4hImRixfXeaqwz1oSC0daOZlh1,html-keyboard-response,121,1036379,0.0-46.0-4.0-1.0-0.0,,,,,,,,,,,,,,,5c80367593fa450014546aca,20:56:07,03/04/2024
1600.0,,,ospan,symmetry,3r4hImRixfXeaqwz1oSC0daOZlh1,symmetry-judgement-task,122,1039162,0.0-46.0-4.0-1.0-1.0-0.0,,,,,,,,,,1.0,1.0,,,,5c80367593fa450014546aca,20:56:07,03/04/2024
,"<div style=""font-size: 10rem; color: #0000FF"">L</div>",,ospan,letter,3r4hImRixfXeaqwz1oSC0daOZlh1,html-keyboard-response,123,1040177,0.0-46.0-4.0-1.0-1.0-1.0,,,,,,,,,,,,,,,5c80367593fa450014546aca,20:56:07,03/04/2024
2322.0,,,ospan,symmetry,3r4hImRixfXeaqwz1oSC0daOZlh1,symmetry-judgement-task,124,1044445,0.0-46.0-4.0-1.0-1.0-2.0,,,,,,,,,,1.0,1.0,,,,5c80367593fa450014546aca,20:56:07,03/04/2024
,"<div style=""font-size: 10rem; color: #0000FF"">K</div>",,ospan,letter,3r4hImRixfXeaqwz1oSC0daOZlh1,html-keyboard-response,125,1045454,0.0-46.0-4.0-1.0-1.0-3.0,,,,,,,,,,,,,,,5c80367593fa450014546aca,20:56:07,03/04/2024
1307.0,,,ospan,symmetry,3r4hImRixfXeaqwz1oSC0daOZlh1,symmetry-judgement-task,126,1048688,0.0-46.0-4.0-1.0-1.0-4.0,,,,,,,,,,1.0,1.0,,,,5c80367593fa450014546aca,20:56:07,03/04/2024
,"<div style=""font-size: 10rem; color: #0000FF"">R</div>",,ospan,letter,3r4hImRixfXeaqwz1oSC0daOZlh1,html-keyboard-response,127,1049694,0.0-46.0-4.0-1.0-1.0-5.0,,,,,,,,,,,,,,,5c80367593fa450014546aca,20:56:07,03/04/2024
2833.0,,,ospan,symmetry,3r4hImRixfXeaqwz1oSC0daOZlh1,symmetry-judgement-task,128,1054337,0.0-46.0-4.0-1.0-1.0-6.0,,,,,,,,,,1.0,1.0,,,,5c80367593fa450014546aca,20:56:07,03/04/2024
,"<div style=""font-size: 10rem; color: #0000FF"">Q</div>",,ospan,letter,3r4hImRixfXeaqwz1oSC0daOZlh1,html-keyboard-response,129,1055346,0.0-46.0-4.0-1.0-1.0-7.0,,,,,,,,,,,,,,,5c80367593fa450014546aca,20:56:07,03/04/2024
1827.0,,,ospan,symmetry,3r4hImRixfXeaqwz1oSC0daOZlh1,symmetry-judgement-task,130,1059097,0.0-46.0-4.0-1.0-1.0-8.0,,,,,,,,,,1.0,1.0,,,,5c80367593fa450014546aca,20:56:07,03/04/2024
,"<div style=""font-size: 10rem; color: #0000FF"">N</div>",,ospan,letter,3r4hImRixfXeaqwz1oSC0daOZlh1,html-keyboard-response,131,1060101,0.0-46.0-4.0-1.0-1.0-9.0,,,,,,,,,,,,,,,5c80367593fa450014546aca,20:56:07,03/04/2024
8162.100000023842,"<div class = numbox><p style=""font-size: 2.4rem"">Please recall the letters you saw to the best of your ability. If you do not remember a particular letter, use the SKIP button.<br><b>(When you are ready to lock in your answer, press ENTER)</b></p><button id = button_1 class = ""square num-button"" onclick = ""recordClick(this)""><div class = content><div class = numbers>C</div></div></button><button id = button_2 class = ""square num-button"" onclick = ""recordClick(this)""><div class = content><div class = numbers>G</div></div></button><button id = button_3 class = ""square num-button"" onclick = ""recordClick(this)""><div class = content><div class = numbers>H</div></div></button><button id = button_4 class = ""square num-button"" onclick = ""recordClick(this)""><div class = content><div class = numbers>J</div></div></button><button id = button_5 class = ""square num-button"" onclick = ""recordClick(this)""><div class = content><div class = numbers>K</div></div></button><button id = button_6 class = ""square num-button"" onclick = ""recordClick(this)""><div class = content><div class = numbers>L</div></div></button><button id = button_7 class = ""square num-button"" onclick = ""recordClick(this)""><div class = content><div class = numbers>N</div></div></button><button id = button_8 class = ""square num-button"" onclick = ""recordClick(this)""><div class = content><div class = numbers>P</div></div></button><button id = button_9 class = ""square num-button"" onclick = ""recordClick(this)""><div class = content><div class = numbers>Q</div></div></button><button id = button_10 class = ""square num-button"" onclick = ""recordClick(this)""><div class = content><div class = numbers>R</div></div></button><button id = button_11 class = ""square num-button"" onclick = ""recordClick(this)""><div class = content><div class = numbers>S</div></div></button><button id = button_12 class = ""square num-button"" onclick = ""recordClick(this)""><div class = content><div class = numbers>Y</div></div></button><button class = clear_button id = ""ClearButton"" onclick = ""clearResponse()"">BACKSPACE</button><button class = blank_button id = ""BlankButton"" onclick = ""blankResponse()"">SKIP</button><p style=""font-size: 2.4rem""><u><b>Current Answer:</b></u></p><br><br><div id=echoed_txt style=""font-size: 5rem; color:blue;""><b></b></div></div>",enter,ospan,retrieval,3r4hImRixfXeaqwz1oSC0daOZlh1,html-keyboard-response,132,1069015,0.0-46.0-4.0-1.0-2.0,12,10,8,5.0,"[""L"",""K"",""R"",""Q"",""N""]","[""L"",""K"",""R"",""Q"",""N""]",1.0,5.0,,,,,,,5c80367593fa450014546aca,20:56:07,03/04/2024
1084.1000000238419,[''],0,ospan,feedback,3r4hImRixfXeaqwz1oSC0daOZlh1,html-button-response,133,1070605,0.0-46.0-4.0-1.0-3.0,,,,,,,,,,,,100.0,0.0,,5c80367593fa450014546aca,20:56:07,03/04/2024
,"<p style=""font-size:75px;"">...</p>",,ospan,iti,3r4hImRixfXeaqwz1oSC0daOZlh1,html-keyboard-response,134,1071616,0.0-46.0-4.0-2.0-0.0,,,,,,,,,,,,,,,5c80367593fa450014546aca,20:56:07,03/04/2024
1645.0,,,ospan,symmetry,3r4hImRixfXeaqwz1oSC0daOZlh1,symmetry-judgement-task,135,1074498,0.0-46.0-4.0-2.0-1.0-0.0,,,,,,,,,,1.0,1.0,,,,5c80367593fa450014546aca,20:56:07,03/04/2024
,"<div style=""font-size: 10rem; color: #0000FF"">Q</div>",,ospan,letter,3r4hImRixfXeaqwz1oSC0daOZlh1,html-keyboard-response,136,1075505,0.0-46.0-4.0-2.0-1.0-1.0,,,,,,,,,,,,,,,5c80367593fa450014546aca,20:56:07,03/04/2024
1857.0,,,ospan,symmetry,3r4hImRixfXeaqwz1oSC0daOZlh1,symmetry-judgement-task,137,1079420,0.0-46.0-4.0-2.0-1.0-2.0,,,,,,,,,,1.0,1.0,,,,5c80367593fa450014546aca,20:56:07,03/04/2024
,"<div style=""font-size: 10rem; color: #0000FF"">C</div>",,ospan,letter,3r4hImRixfXeaqwz1oSC0daOZlh1,html-keyboard-response,138,1080434,0.0-46.0-4.0-2.0-1.0-3.0,,,,,,,,,,,,,,,5c80367593fa450014546aca,20:56:07,03/04/2024
1158.0,,,ospan,symmetry,3r4hImRixfXeaqwz1oSC0daOZlh1,symmetry-judgement-task,139,1083527,0.0-46.0-4.0-2.0-1.0-4.0,,,,,,,,,,1.0,1.0,,,,5c80367593fa450014546aca,20:56:07,03/04/2024
,"<div style=""font-size: 10rem; color: #0000FF"">K</div>",,ospan,letter,3r4hImRixfXeaqwz1oSC0daOZlh1,html-keyboard-response,140,1084531,0.0-46.0-4.0-2.0-1.0-5.0,,,,,,,,,,,,,,,5c80367593fa450014546aca,20:56:07,03/04/2024
3267.100000023842,"<div class = numbox><p style=""font-size: 2.4rem"">Please recall the letters you saw to the best of your ability. If you do not remember a particular letter, use the SKIP button.<br><b>(When you are ready to lock in your answer, press ENTER)</b></p><button id = button_1 class = ""square num-button"" onclick = ""recordClick(this)""><div class = content><div class = numbers>C</div></div></button><button id = button_2 class = ""square num-button"" onclick = ""recordClick(this)""><div class = content><div class = numbers>G</div></div></button><button id = button_3 class = ""square num-button"" onclick = ""recordClick(this)""><div class = content><div class = numbers>H</div></div></button><button id = button_4 class = ""square num-button"" onclick = ""recordClick(this)""><div class = content><div class = numbers>J</div></div></button><button id = button_5 class = ""square num-button"" onclick = ""recordClick(this)""><div class = content><div class = numbers>K</div></div></button><button id = button_6 class = ""square num-button"" onclick = ""recordClick(this)""><div class = content><div class = numbers>L</div></div></button><button id = button_7 class = ""square num-button"" onclick = ""recordClick(this)""><div class = content><div class = numbers>N</div></div></button><button id = button_8 class = ""square num-button"" onclick = ""recordClick(this)""><div class = content><div class = numbers>P</div></div></button><button id = button_9 class = ""square num-button"" onclick = ""recordClick(this)""><div class = content><div class = numbers>Q</div></div></button><button id = button_10 class = ""square num-button"" onclick = ""recordClick(this)""><div class = content><div class = numbers>R</div></div></button><button id = button_11 class = ""square num-button"" onclick = ""recordClick(this)""><div class = content><div class = numbers>S</div></div></button><button id = button_12 class = ""square num-button"" onclick = ""recordClick(this)""><div class = content><div class = numbers>Y</div></div></button><button class = clear_button id = ""ClearButton"" onclick = ""clearResponse()"">BACKSPACE</button><button class = blank_button id = ""BlankButton"" onclick = ""blankResponse()"">SKIP</button><p style=""font-size: 2.4rem""><u><b>Current Answer:</b></u></p><br><br><div id=echoed_txt style=""font-size: 5rem; color:blue;""><b></b></div></div>",enter,ospan,retrieval,3r4hImRixfXeaqwz1oSC0daOZlh1,html-keyboard-response,141,1088566,0.0-46.0-4.0-2.0-2.0,15,13,11,3.0,"[""Q"",""C"",""K""]","[""Q"",""C"",""K""]",1.0,3.0,,,,,,,5c80367593fa450014546aca,20:56:07,03/04/2024
1007.1999999880791,[''],0,ospan,feedback,3r4hImRixfXeaqwz1oSC0daOZlh1,html-button-response,142,1090080,0.0-46.0-4.0-2.0-3.0,,,,,,,,,,,,100.0,0.0,,5c80367593fa450014546aca,20:56:07,03/04/2024
,"<p style=""font-size:75px;"">...</p>",,ospan,iti,3r4hImRixfXeaqwz1oSC0daOZlh1,html-keyboard-response,143,1091099,0.0-46.0-5.0-0.0-0.0,,,,,,,,,,,,,,,5c80367593fa450014546aca,20:56:07,03/04/2024
1290.0,,,ospan,symmetry,3r4hImRixfXeaqwz1oSC0daOZlh1,symmetry-judgement-task,144,1093571,0.0-46.0-5.0-0.0-1.0-0.0,,,,,,,,,,1.0,1.0,,,,5c80367593fa450014546aca,20:56:07,03/04/2024
,"<div style=""font-size: 10rem; color: #0000FF"">L</div>",,ospan,letter,3r4hImRixfXeaqwz1oSC0daOZlh1,html-keyboard-response,145,1094590,0.0-46.0-5.0-0.0-1.0-1.0,,,,,,,,,,,,,,,5c80367593fa450014546aca,20:56:07,03/04/2024
1731.0,,,ospan,symmetry,3r4hImRixfXeaqwz1oSC0daOZlh1,symmetry-judgement-task,146,1098239,0.0-46.0-5.0-0.0-1.0-2.0,,,,,,,,,,1.0,1.0,,,,5c80367593fa450014546aca,20:56:07,03/04/2024
,"<div style=""font-size: 10rem; color: #0000FF"">H</div>",,ospan,letter,3r4hImRixfXeaqwz1oSC0daOZlh1,html-keyboard-response,147,1099250,0.0-46.0-5.0-0.0-1.0-3.0,,,,,,,,,,,,,,,5c80367593fa450014546aca,20:56:07,03/04/2024
1118.0,,,ospan,symmetry,3r4hImRixfXeaqwz1oSC0daOZlh1,symmetry-judgement-task,148,1102294,0.0-46.0-5.0-0.0-1.0-4.0,,,,,,,,,,1.0,1.0,,,,5c80367593fa450014546aca,20:56:07,03/04/2024
,"<div style=""font-size: 10rem; color: #0000FF"">C</div>",,ospan,letter,3r4hImRixfXeaqwz1oSC0daOZlh1,html-keyboard-response,149,1103311,0.0-46.0-5.0-0.0-1.0-5.0,,,,,,,,,,,,,,,5c80367593fa450014546aca,20:56:07,03/04/2024
2282.0,,,ospan,symmetry,3r4hImRixfXeaqwz1oSC0daOZlh1,symmetry-judgement-task,150,1107515,0.0-46.0-5.0-0.0-1.0-6.0,,,,,,,,,,1.0,1.0,,,,5c80367593fa450014546aca,20:56:07,03/04/2024
,"<div style=""font-size: 10rem; color: #0000FF"">R</div>",,ospan,letter,3r4hImRixfXeaqwz1oSC0daOZlh1,html-keyboard-response,151,1108519,0.0-46.0-5.0-0.0-1.0-7.0,,,,,,,,,,,,,,,5c80367593fa450014546aca,20:56:07,03/04/2024
1895.0,,,ospan,symmetry,3r4hImRixfXeaqwz1oSC0daOZlh1,symmetry-judgement-task,152,1112359,0.0-46.0-5.0-0.0-1.0-8.0,,,,,,,,,,1.0,1.0,,,,5c80367593fa450014546aca,20:56:07,03/04/2024
,"<div style=""font-size: 10rem; color: #0000FF"">S</div>",,ospan,letter,3r4hImRixfXeaqwz1oSC0daOZlh1,html-keyboard-response,153,1113362,0.0-46.0-5.0-0.0-1.0-9.0,,,,,,,,,,,,,,,5c80367593fa450014546aca,20:56:07,03/04/2024
1772.0,,,ospan,symmetry,3r4hImRixfXeaqwz1oSC0daOZlh1,symmetry-judgement-task,154,1117065,0.0-46.0-5.0-0.0-1.0-10.0,,,,,,,,,,1.0,1.0,,,,5c80367593fa450014546aca,20:56:07,03/04/2024
,"<div style=""font-size: 10rem; color: #0000FF"">G</div>",,ospan,letter,3r4hImRixfXeaqwz1oSC0daOZlh1,html-keyboard-response,155,1118071,0.0-46.0-5.0-0.0-1.0-11.0,,,,,,,,,,,,,,,5c80367593fa450014546aca,20:56:07,03/04/2024
11669.199999988079,"<div class = numbox><p style=""font-size: 2.4rem"">Please recall the letters you saw to the best of your ability. If you do not remember a particular letter, use the SKIP button.<br><b>(When you are ready to lock in your answer, press ENTER)</b></p><button id = button_1 class = ""square num-button"" onclick = ""recordClick(this)""><div class = content><div class = numbers>C</div></div></button><button id = button_2 class = ""square num-button"" onclick = ""recordClick(this)""><div class = content><div class = numbers>G</div></div></button><button id = button_3 class = ""square num-button"" onclick = ""recordClick(this)""><div class = content><div class = numbers>H</div></div></button><button id = button_4 class = ""square num-button"" onclick = ""recordClick(this)""><div class = content><div class = numbers>J</div></div></button><button id = button_5 class = ""square num-button"" onclick = ""recordClick(this)""><div class = content><div class = numbers>K</div></div></button><button id = button_6 class = ""square num-button"" onclick = ""recordClick(this)""><div class = content><div class = numbers>L</div></div></button><button id = button_7 class = ""square num-button"" onclick = ""recordClick(this)""><div class = content><div class = numbers>N</div></div></button><button id = button_8 class = ""square num-button"" onclick = ""recordClick(this)""><div class = content><div class = numbers>P</div></div></button><button id = button_9 class = ""square num-button"" onclick = ""recordClick(this)""><div class = content><div class = numbers>Q</div></div></button><button id = button_10 class = ""square num-button"" onclick = ""recordClick(this)""><div class = content><div class = numbers>R</div></div></button><button id = button_11 class = ""square num-button"" onclick = ""recordClick(this)""><div class = content><div class = numbers>S</div></div></button><button id = button_12 class = ""square num-button"" onclick = ""recordClick(this)""><div class = content><div class = numbers>Y</div></div></button><button class = clear_button id = ""ClearButton"" onclick = ""clearResponse()"">BACKSPACE</button><button class = blank_button id = ""BlankButton"" onclick = ""blankResponse()"">SKIP</button><p style=""font-size: 2.4rem""><u><b>Current Answer:</b></u></p><br><br><div id=echoed_txt style=""font-size: 5rem; color:blue;""><b></b></div></div>",enter,ospan,retrieval,3r4hImRixfXeaqwz1oSC0daOZlh1,html-keyboard-response,156,1130504,0.0-46.0-5.0-0.0-2.0,21,19,17,6.0,"[""L"",""H"",""C"",""R"",""S"",""G""]","[""L"",""H"",""C"",""R"",""S"",""G""]",1.0,6.0,,,,,,,5c80367593fa450014546aca,20:56:07,03/04/2024
8782.800000011921,[''],0,ospan,feedback,3r4hImRixfXeaqwz1oSC0daOZlh1,html-button-response,157,1139799,0.0-46.0-5.0-0.0-3.0,,,,,,,,,,,,100.0,0.0,,5c80367593fa450014546aca,20:56:07,03/04/2024
,"<p style=""font-size:75px;"">...</p>",,ospan,iti,3r4hImRixfXeaqwz1oSC0daOZlh1,html-keyboard-response,158,1140803,0.0-46.0-5.0-1.0-0.0,,,,,,,,,,,,,,,5c80367593fa450014546aca,20:56:07,03/04/2024
1541.0,,,ospan,symmetry,3r4hImRixfXeaqwz1oSC0daOZlh1,symmetry-judgement-task,159,1143395,0.0-46.0-5.0-1.0-1.0-0.0,,,,,,,,,,1.0,1.0,,,,5c80367593fa450014546aca,20:56:07,03/04/2024
,"<div style=""font-size: 10rem; color: #0000FF"">L</div>",,ospan,letter,3r4hImRixfXeaqwz1oSC0daOZlh1,html-keyboard-response,160,1144410,0.0-46.0-5.0-1.0-1.0-1.0,,,,,,,,,,,,,,,5c80367593fa450014546aca,20:56:07,03/04/2024
1197.0,,,ospan,symmetry,3r4hImRixfXeaqwz1oSC0daOZlh1,symmetry-judgement-task,161,1147529,0.0-46.0-5.0-1.0-1.0-2.0,,,,,,,,,,1.0,1.0,,,,5c80367593fa450014546aca,20:56:07,03/04/2024
,"<div style=""font-size: 10rem; color: #0000FF"">C</div>",,ospan,letter,3r4hImRixfXeaqwz1oSC0daOZlh1,html-keyboard-response,162,1148540,0.0-46.0-5.0-1.0-1.0-3.0,,,,,,,,,,,,,,,5c80367593fa450014546aca,20:56:07,03/04/2024
869.0,,,ospan,symmetry,3r4hImRixfXeaqwz1oSC0daOZlh1,symmetry-judgement-task,163,1151336,0.0-46.0-5.0-1.0-1.0-4.0,,,,,,,,,,1.0,1.0,,,,5c80367593fa450014546aca,20:56:07,03/04/2024
,"<div style=""font-size: 10rem; color: #0000FF"">S</div>",,ospan,letter,3r4hImRixfXeaqwz1oSC0daOZlh1,html-keyboard-response,164,1152343,0.0-46.0-5.0-1.0-1.0-5.0,,,,,,,,,,,,,,,5c80367593fa450014546aca,20:56:07,03/04/2024
983.0,,,ospan,symmetry,3r4hImRixfXeaqwz1oSC0daOZlh1,symmetry-judgement-task,165,1155243,0.0-46.0-5.0-1.0-1.0-6.0,,,,,,,,,,1.0,1.0,,,,5c80367593fa450014546aca,20:56:07,03/04/2024
,"<div style=""font-size: 10rem; color: #0000FF"">Q</div>",,ospan,letter,3r4hImRixfXeaqwz1oSC0daOZlh1,html-keyboard-response,166,1156253,0.0-46.0-5.0-1.0-1.0-7.0,,,,,,,,,,,,,,,5c80367593fa450014546aca,20:56:07,03/04/2024
817.0,,,ospan,symmetry,3r4hImRixfXeaqwz1oSC0daOZlh1,symmetry-judgement-task,167,1159006,0.0-46.0-5.0-1.0-1.0-8.0,,,,,,,,,,1.0,1.0,,,,5c80367593fa450014546aca,20:56:07,03/04/2024
,"<div style=""font-size: 10rem; color: #0000FF"">R</div>",,ospan,letter,3r4hImRixfXeaqwz1oSC0daOZlh1,html-keyboard-response,168,1160021,0.0-46.0-5.0-1.0-1.0-9.0,,,,,,,,,,,,,,,5c80367593fa450014546aca,20:56:07,03/04/2024
2431.0,,,ospan,symmetry,3r4hImRixfXeaqwz1oSC0daOZlh1,symmetry-judgement-task,169,1164375,0.0-46.0-5.0-1.0-1.0-10.0,,,,,,,,,,1.0,1.0,,,,5c80367593fa450014546aca,20:56:07,03/04/2024
,"<div style=""font-size: 10rem; color: #0000FF"">P</div>",,ospan,letter,3r4hImRixfXeaqwz1oSC0daOZlh1,html-keyboard-response,170,1165390,0.0-46.0-5.0-1.0-1.0-11.0,,,,,,,,,,,,,,,5c80367593fa450014546aca,20:56:07,03/04/2024
2290.0,,,ospan,symmetry,3r4hImRixfXeaqwz1oSC0daOZlh1,symmetry-judgement-task,171,1169597,0.0-46.0-5.0-1.0-1.0-12.0,,,,,,,,,,1.0,1.0,,,,5c80367593fa450014546aca,20:56:07,03/04/2024
,"<div style=""font-size: 10rem; color: #0000FF"">G</div>",,ospan,letter,3r4hImRixfXeaqwz1oSC0daOZlh1,html-keyboard-response,172,1170602,0.0-46.0-5.0-1.0-1.0-13.0,,,,,,,,,,,,,,,5c80367593fa450014546aca,20:56:07,03/04/2024
7181.100000023842,"<div class = numbox><p style=""font-size: 2.4rem"">Please recall the letters you saw to the best of your ability. If you do not remember a particular letter, use the SKIP button.<br><b>(When you are ready to lock in your answer, press ENTER)</b></p><button id = button_1 class = ""square num-button"" onclick = ""recordClick(this)""><div class = content><div class = numbers>C</div></div></button><button id = button_2 class = ""square num-button"" onclick = ""recordClick(this)""><div class = content><div class = numbers>G</div></div></button><button id = button_3 class = ""square num-button"" onclick = ""recordClick(this)""><div class = content><div class = numbers>H</div></div></button><button id = button_4 class = ""square num-button"" onclick = ""recordClick(this)""><div class = content><div class = numbers>J</div></div></button><button id = button_5 class = ""square num-button"" onclick = ""recordClick(this)""><div class = content><div class = numbers>K</div></div></button><button id = button_6 class = ""square num-button"" onclick = ""recordClick(this)""><div class = content><div class = numbers>L</div></div></button><button id = button_7 class = ""square num-button"" onclick = ""recordClick(this)""><div class = content><div class = numbers>N</div></div></button><button id = button_8 class = ""square num-button"" onclick = ""recordClick(this)""><div class = content><div class = numbers>P</div></div></button><button id = button_9 class = ""square num-button"" onclick = ""recordClick(this)""><div class = content><div class = numbers>Q</div></div></button><button id = button_10 class = ""square num-button"" onclick = ""recordClick(this)""><div class = content><div class = numbers>R</div></div></button><button id = button_11 class = ""square num-button"" onclick = ""recordClick(this)""><div class = content><div class = numbers>S</div></div></button><button id = button_12 class = ""square num-button"" onclick = ""recordClick(this)""><div class = content><div class = numbers>Y</div></div></button><button class = clear_button id = ""ClearButton"" onclick = ""clearResponse()"">BACKSPACE</button><button class = blank_button id = ""BlankButton"" onclick = ""blankResponse()"">SKIP</button><p style=""font-size: 2.4rem""><u><b>Current Answer:</b></u></p><br><br><div id=echoed_txt style=""font-size: 5rem; color:blue;""><b></b></div></div>",enter,ospan,retrieval,3r4hImRixfXeaqwz1oSC0daOZlh1,html-keyboard-response,173,1178537,0.0-46.0-5.0-1.0-2.0,28,26,24,7.0,"[""L"",""C"",""S"",""Q"",""R"",""P"",""G""]","[""L"",""C"",""S"",""Q"",""R"",""P"",""G""]",1.0,7.0,,,,,,,5c80367593fa450014546aca,20:56:07,03/04/2024
1056.199999988079,[''],0,ospan,feedback,3r4hImRixfXeaqwz1oSC0daOZlh1,html-button-response,174,1180112,0.0-46.0-5.0-1.0-3.0,,,,,,,,,,,,100.0,0.0,,5c80367593fa450014546aca,20:56:07,03/04/2024
,"<p style=""font-size:75px;"">...</p>",,ospan,iti,3r4hImRixfXeaqwz1oSC0daOZlh1,html-keyboard-response,175,1181118,0.0-46.0-6.0-0.0-0.0,,,,,,,,,,,,,,,5c80367593fa450014546aca,20:56:07,03/04/2024
2034.0,,,ospan,symmetry,3r4hImRixfXeaqwz1oSC0daOZlh1,symmetry-judgement-task,176,1184341,0.0-46.0-6.0-0.0-1.0-0.0,,,,,,,,,,1.0,1.0,,,,5c80367593fa450014546aca,20:56:07,03/04/2024
,"<div style=""font-size: 10rem; color: #0000FF"">R</div>",,ospan,letter,3r4hImRixfXeaqwz1oSC0daOZlh1,html-keyboard-response,177,1185345,0.0-46.0-6.0-0.0-1.0-1.0,,,,,,,,,,,,,,,5c80367593fa450014546aca,20:56:07,03/04/2024
946.0,,,ospan,symmetry,3r4hImRixfXeaqwz1oSC0daOZlh1,symmetry-judgement-task,178,1188209,0.0-46.0-6.0-0.0-1.0-2.0,,,,,,,,,,1.0,1.0,,,,5c80367593fa450014546aca,20:56:07,03/04/2024
,"<div style=""font-size: 10rem; color: #0000FF"">P</div>",,ospan,letter,3r4hImRixfXeaqwz1oSC0daOZlh1,html-keyboard-response,179,1189220,0.0-46.0-6.0-0.0-1.0-3.0,,,,,,,,,,,,,,,5c80367593fa450014546aca,20:56:07,03/04/2024
791.0,,,ospan,symmetry,3r4hImRixfXeaqwz1oSC0daOZlh1,symmetry-judgement-task,180,1191947,0.0-46.0-6.0-0.0-1.0-4.0,,,,,,,,,,1.0,1.0,,,,5c80367593fa450014546aca,20:56:07,03/04/2024
,"<div style=""font-size: 10rem; color: #0000FF"">S</div>",,ospan,letter,3r4hImRixfXeaqwz1oSC0daOZlh1,html-keyboard-response,181,1192961,0.0-46.0-6.0-0.0-1.0-5.0,,,,,,,,,,,,,,,5c80367593fa450014546aca,20:56:07,03/04/2024
1008.0,,,ospan,symmetry,3r4hImRixfXeaqwz1oSC0daOZlh1,symmetry-judgement-task,182,1195888,0.0-46.0-6.0-0.0-1.0-6.0,,,,,,,,,,1.0,1.0,,,,5c80367593fa450014546aca,20:56:07,03/04/2024
,"<div style=""font-size: 10rem; color: #0000FF"">C</div>",,ospan,letter,3r4hImRixfXeaqwz1oSC0daOZlh1,html-keyboard-response,183,1196899,0.0-46.0-6.0-0.0-1.0-7.0,,,,,,,,,,,,,,,5c80367593fa450014546aca,20:56:07,03/04/2024
1313.0,,,ospan,symmetry,3r4hImRixfXeaqwz1oSC0daOZlh1,symmetry-judgement-task,184,1200130,0.0-46.0-6.0-0.0-1.0-8.0,,,,,,,,,,1.0,1.0,,,,5c80367593fa450014546aca,20:56:07,03/04/2024
,"<div style=""font-size: 10rem; color: #0000FF"">G</div>",,ospan,letter,3r4hImRixfXeaqwz1oSC0daOZlh1,html-keyboard-response,185,1201141,0.0-46.0-6.0-0.0-1.0-9.0,,,,,,,,,,,,,,,5c80367593fa450014546aca,20:56:07,03/04/2024
5037.699999988079,"<div class = numbox><p style=""font-size: 2.4rem"">Please recall the letters you saw to the best of your ability. If you do not remember a particular letter, use the SKIP button.<br><b>(When you are ready to lock in your answer, press ENTER)</b></p><button id = button_1 class = ""square num-button"" onclick = ""recordClick(this)""><div class = content><div class = numbers>C</div></div></button><button id = button_2 class = ""square num-button"" onclick = ""recordClick(this)""><div class = content><div class = numbers>G</div></div></button><button id = button_3 class = ""square num-button"" onclick = ""recordClick(this)""><div class = content><div class = numbers>H</div></div></button><button id = button_4 class = ""square num-button"" onclick = ""recordClick(this)""><div class = content><div class = numbers>J</div></div></button><button id = button_5 class = ""square num-button"" onclick = ""recordClick(this)""><div class = content><div class = numbers>K</div></div></button><button id = button_6 class = ""square num-button"" onclick = ""recordClick(this)""><div class = content><div class = numbers>L</div></div></button><button id = button_7 class = ""square num-button"" onclick = ""recordClick(this)""><div class = content><div class = numbers>N</div></div></button><button id = button_8 class = ""square num-button"" onclick = ""recordClick(this)""><div class = content><div class = numbers>P</div></div></button><button id = button_9 class = ""square num-button"" onclick = ""recordClick(this)""><div class = content><div class = numbers>Q</div></div></button><button id = button_10 class = ""square num-button"" onclick = ""recordClick(this)""><div class = content><div class = numbers>R</div></div></button><button id = button_11 class = ""square num-button"" onclick = ""recordClick(this)""><div class = content><div class = numbers>S</div></div></button><button id = button_12 class = ""square num-button"" onclick = ""recordClick(this)""><div class = content><div class = numbers>Y</div></div></button><button class = clear_button id = ""ClearButton"" onclick = ""clearResponse()"">BACKSPACE</button><button class = blank_button id = ""BlankButton"" onclick = ""blankResponse()"">SKIP</button><p style=""font-size: 2.4rem""><u><b>Current Answer:</b></u></p><br><br><div id=echoed_txt style=""font-size: 5rem; color:blue;""><b></b></div></div>",enter,ospan,retrieval,3r4hImRixfXeaqwz1oSC0daOZlh1,html-keyboard-response,186,1206942,0.0-46.0-6.0-0.0-2.0,33,31,29,5.0,"[""R"",""P"",""S"",""C"",""G""]","[""R"",""P"",""S"",""C"",""G""]",1.0,5.0,,,,,,,5c80367593fa450014546aca,20:56:07,03/04/2024
998.9000000357628,[''],0,ospan,feedback,3r4hImRixfXeaqwz1oSC0daOZlh1,html-button-response,187,1208452,0.0-46.0-6.0-0.0-3.0,,,,,,,,,,,,100.0,0.0,,5c80367593fa450014546aca,20:56:07,03/04/2024
,"<p style=""font-size:75px;"">...</p>",,ospan,iti,3r4hImRixfXeaqwz1oSC0daOZlh1,html-keyboard-response,188,1209458,0.0-46.0-6.0-1.0-0.0,,,,,,,,,,,,,,,5c80367593fa450014546aca,20:56:07,03/04/2024
1009.0,,,ospan,symmetry,3r4hImRixfXeaqwz1oSC0daOZlh1,symmetry-judgement-task,189,1211639,0.0-46.0-6.0-1.0-1.0-0.0,,,,,,,,,,1.0,1.0,,,,5c80367593fa450014546aca,20:56:07,03/04/2024
,"<div style=""font-size: 10rem; color: #0000FF"">J</div>",,ospan,letter,3r4hImRixfXeaqwz1oSC0daOZlh1,html-keyboard-response,190,1212644,0.0-46.0-6.0-1.0-1.0-1.0,,,,,,,,,,,,,,,5c80367593fa450014546aca,20:56:07,03/04/2024
1412.0,,,ospan,symmetry,3r4hImRixfXeaqwz1oSC0daOZlh1,symmetry-judgement-task,191,1215969,0.0-46.0-6.0-1.0-1.0-2.0,,,,,,,,,,1.0,1.0,,,,5c80367593fa450014546aca,20:56:07,03/04/2024
,"<div style=""font-size: 10rem; color: #0000FF"">N</div>",,ospan,letter,3r4hImRixfXeaqwz1oSC0daOZlh1,html-keyboard-response,192,1216974,0.0-46.0-6.0-1.0-1.0-3.0,,,,,,,,,,,,,,,5c80367593fa450014546aca,20:56:07,03/04/2024
1051.0,,,ospan,symmetry,3r4hImRixfXeaqwz1oSC0daOZlh1,symmetry-judgement-task,193,1219964,0.0-46.0-6.0-1.0-1.0-4.0,,,,,,,,,,1.0,1.0,,,,5c80367593fa450014546aca,20:56:07,03/04/2024
,"<div style=""font-size: 10rem; color: #0000FF"">L</div>",,ospan,letter,3r4hImRixfXeaqwz1oSC0daOZlh1,html-keyboard-response,194,1220969,0.0-46.0-6.0-1.0-1.0-5.0,,,,,,,,,,,,,,,5c80367593fa450014546aca,20:56:07,03/04/2024
1733.0,,,ospan,symmetry,3r4hImRixfXeaqwz1oSC0daOZlh1,symmetry-judgement-task,195,1224619,0.0-46.0-6.0-1.0-1.0-6.0,,,,,,,,,,1.0,1.0,,,,5c80367593fa450014546aca,20:56:07,03/04/2024
,"<div style=""font-size: 10rem; color: #0000FF"">C</div>",,ospan,letter,3r4hImRixfXeaqwz1oSC0daOZlh1,html-keyboard-response,196,1225624,0.0-46.0-6.0-1.0-1.0-7.0,,,,,,,,,,,,,,,5c80367593fa450014546aca,20:56:07,03/04/2024
3621.0,,,ospan,symmetry,3r4hImRixfXeaqwz1oSC0daOZlh1,symmetry-judgement-task,197,1231160,0.0-46.0-6.0-1.0-1.0-8.0,,,,,,,,,,1.0,1.0,,,,5c80367593fa450014546aca,20:56:07,03/04/2024
,"<div style=""font-size: 10rem; color: #0000FF"">H</div>",,ospan,letter,3r4hImRixfXeaqwz1oSC0daOZlh1,html-keyboard-response,198,1232168,0.0-46.0-6.0-1.0-1.0-9.0,,,,,,,,,,,,,,,5c80367593fa450014546aca,20:56:07,03/04/2024
4948.0,,,ospan,symmetry,3r4hImRixfXeaqwz1oSC0daOZlh1,symmetry-judgement-task,199,1239024,0.0-46.0-6.0-1.0-1.0-10.0,,,,,,,,,,1.0,1.0,,,,5c80367593fa450014546aca,20:56:07,03/04/2024
,"<div style=""font-size: 10rem; color: #0000FF"">P</div>",,ospan,letter,3r4hImRixfXeaqwz1oSC0daOZlh1,html-keyboard-response,200,1240032,0.0-46.0-6.0-1.0-1.0-11.0,,,,,,,,,,,,,,,5c80367593fa450014546aca,20:56:07,03/04/2024
1164.0,,,ospan,symmetry,3r4hImRixfXeaqwz1oSC0daOZlh1,symmetry-judgement-task,201,1243149,0.0-46.0-6.0-1.0-1.0-12.0,,,,,,,,,,1.0,1.0,,,,5c80367593fa450014546aca,20:56:07,03/04/2024
,"<div style=""font-size: 10rem; color: #0000FF"">K</div>",,ospan,letter,3r4hImRixfXeaqwz1oSC0daOZlh1,html-keyboard-response,202,1244158,0.0-46.0-6.0-1.0-1.0-13.0,,,,,,,,,,,,,,,5c80367593fa450014546aca,20:56:07,03/04/2024
1171.0,,,ospan,symmetry,3r4hImRixfXeaqwz1oSC0daOZlh1,symmetry-judgement-task,203,1247260,0.0-46.0-6.0-1.0-1.0-14.0,,,,,,,,,,1.0,1.0,,,,5c80367593fa450014546aca,20:56:07,03/04/2024
,"<div style=""font-size: 10rem; color: #0000FF"">S</div>",,ospan,letter,3r4hImRixfXeaqwz1oSC0daOZlh1,html-keyboard-response,204,1248267,0.0-46.0-6.0-1.0-1.0-15.0,,,,,,,,,,,,,,,5c80367593fa450014546aca,20:56:07,03/04/2024
19026.30000001192,"<div class = numbox><p style=""font-size: 2.4rem"">Please recall the letters you saw to the best of your ability. If you do not remember a particular letter, use the SKIP button.<br><b>(When you are ready to lock in your answer, press ENTER)</b></p><button id = button_1 class = ""square num-button"" onclick = ""recordClick(this)""><div class = content><div class = numbers>C</div></div></button><button id = button_2 class = ""square num-button"" onclick = ""recordClick(this)""><div class = content><div class = numbers>G</div></div></button><button id = button_3 class = ""square num-button"" onclick = ""recordClick(this)""><div class = content><div class = numbers>H</div></div></button><button id = button_4 class = ""square num-button"" onclick = ""recordClick(this)""><div class = content><div class = numbers>J</div></div></button><button id = button_5 class = ""square num-button"" onclick = ""recordClick(this)""><div class = content><div class = numbers>K</div></div></button><button id = button_6 class = ""square num-button"" onclick = ""recordClick(this)""><div class = content><div class = numbers>L</div></div></button><button id = button_7 class = ""square num-button"" onclick = ""recordClick(this)""><div class = content><div class = numbers>N</div></div></button><button id = button_8 class = ""square num-button"" onclick = ""recordClick(this)""><div class = content><div class = numbers>P</div></div></button><button id = button_9 class = ""square num-button"" onclick = ""recordClick(this)""><div class = content><div class = numbers>Q</div></div></button><button id = button_10 class = ""square num-button"" onclick = ""recordClick(this)""><div class = content><div class = numbers>R</div></div></button><button id = button_11 class = ""square num-button"" onclick = ""recordClick(this)""><div class = content><div class = numbers>S</div></div></button><button id = button_12 class = ""square num-button"" onclick = ""recordClick(this)""><div class = content><div class = numbers>Y</div></div></button><button class = clear_button id = ""ClearButton"" onclick = ""clearResponse()"">BACKSPACE</button><button class = blank_button id = ""BlankButton"" onclick = ""blankResponse()"">SKIP</button><p style=""font-size: 2.4rem""><u><b>Current Answer:</b></u></p><br><br><div id=echoed_txt style=""font-size: 5rem; color:blue;""><b></b></div></div>",enter,ospan,retrieval,3r4hImRixfXeaqwz1oSC0daOZlh1,html-keyboard-response,205,1268054,0.0-46.0-6.0-1.0-2.0,41,37,29,8.0,"[""J"",""N"",""L"",""C"",""H"",""P"",""S"",""K""]","[""J"",""N"",""L"",""C"",""H"",""P"",""K"",""S""]",0.0,6.0,,,,,,,5c80367593fa450014546aca,20:56:07,03/04/2024
4542.099999964237,[''],0,ospan,feedback,3r4hImRixfXeaqwz1oSC0daOZlh1,html-button-response,206,1273107,0.0-46.0-6.0-1.0-3.0,,,,,,,,,,,,100.0,0.0,,5c80367593fa450014546aca,20:56:07,03/04/2024
42673.299999952316,,{'Q0': 'I enjoyed trying to remember the letters towards the end. Everything was clear to understand '},ospan,survey_ospan,3r4hImRixfXeaqwz1oSC0daOZlh1,lmdlab-survey-text,207,1316541,0.0-46.0-7.0,,,,,,,,,,,,,,3r4hImRixfXeaqwz1oSC0daOZlh1,5c80367593fa450014546aca,20:56:07,03/04/2024
1387.1000000238419,<p><p style='font-size: 3rem'>Great work!<br><br>This completes the symmetry and memory task.</p><br><br><br>,0,ospan,finish,3r4hImRixfXeaqwz1oSC0daOZlh1,html-button-response,208,1317932,0.0-46.0-8.0,41,37,29,,,,,,,,,100.0,,,5c80367593fa450014546aca,20:56:07,03/04/2024
