rt,stimulus,response,exp_name,exp_stage,subjectID,trial_type,trial_index,time_elapsed,internal_node_id,ospan_shown,ospan_total,ospan_abs,length,resp_actual,resp_correct,full_correct,num_correct,feedback,accuracy,correct,math_acc,math_warning,databaseID,prolificID,start_time,date
4257.800000011921,<div class = 'left_align' style='font-size: 3.25rem; line-height: 1.3;'><p class = 'center_align'><b>Welcome to the Symmetry and Memory Task</b><br><br><br><br></p>Press 'continue' to show the instructions.<br><br><br><br></div>,0,ospan,instruct,Ku0eMKGtROSVCXbldINco62jJfB2,html-button-response,51,391469,0.0-43.0-0.0-0.0-0.0,,,,,,,,,,,,,,,65c8ae4d5f25e8b4062a4c93,14:47:44,06/03/2024
26047.69999998808,"<div class = 'left_align' style='font-size: 3.25rem; line-height: 1.3;'><p class = 'center_align'><b>Symmetry and Memory Task</b><br><br></p>In this task, you will try to memorize letters you see on the screen<br>while you also view black and white grid pictures.<br><br>In the next few minutes, you will have some practice to get you familiar<br>with how the task works.<br><br>It may be difficult sometimes, but please do not worry about making mistakes!<br><br>We will begin by practicing the letter part of the task.<br><br><br><br></div>",0,ospan,instruct,Ku0eMKGtROSVCXbldINco62jJfB2,html-button-response,52,417769,0.0-43.0-0.0-0.0-1.0,,,,,,,,,,,,,,,65c8ae4d5f25e8b4062a4c93,14:47:44,06/03/2024
11178.100000023842,"<div class = 'left_align' style='font-size: 3.25rem; line-height: 1.3;'>For this practice part, letters will appear on the screen one at a time.<br><br>Try to remember each letter in the order presented.<br><br>After some letters have been shown, you will see a response screen. Your<br>goal is to report the letters you saw <b>in order</b>. If you do not remember<br>a particular letter, you will have the option to leave it blank.<br><br><br><br></div>",0,ospan,instruct,Ku0eMKGtROSVCXbldINco62jJfB2,html-button-response,53,429202,0.0-43.0-0.0-0.0-2.0,,,,,,,,,,,,,,,65c8ae4d5f25e8b4062a4c93,14:47:44,06/03/2024
1263.2000000476837,"<div class = 'left_align' style='font-size: 3.25rem; line-height: 1.3;'>Remember, it is very important to get the letters in the same<br>order as you see them.<br><br>When you are ready, you may begin the letter practice.</div><br><br><br><br>",0,ospan,instruct,Ku0eMKGtROSVCXbldINco62jJfB2,html-button-response,54,430719,0.0-43.0-0.0-0.0-3.0,,,,,,,,,,,,,,,65c8ae4d5f25e8b4062a4c93,14:47:44,06/03/2024
,"<p style=""font-size:75px;"">...</p>",,ospan,iti,Ku0eMKGtROSVCXbldINco62jJfB2,html-keyboard-response,55,431974,0.0-43.0-0.0-1.0-0.0,,,,,,,,,,,,,,,65c8ae4d5f25e8b4062a4c93,14:47:44,06/03/2024
,"<div style=""font-size: 10rem; color: #0000FF"">C</div>",,ospan,letter,Ku0eMKGtROSVCXbldINco62jJfB2,html-keyboard-response,56,432978,0.0-43.0-0.0-1.0-1.0,,,,,,,,,,,,,,,65c8ae4d5f25e8b4062a4c93,14:47:44,06/03/2024
,"<div style=""font-size: 10rem; color: #0000FF"">P</div>",,ospan,letter,Ku0eMKGtROSVCXbldINco62jJfB2,html-keyboard-response,57,434733,0.0-43.0-0.0-1.0-2.0,,,,,,,,,,,,,,,65c8ae4d5f25e8b4062a4c93,14:47:44,06/03/2024
5968.400000035763,"<div class = numbox><p style=""font-size: 2.4rem"">Please recall the letters you saw to the best of your ability. If you do not remember a particular letter, use the SKIP button.<br><b>(When you are ready to lock in your answer, press ENTER)</b></p><button id = button_1 class = ""square num-button"" onclick = ""recordClick(this)""><div class = content><div class = numbers>C</div></div></button><button id = button_2 class = ""square num-button"" onclick = ""recordClick(this)""><div class = content><div class = numbers>G</div></div></button><button id = button_3 class = ""square num-button"" onclick = ""recordClick(this)""><div class = content><div class = numbers>H</div></div></button><button id = button_4 class = ""square num-button"" onclick = ""recordClick(this)""><div class = content><div class = numbers>J</div></div></button><button id = button_5 class = ""square num-button"" onclick = ""recordClick(this)""><div class = content><div class = numbers>K</div></div></button><button id = button_6 class = ""square num-button"" onclick = ""recordClick(this)""><div class = content><div class = numbers>L</div></div></button><button id = button_7 class = ""square num-button"" onclick = ""recordClick(this)""><div class = content><div class = numbers>N</div></div></button><button id = button_8 class = ""square num-button"" onclick = ""recordClick(this)""><div class = content><div class = numbers>P</div></div></button><button id = button_9 class = ""square num-button"" onclick = ""recordClick(this)""><div class = content><div class = numbers>Q</div></div></button><button id = button_10 class = ""square num-button"" onclick = ""recordClick(this)""><div class = content><div class = numbers>R</div></div></button><button id = button_11 class = ""square num-button"" onclick = ""recordClick(this)""><div class = content><div class = numbers>S</div></div></button><button id = button_12 class = ""square num-button"" onclick = ""recordClick(this)""><div class = content><div class = numbers>Y</div></div></button><button class = clear_button id = ""ClearButton"" onclick = ""clearResponse()"">BACKSPACE</button><button class = blank_button id = ""BlankButton"" onclick = ""blankResponse()"">SKIP</button><p style=""font-size: 2.4rem""><u><b>Current Answer:</b></u></p><br><br><div id=echoed_txt style=""font-size: 5rem; color:blue;""><b></b></div></div>",enter,ospan,retrieval,Ku0eMKGtROSVCXbldINco62jJfB2,html-keyboard-response,58,441454,0.0-43.0-0.0-1.0-3.0,NA,NA,NA,2.0,"[""C"",""P""]","[""C"",""P""]",1.0,2.0,"['<font color=""green"">C</font>', '<font color=""green"">P</font>']",,,,,,65c8ae4d5f25e8b4062a4c93,14:47:44,06/03/2024
1728.5,"['<p style=""font-size:44px"">Letters:<br><br><br><font color=""green"">C</font> <font color=""green"">P</font></p><br><br>']",0,ospan,practice_feedback,Ku0eMKGtROSVCXbldINco62jJfB2,html-button-response,59,443687,0.0-43.0-0.0-1.0-4.0,,,,,,,,,,,,,,,65c8ae4d5f25e8b4062a4c93,14:47:44,06/03/2024
,"<p style=""font-size:75px;"">...</p>",,ospan,iti,Ku0eMKGtROSVCXbldINco62jJfB2,html-keyboard-response,60,444690,0.0-43.0-0.0-2.0-0.0,,,,,,,,,,,,,,,65c8ae4d5f25e8b4062a4c93,14:47:44,06/03/2024
,"<div style=""font-size: 10rem; color: #0000FF"">Y</div>",,ospan,letter,Ku0eMKGtROSVCXbldINco62jJfB2,html-keyboard-response,61,445693,0.0-43.0-0.0-2.0-1.0,,,,,,,,,,,,,,,65c8ae4d5f25e8b4062a4c93,14:47:44,06/03/2024
,"<div style=""font-size: 10rem; color: #0000FF"">N</div>",,ospan,letter,Ku0eMKGtROSVCXbldINco62jJfB2,html-keyboard-response,62,447447,0.0-43.0-0.0-2.0-2.0,,,,,,,,,,,,,,,65c8ae4d5f25e8b4062a4c93,14:47:44,06/03/2024
,"<div style=""font-size: 10rem; color: #0000FF"">L</div>",,ospan,letter,Ku0eMKGtROSVCXbldINco62jJfB2,html-keyboard-response,63,449201,0.0-43.0-0.0-2.0-3.0,,,,,,,,,,,,,,,65c8ae4d5f25e8b4062a4c93,14:47:44,06/03/2024
9970.599999964237,"<div class = numbox><p style=""font-size: 2.4rem"">Please recall the letters you saw to the best of your ability. If you do not remember a particular letter, use the SKIP button.<br><b>(When you are ready to lock in your answer, press ENTER)</b></p><button id = button_1 class = ""square num-button"" onclick = ""recordClick(this)""><div class = content><div class = numbers>C</div></div></button><button id = button_2 class = ""square num-button"" onclick = ""recordClick(this)""><div class = content><div class = numbers>G</div></div></button><button id = button_3 class = ""square num-button"" onclick = ""recordClick(this)""><div class = content><div class = numbers>H</div></div></button><button id = button_4 class = ""square num-button"" onclick = ""recordClick(this)""><div class = content><div class = numbers>J</div></div></button><button id = button_5 class = ""square num-button"" onclick = ""recordClick(this)""><div class = content><div class = numbers>K</div></div></button><button id = button_6 class = ""square num-button"" onclick = ""recordClick(this)""><div class = content><div class = numbers>L</div></div></button><button id = button_7 class = ""square num-button"" onclick = ""recordClick(this)""><div class = content><div class = numbers>N</div></div></button><button id = button_8 class = ""square num-button"" onclick = ""recordClick(this)""><div class = content><div class = numbers>P</div></div></button><button id = button_9 class = ""square num-button"" onclick = ""recordClick(this)""><div class = content><div class = numbers>Q</div></div></button><button id = button_10 class = ""square num-button"" onclick = ""recordClick(this)""><div class = content><div class = numbers>R</div></div></button><button id = button_11 class = ""square num-button"" onclick = ""recordClick(this)""><div class = content><div class = numbers>S</div></div></button><button id = button_12 class = ""square num-button"" onclick = ""recordClick(this)""><div class = content><div class = numbers>Y</div></div></button><button class = clear_button id = ""ClearButton"" onclick = ""clearResponse()"">BACKSPACE</button><button class = blank_button id = ""BlankButton"" onclick = ""blankResponse()"">SKIP</button><p style=""font-size: 2.4rem""><u><b>Current Answer:</b></u></p><br><br><div id=echoed_txt style=""font-size: 5rem; color:blue;""><b></b></div></div>",enter,ospan,retrieval,Ku0eMKGtROSVCXbldINco62jJfB2,html-keyboard-response,64,459843,0.0-43.0-0.0-2.0-4.0,NA,NA,NA,3.0,"[""Y"",""N"",""L""]","[""Y"",""N"",""L""]",1.0,3.0,"['<font color=""green"">Y</font>', '<font color=""green"">N</font>', '<font color=""green"">L</font>']",,,,,,65c8ae4d5f25e8b4062a4c93,14:47:44,06/03/2024
1475.8999999761581,"['<p style=""font-size:44px"">Letters:<br><br><br><font color=""green"">Y</font> <font color=""green"">N</font> <font color=""green"">L</font></p><br><br>']",0,ospan,practice_feedback,Ku0eMKGtROSVCXbldINco62jJfB2,html-button-response,65,461822,0.0-43.0-0.0-2.0-5.0,,,,,,,,,,,,,,,65c8ae4d5f25e8b4062a4c93,14:47:44,06/03/2024
6031.100000023842,"<div class = 'left_align' style='font-size: 3.25rem; line-height: 1.3;'>Now you will practice doing the <b>symmetry judgment part</b> of the experiment.<br><br>A black and white grid picture will appear on the screen and you have to judge if it is <br>symmetrical or asymetrical.<br><br>A picture is 'mirror' symmetrical if its left half is identical to the right half when flipped.<br>Here are examples of a symmetrical and an asymetrical picture:<br><br><center><img src='Stimuli/img/symm_instructions_extra.png' style='height:420px; width:900'></img></center><br>To judge symmetry, imagine you were to fold each picture down the middle, like a book –<br>would the left half match the right half when folded onto each other?<br><br></div><br>",0,ospan,instruct,Ku0eMKGtROSVCXbldINco62jJfB2,html-button-response,66,467855,0.0-43.0-1.0-0.0-0.0,,,,,,,,,,,,,,,65c8ae4d5f25e8b4062a4c93,14:47:44,06/03/2024
2928.400000035763,"<div class = 'left_align' style='font-size: 3.25rem; line-height: 1.3;'>When you have viewed the picture and determined whether it is symmetrical or not,<br>you can <b>click the Yes or No button</b> below to answer.<br><br>If you take longer than 15 seconds, it will continue automatically<br>and record the answer as an error.</div><br>",0,ospan,instruct,Ku0eMKGtROSVCXbldINco62jJfB2,html-button-response,67,471037,0.0-43.0-1.0-0.0-1.0,,,,,,,,,,,,,,,65c8ae4d5f25e8b4062a4c93,14:47:44,06/03/2024
1380.1000000238419,"<div class = 'left_align' style='font-size: 3.25rem; line-height: 1.3;'>It is <b>very</b> important that you make the symmetry judgment correctly.<br><br>It is also important that you try and judge the picture as quickly as you can.<br><br>When you are ready, click on the button below to try some practice problems.</div><br><br><br><br>",0,ospan,instruct,Ku0eMKGtROSVCXbldINco62jJfB2,html-button-response,68,472670,0.0-43.0-1.0-0.0-2.0,,,,,,,,,,,,,,,65c8ae4d5f25e8b4062a4c93,14:47:44,06/03/2024
2101.0,,,ospan,symmetry,Ku0eMKGtROSVCXbldINco62jJfB2,symmetry-judgement-task,69,475572,0.0-43.0-1.0-1.0-0.0,,,,,,,,,,1.0,1.0,,,,65c8ae4d5f25e8b4062a4c93,14:47:44,06/03/2024
,"<p style=""color:green; font-size: 35px"">Correct</p>",,ospan,feedback,Ku0eMKGtROSVCXbldINco62jJfB2,html-keyboard-response,70,476326,0.0-43.0-1.0-1.0-1.0,,,,,,,,,,,,,,,65c8ae4d5f25e8b4062a4c93,14:47:44,06/03/2024
2497.0,,,ospan,symmetry,Ku0eMKGtROSVCXbldINco62jJfB2,symmetry-judgement-task,71,481372,0.0-43.0-1.0-1.0-2.0,,,,,,,,,,1.0,1.0,,,,65c8ae4d5f25e8b4062a4c93,14:47:44,06/03/2024
,"<p style=""color:green; font-size: 35px"">Correct</p>",,ospan,feedback,Ku0eMKGtROSVCXbldINco62jJfB2,html-keyboard-response,72,482125,0.0-43.0-1.0-1.0-3.0,,,,,,,,,,,,,,,65c8ae4d5f25e8b4062a4c93,14:47:44,06/03/2024
2057.0,,,ospan,symmetry,Ku0eMKGtROSVCXbldINco62jJfB2,symmetry-judgement-task,73,486805,0.0-43.0-1.0-1.0-4.0,,,,,,,,,,1.0,1.0,,,,65c8ae4d5f25e8b4062a4c93,14:47:44,06/03/2024
,"<p style=""color:green; font-size: 35px"">Correct</p>",,ospan,feedback,Ku0eMKGtROSVCXbldINco62jJfB2,html-keyboard-response,74,487557,0.0-43.0-1.0-1.0-5.0,,,,,,,,,,,,,,,65c8ae4d5f25e8b4062a4c93,14:47:44,06/03/2024
2107.300000011921,"<p style=""font-size: 3rem;"">You responded correctly on 3 of 3 symmetry judgments. Good job!</p><br><br>",0,ospan,practice,Ku0eMKGtROSVCXbldINco62jJfB2,html-button-response,75,491668,0.0-43.0-1.0-2.0,,,,,,,,,,,,,,,65c8ae4d5f25e8b4062a4c93,14:47:44,06/03/2024
2881.400000035763,"<div class = 'left_align' style='font-size: 3.25rem; line-height: 1.3;'>Now you will practice doing both parts of the experiment at the same time.<br><br>In the next practice set, you will be given one grid picture to judge.<br>Then letter will appear on the screen. Try to remember the letter.<br><br>It is <b>very important</b> to make the symmetry judgment as quickly and accurately as possible.<br><br>Just as before, once you have make the symmetry judgment, you can click Yes or No.<br><b>Note that you will no longer see Correct or Incorrect feedback.</div><br><br><br><br>",0,ospan,instruct,Ku0eMKGtROSVCXbldINco62jJfB2,html-button-response,76,494804,0.0-43.0-2.0-0.0-0.0,,,,,,,,,,,,,,,65c8ae4d5f25e8b4062a4c93,14:47:44,06/03/2024
1329.6000000238419,"<div class = 'left_align' style='font-size: 3.25rem; line-height: 1.3;'>After the letter goes away, another grid picture will appear, and then<br>another letter.<br><br>At the end of each set of letters and grids, you will recall the letters to the best<br>of your ability. Remember, try your best to get the letters in the correct order.<br><br>It is important to <b>quickly</b> and <b>accurately</b> make the symmetry judgments.</div><br><br><br><br>",0,ospan,instruct,Ku0eMKGtROSVCXbldINco62jJfB2,html-button-response,77,496387,0.0-43.0-2.0-0.0-1.0,,,,,,,,,,,,,,,65c8ae4d5f25e8b4062a4c93,14:47:44,06/03/2024
16562.299999952316,"<div class = 'left_align' style='font-size: 3.25rem; line-height: 1.3;'>On the feedback screen, if you are not doing well at the symmetry judgments,<br>you will also see a warning in the middle. This indicates your percent <br>correct for the grid pictures for the entire experiment.<br><br>It is <b>very</b> important for you to keep accuracy at least at 85%: <u>We can only use<br>data where the participant was at least 85% accurate on the judgments.</u> Therefore,<br> please try your best to perform well on the symmetry judgments, <b>at the same time</b><br>doing your best to recall as many letters as possible.<br><br>Click the button to try some practice problems.</div><br><br><br><br>",0,ospan,instruct,Ku0eMKGtROSVCXbldINco62jJfB2,html-button-response,78,513203,0.0-43.0-2.0-0.0-2.0,,,,,,,,,,,,,,,65c8ae4d5f25e8b4062a4c93,14:47:44,06/03/2024
,"<p style=""font-size:75px;"">...</p>",,ospan,iti,Ku0eMKGtROSVCXbldINco62jJfB2,html-keyboard-response,79,514457,0.0-43.0-2.0-1.0-0.0,,,,,,,,,,,,,,,65c8ae4d5f25e8b4062a4c93,14:47:44,06/03/2024
1662.0,,,ospan,symmetry,Ku0eMKGtROSVCXbldINco62jJfB2,symmetry-judgement-task,80,517239,0.0-43.0-2.0-1.0-1.0-0.0,,,,,,,,,,1.0,1.0,,,,65c8ae4d5f25e8b4062a4c93,14:47:44,06/03/2024
,"<div style=""font-size: 10rem; color: #0000FF"">N</div>",,ospan,letter,Ku0eMKGtROSVCXbldINco62jJfB2,html-keyboard-response,81,518245,0.0-43.0-2.0-1.0-1.0-1.0,,,,,,,,,,,,,,,65c8ae4d5f25e8b4062a4c93,14:47:44,06/03/2024
1793.0,,,ospan,symmetry,Ku0eMKGtROSVCXbldINco62jJfB2,symmetry-judgement-task,82,521905,0.0-43.0-2.0-1.0-1.0-2.0,,,,,,,,,,1.0,1.0,,,,65c8ae4d5f25e8b4062a4c93,14:47:44,06/03/2024
,"<div style=""font-size: 10rem; color: #0000FF"">L</div>",,ospan,letter,Ku0eMKGtROSVCXbldINco62jJfB2,html-keyboard-response,83,522908,0.0-43.0-2.0-1.0-1.0-3.0,,,,,,,,,,,,,,,65c8ae4d5f25e8b4062a4c93,14:47:44,06/03/2024
1568.0,,,ospan,symmetry,Ku0eMKGtROSVCXbldINco62jJfB2,symmetry-judgement-task,84,526341,0.0-43.0-2.0-1.0-1.0-4.0,,,,,,,,,,1.0,1.0,,,,65c8ae4d5f25e8b4062a4c93,14:47:44,06/03/2024
,"<div style=""font-size: 10rem; color: #0000FF"">S</div>",,ospan,letter,Ku0eMKGtROSVCXbldINco62jJfB2,html-keyboard-response,85,527344,0.0-43.0-2.0-1.0-1.0-5.0,,,,,,,,,,,,,,,65c8ae4d5f25e8b4062a4c93,14:47:44,06/03/2024
3393.199999988079,"<div class = numbox><p style=""font-size: 2.4rem"">Please recall the letters you saw to the best of your ability. If you do not remember a particular letter, use the SKIP button.<br><b>(When you are ready to lock in your answer, press ENTER)</b></p><button id = button_1 class = ""square num-button"" onclick = ""recordClick(this)""><div class = content><div class = numbers>C</div></div></button><button id = button_2 class = ""square num-button"" onclick = ""recordClick(this)""><div class = content><div class = numbers>G</div></div></button><button id = button_3 class = ""square num-button"" onclick = ""recordClick(this)""><div class = content><div class = numbers>H</div></div></button><button id = button_4 class = ""square num-button"" onclick = ""recordClick(this)""><div class = content><div class = numbers>J</div></div></button><button id = button_5 class = ""square num-button"" onclick = ""recordClick(this)""><div class = content><div class = numbers>K</div></div></button><button id = button_6 class = ""square num-button"" onclick = ""recordClick(this)""><div class = content><div class = numbers>L</div></div></button><button id = button_7 class = ""square num-button"" onclick = ""recordClick(this)""><div class = content><div class = numbers>N</div></div></button><button id = button_8 class = ""square num-button"" onclick = ""recordClick(this)""><div class = content><div class = numbers>P</div></div></button><button id = button_9 class = ""square num-button"" onclick = ""recordClick(this)""><div class = content><div class = numbers>Q</div></div></button><button id = button_10 class = ""square num-button"" onclick = ""recordClick(this)""><div class = content><div class = numbers>R</div></div></button><button id = button_11 class = ""square num-button"" onclick = ""recordClick(this)""><div class = content><div class = numbers>S</div></div></button><button id = button_12 class = ""square num-button"" onclick = ""recordClick(this)""><div class = content><div class = numbers>Y</div></div></button><button class = clear_button id = ""ClearButton"" onclick = ""clearResponse()"">BACKSPACE</button><button class = blank_button id = ""BlankButton"" onclick = ""blankResponse()"">SKIP</button><p style=""font-size: 2.4rem""><u><b>Current Answer:</b></u></p><br><br><div id=echoed_txt style=""font-size: 5rem; color:blue;""><b></b></div></div>",enter,ospan,retrieval,Ku0eMKGtROSVCXbldINco62jJfB2,html-keyboard-response,86,531491,0.0-43.0-2.0-1.0-2.0-0.0,NA,NA,NA,3.0,"[""N"",""L"",""S""]","[""N"",""L"",""S""]",1.0,3.0,"['<font color=""green"">N</font>', '<font color=""green"">L</font>', '<font color=""green"">S</font>']",,,,,,65c8ae4d5f25e8b4062a4c93,14:47:44,06/03/2024
1390.0999999642372,"['<p style=""font-size:44px"">Letters:<br><br><br><font color=""green"">N</font> <font color=""green"">L</font> <font color=""green"">S</font></p><br><br><p style=""font-size:30px"">Symmetry:<br><br><font color=""green"">100%</font></p><br><br>']",0,ospan,practice_feedback,Ku0eMKGtROSVCXbldINco62jJfB2,html-button-response,87,533386,0.0-43.0-2.0-1.0-2.0-1.0,,,,,,,,,,,,,,,65c8ae4d5f25e8b4062a4c93,14:47:44,06/03/2024
,"<p style=""font-size:75px;"">...</p>",,ospan,iti,Ku0eMKGtROSVCXbldINco62jJfB2,html-keyboard-response,88,534389,0.0-43.0-2.0-2.0-0.0,,,,,,,,,,,,,,,65c8ae4d5f25e8b4062a4c93,14:47:44,06/03/2024
2518.0,,,ospan,symmetry,Ku0eMKGtROSVCXbldINco62jJfB2,symmetry-judgement-task,89,538022,0.0-43.0-2.0-2.0-1.0-0.0,,,,,,,,,,1.0,1.0,,,,65c8ae4d5f25e8b4062a4c93,14:47:44,06/03/2024
,"<div style=""font-size: 10rem; color: #0000FF"">G</div>",,ospan,letter,Ku0eMKGtROSVCXbldINco62jJfB2,html-keyboard-response,90,539026,0.0-43.0-2.0-2.0-1.0-1.0,,,,,,,,,,,,,,,65c8ae4d5f25e8b4062a4c93,14:47:44,06/03/2024
1611.0,,,ospan,symmetry,Ku0eMKGtROSVCXbldINco62jJfB2,symmetry-judgement-task,91,542503,0.0-43.0-2.0-2.0-1.0-2.0,,,,,,,,,,1.0,1.0,,,,65c8ae4d5f25e8b4062a4c93,14:47:44,06/03/2024
,"<div style=""font-size: 10rem; color: #0000FF"">P</div>",,ospan,letter,Ku0eMKGtROSVCXbldINco62jJfB2,html-keyboard-response,92,543506,0.0-43.0-2.0-2.0-1.0-3.0,,,,,,,,,,,,,,,65c8ae4d5f25e8b4062a4c93,14:47:44,06/03/2024
1259.0,,,ospan,symmetry,Ku0eMKGtROSVCXbldINco62jJfB2,symmetry-judgement-task,93,546622,0.0-43.0-2.0-2.0-1.0-4.0,,,,,,,,,,1.0,1.0,,,,65c8ae4d5f25e8b4062a4c93,14:47:44,06/03/2024
,"<div style=""font-size: 10rem; color: #0000FF"">N</div>",,ospan,letter,Ku0eMKGtROSVCXbldINco62jJfB2,html-keyboard-response,94,547624,0.0-43.0-2.0-2.0-1.0-5.0,,,,,,,,,,,,,,,65c8ae4d5f25e8b4062a4c93,14:47:44,06/03/2024
4805.100000023842,"<div class = numbox><p style=""font-size: 2.4rem"">Please recall the letters you saw to the best of your ability. If you do not remember a particular letter, use the SKIP button.<br><b>(When you are ready to lock in your answer, press ENTER)</b></p><button id = button_1 class = ""square num-button"" onclick = ""recordClick(this)""><div class = content><div class = numbers>C</div></div></button><button id = button_2 class = ""square num-button"" onclick = ""recordClick(this)""><div class = content><div class = numbers>G</div></div></button><button id = button_3 class = ""square num-button"" onclick = ""recordClick(this)""><div class = content><div class = numbers>H</div></div></button><button id = button_4 class = ""square num-button"" onclick = ""recordClick(this)""><div class = content><div class = numbers>J</div></div></button><button id = button_5 class = ""square num-button"" onclick = ""recordClick(this)""><div class = content><div class = numbers>K</div></div></button><button id = button_6 class = ""square num-button"" onclick = ""recordClick(this)""><div class = content><div class = numbers>L</div></div></button><button id = button_7 class = ""square num-button"" onclick = ""recordClick(this)""><div class = content><div class = numbers>N</div></div></button><button id = button_8 class = ""square num-button"" onclick = ""recordClick(this)""><div class = content><div class = numbers>P</div></div></button><button id = button_9 class = ""square num-button"" onclick = ""recordClick(this)""><div class = content><div class = numbers>Q</div></div></button><button id = button_10 class = ""square num-button"" onclick = ""recordClick(this)""><div class = content><div class = numbers>R</div></div></button><button id = button_11 class = ""square num-button"" onclick = ""recordClick(this)""><div class = content><div class = numbers>S</div></div></button><button id = button_12 class = ""square num-button"" onclick = ""recordClick(this)""><div class = content><div class = numbers>Y</div></div></button><button class = clear_button id = ""ClearButton"" onclick = ""clearResponse()"">BACKSPACE</button><button class = blank_button id = ""BlankButton"" onclick = ""blankResponse()"">SKIP</button><p style=""font-size: 2.4rem""><u><b>Current Answer:</b></u></p><br><br><div id=echoed_txt style=""font-size: 5rem; color:blue;""><b></b></div></div>",enter,ospan,retrieval,Ku0eMKGtROSVCXbldINco62jJfB2,html-keyboard-response,95,553183,0.0-43.0-2.0-2.0-2.0-0.0,NA,NA,NA,3.0,"[""G"",""P"",""N""]","[""G"",""P"",""N""]",1.0,3.0,"['<font color=""green"">G</font>', '<font color=""green"">P</font>', '<font color=""green"">N</font>']",,,,,,65c8ae4d5f25e8b4062a4c93,14:47:44,06/03/2024
799.6000000238419,"['<p style=""font-size:44px"">Letters:<br><br><br><font color=""green"">G</font> <font color=""green"">P</font> <font color=""green"">N</font></p><br><br><p style=""font-size:30px"">Symmetry:<br><br><font color=""green"">100%</font></p><br><br>']",0,ospan,practice_feedback,Ku0eMKGtROSVCXbldINco62jJfB2,html-button-response,96,554486,0.0-43.0-2.0-2.0-2.0-1.0,,,,,,,,,,,,,,,65c8ae4d5f25e8b4062a4c93,14:47:44,06/03/2024
3981.300000011921,"<div class = 'left_align' style='font-size: 3rem; line-height: 1.3;'><b>Great work! That is the end of practice.</b><br><br>The real trials will look just like the practice trials you just completed.<br><br><u>Here, you will not see feedback</u>. First, you will see an grid picture to judge,<br>then a letter to remember. When the recall screen appears, report the letters in the<br>order presented. If you forget a letter, remember to use the <b>blank</b> button to move to the<br>next letter. Some of the sets will have more symmetry grids and letters than others.<br><br>It is important that you do your best on both the symmetry judgments and the letter recall<br>parts of the experiment. For for the symmetry judgments, try to work as <b>quickly</b> and <br>as <b>accurately</b> as possible. Remember to keep your symmetry accuracy at 85% or above.<br><br><b>For the letters, do NOT use any external aid (e.g., writing on paper, electronic device).</b><br><br>It is <u>very important</u> to our experiment to have a <b>true</b> view of your real performance.<br><br>Do not worry if you miss some when it gets hard! This task is meant to be very challenging!<br><br>Click the button to begin.</div><br><br><br><br>",0,ospan,starting_real_here,Ku0eMKGtROSVCXbldINco62jJfB2,html-button-response,97,558470,0.0-43.0-2.0-3.0,,,,,,,,,,,,,,,65c8ae4d5f25e8b4062a4c93,14:47:44,06/03/2024
,"<p style=""font-size:75px;"">...</p>",,ospan,iti,Ku0eMKGtROSVCXbldINco62jJfB2,html-keyboard-response,98,559724,0.0-43.0-3.0-0.0-0.0,,,,,,,,,,,,,,,65c8ae4d5f25e8b4062a4c93,14:47:44,06/03/2024
1885.0,,,ospan,symmetry,Ku0eMKGtROSVCXbldINco62jJfB2,symmetry-judgement-task,99,562723,0.0-43.0-3.0-0.0-1.0-0.0,,,,,,,,,,1.0,1.0,,,,65c8ae4d5f25e8b4062a4c93,14:47:44,06/03/2024
,"<div style=""font-size: 10rem; color: #0000FF"">K</div>",,ospan,letter,Ku0eMKGtROSVCXbldINco62jJfB2,html-keyboard-response,100,563727,0.0-43.0-3.0-0.0-1.0-1.0,,,,,,,,,,,,,,,65c8ae4d5f25e8b4062a4c93,14:47:44,06/03/2024
1099.0,,,ospan,symmetry,Ku0eMKGtROSVCXbldINco62jJfB2,symmetry-judgement-task,101,566687,0.0-43.0-3.0-0.0-1.0-2.0,,,,,,,,,,1.0,1.0,,,,65c8ae4d5f25e8b4062a4c93,14:47:44,06/03/2024
,"<div style=""font-size: 10rem; color: #0000FF"">P</div>",,ospan,letter,Ku0eMKGtROSVCXbldINco62jJfB2,html-keyboard-response,102,567690,0.0-43.0-3.0-0.0-1.0-3.0,,,,,,,,,,,,,,,65c8ae4d5f25e8b4062a4c93,14:47:44,06/03/2024
1397.0,,,ospan,symmetry,Ku0eMKGtROSVCXbldINco62jJfB2,symmetry-judgement-task,103,570954,0.0-43.0-3.0-0.0-1.0-4.0,,,,,,,,,,1.0,1.0,,,,65c8ae4d5f25e8b4062a4c93,14:47:44,06/03/2024
,"<div style=""font-size: 10rem; color: #0000FF"">G</div>",,ospan,letter,Ku0eMKGtROSVCXbldINco62jJfB2,html-keyboard-response,104,571957,0.0-43.0-3.0-0.0-1.0-5.0,,,,,,,,,,,,,,,65c8ae4d5f25e8b4062a4c93,14:47:44,06/03/2024
5234.800000011921,"<div class = numbox><p style=""font-size: 2.4rem"">Please recall the letters you saw to the best of your ability. If you do not remember a particular letter, use the SKIP button.<br><b>(When you are ready to lock in your answer, press ENTER)</b></p><button id = button_1 class = ""square num-button"" onclick = ""recordClick(this)""><div class = content><div class = numbers>C</div></div></button><button id = button_2 class = ""square num-button"" onclick = ""recordClick(this)""><div class = content><div class = numbers>G</div></div></button><button id = button_3 class = ""square num-button"" onclick = ""recordClick(this)""><div class = content><div class = numbers>H</div></div></button><button id = button_4 class = ""square num-button"" onclick = ""recordClick(this)""><div class = content><div class = numbers>J</div></div></button><button id = button_5 class = ""square num-button"" onclick = ""recordClick(this)""><div class = content><div class = numbers>K</div></div></button><button id = button_6 class = ""square num-button"" onclick = ""recordClick(this)""><div class = content><div class = numbers>L</div></div></button><button id = button_7 class = ""square num-button"" onclick = ""recordClick(this)""><div class = content><div class = numbers>N</div></div></button><button id = button_8 class = ""square num-button"" onclick = ""recordClick(this)""><div class = content><div class = numbers>P</div></div></button><button id = button_9 class = ""square num-button"" onclick = ""recordClick(this)""><div class = content><div class = numbers>Q</div></div></button><button id = button_10 class = ""square num-button"" onclick = ""recordClick(this)""><div class = content><div class = numbers>R</div></div></button><button id = button_11 class = ""square num-button"" onclick = ""recordClick(this)""><div class = content><div class = numbers>S</div></div></button><button id = button_12 class = ""square num-button"" onclick = ""recordClick(this)""><div class = content><div class = numbers>Y</div></div></button><button class = clear_button id = ""ClearButton"" onclick = ""clearResponse()"">BACKSPACE</button><button class = blank_button id = ""BlankButton"" onclick = ""blankResponse()"">SKIP</button><p style=""font-size: 2.4rem""><u><b>Current Answer:</b></u></p><br><br><div id=echoed_txt style=""font-size: 5rem; color:blue;""><b></b></div></div>",enter,ospan,retrieval,Ku0eMKGtROSVCXbldINco62jJfB2,html-keyboard-response,105,577946,0.0-43.0-3.0-0.0-2.0,3,3,3,3.0,"[""K"",""P"",""G""]","[""K"",""P"",""G""]",1.0,3.0,,,,,,,65c8ae4d5f25e8b4062a4c93,14:47:44,06/03/2024
801.8000000119209,[''],0,ospan,feedback,Ku0eMKGtROSVCXbldINco62jJfB2,html-button-response,106,579251,0.0-43.0-3.0-0.0-3.0,,,,,,,,,,,,100.0,0.0,,65c8ae4d5f25e8b4062a4c93,14:47:44,06/03/2024
,"<p style=""font-size:75px;"">...</p>",,ospan,iti,Ku0eMKGtROSVCXbldINco62jJfB2,html-keyboard-response,107,580254,0.0-43.0-4.0-0.0-0.0,,,,,,,,,,,,,,,65c8ae4d5f25e8b4062a4c93,14:47:44,06/03/2024
2288.0,,,ospan,symmetry,Ku0eMKGtROSVCXbldINco62jJfB2,symmetry-judgement-task,108,583654,0.0-43.0-4.0-0.0-1.0-0.0,,,,,,,,,,1.0,1.0,,,,65c8ae4d5f25e8b4062a4c93,14:47:44,06/03/2024
,"<div style=""font-size: 10rem; color: #0000FF"">Y</div>",,ospan,letter,Ku0eMKGtROSVCXbldINco62jJfB2,html-keyboard-response,109,584658,0.0-43.0-4.0-0.0-1.0-1.0,,,,,,,,,,,,,,,65c8ae4d5f25e8b4062a4c93,14:47:44,06/03/2024
1683.0,,,ospan,symmetry,Ku0eMKGtROSVCXbldINco62jJfB2,symmetry-judgement-task,110,588204,0.0-43.0-4.0-0.0-1.0-2.0,,,,,,,,,,1.0,1.0,,,,65c8ae4d5f25e8b4062a4c93,14:47:44,06/03/2024
,"<div style=""font-size: 10rem; color: #0000FF"">C</div>",,ospan,letter,Ku0eMKGtROSVCXbldINco62jJfB2,html-keyboard-response,111,589207,0.0-43.0-4.0-0.0-1.0-3.0,,,,,,,,,,,,,,,65c8ae4d5f25e8b4062a4c93,14:47:44,06/03/2024
1707.0,,,ospan,symmetry,Ku0eMKGtROSVCXbldINco62jJfB2,symmetry-judgement-task,112,592787,0.0-43.0-4.0-0.0-1.0-4.0,,,,,,,,,,1.0,1.0,,,,65c8ae4d5f25e8b4062a4c93,14:47:44,06/03/2024
,"<div style=""font-size: 10rem; color: #0000FF"">S</div>",,ospan,letter,Ku0eMKGtROSVCXbldINco62jJfB2,html-keyboard-response,113,593790,0.0-43.0-4.0-0.0-1.0-5.0,,,,,,,,,,,,,,,65c8ae4d5f25e8b4062a4c93,14:47:44,06/03/2024
1631.0,,,ospan,symmetry,Ku0eMKGtROSVCXbldINco62jJfB2,symmetry-judgement-task,114,597286,0.0-43.0-4.0-0.0-1.0-6.0,,,,,,,,,,1.0,1.0,,,,65c8ae4d5f25e8b4062a4c93,14:47:44,06/03/2024
,"<div style=""font-size: 10rem; color: #0000FF"">N</div>",,ospan,letter,Ku0eMKGtROSVCXbldINco62jJfB2,html-keyboard-response,115,598290,0.0-43.0-4.0-0.0-1.0-7.0,,,,,,,,,,,,,,,65c8ae4d5f25e8b4062a4c93,14:47:44,06/03/2024
5796.5,"<div class = numbox><p style=""font-size: 2.4rem"">Please recall the letters you saw to the best of your ability. If you do not remember a particular letter, use the SKIP button.<br><b>(When you are ready to lock in your answer, press ENTER)</b></p><button id = button_1 class = ""square num-button"" onclick = ""recordClick(this)""><div class = content><div class = numbers>C</div></div></button><button id = button_2 class = ""square num-button"" onclick = ""recordClick(this)""><div class = content><div class = numbers>G</div></div></button><button id = button_3 class = ""square num-button"" onclick = ""recordClick(this)""><div class = content><div class = numbers>H</div></div></button><button id = button_4 class = ""square num-button"" onclick = ""recordClick(this)""><div class = content><div class = numbers>J</div></div></button><button id = button_5 class = ""square num-button"" onclick = ""recordClick(this)""><div class = content><div class = numbers>K</div></div></button><button id = button_6 class = ""square num-button"" onclick = ""recordClick(this)""><div class = content><div class = numbers>L</div></div></button><button id = button_7 class = ""square num-button"" onclick = ""recordClick(this)""><div class = content><div class = numbers>N</div></div></button><button id = button_8 class = ""square num-button"" onclick = ""recordClick(this)""><div class = content><div class = numbers>P</div></div></button><button id = button_9 class = ""square num-button"" onclick = ""recordClick(this)""><div class = content><div class = numbers>Q</div></div></button><button id = button_10 class = ""square num-button"" onclick = ""recordClick(this)""><div class = content><div class = numbers>R</div></div></button><button id = button_11 class = ""square num-button"" onclick = ""recordClick(this)""><div class = content><div class = numbers>S</div></div></button><button id = button_12 class = ""square num-button"" onclick = ""recordClick(this)""><div class = content><div class = numbers>Y</div></div></button><button class = clear_button id = ""ClearButton"" onclick = ""clearResponse()"">BACKSPACE</button><button class = blank_button id = ""BlankButton"" onclick = ""blankResponse()"">SKIP</button><p style=""font-size: 2.4rem""><u><b>Current Answer:</b></u></p><br><br><div id=echoed_txt style=""font-size: 5rem; color:blue;""><b></b></div></div>",enter,ospan,retrieval,Ku0eMKGtROSVCXbldINco62jJfB2,html-keyboard-response,116,604839,0.0-43.0-4.0-0.0-2.0,7,7,7,4.0,"[""Y"",""C"",""S"",""N""]","[""Y"",""C"",""S"",""N""]",1.0,4.0,,,,,,,65c8ae4d5f25e8b4062a4c93,14:47:44,06/03/2024
1225.800000011921,[''],0,ospan,feedback,Ku0eMKGtROSVCXbldINco62jJfB2,html-button-response,117,606569,0.0-43.0-4.0-0.0-3.0,,,,,,,,,,,,100.0,0.0,,65c8ae4d5f25e8b4062a4c93,14:47:44,06/03/2024
,"<p style=""font-size:75px;"">...</p>",,ospan,iti,Ku0eMKGtROSVCXbldINco62jJfB2,html-keyboard-response,118,607571,0.0-43.0-4.0-1.0-0.0,,,,,,,,,,,,,,,65c8ae4d5f25e8b4062a4c93,14:47:44,06/03/2024
1888.0,,,ospan,symmetry,Ku0eMKGtROSVCXbldINco62jJfB2,symmetry-judgement-task,119,610503,0.0-43.0-4.0-1.0-1.0-0.0,,,,,,,,,,1.0,1.0,,,,65c8ae4d5f25e8b4062a4c93,14:47:44,06/03/2024
,"<div style=""font-size: 10rem; color: #0000FF"">S</div>",,ospan,letter,Ku0eMKGtROSVCXbldINco62jJfB2,html-keyboard-response,120,611506,0.0-43.0-4.0-1.0-1.0-1.0,,,,,,,,,,,,,,,65c8ae4d5f25e8b4062a4c93,14:47:44,06/03/2024
1647.0,,,ospan,symmetry,Ku0eMKGtROSVCXbldINco62jJfB2,symmetry-judgement-task,121,615019,0.0-43.0-4.0-1.0-1.0-2.0,,,,,,,,,,1.0,1.0,,,,65c8ae4d5f25e8b4062a4c93,14:47:44,06/03/2024
,"<div style=""font-size: 10rem; color: #0000FF"">Y</div>",,ospan,letter,Ku0eMKGtROSVCXbldINco62jJfB2,html-keyboard-response,122,616023,0.0-43.0-4.0-1.0-1.0-3.0,,,,,,,,,,,,,,,65c8ae4d5f25e8b4062a4c93,14:47:44,06/03/2024
1167.0,,,ospan,symmetry,Ku0eMKGtROSVCXbldINco62jJfB2,symmetry-judgement-task,123,619053,0.0-43.0-4.0-1.0-1.0-4.0,,,,,,,,,,1.0,1.0,,,,65c8ae4d5f25e8b4062a4c93,14:47:44,06/03/2024
,"<div style=""font-size: 10rem; color: #0000FF"">L</div>",,ospan,letter,Ku0eMKGtROSVCXbldINco62jJfB2,html-keyboard-response,124,620056,0.0-43.0-4.0-1.0-1.0-5.0,,,,,,,,,,,,,,,65c8ae4d5f25e8b4062a4c93,14:47:44,06/03/2024
1258.0,,,ospan,symmetry,Ku0eMKGtROSVCXbldINco62jJfB2,symmetry-judgement-task,125,623187,0.0-43.0-4.0-1.0-1.0-6.0,,,,,,,,,,1.0,1.0,,,,65c8ae4d5f25e8b4062a4c93,14:47:44,06/03/2024
,"<div style=""font-size: 10rem; color: #0000FF"">K</div>",,ospan,letter,Ku0eMKGtROSVCXbldINco62jJfB2,html-keyboard-response,126,624190,0.0-43.0-4.0-1.0-1.0-7.0,,,,,,,,,,,,,,,65c8ae4d5f25e8b4062a4c93,14:47:44,06/03/2024
1059.0,,,ospan,symmetry,Ku0eMKGtROSVCXbldINco62jJfB2,symmetry-judgement-task,127,627119,0.0-43.0-4.0-1.0-1.0-8.0,,,,,,,,,,0.0,0.0,,,,65c8ae4d5f25e8b4062a4c93,14:47:44,06/03/2024
,"<div style=""font-size: 10rem; color: #0000FF"">H</div>",,ospan,letter,Ku0eMKGtROSVCXbldINco62jJfB2,html-keyboard-response,128,628122,0.0-43.0-4.0-1.0-1.0-9.0,,,,,,,,,,,,,,,65c8ae4d5f25e8b4062a4c93,14:47:44,06/03/2024
5730.699999988079,"<div class = numbox><p style=""font-size: 2.4rem"">Please recall the letters you saw to the best of your ability. If you do not remember a particular letter, use the SKIP button.<br><b>(When you are ready to lock in your answer, press ENTER)</b></p><button id = button_1 class = ""square num-button"" onclick = ""recordClick(this)""><div class = content><div class = numbers>C</div></div></button><button id = button_2 class = ""square num-button"" onclick = ""recordClick(this)""><div class = content><div class = numbers>G</div></div></button><button id = button_3 class = ""square num-button"" onclick = ""recordClick(this)""><div class = content><div class = numbers>H</div></div></button><button id = button_4 class = ""square num-button"" onclick = ""recordClick(this)""><div class = content><div class = numbers>J</div></div></button><button id = button_5 class = ""square num-button"" onclick = ""recordClick(this)""><div class = content><div class = numbers>K</div></div></button><button id = button_6 class = ""square num-button"" onclick = ""recordClick(this)""><div class = content><div class = numbers>L</div></div></button><button id = button_7 class = ""square num-button"" onclick = ""recordClick(this)""><div class = content><div class = numbers>N</div></div></button><button id = button_8 class = ""square num-button"" onclick = ""recordClick(this)""><div class = content><div class = numbers>P</div></div></button><button id = button_9 class = ""square num-button"" onclick = ""recordClick(this)""><div class = content><div class = numbers>Q</div></div></button><button id = button_10 class = ""square num-button"" onclick = ""recordClick(this)""><div class = content><div class = numbers>R</div></div></button><button id = button_11 class = ""square num-button"" onclick = ""recordClick(this)""><div class = content><div class = numbers>S</div></div></button><button id = button_12 class = ""square num-button"" onclick = ""recordClick(this)""><div class = content><div class = numbers>Y</div></div></button><button class = clear_button id = ""ClearButton"" onclick = ""clearResponse()"">BACKSPACE</button><button class = blank_button id = ""BlankButton"" onclick = ""blankResponse()"">SKIP</button><p style=""font-size: 2.4rem""><u><b>Current Answer:</b></u></p><br><br><div id=echoed_txt style=""font-size: 5rem; color:blue;""><b></b></div></div>",enter,ospan,retrieval,Ku0eMKGtROSVCXbldINco62jJfB2,html-keyboard-response,129,634606,0.0-43.0-4.0-1.0-2.0,12,12,12,5.0,"[""S"",""Y"",""L"",""K"",""H""]","[""S"",""Y"",""L"",""K"",""H""]",1.0,5.0,,,,,,,65c8ae4d5f25e8b4062a4c93,14:47:44,06/03/2024
1473.0,[''],0,ospan,feedback,Ku0eMKGtROSVCXbldINco62jJfB2,html-button-response,130,636584,0.0-43.0-4.0-1.0-3.0,,,,,,,,,,,,92.0,0.0,,65c8ae4d5f25e8b4062a4c93,14:47:44,06/03/2024
,"<p style=""font-size:75px;"">...</p>",,ospan,iti,Ku0eMKGtROSVCXbldINco62jJfB2,html-keyboard-response,131,637588,0.0-43.0-4.0-2.0-0.0,,,,,,,,,,,,,,,65c8ae4d5f25e8b4062a4c93,14:47:44,06/03/2024
1949.0,,,ospan,symmetry,Ku0eMKGtROSVCXbldINco62jJfB2,symmetry-judgement-task,132,640586,0.0-43.0-4.0-2.0-1.0-0.0,,,,,,,,,,1.0,1.0,,,,65c8ae4d5f25e8b4062a4c93,14:47:44,06/03/2024
,"<div style=""font-size: 10rem; color: #0000FF"">S</div>",,ospan,letter,Ku0eMKGtROSVCXbldINco62jJfB2,html-keyboard-response,133,641589,0.0-43.0-4.0-2.0-1.0-1.0,,,,,,,,,,,,,,,65c8ae4d5f25e8b4062a4c93,14:47:44,06/03/2024
2123.0,,,ospan,symmetry,Ku0eMKGtROSVCXbldINco62jJfB2,symmetry-judgement-task,134,645569,0.0-43.0-4.0-2.0-1.0-2.0,,,,,,,,,,1.0,1.0,,,,65c8ae4d5f25e8b4062a4c93,14:47:44,06/03/2024
,"<div style=""font-size: 10rem; color: #0000FF"">L</div>",,ospan,letter,Ku0eMKGtROSVCXbldINco62jJfB2,html-keyboard-response,135,646572,0.0-43.0-4.0-2.0-1.0-3.0,,,,,,,,,,,,,,,65c8ae4d5f25e8b4062a4c93,14:47:44,06/03/2024
1766.0,,,ospan,symmetry,Ku0eMKGtROSVCXbldINco62jJfB2,symmetry-judgement-task,136,650202,0.0-43.0-4.0-2.0-1.0-4.0,,,,,,,,,,1.0,1.0,,,,65c8ae4d5f25e8b4062a4c93,14:47:44,06/03/2024
,"<div style=""font-size: 10rem; color: #0000FF"">P</div>",,ospan,letter,Ku0eMKGtROSVCXbldINco62jJfB2,html-keyboard-response,137,651205,0.0-43.0-4.0-2.0-1.0-5.0,,,,,,,,,,,,,,,65c8ae4d5f25e8b4062a4c93,14:47:44,06/03/2024
4215.199999988079,"<div class = numbox><p style=""font-size: 2.4rem"">Please recall the letters you saw to the best of your ability. If you do not remember a particular letter, use the SKIP button.<br><b>(When you are ready to lock in your answer, press ENTER)</b></p><button id = button_1 class = ""square num-button"" onclick = ""recordClick(this)""><div class = content><div class = numbers>C</div></div></button><button id = button_2 class = ""square num-button"" onclick = ""recordClick(this)""><div class = content><div class = numbers>G</div></div></button><button id = button_3 class = ""square num-button"" onclick = ""recordClick(this)""><div class = content><div class = numbers>H</div></div></button><button id = button_4 class = ""square num-button"" onclick = ""recordClick(this)""><div class = content><div class = numbers>J</div></div></button><button id = button_5 class = ""square num-button"" onclick = ""recordClick(this)""><div class = content><div class = numbers>K</div></div></button><button id = button_6 class = ""square num-button"" onclick = ""recordClick(this)""><div class = content><div class = numbers>L</div></div></button><button id = button_7 class = ""square num-button"" onclick = ""recordClick(this)""><div class = content><div class = numbers>N</div></div></button><button id = button_8 class = ""square num-button"" onclick = ""recordClick(this)""><div class = content><div class = numbers>P</div></div></button><button id = button_9 class = ""square num-button"" onclick = ""recordClick(this)""><div class = content><div class = numbers>Q</div></div></button><button id = button_10 class = ""square num-button"" onclick = ""recordClick(this)""><div class = content><div class = numbers>R</div></div></button><button id = button_11 class = ""square num-button"" onclick = ""recordClick(this)""><div class = content><div class = numbers>S</div></div></button><button id = button_12 class = ""square num-button"" onclick = ""recordClick(this)""><div class = content><div class = numbers>Y</div></div></button><button class = clear_button id = ""ClearButton"" onclick = ""clearResponse()"">BACKSPACE</button><button class = blank_button id = ""BlankButton"" onclick = ""blankResponse()"">SKIP</button><p style=""font-size: 2.4rem""><u><b>Current Answer:</b></u></p><br><br><div id=echoed_txt style=""font-size: 5rem; color:blue;""><b></b></div></div>",enter,ospan,retrieval,Ku0eMKGtROSVCXbldINco62jJfB2,html-keyboard-response,138,656174,0.0-43.0-4.0-2.0-2.0,15,15,15,3.0,"[""S"",""L"",""P""]","[""S"",""L"",""P""]",1.0,3.0,,,,,,,65c8ae4d5f25e8b4062a4c93,14:47:44,06/03/2024
1288.0,[''],0,ospan,feedback,Ku0eMKGtROSVCXbldINco62jJfB2,html-button-response,139,657966,0.0-43.0-4.0-2.0-3.0,,,,,,,,,,,,93.0,0.0,,65c8ae4d5f25e8b4062a4c93,14:47:44,06/03/2024
,"<p style=""font-size:75px;"">...</p>",,ospan,iti,Ku0eMKGtROSVCXbldINco62jJfB2,html-keyboard-response,140,658969,0.0-43.0-5.0-0.0-0.0,,,,,,,,,,,,,,,65c8ae4d5f25e8b4062a4c93,14:47:44,06/03/2024
1732.0,,,ospan,symmetry,Ku0eMKGtROSVCXbldINco62jJfB2,symmetry-judgement-task,141,661751,0.0-43.0-5.0-0.0-1.0-0.0,,,,,,,,,,1.0,1.0,,,,65c8ae4d5f25e8b4062a4c93,14:47:44,06/03/2024
,"<div style=""font-size: 10rem; color: #0000FF"">H</div>",,ospan,letter,Ku0eMKGtROSVCXbldINco62jJfB2,html-keyboard-response,142,662754,0.0-43.0-5.0-0.0-1.0-1.0,,,,,,,,,,,,,,,65c8ae4d5f25e8b4062a4c93,14:47:44,06/03/2024
2032.0,,,ospan,symmetry,Ku0eMKGtROSVCXbldINco62jJfB2,symmetry-judgement-task,143,666653,0.0-43.0-5.0-0.0-1.0-2.0,,,,,,,,,,1.0,1.0,,,,65c8ae4d5f25e8b4062a4c93,14:47:44,06/03/2024
,"<div style=""font-size: 10rem; color: #0000FF"">Q</div>",,ospan,letter,Ku0eMKGtROSVCXbldINco62jJfB2,html-keyboard-response,144,667656,0.0-43.0-5.0-0.0-1.0-3.0,,,,,,,,,,,,,,,65c8ae4d5f25e8b4062a4c93,14:47:44,06/03/2024
2142.0,,,ospan,symmetry,Ku0eMKGtROSVCXbldINco62jJfB2,symmetry-judgement-task,145,671669,0.0-43.0-5.0-0.0-1.0-4.0,,,,,,,,,,1.0,1.0,,,,65c8ae4d5f25e8b4062a4c93,14:47:44,06/03/2024
,"<div style=""font-size: 10rem; color: #0000FF"">N</div>",,ospan,letter,Ku0eMKGtROSVCXbldINco62jJfB2,html-keyboard-response,146,672671,0.0-43.0-5.0-0.0-1.0-5.0,,,,,,,,,,,,,,,65c8ae4d5f25e8b4062a4c93,14:47:44,06/03/2024
1546.0,,,ospan,symmetry,Ku0eMKGtROSVCXbldINco62jJfB2,symmetry-judgement-task,147,676085,0.0-43.0-5.0-0.0-1.0-6.0,,,,,,,,,,1.0,1.0,,,,65c8ae4d5f25e8b4062a4c93,14:47:44,06/03/2024
,"<div style=""font-size: 10rem; color: #0000FF"">C</div>",,ospan,letter,Ku0eMKGtROSVCXbldINco62jJfB2,html-keyboard-response,148,677089,0.0-43.0-5.0-0.0-1.0-7.0,,,,,,,,,,,,,,,65c8ae4d5f25e8b4062a4c93,14:47:44,06/03/2024
2199.0,,,ospan,symmetry,Ku0eMKGtROSVCXbldINco62jJfB2,symmetry-judgement-task,149,681153,0.0-43.0-5.0-0.0-1.0-8.0,,,,,,,,,,1.0,1.0,,,,65c8ae4d5f25e8b4062a4c93,14:47:44,06/03/2024
,"<div style=""font-size: 10rem; color: #0000FF"">J</div>",,ospan,letter,Ku0eMKGtROSVCXbldINco62jJfB2,html-keyboard-response,150,682156,0.0-43.0-5.0-0.0-1.0-9.0,,,,,,,,,,,,,,,65c8ae4d5f25e8b4062a4c93,14:47:44,06/03/2024
1987.0,,,ospan,symmetry,Ku0eMKGtROSVCXbldINco62jJfB2,symmetry-judgement-task,151,686019,0.0-43.0-5.0-0.0-1.0-10.0,,,,,,,,,,1.0,1.0,,,,65c8ae4d5f25e8b4062a4c93,14:47:44,06/03/2024
,"<div style=""font-size: 10rem; color: #0000FF"">S</div>",,ospan,letter,Ku0eMKGtROSVCXbldINco62jJfB2,html-keyboard-response,152,687025,0.0-43.0-5.0-0.0-1.0-11.0,,,,,,,,,,,,,,,65c8ae4d5f25e8b4062a4c93,14:47:44,06/03/2024
5758.0,"<div class = numbox><p style=""font-size: 2.4rem"">Please recall the letters you saw to the best of your ability. If you do not remember a particular letter, use the SKIP button.<br><b>(When you are ready to lock in your answer, press ENTER)</b></p><button id = button_1 class = ""square num-button"" onclick = ""recordClick(this)""><div class = content><div class = numbers>C</div></div></button><button id = button_2 class = ""square num-button"" onclick = ""recordClick(this)""><div class = content><div class = numbers>G</div></div></button><button id = button_3 class = ""square num-button"" onclick = ""recordClick(this)""><div class = content><div class = numbers>H</div></div></button><button id = button_4 class = ""square num-button"" onclick = ""recordClick(this)""><div class = content><div class = numbers>J</div></div></button><button id = button_5 class = ""square num-button"" onclick = ""recordClick(this)""><div class = content><div class = numbers>K</div></div></button><button id = button_6 class = ""square num-button"" onclick = ""recordClick(this)""><div class = content><div class = numbers>L</div></div></button><button id = button_7 class = ""square num-button"" onclick = ""recordClick(this)""><div class = content><div class = numbers>N</div></div></button><button id = button_8 class = ""square num-button"" onclick = ""recordClick(this)""><div class = content><div class = numbers>P</div></div></button><button id = button_9 class = ""square num-button"" onclick = ""recordClick(this)""><div class = content><div class = numbers>Q</div></div></button><button id = button_10 class = ""square num-button"" onclick = ""recordClick(this)""><div class = content><div class = numbers>R</div></div></button><button id = button_11 class = ""square num-button"" onclick = ""recordClick(this)""><div class = content><div class = numbers>S</div></div></button><button id = button_12 class = ""square num-button"" onclick = ""recordClick(this)""><div class = content><div class = numbers>Y</div></div></button><button class = clear_button id = ""ClearButton"" onclick = ""clearResponse()"">BACKSPACE</button><button class = blank_button id = ""BlankButton"" onclick = ""blankResponse()"">SKIP</button><p style=""font-size: 2.4rem""><u><b>Current Answer:</b></u></p><br><br><div id=echoed_txt style=""font-size: 5rem; color:blue;""><b></b></div></div>",enter,ospan,retrieval,Ku0eMKGtROSVCXbldINco62jJfB2,html-keyboard-response,153,693537,0.0-43.0-5.0-0.0-2.0,21,17,15,6.0,"[""N"",""Q"",""N"",""J"",""S""]","[""H"",""Q"",""N"",""C"",""J"",""S""]",0.0,2.0,,,,,,,65c8ae4d5f25e8b4062a4c93,14:47:44,06/03/2024
1242.5,[''],0,ospan,feedback,Ku0eMKGtROSVCXbldINco62jJfB2,html-button-response,154,695282,0.0-43.0-5.0-0.0-3.0,,,,,,,,,,,,95.0,0.0,,65c8ae4d5f25e8b4062a4c93,14:47:44,06/03/2024
,"<p style=""font-size:75px;"">...</p>",,ospan,iti,Ku0eMKGtROSVCXbldINco62jJfB2,html-keyboard-response,155,696286,0.0-43.0-5.0-1.0-0.0,,,,,,,,,,,,,,,65c8ae4d5f25e8b4062a4c93,14:47:44,06/03/2024
1668.0,,,ospan,symmetry,Ku0eMKGtROSVCXbldINco62jJfB2,symmetry-judgement-task,156,699069,0.0-43.0-5.0-1.0-1.0-0.0,,,,,,,,,,1.0,1.0,,,,65c8ae4d5f25e8b4062a4c93,14:47:44,06/03/2024
,"<div style=""font-size: 10rem; color: #0000FF"">N</div>",,ospan,letter,Ku0eMKGtROSVCXbldINco62jJfB2,html-keyboard-response,157,700072,0.0-43.0-5.0-1.0-1.0-1.0,,,,,,,,,,,,,,,65c8ae4d5f25e8b4062a4c93,14:47:44,06/03/2024
1875.0,,,ospan,symmetry,Ku0eMKGtROSVCXbldINco62jJfB2,symmetry-judgement-task,158,703737,0.0-43.0-5.0-1.0-1.0-2.0,,,,,,,,,,1.0,1.0,,,,65c8ae4d5f25e8b4062a4c93,14:47:44,06/03/2024
,"<div style=""font-size: 10rem; color: #0000FF"">H</div>",,ospan,letter,Ku0eMKGtROSVCXbldINco62jJfB2,html-keyboard-response,159,704740,0.0-43.0-5.0-1.0-1.0-3.0,,,,,,,,,,,,,,,65c8ae4d5f25e8b4062a4c93,14:47:44,06/03/2024
1483.0,,,ospan,symmetry,Ku0eMKGtROSVCXbldINco62jJfB2,symmetry-judgement-task,160,708084,0.0-43.0-5.0-1.0-1.0-4.0,,,,,,,,,,1.0,1.0,,,,65c8ae4d5f25e8b4062a4c93,14:47:44,06/03/2024
,"<div style=""font-size: 10rem; color: #0000FF"">Q</div>",,ospan,letter,Ku0eMKGtROSVCXbldINco62jJfB2,html-keyboard-response,161,709088,0.0-43.0-5.0-1.0-1.0-5.0,,,,,,,,,,,,,,,65c8ae4d5f25e8b4062a4c93,14:47:44,06/03/2024
1644.0,,,ospan,symmetry,Ku0eMKGtROSVCXbldINco62jJfB2,symmetry-judgement-task,162,712602,0.0-43.0-5.0-1.0-1.0-6.0,,,,,,,,,,1.0,1.0,,,,65c8ae4d5f25e8b4062a4c93,14:47:44,06/03/2024
,"<div style=""font-size: 10rem; color: #0000FF"">R</div>",,ospan,letter,Ku0eMKGtROSVCXbldINco62jJfB2,html-keyboard-response,163,713605,0.0-43.0-5.0-1.0-1.0-7.0,,,,,,,,,,,,,,,65c8ae4d5f25e8b4062a4c93,14:47:44,06/03/2024
1261.0,,,ospan,symmetry,Ku0eMKGtROSVCXbldINco62jJfB2,symmetry-judgement-task,164,716734,0.0-43.0-5.0-1.0-1.0-8.0,,,,,,,,,,1.0,1.0,,,,65c8ae4d5f25e8b4062a4c93,14:47:44,06/03/2024
,"<div style=""font-size: 10rem; color: #0000FF"">S</div>",,ospan,letter,Ku0eMKGtROSVCXbldINco62jJfB2,html-keyboard-response,165,717737,0.0-43.0-5.0-1.0-1.0-9.0,,,,,,,,,,,,,,,65c8ae4d5f25e8b4062a4c93,14:47:44,06/03/2024
1878.0,,,ospan,symmetry,Ku0eMKGtROSVCXbldINco62jJfB2,symmetry-judgement-task,166,721469,0.0-43.0-5.0-1.0-1.0-10.0,,,,,,,,,,1.0,1.0,,,,65c8ae4d5f25e8b4062a4c93,14:47:44,06/03/2024
,"<div style=""font-size: 10rem; color: #0000FF"">C</div>",,ospan,letter,Ku0eMKGtROSVCXbldINco62jJfB2,html-keyboard-response,167,722472,0.0-43.0-5.0-1.0-1.0-11.0,,,,,,,,,,,,,,,65c8ae4d5f25e8b4062a4c93,14:47:44,06/03/2024
2721.0,,,ospan,symmetry,Ku0eMKGtROSVCXbldINco62jJfB2,symmetry-judgement-task,168,727069,0.0-43.0-5.0-1.0-1.0-12.0,,,,,,,,,,1.0,1.0,,,,65c8ae4d5f25e8b4062a4c93,14:47:44,06/03/2024
,"<div style=""font-size: 10rem; color: #0000FF"">K</div>",,ospan,letter,Ku0eMKGtROSVCXbldINco62jJfB2,html-keyboard-response,169,728074,0.0-43.0-5.0-1.0-1.0-13.0,,,,,,,,,,,,,,,65c8ae4d5f25e8b4062a4c93,14:47:44,06/03/2024
9006.899999976158,"<div class = numbox><p style=""font-size: 2.4rem"">Please recall the letters you saw to the best of your ability. If you do not remember a particular letter, use the SKIP button.<br><b>(When you are ready to lock in your answer, press ENTER)</b></p><button id = button_1 class = ""square num-button"" onclick = ""recordClick(this)""><div class = content><div class = numbers>C</div></div></button><button id = button_2 class = ""square num-button"" onclick = ""recordClick(this)""><div class = content><div class = numbers>G</div></div></button><button id = button_3 class = ""square num-button"" onclick = ""recordClick(this)""><div class = content><div class = numbers>H</div></div></button><button id = button_4 class = ""square num-button"" onclick = ""recordClick(this)""><div class = content><div class = numbers>J</div></div></button><button id = button_5 class = ""square num-button"" onclick = ""recordClick(this)""><div class = content><div class = numbers>K</div></div></button><button id = button_6 class = ""square num-button"" onclick = ""recordClick(this)""><div class = content><div class = numbers>L</div></div></button><button id = button_7 class = ""square num-button"" onclick = ""recordClick(this)""><div class = content><div class = numbers>N</div></div></button><button id = button_8 class = ""square num-button"" onclick = ""recordClick(this)""><div class = content><div class = numbers>P</div></div></button><button id = button_9 class = ""square num-button"" onclick = ""recordClick(this)""><div class = content><div class = numbers>Q</div></div></button><button id = button_10 class = ""square num-button"" onclick = ""recordClick(this)""><div class = content><div class = numbers>R</div></div></button><button id = button_11 class = ""square num-button"" onclick = ""recordClick(this)""><div class = content><div class = numbers>S</div></div></button><button id = button_12 class = ""square num-button"" onclick = ""recordClick(this)""><div class = content><div class = numbers>Y</div></div></button><button class = clear_button id = ""ClearButton"" onclick = ""clearResponse()"">BACKSPACE</button><button class = blank_button id = ""BlankButton"" onclick = ""blankResponse()"">SKIP</button><p style=""font-size: 2.4rem""><u><b>Current Answer:</b></u></p><br><br><div id=echoed_txt style=""font-size: 5rem; color:blue;""><b></b></div></div>",enter,ospan,retrieval,Ku0eMKGtROSVCXbldINco62jJfB2,html-keyboard-response,170,737834,0.0-43.0-5.0-1.0-2.0,28,24,22,7.0,"[""N"",""H"",""Q"",""R"",""S"",""C"",""K""]","[""N"",""H"",""Q"",""R"",""S"",""C"",""K""]",1.0,7.0,,,,,,,65c8ae4d5f25e8b4062a4c93,14:47:44,06/03/2024
1145.0,[''],0,ospan,feedback,Ku0eMKGtROSVCXbldINco62jJfB2,html-button-response,171,739482,0.0-43.0-5.0-1.0-3.0,,,,,,,,,,,,96.0,0.0,,65c8ae4d5f25e8b4062a4c93,14:47:44,06/03/2024
,"<p style=""font-size:75px;"">...</p>",,ospan,iti,Ku0eMKGtROSVCXbldINco62jJfB2,html-keyboard-response,172,740486,0.0-43.0-6.0-0.0-0.0,,,,,,,,,,,,,,,65c8ae4d5f25e8b4062a4c93,14:47:44,06/03/2024
1799.0,,,ospan,symmetry,Ku0eMKGtROSVCXbldINco62jJfB2,symmetry-judgement-task,173,743401,0.0-43.0-6.0-0.0-1.0-0.0,,,,,,,,,,1.0,1.0,,,,65c8ae4d5f25e8b4062a4c93,14:47:44,06/03/2024
,"<div style=""font-size: 10rem; color: #0000FF"">N</div>",,ospan,letter,Ku0eMKGtROSVCXbldINco62jJfB2,html-keyboard-response,174,744406,0.0-43.0-6.0-0.0-1.0-1.0,,,,,,,,,,,,,,,65c8ae4d5f25e8b4062a4c93,14:47:44,06/03/2024
1501.0,,,ospan,symmetry,Ku0eMKGtROSVCXbldINco62jJfB2,symmetry-judgement-task,175,747767,0.0-43.0-6.0-0.0-1.0-2.0,,,,,,,,,,1.0,1.0,,,,65c8ae4d5f25e8b4062a4c93,14:47:44,06/03/2024
,"<div style=""font-size: 10rem; color: #0000FF"">G</div>",,ospan,letter,Ku0eMKGtROSVCXbldINco62jJfB2,html-keyboard-response,176,748770,0.0-43.0-6.0-0.0-1.0-3.0,,,,,,,,,,,,,,,65c8ae4d5f25e8b4062a4c93,14:47:44,06/03/2024
1977.0,,,ospan,symmetry,Ku0eMKGtROSVCXbldINco62jJfB2,symmetry-judgement-task,177,752617,0.0-43.0-6.0-0.0-1.0-4.0,,,,,,,,,,1.0,1.0,,,,65c8ae4d5f25e8b4062a4c93,14:47:44,06/03/2024
,"<div style=""font-size: 10rem; color: #0000FF"">S</div>",,ospan,letter,Ku0eMKGtROSVCXbldINco62jJfB2,html-keyboard-response,178,753620,0.0-43.0-6.0-0.0-1.0-5.0,,,,,,,,,,,,,,,65c8ae4d5f25e8b4062a4c93,14:47:44,06/03/2024
1296.0,,,ospan,symmetry,Ku0eMKGtROSVCXbldINco62jJfB2,symmetry-judgement-task,179,756767,0.0-43.0-6.0-0.0-1.0-6.0,,,,,,,,,,1.0,1.0,,,,65c8ae4d5f25e8b4062a4c93,14:47:44,06/03/2024
,"<div style=""font-size: 10rem; color: #0000FF"">K</div>",,ospan,letter,Ku0eMKGtROSVCXbldINco62jJfB2,html-keyboard-response,180,757770,0.0-43.0-6.0-0.0-1.0-7.0,,,,,,,,,,,,,,,65c8ae4d5f25e8b4062a4c93,14:47:44,06/03/2024
1612.0,,,ospan,symmetry,Ku0eMKGtROSVCXbldINco62jJfB2,symmetry-judgement-task,181,761251,0.0-43.0-6.0-0.0-1.0-8.0,,,,,,,,,,1.0,1.0,,,,65c8ae4d5f25e8b4062a4c93,14:47:44,06/03/2024
,"<div style=""font-size: 10rem; color: #0000FF"">H</div>",,ospan,letter,Ku0eMKGtROSVCXbldINco62jJfB2,html-keyboard-response,182,762254,0.0-43.0-6.0-0.0-1.0-9.0,,,,,,,,,,,,,,,65c8ae4d5f25e8b4062a4c93,14:47:44,06/03/2024
5798.800000011921,"<div class = numbox><p style=""font-size: 2.4rem"">Please recall the letters you saw to the best of your ability. If you do not remember a particular letter, use the SKIP button.<br><b>(When you are ready to lock in your answer, press ENTER)</b></p><button id = button_1 class = ""square num-button"" onclick = ""recordClick(this)""><div class = content><div class = numbers>C</div></div></button><button id = button_2 class = ""square num-button"" onclick = ""recordClick(this)""><div class = content><div class = numbers>G</div></div></button><button id = button_3 class = ""square num-button"" onclick = ""recordClick(this)""><div class = content><div class = numbers>H</div></div></button><button id = button_4 class = ""square num-button"" onclick = ""recordClick(this)""><div class = content><div class = numbers>J</div></div></button><button id = button_5 class = ""square num-button"" onclick = ""recordClick(this)""><div class = content><div class = numbers>K</div></div></button><button id = button_6 class = ""square num-button"" onclick = ""recordClick(this)""><div class = content><div class = numbers>L</div></div></button><button id = button_7 class = ""square num-button"" onclick = ""recordClick(this)""><div class = content><div class = numbers>N</div></div></button><button id = button_8 class = ""square num-button"" onclick = ""recordClick(this)""><div class = content><div class = numbers>P</div></div></button><button id = button_9 class = ""square num-button"" onclick = ""recordClick(this)""><div class = content><div class = numbers>Q</div></div></button><button id = button_10 class = ""square num-button"" onclick = ""recordClick(this)""><div class = content><div class = numbers>R</div></div></button><button id = button_11 class = ""square num-button"" onclick = ""recordClick(this)""><div class = content><div class = numbers>S</div></div></button><button id = button_12 class = ""square num-button"" onclick = ""recordClick(this)""><div class = content><div class = numbers>Y</div></div></button><button class = clear_button id = ""ClearButton"" onclick = ""clearResponse()"">BACKSPACE</button><button class = blank_button id = ""BlankButton"" onclick = ""blankResponse()"">SKIP</button><p style=""font-size: 2.4rem""><u><b>Current Answer:</b></u></p><br><br><div id=echoed_txt style=""font-size: 5rem; color:blue;""><b></b></div></div>",enter,ospan,retrieval,Ku0eMKGtROSVCXbldINco62jJfB2,html-keyboard-response,183,768806,0.0-43.0-6.0-0.0-2.0,33,29,27,5.0,"[""N"",""G"",""S"",""K"",""H""]","[""N"",""G"",""S"",""K"",""H""]",1.0,5.0,,,,,,,65c8ae4d5f25e8b4062a4c93,14:47:44,06/03/2024
1304.699999988079,[''],0,ospan,feedback,Ku0eMKGtROSVCXbldINco62jJfB2,html-button-response,184,770613,0.0-43.0-6.0-0.0-3.0,,,,,,,,,,,,97.0,0.0,,65c8ae4d5f25e8b4062a4c93,14:47:44,06/03/2024
,"<p style=""font-size:75px;"">...</p>",,ospan,iti,Ku0eMKGtROSVCXbldINco62jJfB2,html-keyboard-response,185,771616,0.0-43.0-6.0-1.0-0.0,,,,,,,,,,,,,,,65c8ae4d5f25e8b4062a4c93,14:47:44,06/03/2024
4565.0,,,ospan,symmetry,Ku0eMKGtROSVCXbldINco62jJfB2,symmetry-judgement-task,186,777301,0.0-43.0-6.0-1.0-1.0-0.0,,,,,,,,,,1.0,1.0,,,,65c8ae4d5f25e8b4062a4c93,14:47:44,06/03/2024
,"<div style=""font-size: 10rem; color: #0000FF"">R</div>",,ospan,letter,Ku0eMKGtROSVCXbldINco62jJfB2,html-keyboard-response,187,778306,0.0-43.0-6.0-1.0-1.0-1.0,,,,,,,,,,,,,,,65c8ae4d5f25e8b4062a4c93,14:47:44,06/03/2024
2114.0,,,ospan,symmetry,Ku0eMKGtROSVCXbldINco62jJfB2,symmetry-judgement-task,188,782284,0.0-43.0-6.0-1.0-1.0-2.0,,,,,,,,,,1.0,1.0,,,,65c8ae4d5f25e8b4062a4c93,14:47:44,06/03/2024
,"<div style=""font-size: 10rem; color: #0000FF"">G</div>",,ospan,letter,Ku0eMKGtROSVCXbldINco62jJfB2,html-keyboard-response,189,783287,0.0-43.0-6.0-1.0-1.0-3.0,,,,,,,,,,,,,,,65c8ae4d5f25e8b4062a4c93,14:47:44,06/03/2024
1957.0,,,ospan,symmetry,Ku0eMKGtROSVCXbldINco62jJfB2,symmetry-judgement-task,190,787103,0.0-43.0-6.0-1.0-1.0-4.0,,,,,,,,,,1.0,1.0,,,,65c8ae4d5f25e8b4062a4c93,14:47:44,06/03/2024
,"<div style=""font-size: 10rem; color: #0000FF"">N</div>",,ospan,letter,Ku0eMKGtROSVCXbldINco62jJfB2,html-keyboard-response,191,788106,0.0-43.0-6.0-1.0-1.0-5.0,,,,,,,,,,,,,,,65c8ae4d5f25e8b4062a4c93,14:47:44,06/03/2024
1534.0,,,ospan,symmetry,Ku0eMKGtROSVCXbldINco62jJfB2,symmetry-judgement-task,192,791500,0.0-43.0-6.0-1.0-1.0-6.0,,,,,,,,,,1.0,1.0,,,,65c8ae4d5f25e8b4062a4c93,14:47:44,06/03/2024
,"<div style=""font-size: 10rem; color: #0000FF"">Y</div>",,ospan,letter,Ku0eMKGtROSVCXbldINco62jJfB2,html-keyboard-response,193,792503,0.0-43.0-6.0-1.0-1.0-7.0,,,,,,,,,,,,,,,65c8ae4d5f25e8b4062a4c93,14:47:44,06/03/2024
1575.0,,,ospan,symmetry,Ku0eMKGtROSVCXbldINco62jJfB2,symmetry-judgement-task,194,795951,0.0-43.0-6.0-1.0-1.0-8.0,,,,,,,,,,1.0,1.0,,,,65c8ae4d5f25e8b4062a4c93,14:47:44,06/03/2024
,"<div style=""font-size: 10rem; color: #0000FF"">Q</div>",,ospan,letter,Ku0eMKGtROSVCXbldINco62jJfB2,html-keyboard-response,195,796955,0.0-43.0-6.0-1.0-1.0-9.0,,,,,,,,,,,,,,,65c8ae4d5f25e8b4062a4c93,14:47:44,06/03/2024
3640.0,,,ospan,symmetry,Ku0eMKGtROSVCXbldINco62jJfB2,symmetry-judgement-task,196,802466,0.0-43.0-6.0-1.0-1.0-10.0,,,,,,,,,,1.0,1.0,,,,65c8ae4d5f25e8b4062a4c93,14:47:44,06/03/2024
,"<div style=""font-size: 10rem; color: #0000FF"">J</div>",,ospan,letter,Ku0eMKGtROSVCXbldINco62jJfB2,html-keyboard-response,197,803469,0.0-43.0-6.0-1.0-1.0-11.0,,,,,,,,,,,,,,,65c8ae4d5f25e8b4062a4c93,14:47:44,06/03/2024
1443.0,,,ospan,symmetry,Ku0eMKGtROSVCXbldINco62jJfB2,symmetry-judgement-task,198,806783,0.0-43.0-6.0-1.0-1.0-12.0,,,,,,,,,,1.0,1.0,,,,65c8ae4d5f25e8b4062a4c93,14:47:44,06/03/2024
,"<div style=""font-size: 10rem; color: #0000FF"">S</div>",,ospan,letter,Ku0eMKGtROSVCXbldINco62jJfB2,html-keyboard-response,199,807790,0.0-43.0-6.0-1.0-1.0-13.0,,,,,,,,,,,,,,,65c8ae4d5f25e8b4062a4c93,14:47:44,06/03/2024
2464.0,,,ospan,symmetry,Ku0eMKGtROSVCXbldINco62jJfB2,symmetry-judgement-task,200,812116,0.0-43.0-6.0-1.0-1.0-14.0,,,,,,,,,,1.0,1.0,,,,65c8ae4d5f25e8b4062a4c93,14:47:44,06/03/2024
,"<div style=""font-size: 10rem; color: #0000FF"">L</div>",,ospan,letter,Ku0eMKGtROSVCXbldINco62jJfB2,html-keyboard-response,201,813119,0.0-43.0-6.0-1.0-1.0-15.0,,,,,,,,,,,,,,,65c8ae4d5f25e8b4062a4c93,14:47:44,06/03/2024
11792.5,"<div class = numbox><p style=""font-size: 2.4rem"">Please recall the letters you saw to the best of your ability. If you do not remember a particular letter, use the SKIP button.<br><b>(When you are ready to lock in your answer, press ENTER)</b></p><button id = button_1 class = ""square num-button"" onclick = ""recordClick(this)""><div class = content><div class = numbers>C</div></div></button><button id = button_2 class = ""square num-button"" onclick = ""recordClick(this)""><div class = content><div class = numbers>G</div></div></button><button id = button_3 class = ""square num-button"" onclick = ""recordClick(this)""><div class = content><div class = numbers>H</div></div></button><button id = button_4 class = ""square num-button"" onclick = ""recordClick(this)""><div class = content><div class = numbers>J</div></div></button><button id = button_5 class = ""square num-button"" onclick = ""recordClick(this)""><div class = content><div class = numbers>K</div></div></button><button id = button_6 class = ""square num-button"" onclick = ""recordClick(this)""><div class = content><div class = numbers>L</div></div></button><button id = button_7 class = ""square num-button"" onclick = ""recordClick(this)""><div class = content><div class = numbers>N</div></div></button><button id = button_8 class = ""square num-button"" onclick = ""recordClick(this)""><div class = content><div class = numbers>P</div></div></button><button id = button_9 class = ""square num-button"" onclick = ""recordClick(this)""><div class = content><div class = numbers>Q</div></div></button><button id = button_10 class = ""square num-button"" onclick = ""recordClick(this)""><div class = content><div class = numbers>R</div></div></button><button id = button_11 class = ""square num-button"" onclick = ""recordClick(this)""><div class = content><div class = numbers>S</div></div></button><button id = button_12 class = ""square num-button"" onclick = ""recordClick(this)""><div class = content><div class = numbers>Y</div></div></button><button class = clear_button id = ""ClearButton"" onclick = ""clearResponse()"">BACKSPACE</button><button class = blank_button id = ""BlankButton"" onclick = ""blankResponse()"">SKIP</button><p style=""font-size: 2.4rem""><u><b>Current Answer:</b></u></p><br><br><div id=echoed_txt style=""font-size: 5rem; color:blue;""><b></b></div></div>",enter,ospan,retrieval,Ku0eMKGtROSVCXbldINco62jJfB2,html-keyboard-response,202,825665,0.0-43.0-6.0-1.0-2.0,41,36,27,8.0,"[""R"",""G"",""N"",""Y"",""Q"",""J"",""S""]","[""R"",""G"",""N"",""Y"",""Q"",""J"",""S"",""L""]",0.0,7.0,,,,,,,65c8ae4d5f25e8b4062a4c93,14:47:44,06/03/2024
1576.800000011921,[''],0,ospan,feedback,Ku0eMKGtROSVCXbldINco62jJfB2,html-button-response,203,827747,0.0-43.0-6.0-1.0-3.0,,,,,,,,,,,,98.0,0.0,,65c8ae4d5f25e8b4062a4c93,14:47:44,06/03/2024
20564.200000047684,,{'Q0': 'it was clear\n'},ospan,survey_ospan,Ku0eMKGtROSVCXbldINco62jJfB2,lmdlab-survey-text,204,849067,0.0-43.0-7.0,,,,,,,,,,,,,,Ku0eMKGtROSVCXbldINco62jJfB2,65c8ae4d5f25e8b4062a4c93,14:47:44,06/03/2024
2107.400000035763,<p><p style='font-size: 3rem'>Great work!<br><br>This completes the symmetry and memory task.</p><br><br><br>,0,ospan,finish,Ku0eMKGtROSVCXbldINco62jJfB2,html-button-response,205,851179,0.0-43.0-8.0,41,36,27,,,,,,,,,98.0,,,65c8ae4d5f25e8b4062a4c93,14:47:44,06/03/2024
