rt,stimulus,response,exp_name,exp_stage,subjectID,trial_type,trial_index,time_elapsed,internal_node_id,ospan_shown,ospan_total,ospan_abs,length,resp_actual,resp_correct,full_correct,num_correct,feedback,accuracy,correct,math_acc,math_warning,databaseID,prolificID,start_time,date
2843.399999976158,<div class = 'left_align' style='font-size: 3.25rem; line-height: 1.3;'><p class = 'center_align'><b>Welcome to the Symmetry and Memory Task</b><br><br><br><br></p>Press 'continue' to show the instructions.<br><br><br><br></div>,0,ospan,instruct,TbIMwrpw7bNysnMcLuqO8QwPLk12,html-button-response,54,932516,0.0-46.0-0.0-0.0-0.0,,,,,,,,,,,,,,,5f3d455fc5a9c209cb8b94b4,17:36:57,03/04/2024
200029.09999999404,"<div class = 'left_align' style='font-size: 3.25rem; line-height: 1.3;'><p class = 'center_align'><b>Symmetry and Memory Task</b><br><br></p>In this task, you will try to memorize letters you see on the screen<br>while you also view black and white grid pictures.<br><br>In the next few minutes, you will have some practice to get you familiar<br>with how the task works.<br><br>It may be difficult sometimes, but please do not worry about making mistakes!<br><br>We will begin by practicing the letter part of the task.<br><br><br><br></div>",0,ospan,instruct,TbIMwrpw7bNysnMcLuqO8QwPLk12,html-button-response,55,1132804,0.0-46.0-0.0-0.0-1.0,,,,,,,,,,,,,,,5f3d455fc5a9c209cb8b94b4,17:36:57,03/04/2024
8832.0,"<div class = 'left_align' style='font-size: 3.25rem; line-height: 1.3;'>For this practice part, letters will appear on the screen one at a time.<br><br>Try to remember each letter in the order presented.<br><br>After some letters have been shown, you will see a response screen. Your<br>goal is to report the letters you saw <b>in order</b>. If you do not remember<br>a particular letter, you will have the option to leave it blank.<br><br><br><br></div>",0,ospan,instruct,TbIMwrpw7bNysnMcLuqO8QwPLk12,html-button-response,56,1141899,0.0-46.0-0.0-0.0-2.0,,,,,,,,,,,,,,,5f3d455fc5a9c209cb8b94b4,17:36:57,03/04/2024
3514.300000011921,"<div class = 'left_align' style='font-size: 3.25rem; line-height: 1.3;'>Remember, it is very important to get the letters in the same<br>order as you see them.<br><br>When you are ready, you may begin the letter practice.</div><br><br><br><br>",0,ospan,instruct,TbIMwrpw7bNysnMcLuqO8QwPLk12,html-button-response,57,1145676,0.0-46.0-0.0-0.0-3.0,,,,,,,,,,,,,,,5f3d455fc5a9c209cb8b94b4,17:36:57,03/04/2024
,"<p style=""font-size:75px;"">...</p>",,ospan,iti,TbIMwrpw7bNysnMcLuqO8QwPLk12,html-keyboard-response,58,1146949,0.0-46.0-0.0-1.0-0.0,,,,,,,,,,,,,,,5f3d455fc5a9c209cb8b94b4,17:36:57,03/04/2024
,"<div style=""font-size: 10rem; color: #0000FF"">Y</div>",,ospan,letter,TbIMwrpw7bNysnMcLuqO8QwPLk12,html-keyboard-response,59,1147963,0.0-46.0-0.0-1.0-1.0,,,,,,,,,,,,,,,5f3d455fc5a9c209cb8b94b4,17:36:57,03/04/2024
,"<div style=""font-size: 10rem; color: #0000FF"">L</div>",,ospan,letter,TbIMwrpw7bNysnMcLuqO8QwPLk12,html-keyboard-response,60,1149736,0.0-46.0-0.0-1.0-2.0,,,,,,,,,,,,,,,5f3d455fc5a9c209cb8b94b4,17:36:57,03/04/2024
17031.19999998808,"<div class = numbox><p style=""font-size: 2.4rem"">Please recall the letters you saw to the best of your ability. If you do not remember a particular letter, use the SKIP button.<br><b>(When you are ready to lock in your answer, press ENTER)</b></p><button id = button_1 class = ""square num-button"" onclick = ""recordClick(this)""><div class = content><div class = numbers>C</div></div></button><button id = button_2 class = ""square num-button"" onclick = ""recordClick(this)""><div class = content><div class = numbers>G</div></div></button><button id = button_3 class = ""square num-button"" onclick = ""recordClick(this)""><div class = content><div class = numbers>H</div></div></button><button id = button_4 class = ""square num-button"" onclick = ""recordClick(this)""><div class = content><div class = numbers>J</div></div></button><button id = button_5 class = ""square num-button"" onclick = ""recordClick(this)""><div class = content><div class = numbers>K</div></div></button><button id = button_6 class = ""square num-button"" onclick = ""recordClick(this)""><div class = content><div class = numbers>L</div></div></button><button id = button_7 class = ""square num-button"" onclick = ""recordClick(this)""><div class = content><div class = numbers>N</div></div></button><button id = button_8 class = ""square num-button"" onclick = ""recordClick(this)""><div class = content><div class = numbers>P</div></div></button><button id = button_9 class = ""square num-button"" onclick = ""recordClick(this)""><div class = content><div class = numbers>Q</div></div></button><button id = button_10 class = ""square num-button"" onclick = ""recordClick(this)""><div class = content><div class = numbers>R</div></div></button><button id = button_11 class = ""square num-button"" onclick = ""recordClick(this)""><div class = content><div class = numbers>S</div></div></button><button id = button_12 class = ""square num-button"" onclick = ""recordClick(this)""><div class = content><div class = numbers>Y</div></div></button><button class = clear_button id = ""ClearButton"" onclick = ""clearResponse()"">BACKSPACE</button><button class = blank_button id = ""BlankButton"" onclick = ""blankResponse()"">SKIP</button><p style=""font-size: 2.4rem""><u><b>Current Answer:</b></u></p><br><br><div id=echoed_txt style=""font-size: 5rem; color:blue;""><b></b></div></div>",enter,ospan,retrieval,TbIMwrpw7bNysnMcLuqO8QwPLk12,html-keyboard-response,61,1167529,0.0-46.0-0.0-1.0-3.0,NA,NA,NA,2.0,"[""Y"",""L""]","[""Y"",""L""]",1.0,2.0,"['<font color=""green"">Y</font>', '<font color=""green"">L</font>']",,,,,,5f3d455fc5a9c209cb8b94b4,17:36:57,03/04/2024
2956.199999988079,"['<p style=""font-size:44px"">Letters:<br><br><br><font color=""green"">Y</font> <font color=""green"">L</font></p><br><br>']",0,ospan,practice_feedback,TbIMwrpw7bNysnMcLuqO8QwPLk12,html-button-response,62,1170997,0.0-46.0-0.0-1.0-4.0,,,,,,,,,,,,,,,5f3d455fc5a9c209cb8b94b4,17:36:57,03/04/2024
,"<p style=""font-size:75px;"">...</p>",,ospan,iti,TbIMwrpw7bNysnMcLuqO8QwPLk12,html-keyboard-response,63,1172006,0.0-46.0-0.0-2.0-0.0,,,,,,,,,,,,,,,5f3d455fc5a9c209cb8b94b4,17:36:57,03/04/2024
,"<div style=""font-size: 10rem; color: #0000FF"">C</div>",,ospan,letter,TbIMwrpw7bNysnMcLuqO8QwPLk12,html-keyboard-response,64,1173016,0.0-46.0-0.0-2.0-1.0,,,,,,,,,,,,,,,5f3d455fc5a9c209cb8b94b4,17:36:57,03/04/2024
,"<div style=""font-size: 10rem; color: #0000FF"">Q</div>",,ospan,letter,TbIMwrpw7bNysnMcLuqO8QwPLk12,html-keyboard-response,65,1174788,0.0-46.0-0.0-2.0-2.0,,,,,,,,,,,,,,,5f3d455fc5a9c209cb8b94b4,17:36:57,03/04/2024
,"<div style=""font-size: 10rem; color: #0000FF"">K</div>",,ospan,letter,TbIMwrpw7bNysnMcLuqO8QwPLk12,html-keyboard-response,66,1176559,0.0-46.0-0.0-2.0-3.0,,,,,,,,,,,,,,,5f3d455fc5a9c209cb8b94b4,17:36:57,03/04/2024
7937.5,"<div class = numbox><p style=""font-size: 2.4rem"">Please recall the letters you saw to the best of your ability. If you do not remember a particular letter, use the SKIP button.<br><b>(When you are ready to lock in your answer, press ENTER)</b></p><button id = button_1 class = ""square num-button"" onclick = ""recordClick(this)""><div class = content><div class = numbers>C</div></div></button><button id = button_2 class = ""square num-button"" onclick = ""recordClick(this)""><div class = content><div class = numbers>G</div></div></button><button id = button_3 class = ""square num-button"" onclick = ""recordClick(this)""><div class = content><div class = numbers>H</div></div></button><button id = button_4 class = ""square num-button"" onclick = ""recordClick(this)""><div class = content><div class = numbers>J</div></div></button><button id = button_5 class = ""square num-button"" onclick = ""recordClick(this)""><div class = content><div class = numbers>K</div></div></button><button id = button_6 class = ""square num-button"" onclick = ""recordClick(this)""><div class = content><div class = numbers>L</div></div></button><button id = button_7 class = ""square num-button"" onclick = ""recordClick(this)""><div class = content><div class = numbers>N</div></div></button><button id = button_8 class = ""square num-button"" onclick = ""recordClick(this)""><div class = content><div class = numbers>P</div></div></button><button id = button_9 class = ""square num-button"" onclick = ""recordClick(this)""><div class = content><div class = numbers>Q</div></div></button><button id = button_10 class = ""square num-button"" onclick = ""recordClick(this)""><div class = content><div class = numbers>R</div></div></button><button id = button_11 class = ""square num-button"" onclick = ""recordClick(this)""><div class = content><div class = numbers>S</div></div></button><button id = button_12 class = ""square num-button"" onclick = ""recordClick(this)""><div class = content><div class = numbers>Y</div></div></button><button class = clear_button id = ""ClearButton"" onclick = ""clearResponse()"">BACKSPACE</button><button class = blank_button id = ""BlankButton"" onclick = ""blankResponse()"">SKIP</button><p style=""font-size: 2.4rem""><u><b>Current Answer:</b></u></p><br><br><div id=echoed_txt style=""font-size: 5rem; color:blue;""><b></b></div></div>",enter,ospan,retrieval,TbIMwrpw7bNysnMcLuqO8QwPLk12,html-keyboard-response,67,1185260,0.0-46.0-0.0-2.0-4.0,NA,NA,NA,3.0,"[""C"",""Q"",""K""]","[""C"",""Q"",""K""]",1.0,3.0,"['<font color=""green"">C</font>', '<font color=""green"">Q</font>', '<font color=""green"">K</font>']",,,,,,5f3d455fc5a9c209cb8b94b4,17:36:57,03/04/2024
1412.300000011921,"['<p style=""font-size:44px"">Letters:<br><br><br><font color=""green"">C</font> <font color=""green"">Q</font> <font color=""green"">K</font></p><br><br>']",0,ospan,practice_feedback,TbIMwrpw7bNysnMcLuqO8QwPLk12,html-button-response,68,1187177,0.0-46.0-0.0-2.0-5.0,,,,,,,,,,,,,,,5f3d455fc5a9c209cb8b94b4,17:36:57,03/04/2024
14377.40000000596,"<div class = 'left_align' style='font-size: 3.25rem; line-height: 1.3;'>Now you will practice doing the <b>symmetry judgment part</b> of the experiment.<br><br>A black and white grid picture will appear on the screen and you have to judge if it is <br>symmetrical or asymetrical.<br><br>A picture is 'mirror' symmetrical if its left half is identical to the right half when flipped.<br>Here are examples of a symmetrical and an asymetrical picture:<br><br><center><img src='Stimuli/img/symm_instructions_extra.png' style='height:420px; width:900'></img></center><br>To judge symmetry, imagine you were to fold each picture down the middle, like a book –<br>would the left half match the right half when folded onto each other?<br><br></div><br>",0,ospan,instruct,TbIMwrpw7bNysnMcLuqO8QwPLk12,html-button-response,69,1201556,0.0-46.0-1.0-0.0-0.0,,,,,,,,,,,,,,,5f3d455fc5a9c209cb8b94b4,17:36:57,03/04/2024
6078.5999999940395,"<div class = 'left_align' style='font-size: 3.25rem; line-height: 1.3;'>When you have viewed the picture and determined whether it is symmetrical or not,<br>you can <b>click the Yes or No button</b> below to answer.<br><br>If you take longer than 15 seconds, it will continue automatically<br>and record the answer as an error.</div><br>",0,ospan,instruct,TbIMwrpw7bNysnMcLuqO8QwPLk12,html-button-response,70,1207897,0.0-46.0-1.0-0.0-1.0,,,,,,,,,,,,,,,5f3d455fc5a9c209cb8b94b4,17:36:57,03/04/2024
5394.299999982119,"<div class = 'left_align' style='font-size: 3.25rem; line-height: 1.3;'>It is <b>very</b> important that you make the symmetry judgment correctly.<br><br>It is also important that you try and judge the picture as quickly as you can.<br><br>When you are ready, click on the button below to try some practice problems.</div><br><br><br><br>",0,ospan,instruct,TbIMwrpw7bNysnMcLuqO8QwPLk12,html-button-response,71,1213557,0.0-46.0-1.0-0.0-2.0,,,,,,,,,,,,,,,5f3d455fc5a9c209cb8b94b4,17:36:57,03/04/2024
4676.0,,,ospan,symmetry,TbIMwrpw7bNysnMcLuqO8QwPLk12,symmetry-judgement-task,72,1219032,0.0-46.0-1.0-1.0-0.0,,,,,,,,,,1.0,1.0,,,,5f3d455fc5a9c209cb8b94b4,17:36:57,03/04/2024
,"<p style=""color:green; font-size: 35px"">Correct</p>",,ospan,feedback,TbIMwrpw7bNysnMcLuqO8QwPLk12,html-keyboard-response,73,1219792,0.0-46.0-1.0-1.0-1.0,,,,,,,,,,,,,,,5f3d455fc5a9c209cb8b94b4,17:36:57,03/04/2024
3216.0,,,ospan,symmetry,TbIMwrpw7bNysnMcLuqO8QwPLk12,symmetry-judgement-task,74,1225645,0.0-46.0-1.0-1.0-2.0,,,,,,,,,,1.0,1.0,,,,5f3d455fc5a9c209cb8b94b4,17:36:57,03/04/2024
,"<p style=""color:green; font-size: 35px"">Correct</p>",,ospan,feedback,TbIMwrpw7bNysnMcLuqO8QwPLk12,html-keyboard-response,75,1226407,0.0-46.0-1.0-1.0-3.0,,,,,,,,,,,,,,,5f3d455fc5a9c209cb8b94b4,17:36:57,03/04/2024
6029.0,,,ospan,symmetry,TbIMwrpw7bNysnMcLuqO8QwPLk12,symmetry-judgement-task,76,1235085,0.0-46.0-1.0-1.0-4.0,,,,,,,,,,1.0,1.0,,,,5f3d455fc5a9c209cb8b94b4,17:36:57,03/04/2024
,"<p style=""color:green; font-size: 35px"">Correct</p>",,ospan,feedback,TbIMwrpw7bNysnMcLuqO8QwPLk12,html-keyboard-response,77,1235849,0.0-46.0-1.0-1.0-5.0,,,,,,,,,,,,,,,5f3d455fc5a9c209cb8b94b4,17:36:57,03/04/2024
1757.300000011921,"<p style=""font-size: 3rem;"">You responded correctly on 3 of 3 symmetry judgments. Good job!</p><br><br>",0,ospan,practice,TbIMwrpw7bNysnMcLuqO8QwPLk12,html-button-response,78,1239622,0.0-46.0-1.0-2.0,,,,,,,,,,,,,,,5f3d455fc5a9c209cb8b94b4,17:36:57,03/04/2024
6017.700000017881,"<div class = 'left_align' style='font-size: 3.25rem; line-height: 1.3;'>Now you will practice doing both parts of the experiment at the same time.<br><br>In the next practice set, you will be given one grid picture to judge.<br>Then letter will appear on the screen. Try to remember the letter.<br><br>It is <b>very important</b> to make the symmetry judgment as quickly and accurately as possible.<br><br>Just as before, once you have make the symmetry judgment, you can click Yes or No.<br><b>Note that you will no longer see Correct or Incorrect feedback.</div><br><br><br><br>",0,ospan,instruct,TbIMwrpw7bNysnMcLuqO8QwPLk12,html-button-response,79,1245904,0.0-46.0-2.0-0.0-0.0,,,,,,,,,,,,,,,5f3d455fc5a9c209cb8b94b4,17:36:57,03/04/2024
3694.300000011921,"<div class = 'left_align' style='font-size: 3.25rem; line-height: 1.3;'>After the letter goes away, another grid picture will appear, and then<br>another letter.<br><br>At the end of each set of letters and grids, you will recall the letters to the best<br>of your ability. Remember, try your best to get the letters in the correct order.<br><br>It is important to <b>quickly</b> and <b>accurately</b> make the symmetry judgments.</div><br><br><br><br>",0,ospan,instruct,TbIMwrpw7bNysnMcLuqO8QwPLk12,html-button-response,80,1249863,0.0-46.0-2.0-0.0-1.0,,,,,,,,,,,,,,,5f3d455fc5a9c209cb8b94b4,17:36:57,03/04/2024
2918.7000000178814,"<div class = 'left_align' style='font-size: 3.25rem; line-height: 1.3;'>On the feedback screen, if you are not doing well at the symmetry judgments,<br>you will also see a warning in the middle. This indicates your percent <br>correct for the grid pictures for the entire experiment.<br><br>It is <b>very</b> important for you to keep accuracy at least at 85%: <u>We can only use<br>data where the participant was at least 85% accurate on the judgments.</u> Therefore,<br> please try your best to perform well on the symmetry judgments, <b>at the same time</b><br>doing your best to recall as many letters as possible.<br><br>Click the button to try some practice problems.</div><br><br><br><br>",0,ospan,instruct,TbIMwrpw7bNysnMcLuqO8QwPLk12,html-button-response,81,1253046,0.0-46.0-2.0-0.0-2.0,,,,,,,,,,,,,,,5f3d455fc5a9c209cb8b94b4,17:36:57,03/04/2024
,"<p style=""font-size:75px;"">...</p>",,ospan,iti,TbIMwrpw7bNysnMcLuqO8QwPLk12,html-keyboard-response,82,1254324,0.0-46.0-2.0-1.0-0.0,,,,,,,,,,,,,,,5f3d455fc5a9c209cb8b94b4,17:36:57,03/04/2024
2146.0,,,ospan,symmetry,TbIMwrpw7bNysnMcLuqO8QwPLk12,symmetry-judgement-task,83,1257602,0.0-46.0-2.0-1.0-1.0-0.0,,,,,,,,,,1.0,1.0,,,,5f3d455fc5a9c209cb8b94b4,17:36:57,03/04/2024
,"<div style=""font-size: 10rem; color: #0000FF"">R</div>",,ospan,letter,TbIMwrpw7bNysnMcLuqO8QwPLk12,html-keyboard-response,84,1258614,0.0-46.0-2.0-1.0-1.0-1.0,,,,,,,,,,,,,,,5f3d455fc5a9c209cb8b94b4,17:36:57,03/04/2024
3253.0,,,ospan,symmetry,TbIMwrpw7bNysnMcLuqO8QwPLk12,symmetry-judgement-task,85,1263763,0.0-46.0-2.0-1.0-1.0-2.0,,,,,,,,,,1.0,1.0,,,,5f3d455fc5a9c209cb8b94b4,17:36:57,03/04/2024
,"<div style=""font-size: 10rem; color: #0000FF"">P</div>",,ospan,letter,TbIMwrpw7bNysnMcLuqO8QwPLk12,html-keyboard-response,86,1264773,0.0-46.0-2.0-1.0-1.0-3.0,,,,,,,,,,,,,,,5f3d455fc5a9c209cb8b94b4,17:36:57,03/04/2024
2341.0,,,ospan,symmetry,TbIMwrpw7bNysnMcLuqO8QwPLk12,symmetry-judgement-task,87,1269005,0.0-46.0-2.0-1.0-1.0-4.0,,,,,,,,,,1.0,1.0,,,,5f3d455fc5a9c209cb8b94b4,17:36:57,03/04/2024
,"<div style=""font-size: 10rem; color: #0000FF"">J</div>",,ospan,letter,TbIMwrpw7bNysnMcLuqO8QwPLk12,html-keyboard-response,88,1270020,0.0-46.0-2.0-1.0-1.0-5.0,,,,,,,,,,,,,,,5f3d455fc5a9c209cb8b94b4,17:36:57,03/04/2024
4132.300000011921,"<div class = numbox><p style=""font-size: 2.4rem"">Please recall the letters you saw to the best of your ability. If you do not remember a particular letter, use the SKIP button.<br><b>(When you are ready to lock in your answer, press ENTER)</b></p><button id = button_1 class = ""square num-button"" onclick = ""recordClick(this)""><div class = content><div class = numbers>C</div></div></button><button id = button_2 class = ""square num-button"" onclick = ""recordClick(this)""><div class = content><div class = numbers>G</div></div></button><button id = button_3 class = ""square num-button"" onclick = ""recordClick(this)""><div class = content><div class = numbers>H</div></div></button><button id = button_4 class = ""square num-button"" onclick = ""recordClick(this)""><div class = content><div class = numbers>J</div></div></button><button id = button_5 class = ""square num-button"" onclick = ""recordClick(this)""><div class = content><div class = numbers>K</div></div></button><button id = button_6 class = ""square num-button"" onclick = ""recordClick(this)""><div class = content><div class = numbers>L</div></div></button><button id = button_7 class = ""square num-button"" onclick = ""recordClick(this)""><div class = content><div class = numbers>N</div></div></button><button id = button_8 class = ""square num-button"" onclick = ""recordClick(this)""><div class = content><div class = numbers>P</div></div></button><button id = button_9 class = ""square num-button"" onclick = ""recordClick(this)""><div class = content><div class = numbers>Q</div></div></button><button id = button_10 class = ""square num-button"" onclick = ""recordClick(this)""><div class = content><div class = numbers>R</div></div></button><button id = button_11 class = ""square num-button"" onclick = ""recordClick(this)""><div class = content><div class = numbers>S</div></div></button><button id = button_12 class = ""square num-button"" onclick = ""recordClick(this)""><div class = content><div class = numbers>Y</div></div></button><button class = clear_button id = ""ClearButton"" onclick = ""clearResponse()"">BACKSPACE</button><button class = blank_button id = ""BlankButton"" onclick = ""blankResponse()"">SKIP</button><p style=""font-size: 2.4rem""><u><b>Current Answer:</b></u></p><br><br><div id=echoed_txt style=""font-size: 5rem; color:blue;""><b></b></div></div>",enter,ospan,retrieval,TbIMwrpw7bNysnMcLuqO8QwPLk12,html-keyboard-response,89,1274918,0.0-46.0-2.0-1.0-2.0-0.0,NA,NA,NA,3.0,"[""R"",""P"",""J""]","[""R"",""P"",""J""]",1.0,3.0,"['<font color=""green"">R</font>', '<font color=""green"">P</font>', '<font color=""green"">J</font>']",,,,,,5f3d455fc5a9c209cb8b94b4,17:36:57,03/04/2024
1833.5999999940395,"['<p style=""font-size:44px"">Letters:<br><br><br><font color=""green"">R</font> <font color=""green"">P</font> <font color=""green"">J</font></p><br><br><p style=""font-size:30px"">Symmetry:<br><br><font color=""green"">100%</font></p><br><br>']",0,ospan,practice_feedback,TbIMwrpw7bNysnMcLuqO8QwPLk12,html-button-response,90,1277265,0.0-46.0-2.0-1.0-2.0-1.0,,,,,,,,,,,,,,,5f3d455fc5a9c209cb8b94b4,17:36:57,03/04/2024
,"<p style=""font-size:75px;"">...</p>",,ospan,iti,TbIMwrpw7bNysnMcLuqO8QwPLk12,html-keyboard-response,91,1278280,0.0-46.0-2.0-2.0-0.0,,,,,,,,,,,,,,,5f3d455fc5a9c209cb8b94b4,17:36:57,03/04/2024
2233.0,,,ospan,symmetry,TbIMwrpw7bNysnMcLuqO8QwPLk12,symmetry-judgement-task,92,1281649,0.0-46.0-2.0-2.0-1.0-0.0,,,,,,,,,,1.0,1.0,,,,5f3d455fc5a9c209cb8b94b4,17:36:57,03/04/2024
,"<div style=""font-size: 10rem; color: #0000FF"">K</div>",,ospan,letter,TbIMwrpw7bNysnMcLuqO8QwPLk12,html-keyboard-response,93,1282661,0.0-46.0-2.0-2.0-1.0-1.0,,,,,,,,,,,,,,,5f3d455fc5a9c209cb8b94b4,17:36:57,03/04/2024
1646.0,,,ospan,symmetry,TbIMwrpw7bNysnMcLuqO8QwPLk12,symmetry-judgement-task,94,1286194,0.0-46.0-2.0-2.0-1.0-2.0,,,,,,,,,,1.0,1.0,,,,5f3d455fc5a9c209cb8b94b4,17:36:57,03/04/2024
,"<div style=""font-size: 10rem; color: #0000FF"">C</div>",,ospan,letter,TbIMwrpw7bNysnMcLuqO8QwPLk12,html-keyboard-response,95,1287205,0.0-46.0-2.0-2.0-1.0-3.0,,,,,,,,,,,,,,,5f3d455fc5a9c209cb8b94b4,17:36:57,03/04/2024
1607.0,,,ospan,symmetry,TbIMwrpw7bNysnMcLuqO8QwPLk12,symmetry-judgement-task,96,1290715,0.0-46.0-2.0-2.0-1.0-4.0,,,,,,,,,,1.0,1.0,,,,5f3d455fc5a9c209cb8b94b4,17:36:57,03/04/2024
,"<div style=""font-size: 10rem; color: #0000FF"">N</div>",,ospan,letter,TbIMwrpw7bNysnMcLuqO8QwPLk12,html-keyboard-response,97,1291726,0.0-46.0-2.0-2.0-1.0-5.0,,,,,,,,,,,,,,,5f3d455fc5a9c209cb8b94b4,17:36:57,03/04/2024
3412.0,"<div class = numbox><p style=""font-size: 2.4rem"">Please recall the letters you saw to the best of your ability. If you do not remember a particular letter, use the SKIP button.<br><b>(When you are ready to lock in your answer, press ENTER)</b></p><button id = button_1 class = ""square num-button"" onclick = ""recordClick(this)""><div class = content><div class = numbers>C</div></div></button><button id = button_2 class = ""square num-button"" onclick = ""recordClick(this)""><div class = content><div class = numbers>G</div></div></button><button id = button_3 class = ""square num-button"" onclick = ""recordClick(this)""><div class = content><div class = numbers>H</div></div></button><button id = button_4 class = ""square num-button"" onclick = ""recordClick(this)""><div class = content><div class = numbers>J</div></div></button><button id = button_5 class = ""square num-button"" onclick = ""recordClick(this)""><div class = content><div class = numbers>K</div></div></button><button id = button_6 class = ""square num-button"" onclick = ""recordClick(this)""><div class = content><div class = numbers>L</div></div></button><button id = button_7 class = ""square num-button"" onclick = ""recordClick(this)""><div class = content><div class = numbers>N</div></div></button><button id = button_8 class = ""square num-button"" onclick = ""recordClick(this)""><div class = content><div class = numbers>P</div></div></button><button id = button_9 class = ""square num-button"" onclick = ""recordClick(this)""><div class = content><div class = numbers>Q</div></div></button><button id = button_10 class = ""square num-button"" onclick = ""recordClick(this)""><div class = content><div class = numbers>R</div></div></button><button id = button_11 class = ""square num-button"" onclick = ""recordClick(this)""><div class = content><div class = numbers>S</div></div></button><button id = button_12 class = ""square num-button"" onclick = ""recordClick(this)""><div class = content><div class = numbers>Y</div></div></button><button class = clear_button id = ""ClearButton"" onclick = ""clearResponse()"">BACKSPACE</button><button class = blank_button id = ""BlankButton"" onclick = ""blankResponse()"">SKIP</button><p style=""font-size: 2.4rem""><u><b>Current Answer:</b></u></p><br><br><div id=echoed_txt style=""font-size: 5rem; color:blue;""><b></b></div></div>",enter,ospan,retrieval,TbIMwrpw7bNysnMcLuqO8QwPLk12,html-keyboard-response,98,1295898,0.0-46.0-2.0-2.0-2.0-0.0,NA,NA,NA,3.0,"[""K"",""C"",""N""]","[""K"",""C"",""N""]",1.0,3.0,"['<font color=""green"">K</font>', '<font color=""green"">C</font>', '<font color=""green"">N</font>']",,,,,,5f3d455fc5a9c209cb8b94b4,17:36:57,03/04/2024
1296.2000000178814,"['<p style=""font-size:44px"">Letters:<br><br><br><font color=""green"">K</font> <font color=""green"">C</font> <font color=""green"">N</font></p><br><br><p style=""font-size:30px"">Symmetry:<br><br><font color=""green"">100%</font></p><br><br>']",0,ospan,practice_feedback,TbIMwrpw7bNysnMcLuqO8QwPLk12,html-button-response,99,1297697,0.0-46.0-2.0-2.0-2.0-1.0,,,,,,,,,,,,,,,5f3d455fc5a9c209cb8b94b4,17:36:57,03/04/2024
16239.90000000596,"<div class = 'left_align' style='font-size: 3rem; line-height: 1.3;'><b>Great work! That is the end of practice.</b><br><br>The real trials will look just like the practice trials you just completed.<br><br><u>Here, you will not see feedback</u>. First, you will see an grid picture to judge,<br>then a letter to remember. When the recall screen appears, report the letters in the<br>order presented. If you forget a letter, remember to use the <b>blank</b> button to move to the<br>next letter. Some of the sets will have more symmetry grids and letters than others.<br><br>It is important that you do your best on both the symmetry judgments and the letter recall<br>parts of the experiment. For for the symmetry judgments, try to work as <b>quickly</b> and <br>as <b>accurately</b> as possible. Remember to keep your symmetry accuracy at 85% or above.<br><br><b>For the letters, do NOT use any external aid (e.g., writing on paper, electronic device).</b><br><br>It is <u>very important</u> to our experiment to have a <b>true</b> view of your real performance.<br><br>Do not worry if you miss some when it gets hard! This task is meant to be very challenging!<br><br>Click the button to begin.</div><br><br><br><br>",0,ospan,starting_real_here,TbIMwrpw7bNysnMcLuqO8QwPLk12,html-button-response,100,1313939,0.0-46.0-2.0-3.0,,,,,,,,,,,,,,,5f3d455fc5a9c209cb8b94b4,17:36:57,03/04/2024
,"<p style=""font-size:75px;"">...</p>",,ospan,iti,TbIMwrpw7bNysnMcLuqO8QwPLk12,html-keyboard-response,101,1315211,0.0-46.0-3.0-0.0-0.0,,,,,,,,,,,,,,,5f3d455fc5a9c209cb8b94b4,17:36:57,03/04/2024
2551.0,,,ospan,symmetry,TbIMwrpw7bNysnMcLuqO8QwPLk12,symmetry-judgement-task,102,1318888,0.0-46.0-3.0-0.0-1.0-0.0,,,,,,,,,,1.0,1.0,,,,5f3d455fc5a9c209cb8b94b4,17:36:57,03/04/2024
,"<div style=""font-size: 10rem; color: #0000FF"">N</div>",,ospan,letter,TbIMwrpw7bNysnMcLuqO8QwPLk12,html-keyboard-response,103,1319902,0.0-46.0-3.0-0.0-1.0-1.0,,,,,,,,,,,,,,,5f3d455fc5a9c209cb8b94b4,17:36:57,03/04/2024
1425.0,,,ospan,symmetry,TbIMwrpw7bNysnMcLuqO8QwPLk12,symmetry-judgement-task,104,1323213,0.0-46.0-3.0-0.0-1.0-2.0,,,,,,,,,,1.0,1.0,,,,5f3d455fc5a9c209cb8b94b4,17:36:57,03/04/2024
,"<div style=""font-size: 10rem; color: #0000FF"">P</div>",,ospan,letter,TbIMwrpw7bNysnMcLuqO8QwPLk12,html-keyboard-response,105,1324216,0.0-46.0-3.0-0.0-1.0-3.0,,,,,,,,,,,,,,,5f3d455fc5a9c209cb8b94b4,17:36:57,03/04/2024
1676.0,,,ospan,symmetry,TbIMwrpw7bNysnMcLuqO8QwPLk12,symmetry-judgement-task,106,1327791,0.0-46.0-3.0-0.0-1.0-4.0,,,,,,,,,,1.0,1.0,,,,5f3d455fc5a9c209cb8b94b4,17:36:57,03/04/2024
,"<div style=""font-size: 10rem; color: #0000FF"">Q</div>",,ospan,letter,TbIMwrpw7bNysnMcLuqO8QwPLk12,html-keyboard-response,107,1328803,0.0-46.0-3.0-0.0-1.0-5.0,,,,,,,,,,,,,,,5f3d455fc5a9c209cb8b94b4,17:36:57,03/04/2024
4143.600000023842,"<div class = numbox><p style=""font-size: 2.4rem"">Please recall the letters you saw to the best of your ability. If you do not remember a particular letter, use the SKIP button.<br><b>(When you are ready to lock in your answer, press ENTER)</b></p><button id = button_1 class = ""square num-button"" onclick = ""recordClick(this)""><div class = content><div class = numbers>C</div></div></button><button id = button_2 class = ""square num-button"" onclick = ""recordClick(this)""><div class = content><div class = numbers>G</div></div></button><button id = button_3 class = ""square num-button"" onclick = ""recordClick(this)""><div class = content><div class = numbers>H</div></div></button><button id = button_4 class = ""square num-button"" onclick = ""recordClick(this)""><div class = content><div class = numbers>J</div></div></button><button id = button_5 class = ""square num-button"" onclick = ""recordClick(this)""><div class = content><div class = numbers>K</div></div></button><button id = button_6 class = ""square num-button"" onclick = ""recordClick(this)""><div class = content><div class = numbers>L</div></div></button><button id = button_7 class = ""square num-button"" onclick = ""recordClick(this)""><div class = content><div class = numbers>N</div></div></button><button id = button_8 class = ""square num-button"" onclick = ""recordClick(this)""><div class = content><div class = numbers>P</div></div></button><button id = button_9 class = ""square num-button"" onclick = ""recordClick(this)""><div class = content><div class = numbers>Q</div></div></button><button id = button_10 class = ""square num-button"" onclick = ""recordClick(this)""><div class = content><div class = numbers>R</div></div></button><button id = button_11 class = ""square num-button"" onclick = ""recordClick(this)""><div class = content><div class = numbers>S</div></div></button><button id = button_12 class = ""square num-button"" onclick = ""recordClick(this)""><div class = content><div class = numbers>Y</div></div></button><button class = clear_button id = ""ClearButton"" onclick = ""clearResponse()"">BACKSPACE</button><button class = blank_button id = ""BlankButton"" onclick = ""blankResponse()"">SKIP</button><p style=""font-size: 2.4rem""><u><b>Current Answer:</b></u></p><br><br><div id=echoed_txt style=""font-size: 5rem; color:blue;""><b></b></div></div>",enter,ospan,retrieval,TbIMwrpw7bNysnMcLuqO8QwPLk12,html-keyboard-response,108,1333710,0.0-46.0-3.0-0.0-2.0,3,3,3,3.0,"[""N"",""P"",""Q""]","[""N"",""P"",""Q""]",1.0,3.0,,,,,,,5f3d455fc5a9c209cb8b94b4,17:36:57,03/04/2024
1369.699999988079,[''],0,ospan,feedback,TbIMwrpw7bNysnMcLuqO8QwPLk12,html-button-response,109,1335596,0.0-46.0-3.0-0.0-3.0,,,,,,,,,,,,100.0,0.0,,5f3d455fc5a9c209cb8b94b4,17:36:57,03/04/2024
,"<p style=""font-size:75px;"">...</p>",,ospan,iti,TbIMwrpw7bNysnMcLuqO8QwPLk12,html-keyboard-response,110,1336611,0.0-46.0-4.0-0.0-0.0,,,,,,,,,,,,,,,5f3d455fc5a9c209cb8b94b4,17:36:57,03/04/2024
1859.0,,,ospan,symmetry,TbIMwrpw7bNysnMcLuqO8QwPLk12,symmetry-judgement-task,111,1339597,0.0-46.0-4.0-0.0-1.0-0.0,,,,,,,,,,1.0,1.0,,,,5f3d455fc5a9c209cb8b94b4,17:36:57,03/04/2024
,"<div style=""font-size: 10rem; color: #0000FF"">C</div>",,ospan,letter,TbIMwrpw7bNysnMcLuqO8QwPLk12,html-keyboard-response,112,1340607,0.0-46.0-4.0-0.0-1.0-1.0,,,,,,,,,,,,,,,5f3d455fc5a9c209cb8b94b4,17:36:57,03/04/2024
3955.0,,,ospan,symmetry,TbIMwrpw7bNysnMcLuqO8QwPLk12,symmetry-judgement-task,113,1346455,0.0-46.0-4.0-0.0-1.0-2.0,,,,,,,,,,1.0,1.0,,,,5f3d455fc5a9c209cb8b94b4,17:36:57,03/04/2024
,"<div style=""font-size: 10rem; color: #0000FF"">P</div>",,ospan,letter,TbIMwrpw7bNysnMcLuqO8QwPLk12,html-keyboard-response,114,1347457,0.0-46.0-4.0-0.0-1.0-3.0,,,,,,,,,,,,,,,5f3d455fc5a9c209cb8b94b4,17:36:57,03/04/2024
1470.0,,,ospan,symmetry,TbIMwrpw7bNysnMcLuqO8QwPLk12,symmetry-judgement-task,115,1350816,0.0-46.0-4.0-0.0-1.0-4.0,,,,,,,,,,1.0,1.0,,,,5f3d455fc5a9c209cb8b94b4,17:36:57,03/04/2024
,"<div style=""font-size: 10rem; color: #0000FF"">L</div>",,ospan,letter,TbIMwrpw7bNysnMcLuqO8QwPLk12,html-keyboard-response,116,1351827,0.0-46.0-4.0-0.0-1.0-5.0,,,,,,,,,,,,,,,5f3d455fc5a9c209cb8b94b4,17:36:57,03/04/2024
1980.0,,,ospan,symmetry,TbIMwrpw7bNysnMcLuqO8QwPLk12,symmetry-judgement-task,117,1355697,0.0-46.0-4.0-0.0-1.0-6.0,,,,,,,,,,1.0,1.0,,,,5f3d455fc5a9c209cb8b94b4,17:36:57,03/04/2024
,"<div style=""font-size: 10rem; color: #0000FF"">Q</div>",,ospan,letter,TbIMwrpw7bNysnMcLuqO8QwPLk12,html-keyboard-response,118,1356710,0.0-46.0-4.0-0.0-1.0-7.0,,,,,,,,,,,,,,,5f3d455fc5a9c209cb8b94b4,17:36:57,03/04/2024
4523.799999982119,"<div class = numbox><p style=""font-size: 2.4rem"">Please recall the letters you saw to the best of your ability. If you do not remember a particular letter, use the SKIP button.<br><b>(When you are ready to lock in your answer, press ENTER)</b></p><button id = button_1 class = ""square num-button"" onclick = ""recordClick(this)""><div class = content><div class = numbers>C</div></div></button><button id = button_2 class = ""square num-button"" onclick = ""recordClick(this)""><div class = content><div class = numbers>G</div></div></button><button id = button_3 class = ""square num-button"" onclick = ""recordClick(this)""><div class = content><div class = numbers>H</div></div></button><button id = button_4 class = ""square num-button"" onclick = ""recordClick(this)""><div class = content><div class = numbers>J</div></div></button><button id = button_5 class = ""square num-button"" onclick = ""recordClick(this)""><div class = content><div class = numbers>K</div></div></button><button id = button_6 class = ""square num-button"" onclick = ""recordClick(this)""><div class = content><div class = numbers>L</div></div></button><button id = button_7 class = ""square num-button"" onclick = ""recordClick(this)""><div class = content><div class = numbers>N</div></div></button><button id = button_8 class = ""square num-button"" onclick = ""recordClick(this)""><div class = content><div class = numbers>P</div></div></button><button id = button_9 class = ""square num-button"" onclick = ""recordClick(this)""><div class = content><div class = numbers>Q</div></div></button><button id = button_10 class = ""square num-button"" onclick = ""recordClick(this)""><div class = content><div class = numbers>R</div></div></button><button id = button_11 class = ""square num-button"" onclick = ""recordClick(this)""><div class = content><div class = numbers>S</div></div></button><button id = button_12 class = ""square num-button"" onclick = ""recordClick(this)""><div class = content><div class = numbers>Y</div></div></button><button class = clear_button id = ""ClearButton"" onclick = ""clearResponse()"">BACKSPACE</button><button class = blank_button id = ""BlankButton"" onclick = ""blankResponse()"">SKIP</button><p style=""font-size: 2.4rem""><u><b>Current Answer:</b></u></p><br><br><div id=echoed_txt style=""font-size: 5rem; color:blue;""><b></b></div></div>",enter,ospan,retrieval,TbIMwrpw7bNysnMcLuqO8QwPLk12,html-keyboard-response,119,1361995,0.0-46.0-4.0-0.0-2.0,7,7,7,4.0,"[""C"",""P"",""L"",""Q""]","[""C"",""P"",""L"",""Q""]",1.0,4.0,,,,,,,5f3d455fc5a9c209cb8b94b4,17:36:57,03/04/2024
1314.6000000238419,[''],0,ospan,feedback,TbIMwrpw7bNysnMcLuqO8QwPLk12,html-button-response,120,1363826,0.0-46.0-4.0-0.0-3.0,,,,,,,,,,,,100.0,0.0,,5f3d455fc5a9c209cb8b94b4,17:36:57,03/04/2024
,"<p style=""font-size:75px;"">...</p>",,ospan,iti,TbIMwrpw7bNysnMcLuqO8QwPLk12,html-keyboard-response,121,1364828,0.0-46.0-4.0-1.0-0.0,,,,,,,,,,,,,,,5f3d455fc5a9c209cb8b94b4,17:36:57,03/04/2024
1741.0,,,ospan,symmetry,TbIMwrpw7bNysnMcLuqO8QwPLk12,symmetry-judgement-task,122,1367704,0.0-46.0-4.0-1.0-1.0-0.0,,,,,,,,,,1.0,1.0,,,,5f3d455fc5a9c209cb8b94b4,17:36:57,03/04/2024
,"<div style=""font-size: 10rem; color: #0000FF"">P</div>",,ospan,letter,TbIMwrpw7bNysnMcLuqO8QwPLk12,html-keyboard-response,123,1368714,0.0-46.0-4.0-1.0-1.0-1.0,,,,,,,,,,,,,,,5f3d455fc5a9c209cb8b94b4,17:36:57,03/04/2024
1706.0,,,ospan,symmetry,TbIMwrpw7bNysnMcLuqO8QwPLk12,symmetry-judgement-task,124,1372314,0.0-46.0-4.0-1.0-1.0-2.0,,,,,,,,,,1.0,1.0,,,,5f3d455fc5a9c209cb8b94b4,17:36:57,03/04/2024
,"<div style=""font-size: 10rem; color: #0000FF"">C</div>",,ospan,letter,TbIMwrpw7bNysnMcLuqO8QwPLk12,html-keyboard-response,125,1373326,0.0-46.0-4.0-1.0-1.0-3.0,,,,,,,,,,,,,,,5f3d455fc5a9c209cb8b94b4,17:36:57,03/04/2024
1425.0,,,ospan,symmetry,TbIMwrpw7bNysnMcLuqO8QwPLk12,symmetry-judgement-task,126,1376629,0.0-46.0-4.0-1.0-1.0-4.0,,,,,,,,,,1.0,1.0,,,,5f3d455fc5a9c209cb8b94b4,17:36:57,03/04/2024
,"<div style=""font-size: 10rem; color: #0000FF"">G</div>",,ospan,letter,TbIMwrpw7bNysnMcLuqO8QwPLk12,html-keyboard-response,127,1377634,0.0-46.0-4.0-1.0-1.0-5.0,,,,,,,,,,,,,,,5f3d455fc5a9c209cb8b94b4,17:36:57,03/04/2024
1355.0,,,ospan,symmetry,TbIMwrpw7bNysnMcLuqO8QwPLk12,symmetry-judgement-task,128,1380880,0.0-46.0-4.0-1.0-1.0-6.0,,,,,,,,,,1.0,1.0,,,,5f3d455fc5a9c209cb8b94b4,17:36:57,03/04/2024
,"<div style=""font-size: 10rem; color: #0000FF"">Q</div>",,ospan,letter,TbIMwrpw7bNysnMcLuqO8QwPLk12,html-keyboard-response,129,1381890,0.0-46.0-4.0-1.0-1.0-7.0,,,,,,,,,,,,,,,5f3d455fc5a9c209cb8b94b4,17:36:57,03/04/2024
1547.0,,,ospan,symmetry,TbIMwrpw7bNysnMcLuqO8QwPLk12,symmetry-judgement-task,130,1385328,0.0-46.0-4.0-1.0-1.0-8.0,,,,,,,,,,1.0,1.0,,,,5f3d455fc5a9c209cb8b94b4,17:36:57,03/04/2024
,"<div style=""font-size: 10rem; color: #0000FF"">S</div>",,ospan,letter,TbIMwrpw7bNysnMcLuqO8QwPLk12,html-keyboard-response,131,1386332,0.0-46.0-4.0-1.0-1.0-9.0,,,,,,,,,,,,,,,5f3d455fc5a9c209cb8b94b4,17:36:57,03/04/2024
4103.4000000059605,"<div class = numbox><p style=""font-size: 2.4rem"">Please recall the letters you saw to the best of your ability. If you do not remember a particular letter, use the SKIP button.<br><b>(When you are ready to lock in your answer, press ENTER)</b></p><button id = button_1 class = ""square num-button"" onclick = ""recordClick(this)""><div class = content><div class = numbers>C</div></div></button><button id = button_2 class = ""square num-button"" onclick = ""recordClick(this)""><div class = content><div class = numbers>G</div></div></button><button id = button_3 class = ""square num-button"" onclick = ""recordClick(this)""><div class = content><div class = numbers>H</div></div></button><button id = button_4 class = ""square num-button"" onclick = ""recordClick(this)""><div class = content><div class = numbers>J</div></div></button><button id = button_5 class = ""square num-button"" onclick = ""recordClick(this)""><div class = content><div class = numbers>K</div></div></button><button id = button_6 class = ""square num-button"" onclick = ""recordClick(this)""><div class = content><div class = numbers>L</div></div></button><button id = button_7 class = ""square num-button"" onclick = ""recordClick(this)""><div class = content><div class = numbers>N</div></div></button><button id = button_8 class = ""square num-button"" onclick = ""recordClick(this)""><div class = content><div class = numbers>P</div></div></button><button id = button_9 class = ""square num-button"" onclick = ""recordClick(this)""><div class = content><div class = numbers>Q</div></div></button><button id = button_10 class = ""square num-button"" onclick = ""recordClick(this)""><div class = content><div class = numbers>R</div></div></button><button id = button_11 class = ""square num-button"" onclick = ""recordClick(this)""><div class = content><div class = numbers>S</div></div></button><button id = button_12 class = ""square num-button"" onclick = ""recordClick(this)""><div class = content><div class = numbers>Y</div></div></button><button class = clear_button id = ""ClearButton"" onclick = ""clearResponse()"">BACKSPACE</button><button class = blank_button id = ""BlankButton"" onclick = ""blankResponse()"">SKIP</button><p style=""font-size: 2.4rem""><u><b>Current Answer:</b></u></p><br><br><div id=echoed_txt style=""font-size: 5rem; color:blue;""><b></b></div></div>",enter,ospan,retrieval,TbIMwrpw7bNysnMcLuqO8QwPLk12,html-keyboard-response,132,1391198,0.0-46.0-4.0-1.0-2.0,12,12,12,5.0,"[""P"",""C"",""G"",""Q"",""S""]","[""P"",""C"",""G"",""Q"",""S""]",1.0,5.0,,,,,,,5f3d455fc5a9c209cb8b94b4,17:36:57,03/04/2024
96567.5,[''],0,ospan,feedback,TbIMwrpw7bNysnMcLuqO8QwPLk12,html-button-response,133,1488274,0.0-46.0-4.0-1.0-3.0,,,,,,,,,,,,100.0,0.0,,5f3d455fc5a9c209cb8b94b4,17:36:57,03/04/2024
,"<p style=""font-size:75px;"">...</p>",,ospan,iti,TbIMwrpw7bNysnMcLuqO8QwPLk12,html-keyboard-response,134,1489283,0.0-46.0-4.0-2.0-0.0,,,,,,,,,,,,,,,5f3d455fc5a9c209cb8b94b4,17:36:57,03/04/2024
1775.0,,,ospan,symmetry,TbIMwrpw7bNysnMcLuqO8QwPLk12,symmetry-judgement-task,135,1492096,0.0-46.0-4.0-2.0-1.0-0.0,,,,,,,,,,1.0,1.0,,,,5f3d455fc5a9c209cb8b94b4,17:36:57,03/04/2024
,"<div style=""font-size: 10rem; color: #0000FF"">N</div>",,ospan,letter,TbIMwrpw7bNysnMcLuqO8QwPLk12,html-keyboard-response,136,1493110,0.0-46.0-4.0-2.0-1.0-1.0,,,,,,,,,,,,,,,5f3d455fc5a9c209cb8b94b4,17:36:57,03/04/2024
1402.0,,,ospan,symmetry,TbIMwrpw7bNysnMcLuqO8QwPLk12,symmetry-judgement-task,137,1496410,0.0-46.0-4.0-2.0-1.0-2.0,,,,,,,,,,1.0,1.0,,,,5f3d455fc5a9c209cb8b94b4,17:36:57,03/04/2024
,"<div style=""font-size: 10rem; color: #0000FF"">Q</div>",,ospan,letter,TbIMwrpw7bNysnMcLuqO8QwPLk12,html-keyboard-response,138,1497424,0.0-46.0-4.0-2.0-1.0-3.0,,,,,,,,,,,,,,,5f3d455fc5a9c209cb8b94b4,17:36:57,03/04/2024
2490.0,,,ospan,symmetry,TbIMwrpw7bNysnMcLuqO8QwPLk12,symmetry-judgement-task,139,1501791,0.0-46.0-4.0-2.0-1.0-4.0,,,,,,,,,,1.0,1.0,,,,5f3d455fc5a9c209cb8b94b4,17:36:57,03/04/2024
,"<div style=""font-size: 10rem; color: #0000FF"">R</div>",,ospan,letter,TbIMwrpw7bNysnMcLuqO8QwPLk12,html-keyboard-response,140,1502792,0.0-46.0-4.0-2.0-1.0-5.0,,,,,,,,,,,,,,,5f3d455fc5a9c209cb8b94b4,17:36:57,03/04/2024
3805.600000023842,"<div class = numbox><p style=""font-size: 2.4rem"">Please recall the letters you saw to the best of your ability. If you do not remember a particular letter, use the SKIP button.<br><b>(When you are ready to lock in your answer, press ENTER)</b></p><button id = button_1 class = ""square num-button"" onclick = ""recordClick(this)""><div class = content><div class = numbers>C</div></div></button><button id = button_2 class = ""square num-button"" onclick = ""recordClick(this)""><div class = content><div class = numbers>G</div></div></button><button id = button_3 class = ""square num-button"" onclick = ""recordClick(this)""><div class = content><div class = numbers>H</div></div></button><button id = button_4 class = ""square num-button"" onclick = ""recordClick(this)""><div class = content><div class = numbers>J</div></div></button><button id = button_5 class = ""square num-button"" onclick = ""recordClick(this)""><div class = content><div class = numbers>K</div></div></button><button id = button_6 class = ""square num-button"" onclick = ""recordClick(this)""><div class = content><div class = numbers>L</div></div></button><button id = button_7 class = ""square num-button"" onclick = ""recordClick(this)""><div class = content><div class = numbers>N</div></div></button><button id = button_8 class = ""square num-button"" onclick = ""recordClick(this)""><div class = content><div class = numbers>P</div></div></button><button id = button_9 class = ""square num-button"" onclick = ""recordClick(this)""><div class = content><div class = numbers>Q</div></div></button><button id = button_10 class = ""square num-button"" onclick = ""recordClick(this)""><div class = content><div class = numbers>R</div></div></button><button id = button_11 class = ""square num-button"" onclick = ""recordClick(this)""><div class = content><div class = numbers>S</div></div></button><button id = button_12 class = ""square num-button"" onclick = ""recordClick(this)""><div class = content><div class = numbers>Y</div></div></button><button class = clear_button id = ""ClearButton"" onclick = ""clearResponse()"">BACKSPACE</button><button class = blank_button id = ""BlankButton"" onclick = ""blankResponse()"">SKIP</button><p style=""font-size: 2.4rem""><u><b>Current Answer:</b></u></p><br><br><div id=echoed_txt style=""font-size: 5rem; color:blue;""><b></b></div></div>",enter,ospan,retrieval,TbIMwrpw7bNysnMcLuqO8QwPLk12,html-keyboard-response,141,1507358,0.0-46.0-4.0-2.0-2.0,15,15,15,3.0,"[""N"",""Q"",""R""]","[""N"",""Q"",""R""]",1.0,3.0,,,,,,,5f3d455fc5a9c209cb8b94b4,17:36:57,03/04/2024
1150.0,[''],0,ospan,feedback,TbIMwrpw7bNysnMcLuqO8QwPLk12,html-button-response,142,1509010,0.0-46.0-4.0-2.0-3.0,,,,,,,,,,,,100.0,0.0,,5f3d455fc5a9c209cb8b94b4,17:36:57,03/04/2024
,"<p style=""font-size:75px;"">...</p>",,ospan,iti,TbIMwrpw7bNysnMcLuqO8QwPLk12,html-keyboard-response,143,1510022,0.0-46.0-5.0-0.0-0.0,,,,,,,,,,,,,,,5f3d455fc5a9c209cb8b94b4,17:36:57,03/04/2024
4009.0,,,ospan,symmetry,TbIMwrpw7bNysnMcLuqO8QwPLk12,symmetry-judgement-task,144,1515162,0.0-46.0-5.0-0.0-1.0-0.0,,,,,,,,,,1.0,1.0,,,,5f3d455fc5a9c209cb8b94b4,17:36:57,03/04/2024
,"<div style=""font-size: 10rem; color: #0000FF"">S</div>",,ospan,letter,TbIMwrpw7bNysnMcLuqO8QwPLk12,html-keyboard-response,145,1516176,0.0-46.0-5.0-0.0-1.0-1.0,,,,,,,,,,,,,,,5f3d455fc5a9c209cb8b94b4,17:36:57,03/04/2024
1462.0,,,ospan,symmetry,TbIMwrpw7bNysnMcLuqO8QwPLk12,symmetry-judgement-task,146,1519529,0.0-46.0-5.0-0.0-1.0-2.0,,,,,,,,,,1.0,1.0,,,,5f3d455fc5a9c209cb8b94b4,17:36:57,03/04/2024
,"<div style=""font-size: 10rem; color: #0000FF"">K</div>",,ospan,letter,TbIMwrpw7bNysnMcLuqO8QwPLk12,html-keyboard-response,147,1520545,0.0-46.0-5.0-0.0-1.0-3.0,,,,,,,,,,,,,,,5f3d455fc5a9c209cb8b94b4,17:36:57,03/04/2024
1304.0,,,ospan,symmetry,TbIMwrpw7bNysnMcLuqO8QwPLk12,symmetry-judgement-task,148,1523746,0.0-46.0-5.0-0.0-1.0-4.0,,,,,,,,,,1.0,1.0,,,,5f3d455fc5a9c209cb8b94b4,17:36:57,03/04/2024
,"<div style=""font-size: 10rem; color: #0000FF"">Q</div>",,ospan,letter,TbIMwrpw7bNysnMcLuqO8QwPLk12,html-keyboard-response,149,1524759,0.0-46.0-5.0-0.0-1.0-5.0,,,,,,,,,,,,,,,5f3d455fc5a9c209cb8b94b4,17:36:57,03/04/2024
2593.0,,,ospan,symmetry,TbIMwrpw7bNysnMcLuqO8QwPLk12,symmetry-judgement-task,150,1529239,0.0-46.0-5.0-0.0-1.0-6.0,,,,,,,,,,1.0,1.0,,,,5f3d455fc5a9c209cb8b94b4,17:36:57,03/04/2024
,"<div style=""font-size: 10rem; color: #0000FF"">L</div>",,ospan,letter,TbIMwrpw7bNysnMcLuqO8QwPLk12,html-keyboard-response,151,1530255,0.0-46.0-5.0-0.0-1.0-7.0,,,,,,,,,,,,,,,5f3d455fc5a9c209cb8b94b4,17:36:57,03/04/2024
1385.0,,,ospan,symmetry,TbIMwrpw7bNysnMcLuqO8QwPLk12,symmetry-judgement-task,152,1533539,0.0-46.0-5.0-0.0-1.0-8.0,,,,,,,,,,1.0,1.0,,,,5f3d455fc5a9c209cb8b94b4,17:36:57,03/04/2024
,"<div style=""font-size: 10rem; color: #0000FF"">R</div>",,ospan,letter,TbIMwrpw7bNysnMcLuqO8QwPLk12,html-keyboard-response,153,1534551,0.0-46.0-5.0-0.0-1.0-9.0,,,,,,,,,,,,,,,5f3d455fc5a9c209cb8b94b4,17:36:57,03/04/2024
1815.0,,,ospan,symmetry,TbIMwrpw7bNysnMcLuqO8QwPLk12,symmetry-judgement-task,154,1538251,0.0-46.0-5.0-0.0-1.0-10.0,,,,,,,,,,1.0,1.0,,,,5f3d455fc5a9c209cb8b94b4,17:36:57,03/04/2024
,"<div style=""font-size: 10rem; color: #0000FF"">J</div>",,ospan,letter,TbIMwrpw7bNysnMcLuqO8QwPLk12,html-keyboard-response,155,1539253,0.0-46.0-5.0-0.0-1.0-11.0,,,,,,,,,,,,,,,5f3d455fc5a9c209cb8b94b4,17:36:57,03/04/2024
6396.0,"<div class = numbox><p style=""font-size: 2.4rem"">Please recall the letters you saw to the best of your ability. If you do not remember a particular letter, use the SKIP button.<br><b>(When you are ready to lock in your answer, press ENTER)</b></p><button id = button_1 class = ""square num-button"" onclick = ""recordClick(this)""><div class = content><div class = numbers>C</div></div></button><button id = button_2 class = ""square num-button"" onclick = ""recordClick(this)""><div class = content><div class = numbers>G</div></div></button><button id = button_3 class = ""square num-button"" onclick = ""recordClick(this)""><div class = content><div class = numbers>H</div></div></button><button id = button_4 class = ""square num-button"" onclick = ""recordClick(this)""><div class = content><div class = numbers>J</div></div></button><button id = button_5 class = ""square num-button"" onclick = ""recordClick(this)""><div class = content><div class = numbers>K</div></div></button><button id = button_6 class = ""square num-button"" onclick = ""recordClick(this)""><div class = content><div class = numbers>L</div></div></button><button id = button_7 class = ""square num-button"" onclick = ""recordClick(this)""><div class = content><div class = numbers>N</div></div></button><button id = button_8 class = ""square num-button"" onclick = ""recordClick(this)""><div class = content><div class = numbers>P</div></div></button><button id = button_9 class = ""square num-button"" onclick = ""recordClick(this)""><div class = content><div class = numbers>Q</div></div></button><button id = button_10 class = ""square num-button"" onclick = ""recordClick(this)""><div class = content><div class = numbers>R</div></div></button><button id = button_11 class = ""square num-button"" onclick = ""recordClick(this)""><div class = content><div class = numbers>S</div></div></button><button id = button_12 class = ""square num-button"" onclick = ""recordClick(this)""><div class = content><div class = numbers>Y</div></div></button><button class = clear_button id = ""ClearButton"" onclick = ""clearResponse()"">BACKSPACE</button><button class = blank_button id = ""BlankButton"" onclick = ""blankResponse()"">SKIP</button><p style=""font-size: 2.4rem""><u><b>Current Answer:</b></u></p><br><br><div id=echoed_txt style=""font-size: 5rem; color:blue;""><b></b></div></div>",enter,ospan,retrieval,TbIMwrpw7bNysnMcLuqO8QwPLk12,html-keyboard-response,156,1546415,0.0-46.0-5.0-0.0-2.0,21,21,21,6.0,"[""S"",""K"",""Q"",""L"",""R"",""J""]","[""S"",""K"",""Q"",""L"",""R"",""J""]",1.0,6.0,,,,,,,5f3d455fc5a9c209cb8b94b4,17:36:57,03/04/2024
1863.0,[''],0,ospan,feedback,TbIMwrpw7bNysnMcLuqO8QwPLk12,html-button-response,157,1548795,0.0-46.0-5.0-0.0-3.0,,,,,,,,,,,,100.0,0.0,,5f3d455fc5a9c209cb8b94b4,17:36:57,03/04/2024
,"<p style=""font-size:75px;"">...</p>",,ospan,iti,TbIMwrpw7bNysnMcLuqO8QwPLk12,html-keyboard-response,158,1549809,0.0-46.0-5.0-1.0-0.0,,,,,,,,,,,,,,,5f3d455fc5a9c209cb8b94b4,17:36:57,03/04/2024
2973.0,,,ospan,symmetry,TbIMwrpw7bNysnMcLuqO8QwPLk12,symmetry-judgement-task,159,1553909,0.0-46.0-5.0-1.0-1.0-0.0,,,,,,,,,,1.0,1.0,,,,5f3d455fc5a9c209cb8b94b4,17:36:57,03/04/2024
,"<div style=""font-size: 10rem; color: #0000FF"">L</div>",,ospan,letter,TbIMwrpw7bNysnMcLuqO8QwPLk12,html-keyboard-response,160,1554912,0.0-46.0-5.0-1.0-1.0-1.0,,,,,,,,,,,,,,,5f3d455fc5a9c209cb8b94b4,17:36:57,03/04/2024
996.0,,,ospan,symmetry,TbIMwrpw7bNysnMcLuqO8QwPLk12,symmetry-judgement-task,161,1557809,0.0-46.0-5.0-1.0-1.0-2.0,,,,,,,,,,1.0,1.0,,,,5f3d455fc5a9c209cb8b94b4,17:36:57,03/04/2024
,"<div style=""font-size: 10rem; color: #0000FF"">R</div>",,ospan,letter,TbIMwrpw7bNysnMcLuqO8QwPLk12,html-keyboard-response,162,1558818,0.0-46.0-5.0-1.0-1.0-3.0,,,,,,,,,,,,,,,5f3d455fc5a9c209cb8b94b4,17:36:57,03/04/2024
1043.0,,,ospan,symmetry,TbIMwrpw7bNysnMcLuqO8QwPLk12,symmetry-judgement-task,163,1561742,0.0-46.0-5.0-1.0-1.0-4.0,,,,,,,,,,1.0,1.0,,,,5f3d455fc5a9c209cb8b94b4,17:36:57,03/04/2024
,"<div style=""font-size: 10rem; color: #0000FF"">Q</div>",,ospan,letter,TbIMwrpw7bNysnMcLuqO8QwPLk12,html-keyboard-response,164,1562754,0.0-46.0-5.0-1.0-1.0-5.0,,,,,,,,,,,,,,,5f3d455fc5a9c209cb8b94b4,17:36:57,03/04/2024
978.0,,,ospan,symmetry,TbIMwrpw7bNysnMcLuqO8QwPLk12,symmetry-judgement-task,165,1565632,0.0-46.0-5.0-1.0-1.0-6.0,,,,,,,,,,1.0,1.0,,,,5f3d455fc5a9c209cb8b94b4,17:36:57,03/04/2024
,"<div style=""font-size: 10rem; color: #0000FF"">N</div>",,ospan,letter,TbIMwrpw7bNysnMcLuqO8QwPLk12,html-keyboard-response,166,1566645,0.0-46.0-5.0-1.0-1.0-7.0,,,,,,,,,,,,,,,5f3d455fc5a9c209cb8b94b4,17:36:57,03/04/2024
1102.0,,,ospan,symmetry,TbIMwrpw7bNysnMcLuqO8QwPLk12,symmetry-judgement-task,167,1569631,0.0-46.0-5.0-1.0-1.0-8.0,,,,,,,,,,1.0,1.0,,,,5f3d455fc5a9c209cb8b94b4,17:36:57,03/04/2024
,"<div style=""font-size: 10rem; color: #0000FF"">Y</div>",,ospan,letter,TbIMwrpw7bNysnMcLuqO8QwPLk12,html-keyboard-response,168,1570644,0.0-46.0-5.0-1.0-1.0-9.0,,,,,,,,,,,,,,,5f3d455fc5a9c209cb8b94b4,17:36:57,03/04/2024
873.0,,,ospan,symmetry,TbIMwrpw7bNysnMcLuqO8QwPLk12,symmetry-judgement-task,169,1573415,0.0-46.0-5.0-1.0-1.0-10.0,,,,,,,,,,1.0,1.0,,,,5f3d455fc5a9c209cb8b94b4,17:36:57,03/04/2024
,"<div style=""font-size: 10rem; color: #0000FF"">H</div>",,ospan,letter,TbIMwrpw7bNysnMcLuqO8QwPLk12,html-keyboard-response,170,1574420,0.0-46.0-5.0-1.0-1.0-11.0,,,,,,,,,,,,,,,5f3d455fc5a9c209cb8b94b4,17:36:57,03/04/2024
1483.0,,,ospan,symmetry,TbIMwrpw7bNysnMcLuqO8QwPLk12,symmetry-judgement-task,171,1577800,0.0-46.0-5.0-1.0-1.0-12.0,,,,,,,,,,1.0,1.0,,,,5f3d455fc5a9c209cb8b94b4,17:36:57,03/04/2024
,"<div style=""font-size: 10rem; color: #0000FF"">K</div>",,ospan,letter,TbIMwrpw7bNysnMcLuqO8QwPLk12,html-keyboard-response,172,1578810,0.0-46.0-5.0-1.0-1.0-13.0,,,,,,,,,,,,,,,5f3d455fc5a9c209cb8b94b4,17:36:57,03/04/2024
8506.800000011921,"<div class = numbox><p style=""font-size: 2.4rem"">Please recall the letters you saw to the best of your ability. If you do not remember a particular letter, use the SKIP button.<br><b>(When you are ready to lock in your answer, press ENTER)</b></p><button id = button_1 class = ""square num-button"" onclick = ""recordClick(this)""><div class = content><div class = numbers>C</div></div></button><button id = button_2 class = ""square num-button"" onclick = ""recordClick(this)""><div class = content><div class = numbers>G</div></div></button><button id = button_3 class = ""square num-button"" onclick = ""recordClick(this)""><div class = content><div class = numbers>H</div></div></button><button id = button_4 class = ""square num-button"" onclick = ""recordClick(this)""><div class = content><div class = numbers>J</div></div></button><button id = button_5 class = ""square num-button"" onclick = ""recordClick(this)""><div class = content><div class = numbers>K</div></div></button><button id = button_6 class = ""square num-button"" onclick = ""recordClick(this)""><div class = content><div class = numbers>L</div></div></button><button id = button_7 class = ""square num-button"" onclick = ""recordClick(this)""><div class = content><div class = numbers>N</div></div></button><button id = button_8 class = ""square num-button"" onclick = ""recordClick(this)""><div class = content><div class = numbers>P</div></div></button><button id = button_9 class = ""square num-button"" onclick = ""recordClick(this)""><div class = content><div class = numbers>Q</div></div></button><button id = button_10 class = ""square num-button"" onclick = ""recordClick(this)""><div class = content><div class = numbers>R</div></div></button><button id = button_11 class = ""square num-button"" onclick = ""recordClick(this)""><div class = content><div class = numbers>S</div></div></button><button id = button_12 class = ""square num-button"" onclick = ""recordClick(this)""><div class = content><div class = numbers>Y</div></div></button><button class = clear_button id = ""ClearButton"" onclick = ""clearResponse()"">BACKSPACE</button><button class = blank_button id = ""BlankButton"" onclick = ""blankResponse()"">SKIP</button><p style=""font-size: 2.4rem""><u><b>Current Answer:</b></u></p><br><br><div id=echoed_txt style=""font-size: 5rem; color:blue;""><b></b></div></div>",enter,ospan,retrieval,TbIMwrpw7bNysnMcLuqO8QwPLk12,html-keyboard-response,173,1588083,0.0-46.0-5.0-1.0-2.0,28,28,28,7.0,"[""L"",""R"",""Q"",""N"",""Y"",""H"",""K""]","[""L"",""R"",""Q"",""N"",""Y"",""H"",""K""]",1.0,7.0,,,,,,,5f3d455fc5a9c209cb8b94b4,17:36:57,03/04/2024
2721.2000000178814,[''],0,ospan,feedback,TbIMwrpw7bNysnMcLuqO8QwPLk12,html-button-response,174,1591310,0.0-46.0-5.0-1.0-3.0,,,,,,,,,,,,100.0,0.0,,5f3d455fc5a9c209cb8b94b4,17:36:57,03/04/2024
,"<p style=""font-size:75px;"">...</p>",,ospan,iti,TbIMwrpw7bNysnMcLuqO8QwPLk12,html-keyboard-response,175,1592312,0.0-46.0-6.0-0.0-0.0,,,,,,,,,,,,,,,5f3d455fc5a9c209cb8b94b4,17:36:57,03/04/2024
1599.0,,,ospan,symmetry,TbIMwrpw7bNysnMcLuqO8QwPLk12,symmetry-judgement-task,176,1595051,0.0-46.0-6.0-0.0-1.0-0.0,,,,,,,,,,1.0,1.0,,,,5f3d455fc5a9c209cb8b94b4,17:36:57,03/04/2024
,"<div style=""font-size: 10rem; color: #0000FF"">Q</div>",,ospan,letter,TbIMwrpw7bNysnMcLuqO8QwPLk12,html-keyboard-response,177,1596063,0.0-46.0-6.0-0.0-1.0-1.0,,,,,,,,,,,,,,,5f3d455fc5a9c209cb8b94b4,17:36:57,03/04/2024
1599.0,,,ospan,symmetry,TbIMwrpw7bNysnMcLuqO8QwPLk12,symmetry-judgement-task,178,1599555,0.0-46.0-6.0-0.0-1.0-2.0,,,,,,,,,,1.0,1.0,,,,5f3d455fc5a9c209cb8b94b4,17:36:57,03/04/2024
,"<div style=""font-size: 10rem; color: #0000FF"">K</div>",,ospan,letter,TbIMwrpw7bNysnMcLuqO8QwPLk12,html-keyboard-response,179,1600569,0.0-46.0-6.0-0.0-1.0-3.0,,,,,,,,,,,,,,,5f3d455fc5a9c209cb8b94b4,17:36:57,03/04/2024
3137.0,,,ospan,symmetry,TbIMwrpw7bNysnMcLuqO8QwPLk12,symmetry-judgement-task,180,1605588,0.0-46.0-6.0-0.0-1.0-4.0,,,,,,,,,,1.0,1.0,,,,5f3d455fc5a9c209cb8b94b4,17:36:57,03/04/2024
,"<div style=""font-size: 10rem; color: #0000FF"">J</div>",,ospan,letter,TbIMwrpw7bNysnMcLuqO8QwPLk12,html-keyboard-response,181,1606602,0.0-46.0-6.0-0.0-1.0-5.0,,,,,,,,,,,,,,,5f3d455fc5a9c209cb8b94b4,17:36:57,03/04/2024
1360.0,,,ospan,symmetry,TbIMwrpw7bNysnMcLuqO8QwPLk12,symmetry-judgement-task,182,1609852,0.0-46.0-6.0-0.0-1.0-6.0,,,,,,,,,,1.0,1.0,,,,5f3d455fc5a9c209cb8b94b4,17:36:57,03/04/2024
,"<div style=""font-size: 10rem; color: #0000FF"">R</div>",,ospan,letter,TbIMwrpw7bNysnMcLuqO8QwPLk12,html-keyboard-response,183,1610862,0.0-46.0-6.0-0.0-1.0-7.0,,,,,,,,,,,,,,,5f3d455fc5a9c209cb8b94b4,17:36:57,03/04/2024
1812.0,,,ospan,symmetry,TbIMwrpw7bNysnMcLuqO8QwPLk12,symmetry-judgement-task,184,1614566,0.0-46.0-6.0-0.0-1.0-8.0,,,,,,,,,,1.0,1.0,,,,5f3d455fc5a9c209cb8b94b4,17:36:57,03/04/2024
,"<div style=""font-size: 10rem; color: #0000FF"">G</div>",,ospan,letter,TbIMwrpw7bNysnMcLuqO8QwPLk12,html-keyboard-response,185,1615577,0.0-46.0-6.0-0.0-1.0-9.0,,,,,,,,,,,,,,,5f3d455fc5a9c209cb8b94b4,17:36:57,03/04/2024
5714.300000011921,"<div class = numbox><p style=""font-size: 2.4rem"">Please recall the letters you saw to the best of your ability. If you do not remember a particular letter, use the SKIP button.<br><b>(When you are ready to lock in your answer, press ENTER)</b></p><button id = button_1 class = ""square num-button"" onclick = ""recordClick(this)""><div class = content><div class = numbers>C</div></div></button><button id = button_2 class = ""square num-button"" onclick = ""recordClick(this)""><div class = content><div class = numbers>G</div></div></button><button id = button_3 class = ""square num-button"" onclick = ""recordClick(this)""><div class = content><div class = numbers>H</div></div></button><button id = button_4 class = ""square num-button"" onclick = ""recordClick(this)""><div class = content><div class = numbers>J</div></div></button><button id = button_5 class = ""square num-button"" onclick = ""recordClick(this)""><div class = content><div class = numbers>K</div></div></button><button id = button_6 class = ""square num-button"" onclick = ""recordClick(this)""><div class = content><div class = numbers>L</div></div></button><button id = button_7 class = ""square num-button"" onclick = ""recordClick(this)""><div class = content><div class = numbers>N</div></div></button><button id = button_8 class = ""square num-button"" onclick = ""recordClick(this)""><div class = content><div class = numbers>P</div></div></button><button id = button_9 class = ""square num-button"" onclick = ""recordClick(this)""><div class = content><div class = numbers>Q</div></div></button><button id = button_10 class = ""square num-button"" onclick = ""recordClick(this)""><div class = content><div class = numbers>R</div></div></button><button id = button_11 class = ""square num-button"" onclick = ""recordClick(this)""><div class = content><div class = numbers>S</div></div></button><button id = button_12 class = ""square num-button"" onclick = ""recordClick(this)""><div class = content><div class = numbers>Y</div></div></button><button class = clear_button id = ""ClearButton"" onclick = ""clearResponse()"">BACKSPACE</button><button class = blank_button id = ""BlankButton"" onclick = ""blankResponse()"">SKIP</button><p style=""font-size: 2.4rem""><u><b>Current Answer:</b></u></p><br><br><div id=echoed_txt style=""font-size: 5rem; color:blue;""><b></b></div></div>",enter,ospan,retrieval,TbIMwrpw7bNysnMcLuqO8QwPLk12,html-keyboard-response,186,1622052,0.0-46.0-6.0-0.0-2.0,33,33,33,5.0,"[""Q"",""K"",""J"",""R"",""G""]","[""Q"",""K"",""J"",""R"",""G""]",1.0,5.0,,,,,,,5f3d455fc5a9c209cb8b94b4,17:36:57,03/04/2024
840.5999999940395,[''],0,ospan,feedback,TbIMwrpw7bNysnMcLuqO8QwPLk12,html-button-response,187,1623400,0.0-46.0-6.0-0.0-3.0,,,,,,,,,,,,100.0,0.0,,5f3d455fc5a9c209cb8b94b4,17:36:57,03/04/2024
,"<p style=""font-size:75px;"">...</p>",,ospan,iti,TbIMwrpw7bNysnMcLuqO8QwPLk12,html-keyboard-response,188,1624415,0.0-46.0-6.0-1.0-0.0,,,,,,,,,,,,,,,5f3d455fc5a9c209cb8b94b4,17:36:57,03/04/2024
1540.0,,,ospan,symmetry,TbIMwrpw7bNysnMcLuqO8QwPLk12,symmetry-judgement-task,189,1627084,0.0-46.0-6.0-1.0-1.0-0.0,,,,,,,,,,1.0,1.0,,,,5f3d455fc5a9c209cb8b94b4,17:36:57,03/04/2024
,"<div style=""font-size: 10rem; color: #0000FF"">S</div>",,ospan,letter,TbIMwrpw7bNysnMcLuqO8QwPLk12,html-keyboard-response,190,1628088,0.0-46.0-6.0-1.0-1.0-1.0,,,,,,,,,,,,,,,5f3d455fc5a9c209cb8b94b4,17:36:57,03/04/2024
965.0,,,ospan,symmetry,TbIMwrpw7bNysnMcLuqO8QwPLk12,symmetry-judgement-task,191,1630960,0.0-46.0-6.0-1.0-1.0-2.0,,,,,,,,,,1.0,1.0,,,,5f3d455fc5a9c209cb8b94b4,17:36:57,03/04/2024
,"<div style=""font-size: 10rem; color: #0000FF"">P</div>",,ospan,letter,TbIMwrpw7bNysnMcLuqO8QwPLk12,html-keyboard-response,192,1631973,0.0-46.0-6.0-1.0-1.0-3.0,,,,,,,,,,,,,,,5f3d455fc5a9c209cb8b94b4,17:36:57,03/04/2024
915.0,,,ospan,symmetry,TbIMwrpw7bNysnMcLuqO8QwPLk12,symmetry-judgement-task,193,1634764,0.0-46.0-6.0-1.0-1.0-4.0,,,,,,,,,,1.0,1.0,,,,5f3d455fc5a9c209cb8b94b4,17:36:57,03/04/2024
,"<div style=""font-size: 10rem; color: #0000FF"">L</div>",,ospan,letter,TbIMwrpw7bNysnMcLuqO8QwPLk12,html-keyboard-response,194,1635781,0.0-46.0-6.0-1.0-1.0-5.0,,,,,,,,,,,,,,,5f3d455fc5a9c209cb8b94b4,17:36:57,03/04/2024
1610.0,,,ospan,symmetry,TbIMwrpw7bNysnMcLuqO8QwPLk12,symmetry-judgement-task,195,1639274,0.0-46.0-6.0-1.0-1.0-6.0,,,,,,,,,,1.0,1.0,,,,5f3d455fc5a9c209cb8b94b4,17:36:57,03/04/2024
,"<div style=""font-size: 10rem; color: #0000FF"">J</div>",,ospan,letter,TbIMwrpw7bNysnMcLuqO8QwPLk12,html-keyboard-response,196,1640276,0.0-46.0-6.0-1.0-1.0-7.0,,,,,,,,,,,,,,,5f3d455fc5a9c209cb8b94b4,17:36:57,03/04/2024
884.0,,,ospan,symmetry,TbIMwrpw7bNysnMcLuqO8QwPLk12,symmetry-judgement-task,197,1643054,0.0-46.0-6.0-1.0-1.0-8.0,,,,,,,,,,1.0,1.0,,,,5f3d455fc5a9c209cb8b94b4,17:36:57,03/04/2024
,"<div style=""font-size: 10rem; color: #0000FF"">C</div>",,ospan,letter,TbIMwrpw7bNysnMcLuqO8QwPLk12,html-keyboard-response,198,1644069,0.0-46.0-6.0-1.0-1.0-9.0,,,,,,,,,,,,,,,5f3d455fc5a9c209cb8b94b4,17:36:57,03/04/2024
979.0,,,ospan,symmetry,TbIMwrpw7bNysnMcLuqO8QwPLk12,symmetry-judgement-task,199,1646939,0.0-46.0-6.0-1.0-1.0-10.0,,,,,,,,,,1.0,1.0,,,,5f3d455fc5a9c209cb8b94b4,17:36:57,03/04/2024
,"<div style=""font-size: 10rem; color: #0000FF"">G</div>",,ospan,letter,TbIMwrpw7bNysnMcLuqO8QwPLk12,html-keyboard-response,200,1647940,0.0-46.0-6.0-1.0-1.0-11.0,,,,,,,,,,,,,,,5f3d455fc5a9c209cb8b94b4,17:36:57,03/04/2024
1464.0,,,ospan,symmetry,TbIMwrpw7bNysnMcLuqO8QwPLk12,symmetry-judgement-task,201,1651305,0.0-46.0-6.0-1.0-1.0-12.0,,,,,,,,,,1.0,1.0,,,,5f3d455fc5a9c209cb8b94b4,17:36:57,03/04/2024
,"<div style=""font-size: 10rem; color: #0000FF"">Y</div>",,ospan,letter,TbIMwrpw7bNysnMcLuqO8QwPLk12,html-keyboard-response,202,1652316,0.0-46.0-6.0-1.0-1.0-13.0,,,,,,,,,,,,,,,5f3d455fc5a9c209cb8b94b4,17:36:57,03/04/2024
906.0,,,ospan,symmetry,TbIMwrpw7bNysnMcLuqO8QwPLk12,symmetry-judgement-task,203,1655122,0.0-46.0-6.0-1.0-1.0-14.0,,,,,,,,,,1.0,1.0,,,,5f3d455fc5a9c209cb8b94b4,17:36:57,03/04/2024
,"<div style=""font-size: 10rem; color: #0000FF"">H</div>",,ospan,letter,TbIMwrpw7bNysnMcLuqO8QwPLk12,html-keyboard-response,204,1656132,0.0-46.0-6.0-1.0-1.0-15.0,,,,,,,,,,,,,,,5f3d455fc5a9c209cb8b94b4,17:36:57,03/04/2024
9362.899999976158,"<div class = numbox><p style=""font-size: 2.4rem"">Please recall the letters you saw to the best of your ability. If you do not remember a particular letter, use the SKIP button.<br><b>(When you are ready to lock in your answer, press ENTER)</b></p><button id = button_1 class = ""square num-button"" onclick = ""recordClick(this)""><div class = content><div class = numbers>C</div></div></button><button id = button_2 class = ""square num-button"" onclick = ""recordClick(this)""><div class = content><div class = numbers>G</div></div></button><button id = button_3 class = ""square num-button"" onclick = ""recordClick(this)""><div class = content><div class = numbers>H</div></div></button><button id = button_4 class = ""square num-button"" onclick = ""recordClick(this)""><div class = content><div class = numbers>J</div></div></button><button id = button_5 class = ""square num-button"" onclick = ""recordClick(this)""><div class = content><div class = numbers>K</div></div></button><button id = button_6 class = ""square num-button"" onclick = ""recordClick(this)""><div class = content><div class = numbers>L</div></div></button><button id = button_7 class = ""square num-button"" onclick = ""recordClick(this)""><div class = content><div class = numbers>N</div></div></button><button id = button_8 class = ""square num-button"" onclick = ""recordClick(this)""><div class = content><div class = numbers>P</div></div></button><button id = button_9 class = ""square num-button"" onclick = ""recordClick(this)""><div class = content><div class = numbers>Q</div></div></button><button id = button_10 class = ""square num-button"" onclick = ""recordClick(this)""><div class = content><div class = numbers>R</div></div></button><button id = button_11 class = ""square num-button"" onclick = ""recordClick(this)""><div class = content><div class = numbers>S</div></div></button><button id = button_12 class = ""square num-button"" onclick = ""recordClick(this)""><div class = content><div class = numbers>Y</div></div></button><button class = clear_button id = ""ClearButton"" onclick = ""clearResponse()"">BACKSPACE</button><button class = blank_button id = ""BlankButton"" onclick = ""blankResponse()"">SKIP</button><p style=""font-size: 2.4rem""><u><b>Current Answer:</b></u></p><br><br><div id=echoed_txt style=""font-size: 5rem; color:blue;""><b></b></div></div>",enter,ospan,retrieval,TbIMwrpw7bNysnMcLuqO8QwPLk12,html-keyboard-response,205,1666260,0.0-46.0-6.0-1.0-2.0,41,41,41,8.0,"[""S"",""P"",""L"",""J"",""C"",""G"",""Y"",""H""]","[""S"",""P"",""L"",""J"",""C"",""G"",""Y"",""H""]",1.0,8.0,,,,,,,5f3d455fc5a9c209cb8b94b4,17:36:57,03/04/2024
1064.0,[''],0,ospan,feedback,TbIMwrpw7bNysnMcLuqO8QwPLk12,html-button-response,206,1667838,0.0-46.0-6.0-1.0-3.0,,,,,,,,,,,,100.0,0.0,,5f3d455fc5a9c209cb8b94b4,17:36:57,03/04/2024
4527.300000011921,,{'Q0': 'no comment'},ospan,survey_ospan,TbIMwrpw7bNysnMcLuqO8QwPLk12,lmdlab-survey-text,207,1673129,0.0-46.0-7.0,,,,,,,,,,,,,,TbIMwrpw7bNysnMcLuqO8QwPLk12,5f3d455fc5a9c209cb8b94b4,17:36:57,03/04/2024
1054.199999988079,<p><p style='font-size: 3rem'>Great work!<br><br>This completes the symmetry and memory task.</p><br><br><br>,0,ospan,finish,TbIMwrpw7bNysnMcLuqO8QwPLk12,html-button-response,208,1674186,0.0-46.0-8.0,41,41,41,,,,,,,,,100.0,,,5f3d455fc5a9c209cb8b94b4,17:36:57,03/04/2024
