rt,stimulus,response,exp_name,exp_stage,subjectID,trial_type,trial_index,time_elapsed,internal_node_id,ospan_shown,ospan_total,ospan_abs,length,resp_actual,resp_correct,full_correct,num_correct,feedback,accuracy,correct,math_acc,math_warning,databaseID,prolificID,start_time,date
6553.199999988079,<div class = 'left_align' style='font-size: 3.25rem; line-height: 1.3;'><p class = 'center_align'><b>Welcome to the Symmetry and Memory Task</b><br><br><br><br></p>Press 'continue' to show the instructions.<br><br><br><br></div>,0,ospan,instruct,pdeEguvTJGdPkarE86VSu1Pqzkw1,html-button-response,51,987035,0.0-43.0-0.0-0.0-0.0,,,,,,,,,,,,,,,62c5d0cfdf443d24e054d302,17:09:13,06/03/2024
12363.199999988079,"<div class = 'left_align' style='font-size: 3.25rem; line-height: 1.3;'><p class = 'center_align'><b>Symmetry and Memory Task</b><br><br></p>In this task, you will try to memorize letters you see on the screen<br>while you also view black and white grid pictures.<br><br>In the next few minutes, you will have some practice to get you familiar<br>with how the task works.<br><br>It may be difficult sometimes, but please do not worry about making mistakes!<br><br>We will begin by practicing the letter part of the task.<br><br><br><br></div>",0,ospan,instruct,pdeEguvTJGdPkarE86VSu1Pqzkw1,html-button-response,52,999660,0.0-43.0-0.0-0.0-1.0,,,,,,,,,,,,,,,62c5d0cfdf443d24e054d302,17:09:13,06/03/2024
5970.600000023842,"<div class = 'left_align' style='font-size: 3.25rem; line-height: 1.3;'>For this practice part, letters will appear on the screen one at a time.<br><br>Try to remember each letter in the order presented.<br><br>After some letters have been shown, you will see a response screen. Your<br>goal is to report the letters you saw <b>in order</b>. If you do not remember<br>a particular letter, you will have the option to leave it blank.<br><br><br><br></div>",0,ospan,instruct,pdeEguvTJGdPkarE86VSu1Pqzkw1,html-button-response,53,1005894,0.0-43.0-0.0-0.0-2.0,,,,,,,,,,,,,,,62c5d0cfdf443d24e054d302,17:09:13,06/03/2024
3932.399999976158,"<div class = 'left_align' style='font-size: 3.25rem; line-height: 1.3;'>Remember, it is very important to get the letters in the same<br>order as you see them.<br><br>When you are ready, you may begin the letter practice.</div><br><br><br><br>",0,ospan,instruct,pdeEguvTJGdPkarE86VSu1Pqzkw1,html-button-response,54,1010086,0.0-43.0-0.0-0.0-3.0,,,,,,,,,,,,,,,62c5d0cfdf443d24e054d302,17:09:13,06/03/2024
,"<p style=""font-size:75px;"">...</p>",,ospan,iti,pdeEguvTJGdPkarE86VSu1Pqzkw1,html-keyboard-response,55,1011350,0.0-43.0-0.0-1.0-0.0,,,,,,,,,,,,,,,62c5d0cfdf443d24e054d302,17:09:13,06/03/2024
,"<div style=""font-size: 10rem; color: #0000FF"">S</div>",,ospan,letter,pdeEguvTJGdPkarE86VSu1Pqzkw1,html-keyboard-response,56,1012364,0.0-43.0-0.0-1.0-1.0,,,,,,,,,,,,,,,62c5d0cfdf443d24e054d302,17:09:13,06/03/2024
,"<div style=""font-size: 10rem; color: #0000FF"">R</div>",,ospan,letter,pdeEguvTJGdPkarE86VSu1Pqzkw1,html-keyboard-response,57,1014127,0.0-43.0-0.0-1.0-2.0,,,,,,,,,,,,,,,62c5d0cfdf443d24e054d302,17:09:13,06/03/2024
7776.899999976158,"<div class = numbox><p style=""font-size: 2.4rem"">Please recall the letters you saw to the best of your ability. If you do not remember a particular letter, use the SKIP button.<br><b>(When you are ready to lock in your answer, press ENTER)</b></p><button id = button_1 class = ""square num-button"" onclick = ""recordClick(this)""><div class = content><div class = numbers>C</div></div></button><button id = button_2 class = ""square num-button"" onclick = ""recordClick(this)""><div class = content><div class = numbers>G</div></div></button><button id = button_3 class = ""square num-button"" onclick = ""recordClick(this)""><div class = content><div class = numbers>H</div></div></button><button id = button_4 class = ""square num-button"" onclick = ""recordClick(this)""><div class = content><div class = numbers>J</div></div></button><button id = button_5 class = ""square num-button"" onclick = ""recordClick(this)""><div class = content><div class = numbers>K</div></div></button><button id = button_6 class = ""square num-button"" onclick = ""recordClick(this)""><div class = content><div class = numbers>L</div></div></button><button id = button_7 class = ""square num-button"" onclick = ""recordClick(this)""><div class = content><div class = numbers>N</div></div></button><button id = button_8 class = ""square num-button"" onclick = ""recordClick(this)""><div class = content><div class = numbers>P</div></div></button><button id = button_9 class = ""square num-button"" onclick = ""recordClick(this)""><div class = content><div class = numbers>Q</div></div></button><button id = button_10 class = ""square num-button"" onclick = ""recordClick(this)""><div class = content><div class = numbers>R</div></div></button><button id = button_11 class = ""square num-button"" onclick = ""recordClick(this)""><div class = content><div class = numbers>S</div></div></button><button id = button_12 class = ""square num-button"" onclick = ""recordClick(this)""><div class = content><div class = numbers>Y</div></div></button><button class = clear_button id = ""ClearButton"" onclick = ""clearResponse()"">BACKSPACE</button><button class = blank_button id = ""BlankButton"" onclick = ""blankResponse()"">SKIP</button><p style=""font-size: 2.4rem""><u><b>Current Answer:</b></u></p><br><br><div id=echoed_txt style=""font-size: 5rem; color:blue;""><b></b></div></div>",enter,ospan,retrieval,pdeEguvTJGdPkarE86VSu1Pqzkw1,html-keyboard-response,58,1022668,0.0-43.0-0.0-1.0-3.0,NA,NA,NA,2.0,"[""S"",""R""]","[""S"",""R""]",1.0,2.0,"['<font color=""green"">S</font>', '<font color=""green"">R</font>']",,,,,,62c5d0cfdf443d24e054d302,17:09:13,06/03/2024
1393.4000000357628,"['<p style=""font-size:44px"">Letters:<br><br><br><font color=""green"">S</font> <font color=""green"">R</font></p><br><br>']",0,ospan,practice_feedback,pdeEguvTJGdPkarE86VSu1Pqzkw1,html-button-response,59,1024577,0.0-43.0-0.0-1.0-4.0,,,,,,,,,,,,,,,62c5d0cfdf443d24e054d302,17:09:13,06/03/2024
,"<p style=""font-size:75px;"">...</p>",,ospan,iti,pdeEguvTJGdPkarE86VSu1Pqzkw1,html-keyboard-response,60,1025588,0.0-43.0-0.0-2.0-0.0,,,,,,,,,,,,,,,62c5d0cfdf443d24e054d302,17:09:13,06/03/2024
,"<div style=""font-size: 10rem; color: #0000FF"">N</div>",,ospan,letter,pdeEguvTJGdPkarE86VSu1Pqzkw1,html-keyboard-response,61,1026603,0.0-43.0-0.0-2.0-1.0,,,,,,,,,,,,,,,62c5d0cfdf443d24e054d302,17:09:13,06/03/2024
,"<div style=""font-size: 10rem; color: #0000FF"">J</div>",,ospan,letter,pdeEguvTJGdPkarE86VSu1Pqzkw1,html-keyboard-response,62,1028379,0.0-43.0-0.0-2.0-2.0,,,,,,,,,,,,,,,62c5d0cfdf443d24e054d302,17:09:13,06/03/2024
,"<div style=""font-size: 10rem; color: #0000FF"">Q</div>",,ospan,letter,pdeEguvTJGdPkarE86VSu1Pqzkw1,html-keyboard-response,63,1030155,0.0-43.0-0.0-2.0-3.0,,,,,,,,,,,,,,,62c5d0cfdf443d24e054d302,17:09:13,06/03/2024
7325.100000023842,"<div class = numbox><p style=""font-size: 2.4rem"">Please recall the letters you saw to the best of your ability. If you do not remember a particular letter, use the SKIP button.<br><b>(When you are ready to lock in your answer, press ENTER)</b></p><button id = button_1 class = ""square num-button"" onclick = ""recordClick(this)""><div class = content><div class = numbers>C</div></div></button><button id = button_2 class = ""square num-button"" onclick = ""recordClick(this)""><div class = content><div class = numbers>G</div></div></button><button id = button_3 class = ""square num-button"" onclick = ""recordClick(this)""><div class = content><div class = numbers>H</div></div></button><button id = button_4 class = ""square num-button"" onclick = ""recordClick(this)""><div class = content><div class = numbers>J</div></div></button><button id = button_5 class = ""square num-button"" onclick = ""recordClick(this)""><div class = content><div class = numbers>K</div></div></button><button id = button_6 class = ""square num-button"" onclick = ""recordClick(this)""><div class = content><div class = numbers>L</div></div></button><button id = button_7 class = ""square num-button"" onclick = ""recordClick(this)""><div class = content><div class = numbers>N</div></div></button><button id = button_8 class = ""square num-button"" onclick = ""recordClick(this)""><div class = content><div class = numbers>P</div></div></button><button id = button_9 class = ""square num-button"" onclick = ""recordClick(this)""><div class = content><div class = numbers>Q</div></div></button><button id = button_10 class = ""square num-button"" onclick = ""recordClick(this)""><div class = content><div class = numbers>R</div></div></button><button id = button_11 class = ""square num-button"" onclick = ""recordClick(this)""><div class = content><div class = numbers>S</div></div></button><button id = button_12 class = ""square num-button"" onclick = ""recordClick(this)""><div class = content><div class = numbers>Y</div></div></button><button class = clear_button id = ""ClearButton"" onclick = ""clearResponse()"">BACKSPACE</button><button class = blank_button id = ""BlankButton"" onclick = ""blankResponse()"">SKIP</button><p style=""font-size: 2.4rem""><u><b>Current Answer:</b></u></p><br><br><div id=echoed_txt style=""font-size: 5rem; color:blue;""><b></b></div></div>",enter,ospan,retrieval,pdeEguvTJGdPkarE86VSu1Pqzkw1,html-keyboard-response,64,1038243,0.0-43.0-0.0-2.0-4.0,NA,NA,NA,3.0,"[""N"",""J"",""Q""]","[""N"",""J"",""Q""]",1.0,3.0,"['<font color=""green"">N</font>', '<font color=""green"">J</font>', '<font color=""green"">Q</font>']",,,,,,62c5d0cfdf443d24e054d302,17:09:13,06/03/2024
1190.6000000238419,"['<p style=""font-size:44px"">Letters:<br><br><br><font color=""green"">N</font> <font color=""green"">J</font> <font color=""green"">Q</font></p><br><br>']",0,ospan,practice_feedback,pdeEguvTJGdPkarE86VSu1Pqzkw1,html-button-response,65,1039947,0.0-43.0-0.0-2.0-5.0,,,,,,,,,,,,,,,62c5d0cfdf443d24e054d302,17:09:13,06/03/2024
4831.399999976158,"<div class = 'left_align' style='font-size: 3.25rem; line-height: 1.3;'>Now you will practice doing the <b>symmetry judgment part</b> of the experiment.<br><br>A black and white grid picture will appear on the screen and you have to judge if it is <br>symmetrical or asymetrical.<br><br>A picture is 'mirror' symmetrical if its left half is identical to the right half when flipped.<br>Here are examples of a symmetrical and an asymetrical picture:<br><br><center><img src='Stimuli/img/symm_instructions_extra.png' style='height:420px; width:900'></img></center><br>To judge symmetry, imagine you were to fold each picture down the middle, like a book –<br>would the left half match the right half when folded onto each other?<br><br></div><br>",0,ospan,instruct,pdeEguvTJGdPkarE86VSu1Pqzkw1,html-button-response,66,1044780,0.0-43.0-1.0-0.0-0.0,,,,,,,,,,,,,,,62c5d0cfdf443d24e054d302,17:09:13,06/03/2024
4175.900000035763,"<div class = 'left_align' style='font-size: 3.25rem; line-height: 1.3;'>When you have viewed the picture and determined whether it is symmetrical or not,<br>you can <b>click the Yes or No button</b> below to answer.<br><br>If you take longer than 15 seconds, it will continue automatically<br>and record the answer as an error.</div><br>",0,ospan,instruct,pdeEguvTJGdPkarE86VSu1Pqzkw1,html-button-response,67,1049213,0.0-43.0-1.0-0.0-1.0,,,,,,,,,,,,,,,62c5d0cfdf443d24e054d302,17:09:13,06/03/2024
3078.5,"<div class = 'left_align' style='font-size: 3.25rem; line-height: 1.3;'>It is <b>very</b> important that you make the symmetry judgment correctly.<br><br>It is also important that you try and judge the picture as quickly as you can.<br><br>When you are ready, click on the button below to try some practice problems.</div><br><br><br><br>",0,ospan,instruct,pdeEguvTJGdPkarE86VSu1Pqzkw1,html-button-response,68,1052557,0.0-43.0-1.0-0.0-2.0,,,,,,,,,,,,,,,62c5d0cfdf443d24e054d302,17:09:13,06/03/2024
1641.0,,,ospan,symmetry,pdeEguvTJGdPkarE86VSu1Pqzkw1,symmetry-judgement-task,69,1055026,0.0-43.0-1.0-1.0-0.0,,,,,,,,,,1.0,1.0,,,,62c5d0cfdf443d24e054d302,17:09:13,06/03/2024
,"<p style=""color:green; font-size: 35px"">Correct</p>",,ospan,feedback,pdeEguvTJGdPkarE86VSu1Pqzkw1,html-keyboard-response,70,1055787,0.0-43.0-1.0-1.0-1.0,,,,,,,,,,,,,,,62c5d0cfdf443d24e054d302,17:09:13,06/03/2024
1222.0,,,ospan,symmetry,pdeEguvTJGdPkarE86VSu1Pqzkw1,symmetry-judgement-task,71,1059799,0.0-43.0-1.0-1.0-2.0,,,,,,,,,,1.0,1.0,,,,62c5d0cfdf443d24e054d302,17:09:13,06/03/2024
,"<p style=""color:green; font-size: 35px"">Correct</p>",,ospan,feedback,pdeEguvTJGdPkarE86VSu1Pqzkw1,html-keyboard-response,72,1060559,0.0-43.0-1.0-1.0-3.0,,,,,,,,,,,,,,,62c5d0cfdf443d24e054d302,17:09:13,06/03/2024
1284.0,,,ospan,symmetry,pdeEguvTJGdPkarE86VSu1Pqzkw1,symmetry-judgement-task,73,1064602,0.0-43.0-1.0-1.0-4.0,,,,,,,,,,1.0,1.0,,,,62c5d0cfdf443d24e054d302,17:09:13,06/03/2024
,"<p style=""color:green; font-size: 35px"">Correct</p>",,ospan,feedback,pdeEguvTJGdPkarE86VSu1Pqzkw1,html-keyboard-response,74,1065363,0.0-43.0-1.0-1.0-5.0,,,,,,,,,,,,,,,62c5d0cfdf443d24e054d302,17:09:13,06/03/2024
2002.9000000357628,"<p style=""font-size: 3rem;"">You responded correctly on 3 of 3 symmetry judgments. Good job!</p><br><br>",0,ospan,practice,pdeEguvTJGdPkarE86VSu1Pqzkw1,html-button-response,75,1069369,0.0-43.0-1.0-2.0,,,,,,,,,,,,,,,62c5d0cfdf443d24e054d302,17:09:13,06/03/2024
4124.699999988079,"<div class = 'left_align' style='font-size: 3.25rem; line-height: 1.3;'>Now you will practice doing both parts of the experiment at the same time.<br><br>In the next practice set, you will be given one grid picture to judge.<br>Then letter will appear on the screen. Try to remember the letter.<br><br>It is <b>very important</b> to make the symmetry judgment as quickly and accurately as possible.<br><br>Just as before, once you have make the symmetry judgment, you can click Yes or No.<br><b>Note that you will no longer see Correct or Incorrect feedback.</div><br><br><br><br>",0,ospan,instruct,pdeEguvTJGdPkarE86VSu1Pqzkw1,html-button-response,76,1073753,0.0-43.0-2.0-0.0-0.0,,,,,,,,,,,,,,,62c5d0cfdf443d24e054d302,17:09:13,06/03/2024
2336.900000035763,"<div class = 'left_align' style='font-size: 3.25rem; line-height: 1.3;'>After the letter goes away, another grid picture will appear, and then<br>another letter.<br><br>At the end of each set of letters and grids, you will recall the letters to the best<br>of your ability. Remember, try your best to get the letters in the correct order.<br><br>It is important to <b>quickly</b> and <b>accurately</b> make the symmetry judgments.</div><br><br><br><br>",0,ospan,instruct,pdeEguvTJGdPkarE86VSu1Pqzkw1,html-button-response,77,1076346,0.0-43.0-2.0-0.0-1.0,,,,,,,,,,,,,,,62c5d0cfdf443d24e054d302,17:09:13,06/03/2024
4912.699999988079,"<div class = 'left_align' style='font-size: 3.25rem; line-height: 1.3;'>On the feedback screen, if you are not doing well at the symmetry judgments,<br>you will also see a warning in the middle. This indicates your percent <br>correct for the grid pictures for the entire experiment.<br><br>It is <b>very</b> important for you to keep accuracy at least at 85%: <u>We can only use<br>data where the participant was at least 85% accurate on the judgments.</u> Therefore,<br> please try your best to perform well on the symmetry judgments, <b>at the same time</b><br>doing your best to recall as many letters as possible.<br><br>Click the button to try some practice problems.</div><br><br><br><br>",0,ospan,instruct,pdeEguvTJGdPkarE86VSu1Pqzkw1,html-button-response,78,1081522,0.0-43.0-2.0-0.0-2.0,,,,,,,,,,,,,,,62c5d0cfdf443d24e054d302,17:09:13,06/03/2024
,"<p style=""font-size:75px;"">...</p>",,ospan,iti,pdeEguvTJGdPkarE86VSu1Pqzkw1,html-keyboard-response,79,1082794,0.0-43.0-2.0-1.0-0.0,,,,,,,,,,,,,,,62c5d0cfdf443d24e054d302,17:09:13,06/03/2024
1710.0,,,ospan,symmetry,pdeEguvTJGdPkarE86VSu1Pqzkw1,symmetry-judgement-task,80,1085758,0.0-43.0-2.0-1.0-1.0-0.0,,,,,,,,,,1.0,1.0,,,,62c5d0cfdf443d24e054d302,17:09:13,06/03/2024
,"<div style=""font-size: 10rem; color: #0000FF"">L</div>",,ospan,letter,pdeEguvTJGdPkarE86VSu1Pqzkw1,html-keyboard-response,81,1086772,0.0-43.0-2.0-1.0-1.0-1.0,,,,,,,,,,,,,,,62c5d0cfdf443d24e054d302,17:09:13,06/03/2024
1482.0,,,ospan,symmetry,pdeEguvTJGdPkarE86VSu1Pqzkw1,symmetry-judgement-task,82,1090274,0.0-43.0-2.0-1.0-1.0-2.0,,,,,,,,,,1.0,1.0,,,,62c5d0cfdf443d24e054d302,17:09:13,06/03/2024
,"<div style=""font-size: 10rem; color: #0000FF"">Y</div>",,ospan,letter,pdeEguvTJGdPkarE86VSu1Pqzkw1,html-keyboard-response,83,1091289,0.0-43.0-2.0-1.0-1.0-3.0,,,,,,,,,,,,,,,62c5d0cfdf443d24e054d302,17:09:13,06/03/2024
1171.0,,,ospan,symmetry,pdeEguvTJGdPkarE86VSu1Pqzkw1,symmetry-judgement-task,84,1094475,0.0-43.0-2.0-1.0-1.0-4.0,,,,,,,,,,1.0,1.0,,,,62c5d0cfdf443d24e054d302,17:09:13,06/03/2024
,"<div style=""font-size: 10rem; color: #0000FF"">Q</div>",,ospan,letter,pdeEguvTJGdPkarE86VSu1Pqzkw1,html-keyboard-response,85,1095488,0.0-43.0-2.0-1.0-1.0-5.0,,,,,,,,,,,,,,,62c5d0cfdf443d24e054d302,17:09:13,06/03/2024
4970.099999964237,"<div class = numbox><p style=""font-size: 2.4rem"">Please recall the letters you saw to the best of your ability. If you do not remember a particular letter, use the SKIP button.<br><b>(When you are ready to lock in your answer, press ENTER)</b></p><button id = button_1 class = ""square num-button"" onclick = ""recordClick(this)""><div class = content><div class = numbers>C</div></div></button><button id = button_2 class = ""square num-button"" onclick = ""recordClick(this)""><div class = content><div class = numbers>G</div></div></button><button id = button_3 class = ""square num-button"" onclick = ""recordClick(this)""><div class = content><div class = numbers>H</div></div></button><button id = button_4 class = ""square num-button"" onclick = ""recordClick(this)""><div class = content><div class = numbers>J</div></div></button><button id = button_5 class = ""square num-button"" onclick = ""recordClick(this)""><div class = content><div class = numbers>K</div></div></button><button id = button_6 class = ""square num-button"" onclick = ""recordClick(this)""><div class = content><div class = numbers>L</div></div></button><button id = button_7 class = ""square num-button"" onclick = ""recordClick(this)""><div class = content><div class = numbers>N</div></div></button><button id = button_8 class = ""square num-button"" onclick = ""recordClick(this)""><div class = content><div class = numbers>P</div></div></button><button id = button_9 class = ""square num-button"" onclick = ""recordClick(this)""><div class = content><div class = numbers>Q</div></div></button><button id = button_10 class = ""square num-button"" onclick = ""recordClick(this)""><div class = content><div class = numbers>R</div></div></button><button id = button_11 class = ""square num-button"" onclick = ""recordClick(this)""><div class = content><div class = numbers>S</div></div></button><button id = button_12 class = ""square num-button"" onclick = ""recordClick(this)""><div class = content><div class = numbers>Y</div></div></button><button class = clear_button id = ""ClearButton"" onclick = ""clearResponse()"">BACKSPACE</button><button class = blank_button id = ""BlankButton"" onclick = ""blankResponse()"">SKIP</button><p style=""font-size: 2.4rem""><u><b>Current Answer:</b></u></p><br><br><div id=echoed_txt style=""font-size: 5rem; color:blue;""><b></b></div></div>",enter,ospan,retrieval,pdeEguvTJGdPkarE86VSu1Pqzkw1,html-keyboard-response,86,1101222,0.0-43.0-2.0-1.0-2.0-0.0,NA,NA,NA,3.0,"[""L"",""Y"",""Q""]","[""L"",""Y"",""Q""]",1.0,3.0,"['<font color=""green"">L</font>', '<font color=""green"">Y</font>', '<font color=""green"">Q</font>']",,,,,,62c5d0cfdf443d24e054d302,17:09:13,06/03/2024
1369.0,"['<p style=""font-size:44px"">Letters:<br><br><br><font color=""green"">L</font> <font color=""green"">Y</font> <font color=""green"">Q</font></p><br><br><p style=""font-size:30px"">Symmetry:<br><br><font color=""green"">100%</font></p><br><br>']",0,ospan,practice_feedback,pdeEguvTJGdPkarE86VSu1Pqzkw1,html-button-response,87,1103094,0.0-43.0-2.0-1.0-2.0-1.0,,,,,,,,,,,,,,,62c5d0cfdf443d24e054d302,17:09:13,06/03/2024
,"<p style=""font-size:75px;"">...</p>",,ospan,iti,pdeEguvTJGdPkarE86VSu1Pqzkw1,html-keyboard-response,88,1104099,0.0-43.0-2.0-2.0-0.0,,,,,,,,,,,,,,,62c5d0cfdf443d24e054d302,17:09:13,06/03/2024
1428.0,,,ospan,symmetry,pdeEguvTJGdPkarE86VSu1Pqzkw1,symmetry-judgement-task,89,1106764,0.0-43.0-2.0-2.0-1.0-0.0,,,,,,,,,,1.0,1.0,,,,62c5d0cfdf443d24e054d302,17:09:13,06/03/2024
,"<div style=""font-size: 10rem; color: #0000FF"">H</div>",,ospan,letter,pdeEguvTJGdPkarE86VSu1Pqzkw1,html-keyboard-response,90,1107777,0.0-43.0-2.0-2.0-1.0-1.0,,,,,,,,,,,,,,,62c5d0cfdf443d24e054d302,17:09:13,06/03/2024
1389.0,,,ospan,symmetry,pdeEguvTJGdPkarE86VSu1Pqzkw1,symmetry-judgement-task,91,1111184,0.0-43.0-2.0-2.0-1.0-2.0,,,,,,,,,,1.0,1.0,,,,62c5d0cfdf443d24e054d302,17:09:13,06/03/2024
,"<div style=""font-size: 10rem; color: #0000FF"">Y</div>",,ospan,letter,pdeEguvTJGdPkarE86VSu1Pqzkw1,html-keyboard-response,92,1112197,0.0-43.0-2.0-2.0-1.0-3.0,,,,,,,,,,,,,,,62c5d0cfdf443d24e054d302,17:09:13,06/03/2024
2362.0,,,ospan,symmetry,pdeEguvTJGdPkarE86VSu1Pqzkw1,symmetry-judgement-task,93,1116577,0.0-43.0-2.0-2.0-1.0-4.0,,,,,,,,,,1.0,1.0,,,,62c5d0cfdf443d24e054d302,17:09:13,06/03/2024
,"<div style=""font-size: 10rem; color: #0000FF"">Q</div>",,ospan,letter,pdeEguvTJGdPkarE86VSu1Pqzkw1,html-keyboard-response,94,1117590,0.0-43.0-2.0-2.0-1.0-5.0,,,,,,,,,,,,,,,62c5d0cfdf443d24e054d302,17:09:13,06/03/2024
3553.100000023842,"<div class = numbox><p style=""font-size: 2.4rem"">Please recall the letters you saw to the best of your ability. If you do not remember a particular letter, use the SKIP button.<br><b>(When you are ready to lock in your answer, press ENTER)</b></p><button id = button_1 class = ""square num-button"" onclick = ""recordClick(this)""><div class = content><div class = numbers>C</div></div></button><button id = button_2 class = ""square num-button"" onclick = ""recordClick(this)""><div class = content><div class = numbers>G</div></div></button><button id = button_3 class = ""square num-button"" onclick = ""recordClick(this)""><div class = content><div class = numbers>H</div></div></button><button id = button_4 class = ""square num-button"" onclick = ""recordClick(this)""><div class = content><div class = numbers>J</div></div></button><button id = button_5 class = ""square num-button"" onclick = ""recordClick(this)""><div class = content><div class = numbers>K</div></div></button><button id = button_6 class = ""square num-button"" onclick = ""recordClick(this)""><div class = content><div class = numbers>L</div></div></button><button id = button_7 class = ""square num-button"" onclick = ""recordClick(this)""><div class = content><div class = numbers>N</div></div></button><button id = button_8 class = ""square num-button"" onclick = ""recordClick(this)""><div class = content><div class = numbers>P</div></div></button><button id = button_9 class = ""square num-button"" onclick = ""recordClick(this)""><div class = content><div class = numbers>Q</div></div></button><button id = button_10 class = ""square num-button"" onclick = ""recordClick(this)""><div class = content><div class = numbers>R</div></div></button><button id = button_11 class = ""square num-button"" onclick = ""recordClick(this)""><div class = content><div class = numbers>S</div></div></button><button id = button_12 class = ""square num-button"" onclick = ""recordClick(this)""><div class = content><div class = numbers>Y</div></div></button><button class = clear_button id = ""ClearButton"" onclick = ""clearResponse()"">BACKSPACE</button><button class = blank_button id = ""BlankButton"" onclick = ""blankResponse()"">SKIP</button><p style=""font-size: 2.4rem""><u><b>Current Answer:</b></u></p><br><br><div id=echoed_txt style=""font-size: 5rem; color:blue;""><b></b></div></div>",enter,ospan,retrieval,pdeEguvTJGdPkarE86VSu1Pqzkw1,html-keyboard-response,95,1121906,0.0-43.0-2.0-2.0-2.0-0.0,NA,NA,NA,3.0,"[""H"",""Y"",""Q""]","[""H"",""Y"",""Q""]",1.0,3.0,"['<font color=""green"">H</font>', '<font color=""green"">Y</font>', '<font color=""green"">Q</font>']",,,,,,62c5d0cfdf443d24e054d302,17:09:13,06/03/2024
1523.5,"['<p style=""font-size:44px"">Letters:<br><br><br><font color=""green"">H</font> <font color=""green"">Y</font> <font color=""green"">Q</font></p><br><br><p style=""font-size:30px"">Symmetry:<br><br><font color=""green"">100%</font></p><br><br>']",0,ospan,practice_feedback,pdeEguvTJGdPkarE86VSu1Pqzkw1,html-button-response,96,1123937,0.0-43.0-2.0-2.0-2.0-1.0,,,,,,,,,,,,,,,62c5d0cfdf443d24e054d302,17:09:13,06/03/2024
20025.600000023842,"<div class = 'left_align' style='font-size: 3rem; line-height: 1.3;'><b>Great work! That is the end of practice.</b><br><br>The real trials will look just like the practice trials you just completed.<br><br><u>Here, you will not see feedback</u>. First, you will see an grid picture to judge,<br>then a letter to remember. When the recall screen appears, report the letters in the<br>order presented. If you forget a letter, remember to use the <b>blank</b> button to move to the<br>next letter. Some of the sets will have more symmetry grids and letters than others.<br><br>It is important that you do your best on both the symmetry judgments and the letter recall<br>parts of the experiment. For for the symmetry judgments, try to work as <b>quickly</b> and <br>as <b>accurately</b> as possible. Remember to keep your symmetry accuracy at 85% or above.<br><br><b>For the letters, do NOT use any external aid (e.g., writing on paper, electronic device).</b><br><br>It is <u>very important</u> to our experiment to have a <b>true</b> view of your real performance.<br><br>Do not worry if you miss some when it gets hard! This task is meant to be very challenging!<br><br>Click the button to begin.</div><br><br><br><br>",0,ospan,starting_real_here,pdeEguvTJGdPkarE86VSu1Pqzkw1,html-button-response,97,1143965,0.0-43.0-2.0-3.0,,,,,,,,,,,,,,,62c5d0cfdf443d24e054d302,17:09:13,06/03/2024
,"<p style=""font-size:75px;"">...</p>",,ospan,iti,pdeEguvTJGdPkarE86VSu1Pqzkw1,html-keyboard-response,98,1145231,0.0-43.0-3.0-0.0-0.0,,,,,,,,,,,,,,,62c5d0cfdf443d24e054d302,17:09:13,06/03/2024
1767.0,,,ospan,symmetry,pdeEguvTJGdPkarE86VSu1Pqzkw1,symmetry-judgement-task,99,1148254,0.0-43.0-3.0-0.0-1.0-0.0,,,,,,,,,,1.0,1.0,,,,62c5d0cfdf443d24e054d302,17:09:13,06/03/2024
,"<div style=""font-size: 10rem; color: #0000FF"">N</div>",,ospan,letter,pdeEguvTJGdPkarE86VSu1Pqzkw1,html-keyboard-response,100,1149269,0.0-43.0-3.0-0.0-1.0-1.0,,,,,,,,,,,,,,,62c5d0cfdf443d24e054d302,17:09:13,06/03/2024
1662.0,,,ospan,symmetry,pdeEguvTJGdPkarE86VSu1Pqzkw1,symmetry-judgement-task,101,1152967,0.0-43.0-3.0-0.0-1.0-2.0,,,,,,,,,,1.0,1.0,,,,62c5d0cfdf443d24e054d302,17:09:13,06/03/2024
,"<div style=""font-size: 10rem; color: #0000FF"">Q</div>",,ospan,letter,pdeEguvTJGdPkarE86VSu1Pqzkw1,html-keyboard-response,102,1153969,0.0-43.0-3.0-0.0-1.0-3.0,,,,,,,,,,,,,,,62c5d0cfdf443d24e054d302,17:09:13,06/03/2024
1455.0,,,ospan,symmetry,pdeEguvTJGdPkarE86VSu1Pqzkw1,symmetry-judgement-task,103,1157447,0.0-43.0-3.0-0.0-1.0-4.0,,,,,,,,,,1.0,1.0,,,,62c5d0cfdf443d24e054d302,17:09:13,06/03/2024
,"<div style=""font-size: 10rem; color: #0000FF"">P</div>",,ospan,letter,pdeEguvTJGdPkarE86VSu1Pqzkw1,html-keyboard-response,104,1158462,0.0-43.0-3.0-0.0-1.0-5.0,,,,,,,,,,,,,,,62c5d0cfdf443d24e054d302,17:09:13,06/03/2024
3190.100000023842,"<div class = numbox><p style=""font-size: 2.4rem"">Please recall the letters you saw to the best of your ability. If you do not remember a particular letter, use the SKIP button.<br><b>(When you are ready to lock in your answer, press ENTER)</b></p><button id = button_1 class = ""square num-button"" onclick = ""recordClick(this)""><div class = content><div class = numbers>C</div></div></button><button id = button_2 class = ""square num-button"" onclick = ""recordClick(this)""><div class = content><div class = numbers>G</div></div></button><button id = button_3 class = ""square num-button"" onclick = ""recordClick(this)""><div class = content><div class = numbers>H</div></div></button><button id = button_4 class = ""square num-button"" onclick = ""recordClick(this)""><div class = content><div class = numbers>J</div></div></button><button id = button_5 class = ""square num-button"" onclick = ""recordClick(this)""><div class = content><div class = numbers>K</div></div></button><button id = button_6 class = ""square num-button"" onclick = ""recordClick(this)""><div class = content><div class = numbers>L</div></div></button><button id = button_7 class = ""square num-button"" onclick = ""recordClick(this)""><div class = content><div class = numbers>N</div></div></button><button id = button_8 class = ""square num-button"" onclick = ""recordClick(this)""><div class = content><div class = numbers>P</div></div></button><button id = button_9 class = ""square num-button"" onclick = ""recordClick(this)""><div class = content><div class = numbers>Q</div></div></button><button id = button_10 class = ""square num-button"" onclick = ""recordClick(this)""><div class = content><div class = numbers>R</div></div></button><button id = button_11 class = ""square num-button"" onclick = ""recordClick(this)""><div class = content><div class = numbers>S</div></div></button><button id = button_12 class = ""square num-button"" onclick = ""recordClick(this)""><div class = content><div class = numbers>Y</div></div></button><button class = clear_button id = ""ClearButton"" onclick = ""clearResponse()"">BACKSPACE</button><button class = blank_button id = ""BlankButton"" onclick = ""blankResponse()"">SKIP</button><p style=""font-size: 2.4rem""><u><b>Current Answer:</b></u></p><br><br><div id=echoed_txt style=""font-size: 5rem; color:blue;""><b></b></div></div>",enter,ospan,retrieval,pdeEguvTJGdPkarE86VSu1Pqzkw1,html-keyboard-response,105,1162417,0.0-43.0-3.0-0.0-2.0,3,3,3,3.0,"[""N"",""Q"",""P""]","[""N"",""Q"",""P""]",1.0,3.0,,,,,,,62c5d0cfdf443d24e054d302,17:09:13,06/03/2024
1021.3999999761581,[''],0,ospan,feedback,pdeEguvTJGdPkarE86VSu1Pqzkw1,html-button-response,106,1163944,0.0-43.0-3.0-0.0-3.0,,,,,,,,,,,,100.0,0.0,,62c5d0cfdf443d24e054d302,17:09:13,06/03/2024
,"<p style=""font-size:75px;"">...</p>",,ospan,iti,pdeEguvTJGdPkarE86VSu1Pqzkw1,html-keyboard-response,107,1164949,0.0-43.0-4.0-0.0-0.0,,,,,,,,,,,,,,,62c5d0cfdf443d24e054d302,17:09:13,06/03/2024
1663.0,,,ospan,symmetry,pdeEguvTJGdPkarE86VSu1Pqzkw1,symmetry-judgement-task,108,1167660,0.0-43.0-4.0-0.0-1.0-0.0,,,,,,,,,,1.0,1.0,,,,62c5d0cfdf443d24e054d302,17:09:13,06/03/2024
,"<div style=""font-size: 10rem; color: #0000FF"">H</div>",,ospan,letter,pdeEguvTJGdPkarE86VSu1Pqzkw1,html-keyboard-response,109,1168661,0.0-43.0-4.0-0.0-1.0-1.0,,,,,,,,,,,,,,,62c5d0cfdf443d24e054d302,17:09:13,06/03/2024
1451.0,,,ospan,symmetry,pdeEguvTJGdPkarE86VSu1Pqzkw1,symmetry-judgement-task,110,1172117,0.0-43.0-4.0-0.0-1.0-2.0,,,,,,,,,,1.0,1.0,,,,62c5d0cfdf443d24e054d302,17:09:13,06/03/2024
,"<div style=""font-size: 10rem; color: #0000FF"">K</div>",,ospan,letter,pdeEguvTJGdPkarE86VSu1Pqzkw1,html-keyboard-response,111,1173132,0.0-43.0-4.0-0.0-1.0-3.0,,,,,,,,,,,,,,,62c5d0cfdf443d24e054d302,17:09:13,06/03/2024
1648.0,,,ospan,symmetry,pdeEguvTJGdPkarE86VSu1Pqzkw1,symmetry-judgement-task,112,1176784,0.0-43.0-4.0-0.0-1.0-4.0,,,,,,,,,,1.0,1.0,,,,62c5d0cfdf443d24e054d302,17:09:13,06/03/2024
,"<div style=""font-size: 10rem; color: #0000FF"">Q</div>",,ospan,letter,pdeEguvTJGdPkarE86VSu1Pqzkw1,html-keyboard-response,113,1177798,0.0-43.0-4.0-0.0-1.0-5.0,,,,,,,,,,,,,,,62c5d0cfdf443d24e054d302,17:09:13,06/03/2024
2105.0,,,ospan,symmetry,pdeEguvTJGdPkarE86VSu1Pqzkw1,symmetry-judgement-task,114,1181923,0.0-43.0-4.0-0.0-1.0-6.0,,,,,,,,,,1.0,1.0,,,,62c5d0cfdf443d24e054d302,17:09:13,06/03/2024
,"<div style=""font-size: 10rem; color: #0000FF"">P</div>",,ospan,letter,pdeEguvTJGdPkarE86VSu1Pqzkw1,html-keyboard-response,115,1182937,0.0-43.0-4.0-0.0-1.0-7.0,,,,,,,,,,,,,,,62c5d0cfdf443d24e054d302,17:09:13,06/03/2024
5019.600000023842,"<div class = numbox><p style=""font-size: 2.4rem"">Please recall the letters you saw to the best of your ability. If you do not remember a particular letter, use the SKIP button.<br><b>(When you are ready to lock in your answer, press ENTER)</b></p><button id = button_1 class = ""square num-button"" onclick = ""recordClick(this)""><div class = content><div class = numbers>C</div></div></button><button id = button_2 class = ""square num-button"" onclick = ""recordClick(this)""><div class = content><div class = numbers>G</div></div></button><button id = button_3 class = ""square num-button"" onclick = ""recordClick(this)""><div class = content><div class = numbers>H</div></div></button><button id = button_4 class = ""square num-button"" onclick = ""recordClick(this)""><div class = content><div class = numbers>J</div></div></button><button id = button_5 class = ""square num-button"" onclick = ""recordClick(this)""><div class = content><div class = numbers>K</div></div></button><button id = button_6 class = ""square num-button"" onclick = ""recordClick(this)""><div class = content><div class = numbers>L</div></div></button><button id = button_7 class = ""square num-button"" onclick = ""recordClick(this)""><div class = content><div class = numbers>N</div></div></button><button id = button_8 class = ""square num-button"" onclick = ""recordClick(this)""><div class = content><div class = numbers>P</div></div></button><button id = button_9 class = ""square num-button"" onclick = ""recordClick(this)""><div class = content><div class = numbers>Q</div></div></button><button id = button_10 class = ""square num-button"" onclick = ""recordClick(this)""><div class = content><div class = numbers>R</div></div></button><button id = button_11 class = ""square num-button"" onclick = ""recordClick(this)""><div class = content><div class = numbers>S</div></div></button><button id = button_12 class = ""square num-button"" onclick = ""recordClick(this)""><div class = content><div class = numbers>Y</div></div></button><button class = clear_button id = ""ClearButton"" onclick = ""clearResponse()"">BACKSPACE</button><button class = blank_button id = ""BlankButton"" onclick = ""blankResponse()"">SKIP</button><p style=""font-size: 2.4rem""><u><b>Current Answer:</b></u></p><br><br><div id=echoed_txt style=""font-size: 5rem; color:blue;""><b></b></div></div>",enter,ospan,retrieval,pdeEguvTJGdPkarE86VSu1Pqzkw1,html-keyboard-response,116,1188717,0.0-43.0-4.0-0.0-2.0,7,7,7,4.0,"[""H"",""K"",""Q"",""P""]","[""H"",""K"",""Q"",""P""]",1.0,4.0,,,,,,,62c5d0cfdf443d24e054d302,17:09:13,06/03/2024
1190.199999988079,[''],0,ospan,feedback,pdeEguvTJGdPkarE86VSu1Pqzkw1,html-button-response,117,1190413,0.0-43.0-4.0-0.0-3.0,,,,,,,,,,,,100.0,0.0,,62c5d0cfdf443d24e054d302,17:09:13,06/03/2024
,"<p style=""font-size:75px;"">...</p>",,ospan,iti,pdeEguvTJGdPkarE86VSu1Pqzkw1,html-keyboard-response,118,1191414,0.0-43.0-4.0-1.0-0.0,,,,,,,,,,,,,,,62c5d0cfdf443d24e054d302,17:09:13,06/03/2024
2301.0,,,ospan,symmetry,pdeEguvTJGdPkarE86VSu1Pqzkw1,symmetry-judgement-task,119,1194983,0.0-43.0-4.0-1.0-1.0-0.0,,,,,,,,,,1.0,1.0,,,,62c5d0cfdf443d24e054d302,17:09:13,06/03/2024
,"<div style=""font-size: 10rem; color: #0000FF"">R</div>",,ospan,letter,pdeEguvTJGdPkarE86VSu1Pqzkw1,html-keyboard-response,120,1195990,0.0-43.0-4.0-1.0-1.0-1.0,,,,,,,,,,,,,,,62c5d0cfdf443d24e054d302,17:09:13,06/03/2024
1644.0,,,ospan,symmetry,pdeEguvTJGdPkarE86VSu1Pqzkw1,symmetry-judgement-task,121,1199632,0.0-43.0-4.0-1.0-1.0-2.0,,,,,,,,,,1.0,1.0,,,,62c5d0cfdf443d24e054d302,17:09:13,06/03/2024
,"<div style=""font-size: 10rem; color: #0000FF"">L</div>",,ospan,letter,pdeEguvTJGdPkarE86VSu1Pqzkw1,html-keyboard-response,122,1200644,0.0-43.0-4.0-1.0-1.0-3.0,,,,,,,,,,,,,,,62c5d0cfdf443d24e054d302,17:09:13,06/03/2024
1816.0,,,ospan,symmetry,pdeEguvTJGdPkarE86VSu1Pqzkw1,symmetry-judgement-task,123,1204482,0.0-43.0-4.0-1.0-1.0-4.0,,,,,,,,,,1.0,1.0,,,,62c5d0cfdf443d24e054d302,17:09:13,06/03/2024
,"<div style=""font-size: 10rem; color: #0000FF"">N</div>",,ospan,letter,pdeEguvTJGdPkarE86VSu1Pqzkw1,html-keyboard-response,124,1205484,0.0-43.0-4.0-1.0-1.0-5.0,,,,,,,,,,,,,,,62c5d0cfdf443d24e054d302,17:09:13,06/03/2024
1537.0,,,ospan,symmetry,pdeEguvTJGdPkarE86VSu1Pqzkw1,symmetry-judgement-task,125,1209044,0.0-43.0-4.0-1.0-1.0-6.0,,,,,,,,,,1.0,1.0,,,,62c5d0cfdf443d24e054d302,17:09:13,06/03/2024
,"<div style=""font-size: 10rem; color: #0000FF"">K</div>",,ospan,letter,pdeEguvTJGdPkarE86VSu1Pqzkw1,html-keyboard-response,126,1210061,0.0-43.0-4.0-1.0-1.0-7.0,,,,,,,,,,,,,,,62c5d0cfdf443d24e054d302,17:09:13,06/03/2024
1639.0,,,ospan,symmetry,pdeEguvTJGdPkarE86VSu1Pqzkw1,symmetry-judgement-task,127,1213711,0.0-43.0-4.0-1.0-1.0-8.0,,,,,,,,,,1.0,1.0,,,,62c5d0cfdf443d24e054d302,17:09:13,06/03/2024
,"<div style=""font-size: 10rem; color: #0000FF"">G</div>",,ospan,letter,pdeEguvTJGdPkarE86VSu1Pqzkw1,html-keyboard-response,128,1214727,0.0-43.0-4.0-1.0-1.0-9.0,,,,,,,,,,,,,,,62c5d0cfdf443d24e054d302,17:09:13,06/03/2024
4744.700000047684,"<div class = numbox><p style=""font-size: 2.4rem"">Please recall the letters you saw to the best of your ability. If you do not remember a particular letter, use the SKIP button.<br><b>(When you are ready to lock in your answer, press ENTER)</b></p><button id = button_1 class = ""square num-button"" onclick = ""recordClick(this)""><div class = content><div class = numbers>C</div></div></button><button id = button_2 class = ""square num-button"" onclick = ""recordClick(this)""><div class = content><div class = numbers>G</div></div></button><button id = button_3 class = ""square num-button"" onclick = ""recordClick(this)""><div class = content><div class = numbers>H</div></div></button><button id = button_4 class = ""square num-button"" onclick = ""recordClick(this)""><div class = content><div class = numbers>J</div></div></button><button id = button_5 class = ""square num-button"" onclick = ""recordClick(this)""><div class = content><div class = numbers>K</div></div></button><button id = button_6 class = ""square num-button"" onclick = ""recordClick(this)""><div class = content><div class = numbers>L</div></div></button><button id = button_7 class = ""square num-button"" onclick = ""recordClick(this)""><div class = content><div class = numbers>N</div></div></button><button id = button_8 class = ""square num-button"" onclick = ""recordClick(this)""><div class = content><div class = numbers>P</div></div></button><button id = button_9 class = ""square num-button"" onclick = ""recordClick(this)""><div class = content><div class = numbers>Q</div></div></button><button id = button_10 class = ""square num-button"" onclick = ""recordClick(this)""><div class = content><div class = numbers>R</div></div></button><button id = button_11 class = ""square num-button"" onclick = ""recordClick(this)""><div class = content><div class = numbers>S</div></div></button><button id = button_12 class = ""square num-button"" onclick = ""recordClick(this)""><div class = content><div class = numbers>Y</div></div></button><button class = clear_button id = ""ClearButton"" onclick = ""clearResponse()"">BACKSPACE</button><button class = blank_button id = ""BlankButton"" onclick = ""blankResponse()"">SKIP</button><p style=""font-size: 2.4rem""><u><b>Current Answer:</b></u></p><br><br><div id=echoed_txt style=""font-size: 5rem; color:blue;""><b></b></div></div>",enter,ospan,retrieval,pdeEguvTJGdPkarE86VSu1Pqzkw1,html-keyboard-response,129,1220234,0.0-43.0-4.0-1.0-2.0,12,12,12,5.0,"[""R"",""L"",""N"",""K"",""G""]","[""R"",""L"",""N"",""K"",""G""]",1.0,5.0,,,,,,,62c5d0cfdf443d24e054d302,17:09:13,06/03/2024
775.0,[''],0,ospan,feedback,pdeEguvTJGdPkarE86VSu1Pqzkw1,html-button-response,130,1221514,0.0-43.0-4.0-1.0-3.0,,,,,,,,,,,,100.0,0.0,,62c5d0cfdf443d24e054d302,17:09:13,06/03/2024
,"<p style=""font-size:75px;"">...</p>",,ospan,iti,pdeEguvTJGdPkarE86VSu1Pqzkw1,html-keyboard-response,131,1222517,0.0-43.0-4.0-2.0-0.0,,,,,,,,,,,,,,,62c5d0cfdf443d24e054d302,17:09:13,06/03/2024
1453.0,,,ospan,symmetry,pdeEguvTJGdPkarE86VSu1Pqzkw1,symmetry-judgement-task,132,1225211,0.0-43.0-4.0-2.0-1.0-0.0,,,,,,,,,,1.0,1.0,,,,62c5d0cfdf443d24e054d302,17:09:13,06/03/2024
,"<div style=""font-size: 10rem; color: #0000FF"">R</div>",,ospan,letter,pdeEguvTJGdPkarE86VSu1Pqzkw1,html-keyboard-response,133,1226226,0.0-43.0-4.0-2.0-1.0-1.0,,,,,,,,,,,,,,,62c5d0cfdf443d24e054d302,17:09:13,06/03/2024
1432.0,,,ospan,symmetry,pdeEguvTJGdPkarE86VSu1Pqzkw1,symmetry-judgement-task,134,1229684,0.0-43.0-4.0-2.0-1.0-2.0,,,,,,,,,,1.0,1.0,,,,62c5d0cfdf443d24e054d302,17:09:13,06/03/2024
,"<div style=""font-size: 10rem; color: #0000FF"">C</div>",,ospan,letter,pdeEguvTJGdPkarE86VSu1Pqzkw1,html-keyboard-response,135,1230699,0.0-43.0-4.0-2.0-1.0-3.0,,,,,,,,,,,,,,,62c5d0cfdf443d24e054d302,17:09:13,06/03/2024
1806.0,,,ospan,symmetry,pdeEguvTJGdPkarE86VSu1Pqzkw1,symmetry-judgement-task,136,1234502,0.0-43.0-4.0-2.0-1.0-4.0,,,,,,,,,,1.0,1.0,,,,62c5d0cfdf443d24e054d302,17:09:13,06/03/2024
,"<div style=""font-size: 10rem; color: #0000FF"">L</div>",,ospan,letter,pdeEguvTJGdPkarE86VSu1Pqzkw1,html-keyboard-response,137,1235516,0.0-43.0-4.0-2.0-1.0-5.0,,,,,,,,,,,,,,,62c5d0cfdf443d24e054d302,17:09:13,06/03/2024
4593.0,"<div class = numbox><p style=""font-size: 2.4rem"">Please recall the letters you saw to the best of your ability. If you do not remember a particular letter, use the SKIP button.<br><b>(When you are ready to lock in your answer, press ENTER)</b></p><button id = button_1 class = ""square num-button"" onclick = ""recordClick(this)""><div class = content><div class = numbers>C</div></div></button><button id = button_2 class = ""square num-button"" onclick = ""recordClick(this)""><div class = content><div class = numbers>G</div></div></button><button id = button_3 class = ""square num-button"" onclick = ""recordClick(this)""><div class = content><div class = numbers>H</div></div></button><button id = button_4 class = ""square num-button"" onclick = ""recordClick(this)""><div class = content><div class = numbers>J</div></div></button><button id = button_5 class = ""square num-button"" onclick = ""recordClick(this)""><div class = content><div class = numbers>K</div></div></button><button id = button_6 class = ""square num-button"" onclick = ""recordClick(this)""><div class = content><div class = numbers>L</div></div></button><button id = button_7 class = ""square num-button"" onclick = ""recordClick(this)""><div class = content><div class = numbers>N</div></div></button><button id = button_8 class = ""square num-button"" onclick = ""recordClick(this)""><div class = content><div class = numbers>P</div></div></button><button id = button_9 class = ""square num-button"" onclick = ""recordClick(this)""><div class = content><div class = numbers>Q</div></div></button><button id = button_10 class = ""square num-button"" onclick = ""recordClick(this)""><div class = content><div class = numbers>R</div></div></button><button id = button_11 class = ""square num-button"" onclick = ""recordClick(this)""><div class = content><div class = numbers>S</div></div></button><button id = button_12 class = ""square num-button"" onclick = ""recordClick(this)""><div class = content><div class = numbers>Y</div></div></button><button class = clear_button id = ""ClearButton"" onclick = ""clearResponse()"">BACKSPACE</button><button class = blank_button id = ""BlankButton"" onclick = ""blankResponse()"">SKIP</button><p style=""font-size: 2.4rem""><u><b>Current Answer:</b></u></p><br><br><div id=echoed_txt style=""font-size: 5rem; color:blue;""><b></b></div></div>",enter,ospan,retrieval,pdeEguvTJGdPkarE86VSu1Pqzkw1,html-keyboard-response,138,1240869,0.0-43.0-4.0-2.0-2.0,15,15,15,3.0,"[""R"",""C"",""L""]","[""R"",""C"",""L""]",1.0,3.0,,,,,,,62c5d0cfdf443d24e054d302,17:09:13,06/03/2024
663.3999999761581,[''],0,ospan,feedback,pdeEguvTJGdPkarE86VSu1Pqzkw1,html-button-response,139,1242037,0.0-43.0-4.0-2.0-3.0,,,,,,,,,,,,100.0,0.0,,62c5d0cfdf443d24e054d302,17:09:13,06/03/2024
,"<p style=""font-size:75px;"">...</p>",,ospan,iti,pdeEguvTJGdPkarE86VSu1Pqzkw1,html-keyboard-response,140,1243048,0.0-43.0-5.0-0.0-0.0,,,,,,,,,,,,,,,62c5d0cfdf443d24e054d302,17:09:13,06/03/2024
1967.0,,,ospan,symmetry,pdeEguvTJGdPkarE86VSu1Pqzkw1,symmetry-judgement-task,141,1246270,0.0-43.0-5.0-0.0-1.0-0.0,,,,,,,,,,1.0,1.0,,,,62c5d0cfdf443d24e054d302,17:09:13,06/03/2024
,"<div style=""font-size: 10rem; color: #0000FF"">H</div>",,ospan,letter,pdeEguvTJGdPkarE86VSu1Pqzkw1,html-keyboard-response,142,1247275,0.0-43.0-5.0-0.0-1.0-1.0,,,,,,,,,,,,,,,62c5d0cfdf443d24e054d302,17:09:13,06/03/2024
1440.0,,,ospan,symmetry,pdeEguvTJGdPkarE86VSu1Pqzkw1,symmetry-judgement-task,143,1250740,0.0-43.0-5.0-0.0-1.0-2.0,,,,,,,,,,1.0,1.0,,,,62c5d0cfdf443d24e054d302,17:09:13,06/03/2024
,"<div style=""font-size: 10rem; color: #0000FF"">K</div>",,ospan,letter,pdeEguvTJGdPkarE86VSu1Pqzkw1,html-keyboard-response,144,1251754,0.0-43.0-5.0-0.0-1.0-3.0,,,,,,,,,,,,,,,62c5d0cfdf443d24e054d302,17:09:13,06/03/2024
1316.0,,,ospan,symmetry,pdeEguvTJGdPkarE86VSu1Pqzkw1,symmetry-judgement-task,145,1255093,0.0-43.0-5.0-0.0-1.0-4.0,,,,,,,,,,1.0,1.0,,,,62c5d0cfdf443d24e054d302,17:09:13,06/03/2024
,"<div style=""font-size: 10rem; color: #0000FF"">L</div>",,ospan,letter,pdeEguvTJGdPkarE86VSu1Pqzkw1,html-keyboard-response,146,1256107,0.0-43.0-5.0-0.0-1.0-5.0,,,,,,,,,,,,,,,62c5d0cfdf443d24e054d302,17:09:13,06/03/2024
1480.0,,,ospan,symmetry,pdeEguvTJGdPkarE86VSu1Pqzkw1,symmetry-judgement-task,147,1259612,0.0-43.0-5.0-0.0-1.0-6.0,,,,,,,,,,1.0,1.0,,,,62c5d0cfdf443d24e054d302,17:09:13,06/03/2024
,"<div style=""font-size: 10rem; color: #0000FF"">C</div>",,ospan,letter,pdeEguvTJGdPkarE86VSu1Pqzkw1,html-keyboard-response,148,1260627,0.0-43.0-5.0-0.0-1.0-7.0,,,,,,,,,,,,,,,62c5d0cfdf443d24e054d302,17:09:13,06/03/2024
1369.0,,,ospan,symmetry,pdeEguvTJGdPkarE86VSu1Pqzkw1,symmetry-judgement-task,149,1264002,0.0-43.0-5.0-0.0-1.0-8.0,,,,,,,,,,1.0,1.0,,,,62c5d0cfdf443d24e054d302,17:09:13,06/03/2024
,"<div style=""font-size: 10rem; color: #0000FF"">G</div>",,ospan,letter,pdeEguvTJGdPkarE86VSu1Pqzkw1,html-keyboard-response,150,1265003,0.0-43.0-5.0-0.0-1.0-9.0,,,,,,,,,,,,,,,62c5d0cfdf443d24e054d302,17:09:13,06/03/2024
1730.0,,,ospan,symmetry,pdeEguvTJGdPkarE86VSu1Pqzkw1,symmetry-judgement-task,151,1268743,0.0-43.0-5.0-0.0-1.0-10.0,,,,,,,,,,1.0,1.0,,,,62c5d0cfdf443d24e054d302,17:09:13,06/03/2024
,"<div style=""font-size: 10rem; color: #0000FF"">P</div>",,ospan,letter,pdeEguvTJGdPkarE86VSu1Pqzkw1,html-keyboard-response,152,1269759,0.0-43.0-5.0-0.0-1.0-11.0,,,,,,,,,,,,,,,62c5d0cfdf443d24e054d302,17:09:13,06/03/2024
7141.099999964237,"<div class = numbox><p style=""font-size: 2.4rem"">Please recall the letters you saw to the best of your ability. If you do not remember a particular letter, use the SKIP button.<br><b>(When you are ready to lock in your answer, press ENTER)</b></p><button id = button_1 class = ""square num-button"" onclick = ""recordClick(this)""><div class = content><div class = numbers>C</div></div></button><button id = button_2 class = ""square num-button"" onclick = ""recordClick(this)""><div class = content><div class = numbers>G</div></div></button><button id = button_3 class = ""square num-button"" onclick = ""recordClick(this)""><div class = content><div class = numbers>H</div></div></button><button id = button_4 class = ""square num-button"" onclick = ""recordClick(this)""><div class = content><div class = numbers>J</div></div></button><button id = button_5 class = ""square num-button"" onclick = ""recordClick(this)""><div class = content><div class = numbers>K</div></div></button><button id = button_6 class = ""square num-button"" onclick = ""recordClick(this)""><div class = content><div class = numbers>L</div></div></button><button id = button_7 class = ""square num-button"" onclick = ""recordClick(this)""><div class = content><div class = numbers>N</div></div></button><button id = button_8 class = ""square num-button"" onclick = ""recordClick(this)""><div class = content><div class = numbers>P</div></div></button><button id = button_9 class = ""square num-button"" onclick = ""recordClick(this)""><div class = content><div class = numbers>Q</div></div></button><button id = button_10 class = ""square num-button"" onclick = ""recordClick(this)""><div class = content><div class = numbers>R</div></div></button><button id = button_11 class = ""square num-button"" onclick = ""recordClick(this)""><div class = content><div class = numbers>S</div></div></button><button id = button_12 class = ""square num-button"" onclick = ""recordClick(this)""><div class = content><div class = numbers>Y</div></div></button><button class = clear_button id = ""ClearButton"" onclick = ""clearResponse()"">BACKSPACE</button><button class = blank_button id = ""BlankButton"" onclick = ""blankResponse()"">SKIP</button><p style=""font-size: 2.4rem""><u><b>Current Answer:</b></u></p><br><br><div id=echoed_txt style=""font-size: 5rem; color:blue;""><b></b></div></div>",enter,ospan,retrieval,pdeEguvTJGdPkarE86VSu1Pqzkw1,html-keyboard-response,153,1277662,0.0-43.0-5.0-0.0-2.0,21,21,21,6.0,"[""H"",""K"",""L"",""C"",""G"",""P""]","[""H"",""K"",""L"",""C"",""G"",""P""]",1.0,6.0,,,,,,,62c5d0cfdf443d24e054d302,17:09:13,06/03/2024
1102.699999988079,[''],0,ospan,feedback,pdeEguvTJGdPkarE86VSu1Pqzkw1,html-button-response,154,1279267,0.0-43.0-5.0-0.0-3.0,,,,,,,,,,,,100.0,0.0,,62c5d0cfdf443d24e054d302,17:09:13,06/03/2024
,"<p style=""font-size:75px;"">...</p>",,ospan,iti,pdeEguvTJGdPkarE86VSu1Pqzkw1,html-keyboard-response,155,1280271,0.0-43.0-5.0-1.0-0.0,,,,,,,,,,,,,,,62c5d0cfdf443d24e054d302,17:09:13,06/03/2024
1694.0,,,ospan,symmetry,pdeEguvTJGdPkarE86VSu1Pqzkw1,symmetry-judgement-task,156,1283012,0.0-43.0-5.0-1.0-1.0-0.0,,,,,,,,,,1.0,1.0,,,,62c5d0cfdf443d24e054d302,17:09:13,06/03/2024
,"<div style=""font-size: 10rem; color: #0000FF"">L</div>",,ospan,letter,pdeEguvTJGdPkarE86VSu1Pqzkw1,html-keyboard-response,157,1284020,0.0-43.0-5.0-1.0-1.0-1.0,,,,,,,,,,,,,,,62c5d0cfdf443d24e054d302,17:09:13,06/03/2024
2029.0,,,ospan,symmetry,pdeEguvTJGdPkarE86VSu1Pqzkw1,symmetry-judgement-task,158,1288064,0.0-43.0-5.0-1.0-1.0-2.0,,,,,,,,,,1.0,1.0,,,,62c5d0cfdf443d24e054d302,17:09:13,06/03/2024
,"<div style=""font-size: 10rem; color: #0000FF"">C</div>",,ospan,letter,pdeEguvTJGdPkarE86VSu1Pqzkw1,html-keyboard-response,159,1289079,0.0-43.0-5.0-1.0-1.0-3.0,,,,,,,,,,,,,,,62c5d0cfdf443d24e054d302,17:09:13,06/03/2024
1779.0,,,ospan,symmetry,pdeEguvTJGdPkarE86VSu1Pqzkw1,symmetry-judgement-task,160,1292884,0.0-43.0-5.0-1.0-1.0-4.0,,,,,,,,,,1.0,1.0,,,,62c5d0cfdf443d24e054d302,17:09:13,06/03/2024
,"<div style=""font-size: 10rem; color: #0000FF"">Q</div>",,ospan,letter,pdeEguvTJGdPkarE86VSu1Pqzkw1,html-keyboard-response,161,1293896,0.0-43.0-5.0-1.0-1.0-5.0,,,,,,,,,,,,,,,62c5d0cfdf443d24e054d302,17:09:13,06/03/2024
2337.0,,,ospan,symmetry,pdeEguvTJGdPkarE86VSu1Pqzkw1,symmetry-judgement-task,162,1298231,0.0-43.0-5.0-1.0-1.0-6.0,,,,,,,,,,1.0,1.0,,,,62c5d0cfdf443d24e054d302,17:09:13,06/03/2024
,"<div style=""font-size: 10rem; color: #0000FF"">J</div>",,ospan,letter,pdeEguvTJGdPkarE86VSu1Pqzkw1,html-keyboard-response,163,1299233,0.0-43.0-5.0-1.0-1.0-7.0,,,,,,,,,,,,,,,62c5d0cfdf443d24e054d302,17:09:13,06/03/2024
3713.0,,,ospan,symmetry,pdeEguvTJGdPkarE86VSu1Pqzkw1,symmetry-judgement-task,164,1304957,0.0-43.0-5.0-1.0-1.0-8.0,,,,,,,,,,1.0,1.0,,,,62c5d0cfdf443d24e054d302,17:09:13,06/03/2024
,"<div style=""font-size: 10rem; color: #0000FF"">Y</div>",,ospan,letter,pdeEguvTJGdPkarE86VSu1Pqzkw1,html-keyboard-response,165,1305971,0.0-43.0-5.0-1.0-1.0-9.0,,,,,,,,,,,,,,,62c5d0cfdf443d24e054d302,17:09:13,06/03/2024
1679.0,,,ospan,symmetry,pdeEguvTJGdPkarE86VSu1Pqzkw1,symmetry-judgement-task,166,1309463,0.0-43.0-5.0-1.0-1.0-10.0,,,,,,,,,,1.0,1.0,,,,62c5d0cfdf443d24e054d302,17:09:13,06/03/2024
,"<div style=""font-size: 10rem; color: #0000FF"">R</div>",,ospan,letter,pdeEguvTJGdPkarE86VSu1Pqzkw1,html-keyboard-response,167,1310466,0.0-43.0-5.0-1.0-1.0-11.0,,,,,,,,,,,,,,,62c5d0cfdf443d24e054d302,17:09:13,06/03/2024
1478.0,,,ospan,symmetry,pdeEguvTJGdPkarE86VSu1Pqzkw1,symmetry-judgement-task,168,1313977,0.0-43.0-5.0-1.0-1.0-12.0,,,,,,,,,,1.0,1.0,,,,62c5d0cfdf443d24e054d302,17:09:13,06/03/2024
,"<div style=""font-size: 10rem; color: #0000FF"">N</div>",,ospan,letter,pdeEguvTJGdPkarE86VSu1Pqzkw1,html-keyboard-response,169,1314983,0.0-43.0-5.0-1.0-1.0-13.0,,,,,,,,,,,,,,,62c5d0cfdf443d24e054d302,17:09:13,06/03/2024
8532.699999988079,"<div class = numbox><p style=""font-size: 2.4rem"">Please recall the letters you saw to the best of your ability. If you do not remember a particular letter, use the SKIP button.<br><b>(When you are ready to lock in your answer, press ENTER)</b></p><button id = button_1 class = ""square num-button"" onclick = ""recordClick(this)""><div class = content><div class = numbers>C</div></div></button><button id = button_2 class = ""square num-button"" onclick = ""recordClick(this)""><div class = content><div class = numbers>G</div></div></button><button id = button_3 class = ""square num-button"" onclick = ""recordClick(this)""><div class = content><div class = numbers>H</div></div></button><button id = button_4 class = ""square num-button"" onclick = ""recordClick(this)""><div class = content><div class = numbers>J</div></div></button><button id = button_5 class = ""square num-button"" onclick = ""recordClick(this)""><div class = content><div class = numbers>K</div></div></button><button id = button_6 class = ""square num-button"" onclick = ""recordClick(this)""><div class = content><div class = numbers>L</div></div></button><button id = button_7 class = ""square num-button"" onclick = ""recordClick(this)""><div class = content><div class = numbers>N</div></div></button><button id = button_8 class = ""square num-button"" onclick = ""recordClick(this)""><div class = content><div class = numbers>P</div></div></button><button id = button_9 class = ""square num-button"" onclick = ""recordClick(this)""><div class = content><div class = numbers>Q</div></div></button><button id = button_10 class = ""square num-button"" onclick = ""recordClick(this)""><div class = content><div class = numbers>R</div></div></button><button id = button_11 class = ""square num-button"" onclick = ""recordClick(this)""><div class = content><div class = numbers>S</div></div></button><button id = button_12 class = ""square num-button"" onclick = ""recordClick(this)""><div class = content><div class = numbers>Y</div></div></button><button class = clear_button id = ""ClearButton"" onclick = ""clearResponse()"">BACKSPACE</button><button class = blank_button id = ""BlankButton"" onclick = ""blankResponse()"">SKIP</button><p style=""font-size: 2.4rem""><u><b>Current Answer:</b></u></p><br><br><div id=echoed_txt style=""font-size: 5rem; color:blue;""><b></b></div></div>",enter,ospan,retrieval,pdeEguvTJGdPkarE86VSu1Pqzkw1,html-keyboard-response,170,1324276,0.0-43.0-5.0-1.0-2.0,28,28,28,7.0,"[""L"",""C"",""Q"",""J"",""Y"",""R"",""N""]","[""L"",""C"",""Q"",""J"",""Y"",""R"",""N""]",1.0,7.0,,,,,,,62c5d0cfdf443d24e054d302,17:09:13,06/03/2024
1168.800000011921,[''],0,ospan,feedback,pdeEguvTJGdPkarE86VSu1Pqzkw1,html-button-response,171,1325947,0.0-43.0-5.0-1.0-3.0,,,,,,,,,,,,100.0,0.0,,62c5d0cfdf443d24e054d302,17:09:13,06/03/2024
,"<p style=""font-size:75px;"">...</p>",,ospan,iti,pdeEguvTJGdPkarE86VSu1Pqzkw1,html-keyboard-response,172,1326951,0.0-43.0-6.0-0.0-0.0,,,,,,,,,,,,,,,62c5d0cfdf443d24e054d302,17:09:13,06/03/2024
1664.0,,,ospan,symmetry,pdeEguvTJGdPkarE86VSu1Pqzkw1,symmetry-judgement-task,173,1329881,0.0-43.0-6.0-0.0-1.0-0.0,,,,,,,,,,1.0,1.0,,,,62c5d0cfdf443d24e054d302,17:09:13,06/03/2024
,"<div style=""font-size: 10rem; color: #0000FF"">R</div>",,ospan,letter,pdeEguvTJGdPkarE86VSu1Pqzkw1,html-keyboard-response,174,1330884,0.0-43.0-6.0-0.0-1.0-1.0,,,,,,,,,,,,,,,62c5d0cfdf443d24e054d302,17:09:13,06/03/2024
1486.0,,,ospan,symmetry,pdeEguvTJGdPkarE86VSu1Pqzkw1,symmetry-judgement-task,175,1334380,0.0-43.0-6.0-0.0-1.0-2.0,,,,,,,,,,1.0,1.0,,,,62c5d0cfdf443d24e054d302,17:09:13,06/03/2024
,"<div style=""font-size: 10rem; color: #0000FF"">C</div>",,ospan,letter,pdeEguvTJGdPkarE86VSu1Pqzkw1,html-keyboard-response,176,1335388,0.0-43.0-6.0-0.0-1.0-3.0,,,,,,,,,,,,,,,62c5d0cfdf443d24e054d302,17:09:13,06/03/2024
1465.0,,,ospan,symmetry,pdeEguvTJGdPkarE86VSu1Pqzkw1,symmetry-judgement-task,177,1338879,0.0-43.0-6.0-0.0-1.0-4.0,,,,,,,,,,1.0,1.0,,,,62c5d0cfdf443d24e054d302,17:09:13,06/03/2024
,"<div style=""font-size: 10rem; color: #0000FF"">K</div>",,ospan,letter,pdeEguvTJGdPkarE86VSu1Pqzkw1,html-keyboard-response,178,1339881,0.0-43.0-6.0-0.0-1.0-5.0,,,,,,,,,,,,,,,62c5d0cfdf443d24e054d302,17:09:13,06/03/2024
1406.0,,,ospan,symmetry,pdeEguvTJGdPkarE86VSu1Pqzkw1,symmetry-judgement-task,179,1343277,0.0-43.0-6.0-0.0-1.0-6.0,,,,,,,,,,1.0,1.0,,,,62c5d0cfdf443d24e054d302,17:09:13,06/03/2024
,"<div style=""font-size: 10rem; color: #0000FF"">H</div>",,ospan,letter,pdeEguvTJGdPkarE86VSu1Pqzkw1,html-keyboard-response,180,1344292,0.0-43.0-6.0-0.0-1.0-7.0,,,,,,,,,,,,,,,62c5d0cfdf443d24e054d302,17:09:13,06/03/2024
1382.0,,,ospan,symmetry,pdeEguvTJGdPkarE86VSu1Pqzkw1,symmetry-judgement-task,181,1347683,0.0-43.0-6.0-0.0-1.0-8.0,,,,,,,,,,1.0,1.0,,,,62c5d0cfdf443d24e054d302,17:09:13,06/03/2024
,"<div style=""font-size: 10rem; color: #0000FF"">Q</div>",,ospan,letter,pdeEguvTJGdPkarE86VSu1Pqzkw1,html-keyboard-response,182,1348697,0.0-43.0-6.0-0.0-1.0-9.0,,,,,,,,,,,,,,,62c5d0cfdf443d24e054d302,17:09:13,06/03/2024
8245.899999976158,"<div class = numbox><p style=""font-size: 2.4rem"">Please recall the letters you saw to the best of your ability. If you do not remember a particular letter, use the SKIP button.<br><b>(When you are ready to lock in your answer, press ENTER)</b></p><button id = button_1 class = ""square num-button"" onclick = ""recordClick(this)""><div class = content><div class = numbers>C</div></div></button><button id = button_2 class = ""square num-button"" onclick = ""recordClick(this)""><div class = content><div class = numbers>G</div></div></button><button id = button_3 class = ""square num-button"" onclick = ""recordClick(this)""><div class = content><div class = numbers>H</div></div></button><button id = button_4 class = ""square num-button"" onclick = ""recordClick(this)""><div class = content><div class = numbers>J</div></div></button><button id = button_5 class = ""square num-button"" onclick = ""recordClick(this)""><div class = content><div class = numbers>K</div></div></button><button id = button_6 class = ""square num-button"" onclick = ""recordClick(this)""><div class = content><div class = numbers>L</div></div></button><button id = button_7 class = ""square num-button"" onclick = ""recordClick(this)""><div class = content><div class = numbers>N</div></div></button><button id = button_8 class = ""square num-button"" onclick = ""recordClick(this)""><div class = content><div class = numbers>P</div></div></button><button id = button_9 class = ""square num-button"" onclick = ""recordClick(this)""><div class = content><div class = numbers>Q</div></div></button><button id = button_10 class = ""square num-button"" onclick = ""recordClick(this)""><div class = content><div class = numbers>R</div></div></button><button id = button_11 class = ""square num-button"" onclick = ""recordClick(this)""><div class = content><div class = numbers>S</div></div></button><button id = button_12 class = ""square num-button"" onclick = ""recordClick(this)""><div class = content><div class = numbers>Y</div></div></button><button class = clear_button id = ""ClearButton"" onclick = ""clearResponse()"">BACKSPACE</button><button class = blank_button id = ""BlankButton"" onclick = ""blankResponse()"">SKIP</button><p style=""font-size: 2.4rem""><u><b>Current Answer:</b></u></p><br><br><div id=echoed_txt style=""font-size: 5rem; color:blue;""><b></b></div></div>",enter,ospan,retrieval,pdeEguvTJGdPkarE86VSu1Pqzkw1,html-keyboard-response,183,1357705,0.0-43.0-6.0-0.0-2.0,33,33,33,5.0,"[""R"",""C"",""K"",""H"",""Q""]","[""R"",""C"",""K"",""H"",""Q""]",1.0,5.0,,,,,,,62c5d0cfdf443d24e054d302,17:09:13,06/03/2024
1308.300000011921,[''],0,ospan,feedback,pdeEguvTJGdPkarE86VSu1Pqzkw1,html-button-response,184,1359529,0.0-43.0-6.0-0.0-3.0,,,,,,,,,,,,100.0,0.0,,62c5d0cfdf443d24e054d302,17:09:13,06/03/2024
,"<p style=""font-size:75px;"">...</p>",,ospan,iti,pdeEguvTJGdPkarE86VSu1Pqzkw1,html-keyboard-response,185,1360536,0.0-43.0-6.0-1.0-0.0,,,,,,,,,,,,,,,62c5d0cfdf443d24e054d302,17:09:13,06/03/2024
2990.0,,,ospan,symmetry,pdeEguvTJGdPkarE86VSu1Pqzkw1,symmetry-judgement-task,186,1364800,0.0-43.0-6.0-1.0-1.0-0.0,,,,,,,,,,1.0,1.0,,,,62c5d0cfdf443d24e054d302,17:09:13,06/03/2024
,"<div style=""font-size: 10rem; color: #0000FF"">G</div>",,ospan,letter,pdeEguvTJGdPkarE86VSu1Pqzkw1,html-keyboard-response,187,1365814,0.0-43.0-6.0-1.0-1.0-1.0,,,,,,,,,,,,,,,62c5d0cfdf443d24e054d302,17:09:13,06/03/2024
2226.0,,,ospan,symmetry,pdeEguvTJGdPkarE86VSu1Pqzkw1,symmetry-judgement-task,188,1370041,0.0-43.0-6.0-1.0-1.0-2.0,,,,,,,,,,1.0,1.0,,,,62c5d0cfdf443d24e054d302,17:09:13,06/03/2024
,"<div style=""font-size: 10rem; color: #0000FF"">K</div>",,ospan,letter,pdeEguvTJGdPkarE86VSu1Pqzkw1,html-keyboard-response,189,1371054,0.0-43.0-6.0-1.0-1.0-3.0,,,,,,,,,,,,,,,62c5d0cfdf443d24e054d302,17:09:13,06/03/2024
1869.0,,,ospan,symmetry,pdeEguvTJGdPkarE86VSu1Pqzkw1,symmetry-judgement-task,190,1374943,0.0-43.0-6.0-1.0-1.0-4.0,,,,,,,,,,1.0,1.0,,,,62c5d0cfdf443d24e054d302,17:09:13,06/03/2024
,"<div style=""font-size: 10rem; color: #0000FF"">J</div>",,ospan,letter,pdeEguvTJGdPkarE86VSu1Pqzkw1,html-keyboard-response,191,1375945,0.0-43.0-6.0-1.0-1.0-5.0,,,,,,,,,,,,,,,62c5d0cfdf443d24e054d302,17:09:13,06/03/2024
1514.0,,,ospan,symmetry,pdeEguvTJGdPkarE86VSu1Pqzkw1,symmetry-judgement-task,192,1379481,0.0-43.0-6.0-1.0-1.0-6.0,,,,,,,,,,1.0,1.0,,,,62c5d0cfdf443d24e054d302,17:09:13,06/03/2024
,"<div style=""font-size: 10rem; color: #0000FF"">S</div>",,ospan,letter,pdeEguvTJGdPkarE86VSu1Pqzkw1,html-keyboard-response,193,1380483,0.0-43.0-6.0-1.0-1.0-7.0,,,,,,,,,,,,,,,62c5d0cfdf443d24e054d302,17:09:13,06/03/2024
1998.0,,,ospan,symmetry,pdeEguvTJGdPkarE86VSu1Pqzkw1,symmetry-judgement-task,194,1384501,0.0-43.0-6.0-1.0-1.0-8.0,,,,,,,,,,1.0,1.0,,,,62c5d0cfdf443d24e054d302,17:09:13,06/03/2024
,"<div style=""font-size: 10rem; color: #0000FF"">N</div>",,ospan,letter,pdeEguvTJGdPkarE86VSu1Pqzkw1,html-keyboard-response,195,1385508,0.0-43.0-6.0-1.0-1.0-9.0,,,,,,,,,,,,,,,62c5d0cfdf443d24e054d302,17:09:13,06/03/2024
1904.0,,,ospan,symmetry,pdeEguvTJGdPkarE86VSu1Pqzkw1,symmetry-judgement-task,196,1389432,0.0-43.0-6.0-1.0-1.0-10.0,,,,,,,,,,1.0,1.0,,,,62c5d0cfdf443d24e054d302,17:09:13,06/03/2024
,"<div style=""font-size: 10rem; color: #0000FF"">R</div>",,ospan,letter,pdeEguvTJGdPkarE86VSu1Pqzkw1,html-keyboard-response,197,1390449,0.0-43.0-6.0-1.0-1.0-11.0,,,,,,,,,,,,,,,62c5d0cfdf443d24e054d302,17:09:13,06/03/2024
1734.0,,,ospan,symmetry,pdeEguvTJGdPkarE86VSu1Pqzkw1,symmetry-judgement-task,198,1394224,0.0-43.0-6.0-1.0-1.0-12.0,,,,,,,,,,1.0,1.0,,,,62c5d0cfdf443d24e054d302,17:09:13,06/03/2024
,"<div style=""font-size: 10rem; color: #0000FF"">Y</div>",,ospan,letter,pdeEguvTJGdPkarE86VSu1Pqzkw1,html-keyboard-response,199,1395240,0.0-43.0-6.0-1.0-1.0-13.0,,,,,,,,,,,,,,,62c5d0cfdf443d24e054d302,17:09:13,06/03/2024
2424.0,,,ospan,symmetry,pdeEguvTJGdPkarE86VSu1Pqzkw1,symmetry-judgement-task,200,1399681,0.0-43.0-6.0-1.0-1.0-14.0,,,,,,,,,,1.0,1.0,,,,62c5d0cfdf443d24e054d302,17:09:13,06/03/2024
,"<div style=""font-size: 10rem; color: #0000FF"">P</div>",,ospan,letter,pdeEguvTJGdPkarE86VSu1Pqzkw1,html-keyboard-response,201,1400696,0.0-43.0-6.0-1.0-1.0-15.0,,,,,,,,,,,,,,,62c5d0cfdf443d24e054d302,17:09:13,06/03/2024
16232.799999952316,"<div class = numbox><p style=""font-size: 2.4rem"">Please recall the letters you saw to the best of your ability. If you do not remember a particular letter, use the SKIP button.<br><b>(When you are ready to lock in your answer, press ENTER)</b></p><button id = button_1 class = ""square num-button"" onclick = ""recordClick(this)""><div class = content><div class = numbers>C</div></div></button><button id = button_2 class = ""square num-button"" onclick = ""recordClick(this)""><div class = content><div class = numbers>G</div></div></button><button id = button_3 class = ""square num-button"" onclick = ""recordClick(this)""><div class = content><div class = numbers>H</div></div></button><button id = button_4 class = ""square num-button"" onclick = ""recordClick(this)""><div class = content><div class = numbers>J</div></div></button><button id = button_5 class = ""square num-button"" onclick = ""recordClick(this)""><div class = content><div class = numbers>K</div></div></button><button id = button_6 class = ""square num-button"" onclick = ""recordClick(this)""><div class = content><div class = numbers>L</div></div></button><button id = button_7 class = ""square num-button"" onclick = ""recordClick(this)""><div class = content><div class = numbers>N</div></div></button><button id = button_8 class = ""square num-button"" onclick = ""recordClick(this)""><div class = content><div class = numbers>P</div></div></button><button id = button_9 class = ""square num-button"" onclick = ""recordClick(this)""><div class = content><div class = numbers>Q</div></div></button><button id = button_10 class = ""square num-button"" onclick = ""recordClick(this)""><div class = content><div class = numbers>R</div></div></button><button id = button_11 class = ""square num-button"" onclick = ""recordClick(this)""><div class = content><div class = numbers>S</div></div></button><button id = button_12 class = ""square num-button"" onclick = ""recordClick(this)""><div class = content><div class = numbers>Y</div></div></button><button class = clear_button id = ""ClearButton"" onclick = ""clearResponse()"">BACKSPACE</button><button class = blank_button id = ""BlankButton"" onclick = ""blankResponse()"">SKIP</button><p style=""font-size: 2.4rem""><u><b>Current Answer:</b></u></p><br><br><div id=echoed_txt style=""font-size: 5rem; color:blue;""><b></b></div></div>",enter,ospan,retrieval,pdeEguvTJGdPkarE86VSu1Pqzkw1,html-keyboard-response,202,1417691,0.0-43.0-6.0-1.0-2.0,41,39,33,8.0,"[""G"",""K"",""J"",""S"",""N"",""R"",""P"",""Y""]","[""G"",""K"",""J"",""S"",""N"",""R"",""Y"",""P""]",0.0,6.0,,,,,,,62c5d0cfdf443d24e054d302,17:09:13,06/03/2024
986.0999999642372,[''],0,ospan,feedback,pdeEguvTJGdPkarE86VSu1Pqzkw1,html-button-response,203,1419195,0.0-43.0-6.0-1.0-3.0,,,,,,,,,,,,100.0,0.0,,62c5d0cfdf443d24e054d302,17:09:13,06/03/2024
54470.30000001192,,"{'Q0': 'It got more challenging as it went on, as expected, but I was comfortable remembering 5-6 letters while doing the symmetry correctly'}",ospan,survey_ospan,pdeEguvTJGdPkarE86VSu1Pqzkw1,lmdlab-survey-text,204,1474424,0.0-43.0-7.0,,,,,,,,,,,,,,pdeEguvTJGdPkarE86VSu1Pqzkw1,62c5d0cfdf443d24e054d302,17:09:13,06/03/2024
1207.800000011921,<p><p style='font-size: 3rem'>Great work!<br><br>This completes the symmetry and memory task.</p><br><br><br>,0,ospan,finish,pdeEguvTJGdPkarE86VSu1Pqzkw1,html-button-response,205,1475637,0.0-43.0-8.0,41,39,33,,,,,,,,,100.0,,,62c5d0cfdf443d24e054d302,17:09:13,06/03/2024
