rt,stimulus,response,exp_name,exp_stage,subjectID,trial_type,trial_index,time_elapsed,internal_node_id,ospan_shown,ospan_total,ospan_abs,length,resp_actual,resp_correct,full_correct,num_correct,feedback,accuracy,correct,math_acc,math_warning,databaseID,prolificID,start_time,date
1247.6999999284744,<div class = 'left_align' style='font-size: 3.25rem; line-height: 1.3;'><p class = 'center_align'><b>Welcome to the Symmetry and Memory Task</b><br><br><br><br></p>Press 'continue' to show the instructions.<br><br><br><br></div>,0,ospan,instruct,lMKk1aBUwSRXxC5kqOQguaqUGPu1,html-button-response,51,417467,0.0-43.0-0.0-0.0-0.0,,,,,,,,,,,,,,,5de8d53cd0e07e836599d816,09:52:05,05/03/2024
6550.900000095367,"<div class = 'left_align' style='font-size: 3.25rem; line-height: 1.3;'><p class = 'center_align'><b>Symmetry and Memory Task</b><br><br></p>In this task, you will try to memorize letters you see on the screen<br>while you also view black and white grid pictures.<br><br>In the next few minutes, you will have some practice to get you familiar<br>with how the task works.<br><br>It may be difficult sometimes, but please do not worry about making mistakes!<br><br>We will begin by practicing the letter part of the task.<br><br><br><br></div>",0,ospan,instruct,lMKk1aBUwSRXxC5kqOQguaqUGPu1,html-button-response,52,424279,0.0-43.0-0.0-0.0-1.0,,,,,,,,,,,,,,,5de8d53cd0e07e836599d816,09:52:05,05/03/2024
10760.899999976158,"<div class = 'left_align' style='font-size: 3.25rem; line-height: 1.3;'>For this practice part, letters will appear on the screen one at a time.<br><br>Try to remember each letter in the order presented.<br><br>After some letters have been shown, you will see a response screen. Your<br>goal is to report the letters you saw <b>in order</b>. If you do not remember<br>a particular letter, you will have the option to leave it blank.<br><br><br><br></div>",0,ospan,instruct,lMKk1aBUwSRXxC5kqOQguaqUGPu1,html-button-response,53,435303,0.0-43.0-0.0-0.0-2.0,,,,,,,,,,,,,,,5de8d53cd0e07e836599d816,09:52:05,05/03/2024
2901.7000000476837,"<div class = 'left_align' style='font-size: 3.25rem; line-height: 1.3;'>Remember, it is very important to get the letters in the same<br>order as you see them.<br><br>When you are ready, you may begin the letter practice.</div><br><br><br><br>",0,ospan,instruct,lMKk1aBUwSRXxC5kqOQguaqUGPu1,html-button-response,54,438462,0.0-43.0-0.0-0.0-3.0,,,,,,,,,,,,,,,5de8d53cd0e07e836599d816,09:52:05,05/03/2024
,"<p style=""font-size:75px;"">...</p>",,ospan,iti,lMKk1aBUwSRXxC5kqOQguaqUGPu1,html-keyboard-response,55,439730,0.0-43.0-0.0-1.0-0.0,,,,,,,,,,,,,,,5de8d53cd0e07e836599d816,09:52:05,05/03/2024
,"<div style=""font-size: 10rem; color: #0000FF"">S</div>",,ospan,letter,lMKk1aBUwSRXxC5kqOQguaqUGPu1,html-keyboard-response,56,440738,0.0-43.0-0.0-1.0-1.0,,,,,,,,,,,,,,,5de8d53cd0e07e836599d816,09:52:05,05/03/2024
,"<div style=""font-size: 10rem; color: #0000FF"">L</div>",,ospan,letter,lMKk1aBUwSRXxC5kqOQguaqUGPu1,html-keyboard-response,57,442503,0.0-43.0-0.0-1.0-2.0,,,,,,,,,,,,,,,5de8d53cd0e07e836599d816,09:52:05,05/03/2024
5284.100000023842,"<div class = numbox><p style=""font-size: 2.4rem"">Please recall the letters you saw to the best of your ability. If you do not remember a particular letter, use the SKIP button.<br><b>(When you are ready to lock in your answer, press ENTER)</b></p><button id = button_1 class = ""square num-button"" onclick = ""recordClick(this)""><div class = content><div class = numbers>C</div></div></button><button id = button_2 class = ""square num-button"" onclick = ""recordClick(this)""><div class = content><div class = numbers>G</div></div></button><button id = button_3 class = ""square num-button"" onclick = ""recordClick(this)""><div class = content><div class = numbers>H</div></div></button><button id = button_4 class = ""square num-button"" onclick = ""recordClick(this)""><div class = content><div class = numbers>J</div></div></button><button id = button_5 class = ""square num-button"" onclick = ""recordClick(this)""><div class = content><div class = numbers>K</div></div></button><button id = button_6 class = ""square num-button"" onclick = ""recordClick(this)""><div class = content><div class = numbers>L</div></div></button><button id = button_7 class = ""square num-button"" onclick = ""recordClick(this)""><div class = content><div class = numbers>N</div></div></button><button id = button_8 class = ""square num-button"" onclick = ""recordClick(this)""><div class = content><div class = numbers>P</div></div></button><button id = button_9 class = ""square num-button"" onclick = ""recordClick(this)""><div class = content><div class = numbers>Q</div></div></button><button id = button_10 class = ""square num-button"" onclick = ""recordClick(this)""><div class = content><div class = numbers>R</div></div></button><button id = button_11 class = ""square num-button"" onclick = ""recordClick(this)""><div class = content><div class = numbers>S</div></div></button><button id = button_12 class = ""square num-button"" onclick = ""recordClick(this)""><div class = content><div class = numbers>Y</div></div></button><button class = clear_button id = ""ClearButton"" onclick = ""clearResponse()"">BACKSPACE</button><button class = blank_button id = ""BlankButton"" onclick = ""blankResponse()"">SKIP</button><p style=""font-size: 2.4rem""><u><b>Current Answer:</b></u></p><br><br><div id=echoed_txt style=""font-size: 5rem; color:blue;""><b></b></div></div>",enter,ospan,retrieval,lMKk1aBUwSRXxC5kqOQguaqUGPu1,html-keyboard-response,58,448549,0.0-43.0-0.0-1.0-3.0,NA,NA,NA,2.0,"[""S"",""L""]","[""S"",""L""]",1.0,2.0,"['<font color=""green"">S</font>', '<font color=""green"">L</font>']",,,,,,5de8d53cd0e07e836599d816,09:52:05,05/03/2024
1029.1000000238419,"['<p style=""font-size:44px"">Letters:<br><br><br><font color=""green"">S</font> <font color=""green"">L</font></p><br><br>']",0,ospan,practice_feedback,lMKk1aBUwSRXxC5kqOQguaqUGPu1,html-button-response,59,450084,0.0-43.0-0.0-1.0-4.0,,,,,,,,,,,,,,,5de8d53cd0e07e836599d816,09:52:05,05/03/2024
,"<p style=""font-size:75px;"">...</p>",,ospan,iti,lMKk1aBUwSRXxC5kqOQguaqUGPu1,html-keyboard-response,60,451089,0.0-43.0-0.0-2.0-0.0,,,,,,,,,,,,,,,5de8d53cd0e07e836599d816,09:52:05,05/03/2024
,"<div style=""font-size: 10rem; color: #0000FF"">G</div>",,ospan,letter,lMKk1aBUwSRXxC5kqOQguaqUGPu1,html-keyboard-response,61,452102,0.0-43.0-0.0-2.0-1.0,,,,,,,,,,,,,,,5de8d53cd0e07e836599d816,09:52:05,05/03/2024
,"<div style=""font-size: 10rem; color: #0000FF"">Q</div>",,ospan,letter,lMKk1aBUwSRXxC5kqOQguaqUGPu1,html-keyboard-response,62,453870,0.0-43.0-0.0-2.0-2.0,,,,,,,,,,,,,,,5de8d53cd0e07e836599d816,09:52:05,05/03/2024
,"<div style=""font-size: 10rem; color: #0000FF"">P</div>",,ospan,letter,lMKk1aBUwSRXxC5kqOQguaqUGPu1,html-keyboard-response,63,455626,0.0-43.0-0.0-2.0-3.0,,,,,,,,,,,,,,,5de8d53cd0e07e836599d816,09:52:05,05/03/2024
3034.5,"<div class = numbox><p style=""font-size: 2.4rem"">Please recall the letters you saw to the best of your ability. If you do not remember a particular letter, use the SKIP button.<br><b>(When you are ready to lock in your answer, press ENTER)</b></p><button id = button_1 class = ""square num-button"" onclick = ""recordClick(this)""><div class = content><div class = numbers>C</div></div></button><button id = button_2 class = ""square num-button"" onclick = ""recordClick(this)""><div class = content><div class = numbers>G</div></div></button><button id = button_3 class = ""square num-button"" onclick = ""recordClick(this)""><div class = content><div class = numbers>H</div></div></button><button id = button_4 class = ""square num-button"" onclick = ""recordClick(this)""><div class = content><div class = numbers>J</div></div></button><button id = button_5 class = ""square num-button"" onclick = ""recordClick(this)""><div class = content><div class = numbers>K</div></div></button><button id = button_6 class = ""square num-button"" onclick = ""recordClick(this)""><div class = content><div class = numbers>L</div></div></button><button id = button_7 class = ""square num-button"" onclick = ""recordClick(this)""><div class = content><div class = numbers>N</div></div></button><button id = button_8 class = ""square num-button"" onclick = ""recordClick(this)""><div class = content><div class = numbers>P</div></div></button><button id = button_9 class = ""square num-button"" onclick = ""recordClick(this)""><div class = content><div class = numbers>Q</div></div></button><button id = button_10 class = ""square num-button"" onclick = ""recordClick(this)""><div class = content><div class = numbers>R</div></div></button><button id = button_11 class = ""square num-button"" onclick = ""recordClick(this)""><div class = content><div class = numbers>S</div></div></button><button id = button_12 class = ""square num-button"" onclick = ""recordClick(this)""><div class = content><div class = numbers>Y</div></div></button><button class = clear_button id = ""ClearButton"" onclick = ""clearResponse()"">BACKSPACE</button><button class = blank_button id = ""BlankButton"" onclick = ""blankResponse()"">SKIP</button><p style=""font-size: 2.4rem""><u><b>Current Answer:</b></u></p><br><br><div id=echoed_txt style=""font-size: 5rem; color:blue;""><b></b></div></div>",enter,ospan,retrieval,lMKk1aBUwSRXxC5kqOQguaqUGPu1,html-keyboard-response,64,459413,0.0-43.0-0.0-2.0-4.0,NA,NA,NA,3.0,"[""G"",""Q"",""P""]","[""G"",""Q"",""P""]",1.0,3.0,"['<font color=""green"">G</font>', '<font color=""green"">Q</font>', '<font color=""green"">P</font>']",,,,,,5de8d53cd0e07e836599d816,09:52:05,05/03/2024
1308.1000000238419,"['<p style=""font-size:44px"">Letters:<br><br><br><font color=""green"">G</font> <font color=""green"">Q</font> <font color=""green"">P</font></p><br><br>']",0,ospan,practice_feedback,lMKk1aBUwSRXxC5kqOQguaqUGPu1,html-button-response,65,461238,0.0-43.0-0.0-2.0-5.0,,,,,,,,,,,,,,,5de8d53cd0e07e836599d816,09:52:05,05/03/2024
9309.899999976158,"<div class = 'left_align' style='font-size: 3.25rem; line-height: 1.3;'>Now you will practice doing the <b>symmetry judgment part</b> of the experiment.<br><br>A black and white grid picture will appear on the screen and you have to judge if it is <br>symmetrical or asymetrical.<br><br>A picture is 'mirror' symmetrical if its left half is identical to the right half when flipped.<br>Here are examples of a symmetrical and an asymetrical picture:<br><br><center><img src='Stimuli/img/symm_instructions_extra.png' style='height:420px; width:900'></img></center><br>To judge symmetry, imagine you were to fold each picture down the middle, like a book –<br>would the left half match the right half when folded onto each other?<br><br></div><br>",0,ospan,instruct,lMKk1aBUwSRXxC5kqOQguaqUGPu1,html-button-response,66,470549,0.0-43.0-1.0-0.0-0.0,,,,,,,,,,,,,,,5de8d53cd0e07e836599d816,09:52:05,05/03/2024
3219.1999999284744,"<div class = 'left_align' style='font-size: 3.25rem; line-height: 1.3;'>When you have viewed the picture and determined whether it is symmetrical or not,<br>you can <b>click the Yes or No button</b> below to answer.<br><br>If you take longer than 15 seconds, it will continue automatically<br>and record the answer as an error.</div><br>",0,ospan,instruct,lMKk1aBUwSRXxC5kqOQguaqUGPu1,html-button-response,67,474024,0.0-43.0-1.0-0.0-1.0,,,,,,,,,,,,,,,5de8d53cd0e07e836599d816,09:52:05,05/03/2024
2307.0,"<div class = 'left_align' style='font-size: 3.25rem; line-height: 1.3;'>It is <b>very</b> important that you make the symmetry judgment correctly.<br><br>It is also important that you try and judge the picture as quickly as you can.<br><br>When you are ready, click on the button below to try some practice problems.</div><br><br><br><br>",0,ospan,instruct,lMKk1aBUwSRXxC5kqOQguaqUGPu1,html-button-response,68,476589,0.0-43.0-1.0-0.0-2.0,,,,,,,,,,,,,,,5de8d53cd0e07e836599d816,09:52:05,05/03/2024
2044.0,,,ospan,symmetry,lMKk1aBUwSRXxC5kqOQguaqUGPu1,symmetry-judgement-task,69,479431,0.0-43.0-1.0-1.0-0.0,,,,,,,,,,1.0,1.0,,,,5de8d53cd0e07e836599d816,09:52:05,05/03/2024
,"<p style=""color:green; font-size: 35px"">Correct</p>",,ospan,feedback,lMKk1aBUwSRXxC5kqOQguaqUGPu1,html-keyboard-response,70,480188,0.0-43.0-1.0-1.0-1.0,,,,,,,,,,,,,,,5de8d53cd0e07e836599d816,09:52:05,05/03/2024
1044.0,,,ospan,symmetry,lMKk1aBUwSRXxC5kqOQguaqUGPu1,symmetry-judgement-task,71,483835,0.0-43.0-1.0-1.0-2.0,,,,,,,,,,1.0,1.0,,,,5de8d53cd0e07e836599d816,09:52:05,05/03/2024
,"<p style=""color:green; font-size: 35px"">Correct</p>",,ospan,feedback,lMKk1aBUwSRXxC5kqOQguaqUGPu1,html-keyboard-response,72,484590,0.0-43.0-1.0-1.0-3.0,,,,,,,,,,,,,,,5de8d53cd0e07e836599d816,09:52:05,05/03/2024
893.0,,,ospan,symmetry,lMKk1aBUwSRXxC5kqOQguaqUGPu1,symmetry-judgement-task,73,488087,0.0-43.0-1.0-1.0-4.0,,,,,,,,,,1.0,1.0,,,,5de8d53cd0e07e836599d816,09:52:05,05/03/2024
,"<p style=""color:green; font-size: 35px"">Correct</p>",,ospan,feedback,lMKk1aBUwSRXxC5kqOQguaqUGPu1,html-keyboard-response,74,488838,0.0-43.0-1.0-1.0-5.0,,,,,,,,,,,,,,,5de8d53cd0e07e836599d816,09:52:05,05/03/2024
818.8999999761581,"<p style=""font-size: 3rem;"">You responded correctly on 3 of 3 symmetry judgments. Good job!</p><br><br>",0,ospan,practice,lMKk1aBUwSRXxC5kqOQguaqUGPu1,html-button-response,75,491664,0.0-43.0-1.0-2.0,,,,,,,,,,,,,,,5de8d53cd0e07e836599d816,09:52:05,05/03/2024
7390.0,"<div class = 'left_align' style='font-size: 3.25rem; line-height: 1.3;'>Now you will practice doing both parts of the experiment at the same time.<br><br>In the next practice set, you will be given one grid picture to judge.<br>Then letter will appear on the screen. Try to remember the letter.<br><br>It is <b>very important</b> to make the symmetry judgment as quickly and accurately as possible.<br><br>Just as before, once you have make the symmetry judgment, you can click Yes or No.<br><b>Note that you will no longer see Correct or Incorrect feedback.</div><br><br><br><br>",0,ospan,instruct,lMKk1aBUwSRXxC5kqOQguaqUGPu1,html-button-response,76,499305,0.0-43.0-2.0-0.0-0.0,,,,,,,,,,,,,,,5de8d53cd0e07e836599d816,09:52:05,05/03/2024
3436.2000000476837,"<div class = 'left_align' style='font-size: 3.25rem; line-height: 1.3;'>After the letter goes away, another grid picture will appear, and then<br>another letter.<br><br>At the end of each set of letters and grids, you will recall the letters to the best<br>of your ability. Remember, try your best to get the letters in the correct order.<br><br>It is important to <b>quickly</b> and <b>accurately</b> make the symmetry judgments.</div><br><br><br><br>",0,ospan,instruct,lMKk1aBUwSRXxC5kqOQguaqUGPu1,html-button-response,77,502995,0.0-43.0-2.0-0.0-1.0,,,,,,,,,,,,,,,5de8d53cd0e07e836599d816,09:52:05,05/03/2024
13791.5,"<div class = 'left_align' style='font-size: 3.25rem; line-height: 1.3;'>On the feedback screen, if you are not doing well at the symmetry judgments,<br>you will also see a warning in the middle. This indicates your percent <br>correct for the grid pictures for the entire experiment.<br><br>It is <b>very</b> important for you to keep accuracy at least at 85%: <u>We can only use<br>data where the participant was at least 85% accurate on the judgments.</u> Therefore,<br> please try your best to perform well on the symmetry judgments, <b>at the same time</b><br>doing your best to recall as many letters as possible.<br><br>Click the button to try some practice problems.</div><br><br><br><br>",0,ospan,instruct,lMKk1aBUwSRXxC5kqOQguaqUGPu1,html-button-response,78,517045,0.0-43.0-2.0-0.0-2.0,,,,,,,,,,,,,,,5de8d53cd0e07e836599d816,09:52:05,05/03/2024
,"<p style=""font-size:75px;"">...</p>",,ospan,iti,lMKk1aBUwSRXxC5kqOQguaqUGPu1,html-keyboard-response,79,518313,0.0-43.0-2.0-1.0-0.0,,,,,,,,,,,,,,,5de8d53cd0e07e836599d816,09:52:05,05/03/2024
1343.0,,,ospan,symmetry,lMKk1aBUwSRXxC5kqOQguaqUGPu1,symmetry-judgement-task,80,520757,0.0-43.0-2.0-1.0-1.0-0.0,,,,,,,,,,1.0,1.0,,,,5de8d53cd0e07e836599d816,09:52:05,05/03/2024
,"<div style=""font-size: 10rem; color: #0000FF"">J</div>",,ospan,letter,lMKk1aBUwSRXxC5kqOQguaqUGPu1,html-keyboard-response,81,521765,0.0-43.0-2.0-1.0-1.0-1.0,,,,,,,,,,,,,,,5de8d53cd0e07e836599d816,09:52:05,05/03/2024
1853.0,,,ospan,symmetry,lMKk1aBUwSRXxC5kqOQguaqUGPu1,symmetry-judgement-task,82,525480,0.0-43.0-2.0-1.0-1.0-2.0,,,,,,,,,,1.0,1.0,,,,5de8d53cd0e07e836599d816,09:52:05,05/03/2024
,"<div style=""font-size: 10rem; color: #0000FF"">Q</div>",,ospan,letter,lMKk1aBUwSRXxC5kqOQguaqUGPu1,html-keyboard-response,83,526487,0.0-43.0-2.0-1.0-1.0-3.0,,,,,,,,,,,,,,,5de8d53cd0e07e836599d816,09:52:05,05/03/2024
1037.0,,,ospan,symmetry,lMKk1aBUwSRXxC5kqOQguaqUGPu1,symmetry-judgement-task,84,529368,0.0-43.0-2.0-1.0-1.0-4.0,,,,,,,,,,1.0,1.0,,,,5de8d53cd0e07e836599d816,09:52:05,05/03/2024
,"<div style=""font-size: 10rem; color: #0000FF"">K</div>",,ospan,letter,lMKk1aBUwSRXxC5kqOQguaqUGPu1,html-keyboard-response,85,530379,0.0-43.0-2.0-1.0-1.0-5.0,,,,,,,,,,,,,,,5de8d53cd0e07e836599d816,09:52:05,05/03/2024
5172.600000023842,"<div class = numbox><p style=""font-size: 2.4rem"">Please recall the letters you saw to the best of your ability. If you do not remember a particular letter, use the SKIP button.<br><b>(When you are ready to lock in your answer, press ENTER)</b></p><button id = button_1 class = ""square num-button"" onclick = ""recordClick(this)""><div class = content><div class = numbers>C</div></div></button><button id = button_2 class = ""square num-button"" onclick = ""recordClick(this)""><div class = content><div class = numbers>G</div></div></button><button id = button_3 class = ""square num-button"" onclick = ""recordClick(this)""><div class = content><div class = numbers>H</div></div></button><button id = button_4 class = ""square num-button"" onclick = ""recordClick(this)""><div class = content><div class = numbers>J</div></div></button><button id = button_5 class = ""square num-button"" onclick = ""recordClick(this)""><div class = content><div class = numbers>K</div></div></button><button id = button_6 class = ""square num-button"" onclick = ""recordClick(this)""><div class = content><div class = numbers>L</div></div></button><button id = button_7 class = ""square num-button"" onclick = ""recordClick(this)""><div class = content><div class = numbers>N</div></div></button><button id = button_8 class = ""square num-button"" onclick = ""recordClick(this)""><div class = content><div class = numbers>P</div></div></button><button id = button_9 class = ""square num-button"" onclick = ""recordClick(this)""><div class = content><div class = numbers>Q</div></div></button><button id = button_10 class = ""square num-button"" onclick = ""recordClick(this)""><div class = content><div class = numbers>R</div></div></button><button id = button_11 class = ""square num-button"" onclick = ""recordClick(this)""><div class = content><div class = numbers>S</div></div></button><button id = button_12 class = ""square num-button"" onclick = ""recordClick(this)""><div class = content><div class = numbers>Y</div></div></button><button class = clear_button id = ""ClearButton"" onclick = ""clearResponse()"">BACKSPACE</button><button class = blank_button id = ""BlankButton"" onclick = ""blankResponse()"">SKIP</button><p style=""font-size: 2.4rem""><u><b>Current Answer:</b></u></p><br><br><div id=echoed_txt style=""font-size: 5rem; color:blue;""><b></b></div></div>",enter,ospan,retrieval,lMKk1aBUwSRXxC5kqOQguaqUGPu1,html-keyboard-response,86,536317,0.0-43.0-2.0-1.0-2.0-0.0,NA,NA,NA,3.0,"[""J"",""Q"",""K""]","[""J"",""Q"",""K""]",1.0,3.0,"['<font color=""green"">J</font>', '<font color=""green"">Q</font>', '<font color=""green"">K</font>']",,,,,,5de8d53cd0e07e836599d816,09:52:05,05/03/2024
1069.5,"['<p style=""font-size:44px"">Letters:<br><br><br><font color=""green"">J</font> <font color=""green"">Q</font> <font color=""green"">K</font></p><br><br><p style=""font-size:30px"">Symmetry:<br><br><font color=""green"">100%</font></p><br><br>']",0,ospan,practice_feedback,lMKk1aBUwSRXxC5kqOQguaqUGPu1,html-button-response,87,537900,0.0-43.0-2.0-1.0-2.0-1.0,,,,,,,,,,,,,,,5de8d53cd0e07e836599d816,09:52:05,05/03/2024
,"<p style=""font-size:75px;"">...</p>",,ospan,iti,lMKk1aBUwSRXxC5kqOQguaqUGPu1,html-keyboard-response,88,538904,0.0-43.0-2.0-2.0-0.0,,,,,,,,,,,,,,,5de8d53cd0e07e836599d816,09:52:05,05/03/2024
1045.0,,,ospan,symmetry,lMKk1aBUwSRXxC5kqOQguaqUGPu1,symmetry-judgement-task,89,541043,0.0-43.0-2.0-2.0-1.0-0.0,,,,,,,,,,1.0,1.0,,,,5de8d53cd0e07e836599d816,09:52:05,05/03/2024
,"<div style=""font-size: 10rem; color: #0000FF"">C</div>",,ospan,letter,lMKk1aBUwSRXxC5kqOQguaqUGPu1,html-keyboard-response,90,542048,0.0-43.0-2.0-2.0-1.0-1.0,,,,,,,,,,,,,,,5de8d53cd0e07e836599d816,09:52:05,05/03/2024
932.0,,,ospan,symmetry,lMKk1aBUwSRXxC5kqOQguaqUGPu1,symmetry-judgement-task,91,544840,0.0-43.0-2.0-2.0-1.0-2.0,,,,,,,,,,1.0,1.0,,,,5de8d53cd0e07e836599d816,09:52:05,05/03/2024
,"<div style=""font-size: 10rem; color: #0000FF"">L</div>",,ospan,letter,lMKk1aBUwSRXxC5kqOQguaqUGPu1,html-keyboard-response,92,545845,0.0-43.0-2.0-2.0-1.0-3.0,,,,,,,,,,,,,,,5de8d53cd0e07e836599d816,09:52:05,05/03/2024
962.0,,,ospan,symmetry,lMKk1aBUwSRXxC5kqOQguaqUGPu1,symmetry-judgement-task,93,548661,0.0-43.0-2.0-2.0-1.0-4.0,,,,,,,,,,1.0,1.0,,,,5de8d53cd0e07e836599d816,09:52:05,05/03/2024
,"<div style=""font-size: 10rem; color: #0000FF"">K</div>",,ospan,letter,lMKk1aBUwSRXxC5kqOQguaqUGPu1,html-keyboard-response,94,549671,0.0-43.0-2.0-2.0-1.0-5.0,,,,,,,,,,,,,,,5de8d53cd0e07e836599d816,09:52:05,05/03/2024
3480.600000023842,"<div class = numbox><p style=""font-size: 2.4rem"">Please recall the letters you saw to the best of your ability. If you do not remember a particular letter, use the SKIP button.<br><b>(When you are ready to lock in your answer, press ENTER)</b></p><button id = button_1 class = ""square num-button"" onclick = ""recordClick(this)""><div class = content><div class = numbers>C</div></div></button><button id = button_2 class = ""square num-button"" onclick = ""recordClick(this)""><div class = content><div class = numbers>G</div></div></button><button id = button_3 class = ""square num-button"" onclick = ""recordClick(this)""><div class = content><div class = numbers>H</div></div></button><button id = button_4 class = ""square num-button"" onclick = ""recordClick(this)""><div class = content><div class = numbers>J</div></div></button><button id = button_5 class = ""square num-button"" onclick = ""recordClick(this)""><div class = content><div class = numbers>K</div></div></button><button id = button_6 class = ""square num-button"" onclick = ""recordClick(this)""><div class = content><div class = numbers>L</div></div></button><button id = button_7 class = ""square num-button"" onclick = ""recordClick(this)""><div class = content><div class = numbers>N</div></div></button><button id = button_8 class = ""square num-button"" onclick = ""recordClick(this)""><div class = content><div class = numbers>P</div></div></button><button id = button_9 class = ""square num-button"" onclick = ""recordClick(this)""><div class = content><div class = numbers>Q</div></div></button><button id = button_10 class = ""square num-button"" onclick = ""recordClick(this)""><div class = content><div class = numbers>R</div></div></button><button id = button_11 class = ""square num-button"" onclick = ""recordClick(this)""><div class = content><div class = numbers>S</div></div></button><button id = button_12 class = ""square num-button"" onclick = ""recordClick(this)""><div class = content><div class = numbers>Y</div></div></button><button class = clear_button id = ""ClearButton"" onclick = ""clearResponse()"">BACKSPACE</button><button class = blank_button id = ""BlankButton"" onclick = ""blankResponse()"">SKIP</button><p style=""font-size: 2.4rem""><u><b>Current Answer:</b></u></p><br><br><div id=echoed_txt style=""font-size: 5rem; color:blue;""><b></b></div></div>",enter,ospan,retrieval,lMKk1aBUwSRXxC5kqOQguaqUGPu1,html-keyboard-response,95,553916,0.0-43.0-2.0-2.0-2.0-0.0,NA,NA,NA,3.0,"[""C"",""L"",""K""]","[""C"",""L"",""K""]",1.0,3.0,"['<font color=""green"">C</font>', '<font color=""green"">L</font>', '<font color=""green"">K</font>']",,,,,,5de8d53cd0e07e836599d816,09:52:05,05/03/2024
1264.3999999761581,"['<p style=""font-size:44px"">Letters:<br><br><br><font color=""green"">C</font> <font color=""green"">L</font> <font color=""green"">K</font></p><br><br><p style=""font-size:30px"">Symmetry:<br><br><font color=""green"">100%</font></p><br><br>']",0,ospan,practice_feedback,lMKk1aBUwSRXxC5kqOQguaqUGPu1,html-button-response,96,555682,0.0-43.0-2.0-2.0-2.0-1.0,,,,,,,,,,,,,,,5de8d53cd0e07e836599d816,09:52:05,05/03/2024
20562.0,"<div class = 'left_align' style='font-size: 3rem; line-height: 1.3;'><b>Great work! That is the end of practice.</b><br><br>The real trials will look just like the practice trials you just completed.<br><br><u>Here, you will not see feedback</u>. First, you will see an grid picture to judge,<br>then a letter to remember. When the recall screen appears, report the letters in the<br>order presented. If you forget a letter, remember to use the <b>blank</b> button to move to the<br>next letter. Some of the sets will have more symmetry grids and letters than others.<br><br>It is important that you do your best on both the symmetry judgments and the letter recall<br>parts of the experiment. For for the symmetry judgments, try to work as <b>quickly</b> and <br>as <b>accurately</b> as possible. Remember to keep your symmetry accuracy at 85% or above.<br><br><b>For the letters, do NOT use any external aid (e.g., writing on paper, electronic device).</b><br><br>It is <u>very important</u> to our experiment to have a <b>true</b> view of your real performance.<br><br>Do not worry if you miss some when it gets hard! This task is meant to be very challenging!<br><br>Click the button to begin.</div><br><br><br><br>",0,ospan,starting_real_here,lMKk1aBUwSRXxC5kqOQguaqUGPu1,html-button-response,97,576245,0.0-43.0-2.0-3.0,,,,,,,,,,,,,,,5de8d53cd0e07e836599d816,09:52:05,05/03/2024
,"<p style=""font-size:75px;"">...</p>",,ospan,iti,lMKk1aBUwSRXxC5kqOQguaqUGPu1,html-keyboard-response,98,577516,0.0-43.0-3.0-0.0-0.0,,,,,,,,,,,,,,,5de8d53cd0e07e836599d816,09:52:05,05/03/2024
876.0,,,ospan,symmetry,lMKk1aBUwSRXxC5kqOQguaqUGPu1,symmetry-judgement-task,99,579488,0.0-43.0-3.0-0.0-1.0-0.0,,,,,,,,,,1.0,1.0,,,,5de8d53cd0e07e836599d816,09:52:05,05/03/2024
,"<div style=""font-size: 10rem; color: #0000FF"">C</div>",,ospan,letter,lMKk1aBUwSRXxC5kqOQguaqUGPu1,html-keyboard-response,100,580496,0.0-43.0-3.0-0.0-1.0-1.0,,,,,,,,,,,,,,,5de8d53cd0e07e836599d816,09:52:05,05/03/2024
1019.0,,,ospan,symmetry,lMKk1aBUwSRXxC5kqOQguaqUGPu1,symmetry-judgement-task,101,583375,0.0-43.0-3.0-0.0-1.0-2.0,,,,,,,,,,1.0,1.0,,,,5de8d53cd0e07e836599d816,09:52:05,05/03/2024
,"<div style=""font-size: 10rem; color: #0000FF"">J</div>",,ospan,letter,lMKk1aBUwSRXxC5kqOQguaqUGPu1,html-keyboard-response,102,584386,0.0-43.0-3.0-0.0-1.0-3.0,,,,,,,,,,,,,,,5de8d53cd0e07e836599d816,09:52:05,05/03/2024
1545.0,,,ospan,symmetry,lMKk1aBUwSRXxC5kqOQguaqUGPu1,symmetry-judgement-task,103,587779,0.0-43.0-3.0-0.0-1.0-4.0,,,,,,,,,,1.0,1.0,,,,5de8d53cd0e07e836599d816,09:52:05,05/03/2024
,"<div style=""font-size: 10rem; color: #0000FF"">Q</div>",,ospan,letter,lMKk1aBUwSRXxC5kqOQguaqUGPu1,html-keyboard-response,104,588786,0.0-43.0-3.0-0.0-1.0-5.0,,,,,,,,,,,,,,,5de8d53cd0e07e836599d816,09:52:05,05/03/2024
7025.899999976158,"<div class = numbox><p style=""font-size: 2.4rem"">Please recall the letters you saw to the best of your ability. If you do not remember a particular letter, use the SKIP button.<br><b>(When you are ready to lock in your answer, press ENTER)</b></p><button id = button_1 class = ""square num-button"" onclick = ""recordClick(this)""><div class = content><div class = numbers>C</div></div></button><button id = button_2 class = ""square num-button"" onclick = ""recordClick(this)""><div class = content><div class = numbers>G</div></div></button><button id = button_3 class = ""square num-button"" onclick = ""recordClick(this)""><div class = content><div class = numbers>H</div></div></button><button id = button_4 class = ""square num-button"" onclick = ""recordClick(this)""><div class = content><div class = numbers>J</div></div></button><button id = button_5 class = ""square num-button"" onclick = ""recordClick(this)""><div class = content><div class = numbers>K</div></div></button><button id = button_6 class = ""square num-button"" onclick = ""recordClick(this)""><div class = content><div class = numbers>L</div></div></button><button id = button_7 class = ""square num-button"" onclick = ""recordClick(this)""><div class = content><div class = numbers>N</div></div></button><button id = button_8 class = ""square num-button"" onclick = ""recordClick(this)""><div class = content><div class = numbers>P</div></div></button><button id = button_9 class = ""square num-button"" onclick = ""recordClick(this)""><div class = content><div class = numbers>Q</div></div></button><button id = button_10 class = ""square num-button"" onclick = ""recordClick(this)""><div class = content><div class = numbers>R</div></div></button><button id = button_11 class = ""square num-button"" onclick = ""recordClick(this)""><div class = content><div class = numbers>S</div></div></button><button id = button_12 class = ""square num-button"" onclick = ""recordClick(this)""><div class = content><div class = numbers>Y</div></div></button><button class = clear_button id = ""ClearButton"" onclick = ""clearResponse()"">BACKSPACE</button><button class = blank_button id = ""BlankButton"" onclick = ""blankResponse()"">SKIP</button><p style=""font-size: 2.4rem""><u><b>Current Answer:</b></u></p><br><br><div id=echoed_txt style=""font-size: 5rem; color:blue;""><b></b></div></div>",enter,ospan,retrieval,lMKk1aBUwSRXxC5kqOQguaqUGPu1,html-keyboard-response,105,596572,0.0-43.0-3.0-0.0-2.0,3,3,3,3.0,"[""C"",""J"",""Q""]","[""C"",""J"",""Q""]",1.0,3.0,,,,,,,5de8d53cd0e07e836599d816,09:52:05,05/03/2024
1113.0,[''],0,ospan,feedback,lMKk1aBUwSRXxC5kqOQguaqUGPu1,html-button-response,106,598199,0.0-43.0-3.0-0.0-3.0,,,,,,,,,,,,100.0,0.0,,5de8d53cd0e07e836599d816,09:52:05,05/03/2024
,"<p style=""font-size:75px;"">...</p>",,ospan,iti,lMKk1aBUwSRXxC5kqOQguaqUGPu1,html-keyboard-response,107,599215,0.0-43.0-4.0-0.0-0.0,,,,,,,,,,,,,,,5de8d53cd0e07e836599d816,09:52:05,05/03/2024
1474.0,,,ospan,symmetry,lMKk1aBUwSRXxC5kqOQguaqUGPu1,symmetry-judgement-task,108,601712,0.0-43.0-4.0-0.0-1.0-0.0,,,,,,,,,,1.0,1.0,,,,5de8d53cd0e07e836599d816,09:52:05,05/03/2024
,"<div style=""font-size: 10rem; color: #0000FF"">L</div>",,ospan,letter,lMKk1aBUwSRXxC5kqOQguaqUGPu1,html-keyboard-response,109,602721,0.0-43.0-4.0-0.0-1.0-1.0,,,,,,,,,,,,,,,5de8d53cd0e07e836599d816,09:52:05,05/03/2024
1176.0,,,ospan,symmetry,lMKk1aBUwSRXxC5kqOQguaqUGPu1,symmetry-judgement-task,110,605735,0.0-43.0-4.0-0.0-1.0-2.0,,,,,,,,,,1.0,1.0,,,,5de8d53cd0e07e836599d816,09:52:05,05/03/2024
,"<div style=""font-size: 10rem; color: #0000FF"">J</div>",,ospan,letter,lMKk1aBUwSRXxC5kqOQguaqUGPu1,html-keyboard-response,111,606749,0.0-43.0-4.0-0.0-1.0-3.0,,,,,,,,,,,,,,,5de8d53cd0e07e836599d816,09:52:05,05/03/2024
1147.0,,,ospan,symmetry,lMKk1aBUwSRXxC5kqOQguaqUGPu1,symmetry-judgement-task,112,609743,0.0-43.0-4.0-0.0-1.0-4.0,,,,,,,,,,1.0,1.0,,,,5de8d53cd0e07e836599d816,09:52:05,05/03/2024
,"<div style=""font-size: 10rem; color: #0000FF"">H</div>",,ospan,letter,lMKk1aBUwSRXxC5kqOQguaqUGPu1,html-keyboard-response,113,610749,0.0-43.0-4.0-0.0-1.0-5.0,,,,,,,,,,,,,,,5de8d53cd0e07e836599d816,09:52:05,05/03/2024
895.0,,,ospan,symmetry,lMKk1aBUwSRXxC5kqOQguaqUGPu1,symmetry-judgement-task,114,613496,0.0-43.0-4.0-0.0-1.0-6.0,,,,,,,,,,1.0,1.0,,,,5de8d53cd0e07e836599d816,09:52:05,05/03/2024
,"<div style=""font-size: 10rem; color: #0000FF"">Y</div>",,ospan,letter,lMKk1aBUwSRXxC5kqOQguaqUGPu1,html-keyboard-response,115,614503,0.0-43.0-4.0-0.0-1.0-7.0,,,,,,,,,,,,,,,5de8d53cd0e07e836599d816,09:52:05,05/03/2024
4725.200000047684,"<div class = numbox><p style=""font-size: 2.4rem"">Please recall the letters you saw to the best of your ability. If you do not remember a particular letter, use the SKIP button.<br><b>(When you are ready to lock in your answer, press ENTER)</b></p><button id = button_1 class = ""square num-button"" onclick = ""recordClick(this)""><div class = content><div class = numbers>C</div></div></button><button id = button_2 class = ""square num-button"" onclick = ""recordClick(this)""><div class = content><div class = numbers>G</div></div></button><button id = button_3 class = ""square num-button"" onclick = ""recordClick(this)""><div class = content><div class = numbers>H</div></div></button><button id = button_4 class = ""square num-button"" onclick = ""recordClick(this)""><div class = content><div class = numbers>J</div></div></button><button id = button_5 class = ""square num-button"" onclick = ""recordClick(this)""><div class = content><div class = numbers>K</div></div></button><button id = button_6 class = ""square num-button"" onclick = ""recordClick(this)""><div class = content><div class = numbers>L</div></div></button><button id = button_7 class = ""square num-button"" onclick = ""recordClick(this)""><div class = content><div class = numbers>N</div></div></button><button id = button_8 class = ""square num-button"" onclick = ""recordClick(this)""><div class = content><div class = numbers>P</div></div></button><button id = button_9 class = ""square num-button"" onclick = ""recordClick(this)""><div class = content><div class = numbers>Q</div></div></button><button id = button_10 class = ""square num-button"" onclick = ""recordClick(this)""><div class = content><div class = numbers>R</div></div></button><button id = button_11 class = ""square num-button"" onclick = ""recordClick(this)""><div class = content><div class = numbers>S</div></div></button><button id = button_12 class = ""square num-button"" onclick = ""recordClick(this)""><div class = content><div class = numbers>Y</div></div></button><button class = clear_button id = ""ClearButton"" onclick = ""clearResponse()"">BACKSPACE</button><button class = blank_button id = ""BlankButton"" onclick = ""blankResponse()"">SKIP</button><p style=""font-size: 2.4rem""><u><b>Current Answer:</b></u></p><br><br><div id=echoed_txt style=""font-size: 5rem; color:blue;""><b></b></div></div>",enter,ospan,retrieval,lMKk1aBUwSRXxC5kqOQguaqUGPu1,html-keyboard-response,116,619988,0.0-43.0-4.0-0.0-2.0,7,7,7,4.0,"[""L"",""J"",""H"",""Y""]","[""L"",""J"",""H"",""Y""]",1.0,4.0,,,,,,,5de8d53cd0e07e836599d816,09:52:05,05/03/2024
767.2999999523163,[''],0,ospan,feedback,lMKk1aBUwSRXxC5kqOQguaqUGPu1,html-button-response,117,621261,0.0-43.0-4.0-0.0-3.0,,,,,,,,,,,,100.0,0.0,,5de8d53cd0e07e836599d816,09:52:05,05/03/2024
,"<p style=""font-size:75px;"">...</p>",,ospan,iti,lMKk1aBUwSRXxC5kqOQguaqUGPu1,html-keyboard-response,118,622266,0.0-43.0-4.0-1.0-0.0,,,,,,,,,,,,,,,5de8d53cd0e07e836599d816,09:52:05,05/03/2024
1309.0,,,ospan,symmetry,lMKk1aBUwSRXxC5kqOQguaqUGPu1,symmetry-judgement-task,119,624678,0.0-43.0-4.0-1.0-1.0-0.0,,,,,,,,,,1.0,1.0,,,,5de8d53cd0e07e836599d816,09:52:05,05/03/2024
,"<div style=""font-size: 10rem; color: #0000FF"">K</div>",,ospan,letter,lMKk1aBUwSRXxC5kqOQguaqUGPu1,html-keyboard-response,120,625689,0.0-43.0-4.0-1.0-1.0-1.0,,,,,,,,,,,,,,,5de8d53cd0e07e836599d816,09:52:05,05/03/2024
711.0,,,ospan,symmetry,lMKk1aBUwSRXxC5kqOQguaqUGPu1,symmetry-judgement-task,121,628274,0.0-43.0-4.0-1.0-1.0-2.0,,,,,,,,,,1.0,1.0,,,,5de8d53cd0e07e836599d816,09:52:05,05/03/2024
,"<div style=""font-size: 10rem; color: #0000FF"">N</div>",,ospan,letter,lMKk1aBUwSRXxC5kqOQguaqUGPu1,html-keyboard-response,122,629280,0.0-43.0-4.0-1.0-1.0-3.0,,,,,,,,,,,,,,,5de8d53cd0e07e836599d816,09:52:05,05/03/2024
911.0,,,ospan,symmetry,lMKk1aBUwSRXxC5kqOQguaqUGPu1,symmetry-judgement-task,123,632046,0.0-43.0-4.0-1.0-1.0-4.0,,,,,,,,,,1.0,1.0,,,,5de8d53cd0e07e836599d816,09:52:05,05/03/2024
,"<div style=""font-size: 10rem; color: #0000FF"">C</div>",,ospan,letter,lMKk1aBUwSRXxC5kqOQguaqUGPu1,html-keyboard-response,124,633055,0.0-43.0-4.0-1.0-1.0-5.0,,,,,,,,,,,,,,,5de8d53cd0e07e836599d816,09:52:05,05/03/2024
616.0,,,ospan,symmetry,lMKk1aBUwSRXxC5kqOQguaqUGPu1,symmetry-judgement-task,125,635522,0.0-43.0-4.0-1.0-1.0-6.0,,,,,,,,,,1.0,1.0,,,,5de8d53cd0e07e836599d816,09:52:05,05/03/2024
,"<div style=""font-size: 10rem; color: #0000FF"">Y</div>",,ospan,letter,lMKk1aBUwSRXxC5kqOQguaqUGPu1,html-keyboard-response,126,636534,0.0-43.0-4.0-1.0-1.0-7.0,,,,,,,,,,,,,,,5de8d53cd0e07e836599d816,09:52:05,05/03/2024
1336.0,,,ospan,symmetry,lMKk1aBUwSRXxC5kqOQguaqUGPu1,symmetry-judgement-task,127,639731,0.0-43.0-4.0-1.0-1.0-8.0,,,,,,,,,,1.0,1.0,,,,5de8d53cd0e07e836599d816,09:52:05,05/03/2024
,"<div style=""font-size: 10rem; color: #0000FF"">J</div>",,ospan,letter,lMKk1aBUwSRXxC5kqOQguaqUGPu1,html-keyboard-response,128,640740,0.0-43.0-4.0-1.0-1.0-9.0,,,,,,,,,,,,,,,5de8d53cd0e07e836599d816,09:52:05,05/03/2024
5127.900000095367,"<div class = numbox><p style=""font-size: 2.4rem"">Please recall the letters you saw to the best of your ability. If you do not remember a particular letter, use the SKIP button.<br><b>(When you are ready to lock in your answer, press ENTER)</b></p><button id = button_1 class = ""square num-button"" onclick = ""recordClick(this)""><div class = content><div class = numbers>C</div></div></button><button id = button_2 class = ""square num-button"" onclick = ""recordClick(this)""><div class = content><div class = numbers>G</div></div></button><button id = button_3 class = ""square num-button"" onclick = ""recordClick(this)""><div class = content><div class = numbers>H</div></div></button><button id = button_4 class = ""square num-button"" onclick = ""recordClick(this)""><div class = content><div class = numbers>J</div></div></button><button id = button_5 class = ""square num-button"" onclick = ""recordClick(this)""><div class = content><div class = numbers>K</div></div></button><button id = button_6 class = ""square num-button"" onclick = ""recordClick(this)""><div class = content><div class = numbers>L</div></div></button><button id = button_7 class = ""square num-button"" onclick = ""recordClick(this)""><div class = content><div class = numbers>N</div></div></button><button id = button_8 class = ""square num-button"" onclick = ""recordClick(this)""><div class = content><div class = numbers>P</div></div></button><button id = button_9 class = ""square num-button"" onclick = ""recordClick(this)""><div class = content><div class = numbers>Q</div></div></button><button id = button_10 class = ""square num-button"" onclick = ""recordClick(this)""><div class = content><div class = numbers>R</div></div></button><button id = button_11 class = ""square num-button"" onclick = ""recordClick(this)""><div class = content><div class = numbers>S</div></div></button><button id = button_12 class = ""square num-button"" onclick = ""recordClick(this)""><div class = content><div class = numbers>Y</div></div></button><button class = clear_button id = ""ClearButton"" onclick = ""clearResponse()"">BACKSPACE</button><button class = blank_button id = ""BlankButton"" onclick = ""blankResponse()"">SKIP</button><p style=""font-size: 2.4rem""><u><b>Current Answer:</b></u></p><br><br><div id=echoed_txt style=""font-size: 5rem; color:blue;""><b></b></div></div>",enter,ospan,retrieval,lMKk1aBUwSRXxC5kqOQguaqUGPu1,html-keyboard-response,129,646628,0.0-43.0-4.0-1.0-2.0,12,12,12,5.0,"[""K"",""N"",""C"",""Y"",""J""]","[""K"",""N"",""C"",""Y"",""J""]",1.0,5.0,,,,,,,5de8d53cd0e07e836599d816,09:52:05,05/03/2024
748.2999999523163,[''],0,ospan,feedback,lMKk1aBUwSRXxC5kqOQguaqUGPu1,html-button-response,130,647883,0.0-43.0-4.0-1.0-3.0,,,,,,,,,,,,100.0,0.0,,5de8d53cd0e07e836599d816,09:52:05,05/03/2024
,"<p style=""font-size:75px;"">...</p>",,ospan,iti,lMKk1aBUwSRXxC5kqOQguaqUGPu1,html-keyboard-response,131,648888,0.0-43.0-4.0-2.0-0.0,,,,,,,,,,,,,,,5de8d53cd0e07e836599d816,09:52:05,05/03/2024
1461.0,,,ospan,symmetry,lMKk1aBUwSRXxC5kqOQguaqUGPu1,symmetry-judgement-task,132,651375,0.0-43.0-4.0-2.0-1.0-0.0,,,,,,,,,,1.0,1.0,,,,5de8d53cd0e07e836599d816,09:52:05,05/03/2024
,"<div style=""font-size: 10rem; color: #0000FF"">Y</div>",,ospan,letter,lMKk1aBUwSRXxC5kqOQguaqUGPu1,html-keyboard-response,133,652384,0.0-43.0-4.0-2.0-1.0-1.0,,,,,,,,,,,,,,,5de8d53cd0e07e836599d816,09:52:05,05/03/2024
1448.0,,,ospan,symmetry,lMKk1aBUwSRXxC5kqOQguaqUGPu1,symmetry-judgement-task,134,655684,0.0-43.0-4.0-2.0-1.0-2.0,,,,,,,,,,1.0,1.0,,,,5de8d53cd0e07e836599d816,09:52:05,05/03/2024
,"<div style=""font-size: 10rem; color: #0000FF"">H</div>",,ospan,letter,lMKk1aBUwSRXxC5kqOQguaqUGPu1,html-keyboard-response,135,656694,0.0-43.0-4.0-2.0-1.0-3.0,,,,,,,,,,,,,,,5de8d53cd0e07e836599d816,09:52:05,05/03/2024
763.0,,,ospan,symmetry,lMKk1aBUwSRXxC5kqOQguaqUGPu1,symmetry-judgement-task,136,659317,0.0-43.0-4.0-2.0-1.0-4.0,,,,,,,,,,1.0,1.0,,,,5de8d53cd0e07e836599d816,09:52:05,05/03/2024
,"<div style=""font-size: 10rem; color: #0000FF"">K</div>",,ospan,letter,lMKk1aBUwSRXxC5kqOQguaqUGPu1,html-keyboard-response,137,660328,0.0-43.0-4.0-2.0-1.0-5.0,,,,,,,,,,,,,,,5de8d53cd0e07e836599d816,09:52:05,05/03/2024
4744.300000071526,"<div class = numbox><p style=""font-size: 2.4rem"">Please recall the letters you saw to the best of your ability. If you do not remember a particular letter, use the SKIP button.<br><b>(When you are ready to lock in your answer, press ENTER)</b></p><button id = button_1 class = ""square num-button"" onclick = ""recordClick(this)""><div class = content><div class = numbers>C</div></div></button><button id = button_2 class = ""square num-button"" onclick = ""recordClick(this)""><div class = content><div class = numbers>G</div></div></button><button id = button_3 class = ""square num-button"" onclick = ""recordClick(this)""><div class = content><div class = numbers>H</div></div></button><button id = button_4 class = ""square num-button"" onclick = ""recordClick(this)""><div class = content><div class = numbers>J</div></div></button><button id = button_5 class = ""square num-button"" onclick = ""recordClick(this)""><div class = content><div class = numbers>K</div></div></button><button id = button_6 class = ""square num-button"" onclick = ""recordClick(this)""><div class = content><div class = numbers>L</div></div></button><button id = button_7 class = ""square num-button"" onclick = ""recordClick(this)""><div class = content><div class = numbers>N</div></div></button><button id = button_8 class = ""square num-button"" onclick = ""recordClick(this)""><div class = content><div class = numbers>P</div></div></button><button id = button_9 class = ""square num-button"" onclick = ""recordClick(this)""><div class = content><div class = numbers>Q</div></div></button><button id = button_10 class = ""square num-button"" onclick = ""recordClick(this)""><div class = content><div class = numbers>R</div></div></button><button id = button_11 class = ""square num-button"" onclick = ""recordClick(this)""><div class = content><div class = numbers>S</div></div></button><button id = button_12 class = ""square num-button"" onclick = ""recordClick(this)""><div class = content><div class = numbers>Y</div></div></button><button class = clear_button id = ""ClearButton"" onclick = ""clearResponse()"">BACKSPACE</button><button class = blank_button id = ""BlankButton"" onclick = ""blankResponse()"">SKIP</button><p style=""font-size: 2.4rem""><u><b>Current Answer:</b></u></p><br><br><div id=echoed_txt style=""font-size: 5rem; color:blue;""><b></b></div></div>",enter,ospan,retrieval,lMKk1aBUwSRXxC5kqOQguaqUGPu1,html-keyboard-response,138,665835,0.0-43.0-4.0-2.0-2.0,15,15,15,3.0,"[""Y"",""H"",""K""]","[""Y"",""H"",""K""]",1.0,3.0,,,,,,,5de8d53cd0e07e836599d816,09:52:05,05/03/2024
803.7999999523163,[''],0,ospan,feedback,lMKk1aBUwSRXxC5kqOQguaqUGPu1,html-button-response,139,667149,0.0-43.0-4.0-2.0-3.0,,,,,,,,,,,,100.0,0.0,,5de8d53cd0e07e836599d816,09:52:05,05/03/2024
,"<p style=""font-size:75px;"">...</p>",,ospan,iti,lMKk1aBUwSRXxC5kqOQguaqUGPu1,html-keyboard-response,140,668161,0.0-43.0-5.0-0.0-0.0,,,,,,,,,,,,,,,5de8d53cd0e07e836599d816,09:52:05,05/03/2024
1874.0,,,ospan,symmetry,lMKk1aBUwSRXxC5kqOQguaqUGPu1,symmetry-judgement-task,141,671065,0.0-43.0-5.0-0.0-1.0-0.0,,,,,,,,,,1.0,1.0,,,,5de8d53cd0e07e836599d816,09:52:05,05/03/2024
,"<div style=""font-size: 10rem; color: #0000FF"">P</div>",,ospan,letter,lMKk1aBUwSRXxC5kqOQguaqUGPu1,html-keyboard-response,142,672069,0.0-43.0-5.0-0.0-1.0-1.0,,,,,,,,,,,,,,,5de8d53cd0e07e836599d816,09:52:05,05/03/2024
1040.0,,,ospan,symmetry,lMKk1aBUwSRXxC5kqOQguaqUGPu1,symmetry-judgement-task,143,674947,0.0-43.0-5.0-0.0-1.0-2.0,,,,,,,,,,1.0,1.0,,,,5de8d53cd0e07e836599d816,09:52:05,05/03/2024
,"<div style=""font-size: 10rem; color: #0000FF"">G</div>",,ospan,letter,lMKk1aBUwSRXxC5kqOQguaqUGPu1,html-keyboard-response,144,675952,0.0-43.0-5.0-0.0-1.0-3.0,,,,,,,,,,,,,,,5de8d53cd0e07e836599d816,09:52:05,05/03/2024
1025.0,,,ospan,symmetry,lMKk1aBUwSRXxC5kqOQguaqUGPu1,symmetry-judgement-task,145,678825,0.0-43.0-5.0-0.0-1.0-4.0,,,,,,,,,,1.0,1.0,,,,5de8d53cd0e07e836599d816,09:52:05,05/03/2024
,"<div style=""font-size: 10rem; color: #0000FF"">L</div>",,ospan,letter,lMKk1aBUwSRXxC5kqOQguaqUGPu1,html-keyboard-response,146,679833,0.0-43.0-5.0-0.0-1.0-5.0,,,,,,,,,,,,,,,5de8d53cd0e07e836599d816,09:52:05,05/03/2024
832.0,,,ospan,symmetry,lMKk1aBUwSRXxC5kqOQguaqUGPu1,symmetry-judgement-task,147,682506,0.0-43.0-5.0-0.0-1.0-6.0,,,,,,,,,,1.0,1.0,,,,5de8d53cd0e07e836599d816,09:52:05,05/03/2024
,"<div style=""font-size: 10rem; color: #0000FF"">S</div>",,ospan,letter,lMKk1aBUwSRXxC5kqOQguaqUGPu1,html-keyboard-response,148,683515,0.0-43.0-5.0-0.0-1.0-7.0,,,,,,,,,,,,,,,5de8d53cd0e07e836599d816,09:52:05,05/03/2024
1284.0,,,ospan,symmetry,lMKk1aBUwSRXxC5kqOQguaqUGPu1,symmetry-judgement-task,149,686581,0.0-43.0-5.0-0.0-1.0-8.0,,,,,,,,,,1.0,1.0,,,,5de8d53cd0e07e836599d816,09:52:05,05/03/2024
,"<div style=""font-size: 10rem; color: #0000FF"">Q</div>",,ospan,letter,lMKk1aBUwSRXxC5kqOQguaqUGPu1,html-keyboard-response,150,687591,0.0-43.0-5.0-0.0-1.0-9.0,,,,,,,,,,,,,,,5de8d53cd0e07e836599d816,09:52:05,05/03/2024
1245.0,,,ospan,symmetry,lMKk1aBUwSRXxC5kqOQguaqUGPu1,symmetry-judgement-task,151,690702,0.0-43.0-5.0-0.0-1.0-10.0,,,,,,,,,,1.0,1.0,,,,5de8d53cd0e07e836599d816,09:52:05,05/03/2024
,"<div style=""font-size: 10rem; color: #0000FF"">J</div>",,ospan,letter,lMKk1aBUwSRXxC5kqOQguaqUGPu1,html-keyboard-response,152,691710,0.0-43.0-5.0-0.0-1.0-11.0,,,,,,,,,,,,,,,5de8d53cd0e07e836599d816,09:52:05,05/03/2024
8131.600000023842,"<div class = numbox><p style=""font-size: 2.4rem"">Please recall the letters you saw to the best of your ability. If you do not remember a particular letter, use the SKIP button.<br><b>(When you are ready to lock in your answer, press ENTER)</b></p><button id = button_1 class = ""square num-button"" onclick = ""recordClick(this)""><div class = content><div class = numbers>C</div></div></button><button id = button_2 class = ""square num-button"" onclick = ""recordClick(this)""><div class = content><div class = numbers>G</div></div></button><button id = button_3 class = ""square num-button"" onclick = ""recordClick(this)""><div class = content><div class = numbers>H</div></div></button><button id = button_4 class = ""square num-button"" onclick = ""recordClick(this)""><div class = content><div class = numbers>J</div></div></button><button id = button_5 class = ""square num-button"" onclick = ""recordClick(this)""><div class = content><div class = numbers>K</div></div></button><button id = button_6 class = ""square num-button"" onclick = ""recordClick(this)""><div class = content><div class = numbers>L</div></div></button><button id = button_7 class = ""square num-button"" onclick = ""recordClick(this)""><div class = content><div class = numbers>N</div></div></button><button id = button_8 class = ""square num-button"" onclick = ""recordClick(this)""><div class = content><div class = numbers>P</div></div></button><button id = button_9 class = ""square num-button"" onclick = ""recordClick(this)""><div class = content><div class = numbers>Q</div></div></button><button id = button_10 class = ""square num-button"" onclick = ""recordClick(this)""><div class = content><div class = numbers>R</div></div></button><button id = button_11 class = ""square num-button"" onclick = ""recordClick(this)""><div class = content><div class = numbers>S</div></div></button><button id = button_12 class = ""square num-button"" onclick = ""recordClick(this)""><div class = content><div class = numbers>Y</div></div></button><button class = clear_button id = ""ClearButton"" onclick = ""clearResponse()"">BACKSPACE</button><button class = blank_button id = ""BlankButton"" onclick = ""blankResponse()"">SKIP</button><p style=""font-size: 2.4rem""><u><b>Current Answer:</b></u></p><br><br><div id=echoed_txt style=""font-size: 5rem; color:blue;""><b></b></div></div>",enter,ospan,retrieval,lMKk1aBUwSRXxC5kqOQguaqUGPu1,html-keyboard-response,153,700603,0.0-43.0-5.0-0.0-2.0,21,21,21,6.0,"[""P"",""G"",""L"",""S"",""Q"",""J""]","[""P"",""G"",""L"",""S"",""Q"",""J""]",1.0,6.0,,,,,,,5de8d53cd0e07e836599d816,09:52:05,05/03/2024
597.6000000238419,[''],0,ospan,feedback,lMKk1aBUwSRXxC5kqOQguaqUGPu1,html-button-response,154,701704,0.0-43.0-5.0-0.0-3.0,,,,,,,,,,,,100.0,0.0,,5de8d53cd0e07e836599d816,09:52:05,05/03/2024
,"<p style=""font-size:75px;"">...</p>",,ospan,iti,lMKk1aBUwSRXxC5kqOQguaqUGPu1,html-keyboard-response,155,702709,0.0-43.0-5.0-1.0-0.0,,,,,,,,,,,,,,,5de8d53cd0e07e836599d816,09:52:05,05/03/2024
1402.0,,,ospan,symmetry,lMKk1aBUwSRXxC5kqOQguaqUGPu1,symmetry-judgement-task,156,705212,0.0-43.0-5.0-1.0-1.0-0.0,,,,,,,,,,1.0,1.0,,,,5de8d53cd0e07e836599d816,09:52:05,05/03/2024
,"<div style=""font-size: 10rem; color: #0000FF"">G</div>",,ospan,letter,lMKk1aBUwSRXxC5kqOQguaqUGPu1,html-keyboard-response,157,706219,0.0-43.0-5.0-1.0-1.0-1.0,,,,,,,,,,,,,,,5de8d53cd0e07e836599d816,09:52:05,05/03/2024
1988.0,,,ospan,symmetry,lMKk1aBUwSRXxC5kqOQguaqUGPu1,symmetry-judgement-task,158,710063,0.0-43.0-5.0-1.0-1.0-2.0,,,,,,,,,,1.0,1.0,,,,5de8d53cd0e07e836599d816,09:52:05,05/03/2024
,"<div style=""font-size: 10rem; color: #0000FF"">S</div>",,ospan,letter,lMKk1aBUwSRXxC5kqOQguaqUGPu1,html-keyboard-response,159,711069,0.0-43.0-5.0-1.0-1.0-3.0,,,,,,,,,,,,,,,5de8d53cd0e07e836599d816,09:52:05,05/03/2024
880.0,,,ospan,symmetry,lMKk1aBUwSRXxC5kqOQguaqUGPu1,symmetry-judgement-task,160,713793,0.0-43.0-5.0-1.0-1.0-4.0,,,,,,,,,,1.0,1.0,,,,5de8d53cd0e07e836599d816,09:52:05,05/03/2024
,"<div style=""font-size: 10rem; color: #0000FF"">N</div>",,ospan,letter,lMKk1aBUwSRXxC5kqOQguaqUGPu1,html-keyboard-response,161,714800,0.0-43.0-5.0-1.0-1.0-5.0,,,,,,,,,,,,,,,5de8d53cd0e07e836599d816,09:52:05,05/03/2024
866.0,,,ospan,symmetry,lMKk1aBUwSRXxC5kqOQguaqUGPu1,symmetry-judgement-task,162,717514,0.0-43.0-5.0-1.0-1.0-6.0,,,,,,,,,,1.0,1.0,,,,5de8d53cd0e07e836599d816,09:52:05,05/03/2024
,"<div style=""font-size: 10rem; color: #0000FF"">P</div>",,ospan,letter,lMKk1aBUwSRXxC5kqOQguaqUGPu1,html-keyboard-response,163,718522,0.0-43.0-5.0-1.0-1.0-7.0,,,,,,,,,,,,,,,5de8d53cd0e07e836599d816,09:52:05,05/03/2024
1372.0,,,ospan,symmetry,lMKk1aBUwSRXxC5kqOQguaqUGPu1,symmetry-judgement-task,164,721678,0.0-43.0-5.0-1.0-1.0-8.0,,,,,,,,,,1.0,1.0,,,,5de8d53cd0e07e836599d816,09:52:05,05/03/2024
,"<div style=""font-size: 10rem; color: #0000FF"">R</div>",,ospan,letter,lMKk1aBUwSRXxC5kqOQguaqUGPu1,html-keyboard-response,165,722683,0.0-43.0-5.0-1.0-1.0-9.0,,,,,,,,,,,,,,,5de8d53cd0e07e836599d816,09:52:05,05/03/2024
1180.0,,,ospan,symmetry,lMKk1aBUwSRXxC5kqOQguaqUGPu1,symmetry-judgement-task,166,725726,0.0-43.0-5.0-1.0-1.0-10.0,,,,,,,,,,1.0,1.0,,,,5de8d53cd0e07e836599d816,09:52:05,05/03/2024
,"<div style=""font-size: 10rem; color: #0000FF"">H</div>",,ospan,letter,lMKk1aBUwSRXxC5kqOQguaqUGPu1,html-keyboard-response,167,726737,0.0-43.0-5.0-1.0-1.0-11.0,,,,,,,,,,,,,,,5de8d53cd0e07e836599d816,09:52:05,05/03/2024
3953.0,,,ospan,symmetry,lMKk1aBUwSRXxC5kqOQguaqUGPu1,symmetry-judgement-task,168,732546,0.0-43.0-5.0-1.0-1.0-12.0,,,,,,,,,,1.0,1.0,,,,5de8d53cd0e07e836599d816,09:52:05,05/03/2024
,"<div style=""font-size: 10rem; color: #0000FF"">Y</div>",,ospan,letter,lMKk1aBUwSRXxC5kqOQguaqUGPu1,html-keyboard-response,169,733558,0.0-43.0-5.0-1.0-1.0-13.0,,,,,,,,,,,,,,,5de8d53cd0e07e836599d816,09:52:05,05/03/2024
20639.299999952316,"<div class = numbox><p style=""font-size: 2.4rem"">Please recall the letters you saw to the best of your ability. If you do not remember a particular letter, use the SKIP button.<br><b>(When you are ready to lock in your answer, press ENTER)</b></p><button id = button_1 class = ""square num-button"" onclick = ""recordClick(this)""><div class = content><div class = numbers>C</div></div></button><button id = button_2 class = ""square num-button"" onclick = ""recordClick(this)""><div class = content><div class = numbers>G</div></div></button><button id = button_3 class = ""square num-button"" onclick = ""recordClick(this)""><div class = content><div class = numbers>H</div></div></button><button id = button_4 class = ""square num-button"" onclick = ""recordClick(this)""><div class = content><div class = numbers>J</div></div></button><button id = button_5 class = ""square num-button"" onclick = ""recordClick(this)""><div class = content><div class = numbers>K</div></div></button><button id = button_6 class = ""square num-button"" onclick = ""recordClick(this)""><div class = content><div class = numbers>L</div></div></button><button id = button_7 class = ""square num-button"" onclick = ""recordClick(this)""><div class = content><div class = numbers>N</div></div></button><button id = button_8 class = ""square num-button"" onclick = ""recordClick(this)""><div class = content><div class = numbers>P</div></div></button><button id = button_9 class = ""square num-button"" onclick = ""recordClick(this)""><div class = content><div class = numbers>Q</div></div></button><button id = button_10 class = ""square num-button"" onclick = ""recordClick(this)""><div class = content><div class = numbers>R</div></div></button><button id = button_11 class = ""square num-button"" onclick = ""recordClick(this)""><div class = content><div class = numbers>S</div></div></button><button id = button_12 class = ""square num-button"" onclick = ""recordClick(this)""><div class = content><div class = numbers>Y</div></div></button><button class = clear_button id = ""ClearButton"" onclick = ""clearResponse()"">BACKSPACE</button><button class = blank_button id = ""BlankButton"" onclick = ""blankResponse()"">SKIP</button><p style=""font-size: 2.4rem""><u><b>Current Answer:</b></u></p><br><br><div id=echoed_txt style=""font-size: 5rem; color:blue;""><b></b></div></div>",enter,ospan,retrieval,lMKk1aBUwSRXxC5kqOQguaqUGPu1,html-keyboard-response,170,754954,0.0-43.0-5.0-1.0-2.0,28,26,21,7.0,"[""G"",""S"",""N"",""P"",""Q"",""_"",""Y""]","[""G"",""S"",""N"",""P"",""R"",""H"",""Y""]",0.0,5.0,,,,,,,5de8d53cd0e07e836599d816,09:52:05,05/03/2024
840.8999999761581,[''],0,ospan,feedback,lMKk1aBUwSRXxC5kqOQguaqUGPu1,html-button-response,171,756300,0.0-43.0-5.0-1.0-3.0,,,,,,,,,,,,100.0,0.0,,5de8d53cd0e07e836599d816,09:52:05,05/03/2024
,"<p style=""font-size:75px;"">...</p>",,ospan,iti,lMKk1aBUwSRXxC5kqOQguaqUGPu1,html-keyboard-response,172,757302,0.0-43.0-6.0-0.0-0.0,,,,,,,,,,,,,,,5de8d53cd0e07e836599d816,09:52:05,05/03/2024
1129.0,,,ospan,symmetry,lMKk1aBUwSRXxC5kqOQguaqUGPu1,symmetry-judgement-task,173,759453,0.0-43.0-6.0-0.0-1.0-0.0,,,,,,,,,,1.0,1.0,,,,5de8d53cd0e07e836599d816,09:52:05,05/03/2024
,"<div style=""font-size: 10rem; color: #0000FF"">Y</div>",,ospan,letter,lMKk1aBUwSRXxC5kqOQguaqUGPu1,html-keyboard-response,174,760463,0.0-43.0-6.0-0.0-1.0-1.0,,,,,,,,,,,,,,,5de8d53cd0e07e836599d816,09:52:05,05/03/2024
740.0,,,ospan,symmetry,lMKk1aBUwSRXxC5kqOQguaqUGPu1,symmetry-judgement-task,175,763057,0.0-43.0-6.0-0.0-1.0-2.0,,,,,,,,,,1.0,1.0,,,,5de8d53cd0e07e836599d816,09:52:05,05/03/2024
,"<div style=""font-size: 10rem; color: #0000FF"">H</div>",,ospan,letter,lMKk1aBUwSRXxC5kqOQguaqUGPu1,html-keyboard-response,176,764067,0.0-43.0-6.0-0.0-1.0-3.0,,,,,,,,,,,,,,,5de8d53cd0e07e836599d816,09:52:05,05/03/2024
1150.0,,,ospan,symmetry,lMKk1aBUwSRXxC5kqOQguaqUGPu1,symmetry-judgement-task,177,767085,0.0-43.0-6.0-0.0-1.0-4.0,,,,,,,,,,1.0,1.0,,,,5de8d53cd0e07e836599d816,09:52:05,05/03/2024
,"<div style=""font-size: 10rem; color: #0000FF"">C</div>",,ospan,letter,lMKk1aBUwSRXxC5kqOQguaqUGPu1,html-keyboard-response,178,768094,0.0-43.0-6.0-0.0-1.0-5.0,,,,,,,,,,,,,,,5de8d53cd0e07e836599d816,09:52:05,05/03/2024
809.0,,,ospan,symmetry,lMKk1aBUwSRXxC5kqOQguaqUGPu1,symmetry-judgement-task,179,770759,0.0-43.0-6.0-0.0-1.0-6.0,,,,,,,,,,1.0,1.0,,,,5de8d53cd0e07e836599d816,09:52:05,05/03/2024
,"<div style=""font-size: 10rem; color: #0000FF"">S</div>",,ospan,letter,lMKk1aBUwSRXxC5kqOQguaqUGPu1,html-keyboard-response,180,771773,0.0-43.0-6.0-0.0-1.0-7.0,,,,,,,,,,,,,,,5de8d53cd0e07e836599d816,09:52:05,05/03/2024
1001.0,,,ospan,symmetry,lMKk1aBUwSRXxC5kqOQguaqUGPu1,symmetry-judgement-task,181,774557,0.0-43.0-6.0-0.0-1.0-8.0,,,,,,,,,,1.0,1.0,,,,5de8d53cd0e07e836599d816,09:52:05,05/03/2024
,"<div style=""font-size: 10rem; color: #0000FF"">K</div>",,ospan,letter,lMKk1aBUwSRXxC5kqOQguaqUGPu1,html-keyboard-response,182,775568,0.0-43.0-6.0-0.0-1.0-9.0,,,,,,,,,,,,,,,5de8d53cd0e07e836599d816,09:52:05,05/03/2024
8536.100000023842,"<div class = numbox><p style=""font-size: 2.4rem"">Please recall the letters you saw to the best of your ability. If you do not remember a particular letter, use the SKIP button.<br><b>(When you are ready to lock in your answer, press ENTER)</b></p><button id = button_1 class = ""square num-button"" onclick = ""recordClick(this)""><div class = content><div class = numbers>C</div></div></button><button id = button_2 class = ""square num-button"" onclick = ""recordClick(this)""><div class = content><div class = numbers>G</div></div></button><button id = button_3 class = ""square num-button"" onclick = ""recordClick(this)""><div class = content><div class = numbers>H</div></div></button><button id = button_4 class = ""square num-button"" onclick = ""recordClick(this)""><div class = content><div class = numbers>J</div></div></button><button id = button_5 class = ""square num-button"" onclick = ""recordClick(this)""><div class = content><div class = numbers>K</div></div></button><button id = button_6 class = ""square num-button"" onclick = ""recordClick(this)""><div class = content><div class = numbers>L</div></div></button><button id = button_7 class = ""square num-button"" onclick = ""recordClick(this)""><div class = content><div class = numbers>N</div></div></button><button id = button_8 class = ""square num-button"" onclick = ""recordClick(this)""><div class = content><div class = numbers>P</div></div></button><button id = button_9 class = ""square num-button"" onclick = ""recordClick(this)""><div class = content><div class = numbers>Q</div></div></button><button id = button_10 class = ""square num-button"" onclick = ""recordClick(this)""><div class = content><div class = numbers>R</div></div></button><button id = button_11 class = ""square num-button"" onclick = ""recordClick(this)""><div class = content><div class = numbers>S</div></div></button><button id = button_12 class = ""square num-button"" onclick = ""recordClick(this)""><div class = content><div class = numbers>Y</div></div></button><button class = clear_button id = ""ClearButton"" onclick = ""clearResponse()"">BACKSPACE</button><button class = blank_button id = ""BlankButton"" onclick = ""blankResponse()"">SKIP</button><p style=""font-size: 2.4rem""><u><b>Current Answer:</b></u></p><br><br><div id=echoed_txt style=""font-size: 5rem; color:blue;""><b></b></div></div>",enter,ospan,retrieval,lMKk1aBUwSRXxC5kqOQguaqUGPu1,html-keyboard-response,183,784866,0.0-43.0-6.0-0.0-2.0,33,31,26,5.0,"[""Y"",""H"",""C"",""S"",""K""]","[""Y"",""H"",""C"",""S"",""K""]",1.0,5.0,,,,,,,5de8d53cd0e07e836599d816,09:52:05,05/03/2024
592.0,[''],0,ospan,feedback,lMKk1aBUwSRXxC5kqOQguaqUGPu1,html-button-response,184,785960,0.0-43.0-6.0-0.0-3.0,,,,,,,,,,,,100.0,0.0,,5de8d53cd0e07e836599d816,09:52:05,05/03/2024
,"<p style=""font-size:75px;"">...</p>",,ospan,iti,lMKk1aBUwSRXxC5kqOQguaqUGPu1,html-keyboard-response,185,786963,0.0-43.0-6.0-1.0-0.0,,,,,,,,,,,,,,,5de8d53cd0e07e836599d816,09:52:05,05/03/2024
1167.0,,,ospan,symmetry,lMKk1aBUwSRXxC5kqOQguaqUGPu1,symmetry-judgement-task,186,789237,0.0-43.0-6.0-1.0-1.0-0.0,,,,,,,,,,1.0,1.0,,,,5de8d53cd0e07e836599d816,09:52:05,05/03/2024
,"<div style=""font-size: 10rem; color: #0000FF"">N</div>",,ospan,letter,lMKk1aBUwSRXxC5kqOQguaqUGPu1,html-keyboard-response,187,790249,0.0-43.0-6.0-1.0-1.0-1.0,,,,,,,,,,,,,,,5de8d53cd0e07e836599d816,09:52:05,05/03/2024
916.0,,,ospan,symmetry,lMKk1aBUwSRXxC5kqOQguaqUGPu1,symmetry-judgement-task,188,793012,0.0-43.0-6.0-1.0-1.0-2.0,,,,,,,,,,1.0,1.0,,,,5de8d53cd0e07e836599d816,09:52:05,05/03/2024
,"<div style=""font-size: 10rem; color: #0000FF"">H</div>",,ospan,letter,lMKk1aBUwSRXxC5kqOQguaqUGPu1,html-keyboard-response,189,794024,0.0-43.0-6.0-1.0-1.0-3.0,,,,,,,,,,,,,,,5de8d53cd0e07e836599d816,09:52:05,05/03/2024
915.0,,,ospan,symmetry,lMKk1aBUwSRXxC5kqOQguaqUGPu1,symmetry-judgement-task,190,796804,0.0-43.0-6.0-1.0-1.0-4.0,,,,,,,,,,1.0,1.0,,,,5de8d53cd0e07e836599d816,09:52:05,05/03/2024
,"<div style=""font-size: 10rem; color: #0000FF"">G</div>",,ospan,letter,lMKk1aBUwSRXxC5kqOQguaqUGPu1,html-keyboard-response,191,797806,0.0-43.0-6.0-1.0-1.0-5.0,,,,,,,,,,,,,,,5de8d53cd0e07e836599d816,09:52:05,05/03/2024
835.0,,,ospan,symmetry,lMKk1aBUwSRXxC5kqOQguaqUGPu1,symmetry-judgement-task,192,800484,0.0-43.0-6.0-1.0-1.0-6.0,,,,,,,,,,1.0,1.0,,,,5de8d53cd0e07e836599d816,09:52:05,05/03/2024
,"<div style=""font-size: 10rem; color: #0000FF"">J</div>",,ospan,letter,lMKk1aBUwSRXxC5kqOQguaqUGPu1,html-keyboard-response,193,801490,0.0-43.0-6.0-1.0-1.0-7.0,,,,,,,,,,,,,,,5de8d53cd0e07e836599d816,09:52:05,05/03/2024
1213.0,,,ospan,symmetry,lMKk1aBUwSRXxC5kqOQguaqUGPu1,symmetry-judgement-task,194,804547,0.0-43.0-6.0-1.0-1.0-8.0,,,,,,,,,,0.0,0.0,,,,5de8d53cd0e07e836599d816,09:52:05,05/03/2024
,"<div style=""font-size: 10rem; color: #0000FF"">R</div>",,ospan,letter,lMKk1aBUwSRXxC5kqOQguaqUGPu1,html-keyboard-response,195,805557,0.0-43.0-6.0-1.0-1.0-9.0,,,,,,,,,,,,,,,5de8d53cd0e07e836599d816,09:52:05,05/03/2024
1044.0,,,ospan,symmetry,lMKk1aBUwSRXxC5kqOQguaqUGPu1,symmetry-judgement-task,196,808464,0.0-43.0-6.0-1.0-1.0-10.0,,,,,,,,,,1.0,1.0,,,,5de8d53cd0e07e836599d816,09:52:05,05/03/2024
,"<div style=""font-size: 10rem; color: #0000FF"">S</div>",,ospan,letter,lMKk1aBUwSRXxC5kqOQguaqUGPu1,html-keyboard-response,197,809474,0.0-43.0-6.0-1.0-1.0-11.0,,,,,,,,,,,,,,,5de8d53cd0e07e836599d816,09:52:05,05/03/2024
1463.0,,,ospan,symmetry,lMKk1aBUwSRXxC5kqOQguaqUGPu1,symmetry-judgement-task,198,812794,0.0-43.0-6.0-1.0-1.0-12.0,,,,,,,,,,1.0,1.0,,,,5de8d53cd0e07e836599d816,09:52:05,05/03/2024
,"<div style=""font-size: 10rem; color: #0000FF"">P</div>",,ospan,letter,lMKk1aBUwSRXxC5kqOQguaqUGPu1,html-keyboard-response,199,813807,0.0-43.0-6.0-1.0-1.0-13.0,,,,,,,,,,,,,,,5de8d53cd0e07e836599d816,09:52:05,05/03/2024
1936.0,,,ospan,symmetry,lMKk1aBUwSRXxC5kqOQguaqUGPu1,symmetry-judgement-task,200,817596,0.0-43.0-6.0-1.0-1.0-14.0,,,,,,,,,,1.0,1.0,,,,5de8d53cd0e07e836599d816,09:52:05,05/03/2024
,"<div style=""font-size: 10rem; color: #0000FF"">L</div>",,ospan,letter,lMKk1aBUwSRXxC5kqOQguaqUGPu1,html-keyboard-response,201,818607,0.0-43.0-6.0-1.0-1.0-15.0,,,,,,,,,,,,,,,5de8d53cd0e07e836599d816,09:52:05,05/03/2024
11195.700000047684,"<div class = numbox><p style=""font-size: 2.4rem"">Please recall the letters you saw to the best of your ability. If you do not remember a particular letter, use the SKIP button.<br><b>(When you are ready to lock in your answer, press ENTER)</b></p><button id = button_1 class = ""square num-button"" onclick = ""recordClick(this)""><div class = content><div class = numbers>C</div></div></button><button id = button_2 class = ""square num-button"" onclick = ""recordClick(this)""><div class = content><div class = numbers>G</div></div></button><button id = button_3 class = ""square num-button"" onclick = ""recordClick(this)""><div class = content><div class = numbers>H</div></div></button><button id = button_4 class = ""square num-button"" onclick = ""recordClick(this)""><div class = content><div class = numbers>J</div></div></button><button id = button_5 class = ""square num-button"" onclick = ""recordClick(this)""><div class = content><div class = numbers>K</div></div></button><button id = button_6 class = ""square num-button"" onclick = ""recordClick(this)""><div class = content><div class = numbers>L</div></div></button><button id = button_7 class = ""square num-button"" onclick = ""recordClick(this)""><div class = content><div class = numbers>N</div></div></button><button id = button_8 class = ""square num-button"" onclick = ""recordClick(this)""><div class = content><div class = numbers>P</div></div></button><button id = button_9 class = ""square num-button"" onclick = ""recordClick(this)""><div class = content><div class = numbers>Q</div></div></button><button id = button_10 class = ""square num-button"" onclick = ""recordClick(this)""><div class = content><div class = numbers>R</div></div></button><button id = button_11 class = ""square num-button"" onclick = ""recordClick(this)""><div class = content><div class = numbers>S</div></div></button><button id = button_12 class = ""square num-button"" onclick = ""recordClick(this)""><div class = content><div class = numbers>Y</div></div></button><button class = clear_button id = ""ClearButton"" onclick = ""clearResponse()"">BACKSPACE</button><button class = blank_button id = ""BlankButton"" onclick = ""blankResponse()"">SKIP</button><p style=""font-size: 2.4rem""><u><b>Current Answer:</b></u></p><br><br><div id=echoed_txt style=""font-size: 5rem; color:blue;""><b></b></div></div>",enter,ospan,retrieval,lMKk1aBUwSRXxC5kqOQguaqUGPu1,html-keyboard-response,202,830554,0.0-43.0-6.0-1.0-2.0,41,38,26,8.0,"[""N"",""H"",""G"",""J"",""R"",""S"",""P""]","[""N"",""H"",""G"",""J"",""R"",""S"",""P"",""L""]",0.0,7.0,,,,,,,5de8d53cd0e07e836599d816,09:52:05,05/03/2024
577.7000000476837,[''],0,ospan,feedback,lMKk1aBUwSRXxC5kqOQguaqUGPu1,html-button-response,203,831640,0.0-43.0-6.0-1.0-3.0,,,,,,,,,,,,98.0,0.0,,5de8d53cd0e07e836599d816,09:52:05,05/03/2024
6016.200000047684,,{'Q0': 'Everything was clear'},ospan,survey_ospan,lMKk1aBUwSRXxC5kqOQguaqUGPu1,lmdlab-survey-text,204,838413,0.0-43.0-7.0,,,,,,,,,,,,,,lMKk1aBUwSRXxC5kqOQguaqUGPu1,5de8d53cd0e07e836599d816,09:52:05,05/03/2024
803.0,<p><p style='font-size: 3rem'>Great work!<br><br>This completes the symmetry and memory task.</p><br><br><br>,0,ospan,finish,lMKk1aBUwSRXxC5kqOQguaqUGPu1,html-button-response,205,839217,0.0-43.0-8.0,41,38,26,,,,,,,,,98.0,,,5de8d53cd0e07e836599d816,09:52:05,05/03/2024
