rt,stimulus,response,exp_name,exp_stage,subjectID,trial_type,trial_index,time_elapsed,internal_node_id,ospan_shown,ospan_total,ospan_abs,length,resp_actual,resp_correct,full_correct,num_correct,feedback,accuracy,correct,math_acc,math_warning,databaseID,prolificID,start_time,date
1526.2000000178814,<div class = 'left_align' style='font-size: 3.25rem; line-height: 1.3;'><p class = 'center_align'><b>Welcome to the Symmetry and Memory Task</b><br><br><br><br></p>Press 'continue' to show the instructions.<br><br><br><br></div>,0,ospan,instruct,TDVrE9orAgfqBGWMBmOkCjBEfli1,html-button-response,51,324523,0.0-43.0-0.0-0.0-0.0,,,,,,,,,,,,,,,62e023ae6d022e4d7bfc5db1,09:36:07,07/03/2024
3380.5999999940395,"<div class = 'left_align' style='font-size: 3.25rem; line-height: 1.3;'><p class = 'center_align'><b>Symmetry and Memory Task</b><br><br></p>In this task, you will try to memorize letters you see on the screen<br>while you also view black and white grid pictures.<br><br>In the next few minutes, you will have some practice to get you familiar<br>with how the task works.<br><br>It may be difficult sometimes, but please do not worry about making mistakes!<br><br>We will begin by practicing the letter part of the task.<br><br><br><br></div>",0,ospan,instruct,TDVrE9orAgfqBGWMBmOkCjBEfli1,html-button-response,52,328156,0.0-43.0-0.0-0.0-1.0,,,,,,,,,,,,,,,62e023ae6d022e4d7bfc5db1,09:36:07,07/03/2024
732.5,"<div class = 'left_align' style='font-size: 3.25rem; line-height: 1.3;'>For this practice part, letters will appear on the screen one at a time.<br><br>Try to remember each letter in the order presented.<br><br>After some letters have been shown, you will see a response screen. Your<br>goal is to report the letters you saw <b>in order</b>. If you do not remember<br>a particular letter, you will have the option to leave it blank.<br><br><br><br></div>",0,ospan,instruct,TDVrE9orAgfqBGWMBmOkCjBEfli1,html-button-response,53,329141,0.0-43.0-0.0-0.0-2.0,,,,,,,,,,,,,,,62e023ae6d022e4d7bfc5db1,09:36:07,07/03/2024
21246.09999999404,"<div class = 'left_align' style='font-size: 3.25rem; line-height: 1.3;'>Remember, it is very important to get the letters in the same<br>order as you see them.<br><br>When you are ready, you may begin the letter practice.</div><br><br><br><br>",0,ospan,instruct,TDVrE9orAgfqBGWMBmOkCjBEfli1,html-button-response,54,350639,0.0-43.0-0.0-0.0-3.0,,,,,,,,,,,,,,,62e023ae6d022e4d7bfc5db1,09:36:07,07/03/2024
,"<p style=""font-size:75px;"">...</p>",,ospan,iti,TDVrE9orAgfqBGWMBmOkCjBEfli1,html-keyboard-response,55,351896,0.0-43.0-0.0-1.0-0.0,,,,,,,,,,,,,,,62e023ae6d022e4d7bfc5db1,09:36:07,07/03/2024
,"<div style=""font-size: 10rem; color: #0000FF"">H</div>",,ospan,letter,TDVrE9orAgfqBGWMBmOkCjBEfli1,html-keyboard-response,56,352901,0.0-43.0-0.0-1.0-1.0,,,,,,,,,,,,,,,62e023ae6d022e4d7bfc5db1,09:36:07,07/03/2024
,"<div style=""font-size: 10rem; color: #0000FF"">G</div>",,ospan,letter,TDVrE9orAgfqBGWMBmOkCjBEfli1,html-keyboard-response,57,354654,0.0-43.0-0.0-1.0-2.0,,,,,,,,,,,,,,,62e023ae6d022e4d7bfc5db1,09:36:07,07/03/2024
6875.399999976158,"<div class = numbox><p style=""font-size: 2.4rem"">Please recall the letters you saw to the best of your ability. If you do not remember a particular letter, use the SKIP button.<br><b>(When you are ready to lock in your answer, press ENTER)</b></p><button id = button_1 class = ""square num-button"" onclick = ""recordClick(this)""><div class = content><div class = numbers>C</div></div></button><button id = button_2 class = ""square num-button"" onclick = ""recordClick(this)""><div class = content><div class = numbers>G</div></div></button><button id = button_3 class = ""square num-button"" onclick = ""recordClick(this)""><div class = content><div class = numbers>H</div></div></button><button id = button_4 class = ""square num-button"" onclick = ""recordClick(this)""><div class = content><div class = numbers>J</div></div></button><button id = button_5 class = ""square num-button"" onclick = ""recordClick(this)""><div class = content><div class = numbers>K</div></div></button><button id = button_6 class = ""square num-button"" onclick = ""recordClick(this)""><div class = content><div class = numbers>L</div></div></button><button id = button_7 class = ""square num-button"" onclick = ""recordClick(this)""><div class = content><div class = numbers>N</div></div></button><button id = button_8 class = ""square num-button"" onclick = ""recordClick(this)""><div class = content><div class = numbers>P</div></div></button><button id = button_9 class = ""square num-button"" onclick = ""recordClick(this)""><div class = content><div class = numbers>Q</div></div></button><button id = button_10 class = ""square num-button"" onclick = ""recordClick(this)""><div class = content><div class = numbers>R</div></div></button><button id = button_11 class = ""square num-button"" onclick = ""recordClick(this)""><div class = content><div class = numbers>S</div></div></button><button id = button_12 class = ""square num-button"" onclick = ""recordClick(this)""><div class = content><div class = numbers>Y</div></div></button><button class = clear_button id = ""ClearButton"" onclick = ""clearResponse()"">BACKSPACE</button><button class = blank_button id = ""BlankButton"" onclick = ""blankResponse()"">SKIP</button><p style=""font-size: 2.4rem""><u><b>Current Answer:</b></u></p><br><br><div id=echoed_txt style=""font-size: 5rem; color:blue;""><b></b></div></div>",enter,ospan,retrieval,TDVrE9orAgfqBGWMBmOkCjBEfli1,html-keyboard-response,58,362283,0.0-43.0-0.0-1.0-3.0,NA,NA,NA,2.0,"[""H"",""G""]","[""H"",""G""]",1.0,2.0,"['<font color=""green"">H</font>', '<font color=""green"">G</font>']",,,,,,62e023ae6d022e4d7bfc5db1,09:36:07,07/03/2024
1419.0999999940395,"['<p style=""font-size:44px"">Letters:<br><br><br><font color=""green"">H</font> <font color=""green"">G</font></p><br><br>']",0,ospan,practice_feedback,TDVrE9orAgfqBGWMBmOkCjBEfli1,html-button-response,59,364206,0.0-43.0-0.0-1.0-4.0,,,,,,,,,,,,,,,62e023ae6d022e4d7bfc5db1,09:36:07,07/03/2024
,"<p style=""font-size:75px;"">...</p>",,ospan,iti,TDVrE9orAgfqBGWMBmOkCjBEfli1,html-keyboard-response,60,365210,0.0-43.0-0.0-2.0-0.0,,,,,,,,,,,,,,,62e023ae6d022e4d7bfc5db1,09:36:07,07/03/2024
,"<div style=""font-size: 10rem; color: #0000FF"">N</div>",,ospan,letter,TDVrE9orAgfqBGWMBmOkCjBEfli1,html-keyboard-response,61,366212,0.0-43.0-0.0-2.0-1.0,,,,,,,,,,,,,,,62e023ae6d022e4d7bfc5db1,09:36:07,07/03/2024
,"<div style=""font-size: 10rem; color: #0000FF"">L</div>",,ospan,letter,TDVrE9orAgfqBGWMBmOkCjBEfli1,html-keyboard-response,62,367965,0.0-43.0-0.0-2.0-2.0,,,,,,,,,,,,,,,62e023ae6d022e4d7bfc5db1,09:36:07,07/03/2024
,"<div style=""font-size: 10rem; color: #0000FF"">R</div>",,ospan,letter,TDVrE9orAgfqBGWMBmOkCjBEfli1,html-keyboard-response,63,369718,0.0-43.0-0.0-2.0-3.0,,,,,,,,,,,,,,,62e023ae6d022e4d7bfc5db1,09:36:07,07/03/2024
2487.5,"<div class = numbox><p style=""font-size: 2.4rem"">Please recall the letters you saw to the best of your ability. If you do not remember a particular letter, use the SKIP button.<br><b>(When you are ready to lock in your answer, press ENTER)</b></p><button id = button_1 class = ""square num-button"" onclick = ""recordClick(this)""><div class = content><div class = numbers>C</div></div></button><button id = button_2 class = ""square num-button"" onclick = ""recordClick(this)""><div class = content><div class = numbers>G</div></div></button><button id = button_3 class = ""square num-button"" onclick = ""recordClick(this)""><div class = content><div class = numbers>H</div></div></button><button id = button_4 class = ""square num-button"" onclick = ""recordClick(this)""><div class = content><div class = numbers>J</div></div></button><button id = button_5 class = ""square num-button"" onclick = ""recordClick(this)""><div class = content><div class = numbers>K</div></div></button><button id = button_6 class = ""square num-button"" onclick = ""recordClick(this)""><div class = content><div class = numbers>L</div></div></button><button id = button_7 class = ""square num-button"" onclick = ""recordClick(this)""><div class = content><div class = numbers>N</div></div></button><button id = button_8 class = ""square num-button"" onclick = ""recordClick(this)""><div class = content><div class = numbers>P</div></div></button><button id = button_9 class = ""square num-button"" onclick = ""recordClick(this)""><div class = content><div class = numbers>Q</div></div></button><button id = button_10 class = ""square num-button"" onclick = ""recordClick(this)""><div class = content><div class = numbers>R</div></div></button><button id = button_11 class = ""square num-button"" onclick = ""recordClick(this)""><div class = content><div class = numbers>S</div></div></button><button id = button_12 class = ""square num-button"" onclick = ""recordClick(this)""><div class = content><div class = numbers>Y</div></div></button><button class = clear_button id = ""ClearButton"" onclick = ""clearResponse()"">BACKSPACE</button><button class = blank_button id = ""BlankButton"" onclick = ""blankResponse()"">SKIP</button><p style=""font-size: 2.4rem""><u><b>Current Answer:</b></u></p><br><br><div id=echoed_txt style=""font-size: 5rem; color:blue;""><b></b></div></div>",enter,ospan,retrieval,TDVrE9orAgfqBGWMBmOkCjBEfli1,html-keyboard-response,64,372959,0.0-43.0-0.0-2.0-4.0,NA,NA,NA,3.0,"[""N"",""L"",""R""]","[""N"",""L"",""R""]",1.0,3.0,"['<font color=""green"">N</font>', '<font color=""green"">L</font>', '<font color=""green"">R</font>']",,,,,,62e023ae6d022e4d7bfc5db1,09:36:07,07/03/2024
2228.5,"['<p style=""font-size:44px"">Letters:<br><br><br><font color=""green"">N</font> <font color=""green"">L</font> <font color=""green"">R</font></p><br><br>']",0,ospan,practice_feedback,TDVrE9orAgfqBGWMBmOkCjBEfli1,html-button-response,65,375689,0.0-43.0-0.0-2.0-5.0,,,,,,,,,,,,,,,62e023ae6d022e4d7bfc5db1,09:36:07,07/03/2024
4664.4000000059605,"<div class = 'left_align' style='font-size: 3.25rem; line-height: 1.3;'>Now you will practice doing the <b>symmetry judgment part</b> of the experiment.<br><br>A black and white grid picture will appear on the screen and you have to judge if it is <br>symmetrical or asymetrical.<br><br>A picture is 'mirror' symmetrical if its left half is identical to the right half when flipped.<br>Here are examples of a symmetrical and an asymetrical picture:<br><br><center><img src='Stimuli/img/symm_instructions_extra.png' style='height:420px; width:900'></img></center><br>To judge symmetry, imagine you were to fold each picture down the middle, like a book –<br>would the left half match the right half when folded onto each other?<br><br></div><br>",0,ospan,instruct,TDVrE9orAgfqBGWMBmOkCjBEfli1,html-button-response,66,380356,0.0-43.0-1.0-0.0-0.0,,,,,,,,,,,,,,,62e023ae6d022e4d7bfc5db1,09:36:07,07/03/2024
1970.8999999761581,"<div class = 'left_align' style='font-size: 3.25rem; line-height: 1.3;'>When you have viewed the picture and determined whether it is symmetrical or not,<br>you can <b>click the Yes or No button</b> below to answer.<br><br>If you take longer than 15 seconds, it will continue automatically<br>and record the answer as an error.</div><br>",0,ospan,instruct,TDVrE9orAgfqBGWMBmOkCjBEfli1,html-button-response,67,382578,0.0-43.0-1.0-0.0-1.0,,,,,,,,,,,,,,,62e023ae6d022e4d7bfc5db1,09:36:07,07/03/2024
1892.300000011921,"<div class = 'left_align' style='font-size: 3.25rem; line-height: 1.3;'>It is <b>very</b> important that you make the symmetry judgment correctly.<br><br>It is also important that you try and judge the picture as quickly as you can.<br><br>When you are ready, click on the button below to try some practice problems.</div><br><br><br><br>",0,ospan,instruct,TDVrE9orAgfqBGWMBmOkCjBEfli1,html-button-response,68,384722,0.0-43.0-1.0-0.0-2.0,,,,,,,,,,,,,,,62e023ae6d022e4d7bfc5db1,09:36:07,07/03/2024
1393.0,,,ospan,symmetry,TDVrE9orAgfqBGWMBmOkCjBEfli1,symmetry-judgement-task,69,386907,0.0-43.0-1.0-1.0-0.0,,,,,,,,,,1.0,1.0,,,,62e023ae6d022e4d7bfc5db1,09:36:07,07/03/2024
,"<p style=""color:green; font-size: 35px"">Correct</p>",,ospan,feedback,TDVrE9orAgfqBGWMBmOkCjBEfli1,html-keyboard-response,70,387660,0.0-43.0-1.0-1.0-1.0,,,,,,,,,,,,,,,62e023ae6d022e4d7bfc5db1,09:36:07,07/03/2024
1476.0,,,ospan,symmetry,TDVrE9orAgfqBGWMBmOkCjBEfli1,symmetry-judgement-task,71,391723,0.0-43.0-1.0-1.0-2.0,,,,,,,,,,1.0,1.0,,,,62e023ae6d022e4d7bfc5db1,09:36:07,07/03/2024
,"<p style=""color:green; font-size: 35px"">Correct</p>",,ospan,feedback,TDVrE9orAgfqBGWMBmOkCjBEfli1,html-keyboard-response,72,392476,0.0-43.0-1.0-1.0-3.0,,,,,,,,,,,,,,,62e023ae6d022e4d7bfc5db1,09:36:07,07/03/2024
4678.0,,,ospan,symmetry,TDVrE9orAgfqBGWMBmOkCjBEfli1,symmetry-judgement-task,73,399756,0.0-43.0-1.0-1.0-4.0,,,,,,,,,,1.0,1.0,,,,62e023ae6d022e4d7bfc5db1,09:36:07,07/03/2024
,"<p style=""color:green; font-size: 35px"">Correct</p>",,ospan,feedback,TDVrE9orAgfqBGWMBmOkCjBEfli1,html-keyboard-response,74,400509,0.0-43.0-1.0-1.0-5.0,,,,,,,,,,,,,,,62e023ae6d022e4d7bfc5db1,09:36:07,07/03/2024
1459.199999988079,"<p style=""font-size: 3rem;"">You responded correctly on 3 of 3 symmetry judgments. Good job!</p><br><br>",0,ospan,practice,TDVrE9orAgfqBGWMBmOkCjBEfli1,html-button-response,75,403971,0.0-43.0-1.0-2.0,,,,,,,,,,,,,,,62e023ae6d022e4d7bfc5db1,09:36:07,07/03/2024
2163.899999976158,"<div class = 'left_align' style='font-size: 3.25rem; line-height: 1.3;'>Now you will practice doing both parts of the experiment at the same time.<br><br>In the next practice set, you will be given one grid picture to judge.<br>Then letter will appear on the screen. Try to remember the letter.<br><br>It is <b>very important</b> to make the symmetry judgment as quickly and accurately as possible.<br><br>Just as before, once you have make the symmetry judgment, you can click Yes or No.<br><b>Note that you will no longer see Correct or Incorrect feedback.</div><br><br><br><br>",0,ospan,instruct,TDVrE9orAgfqBGWMBmOkCjBEfli1,html-button-response,76,406388,0.0-43.0-2.0-0.0-0.0,,,,,,,,,,,,,,,62e023ae6d022e4d7bfc5db1,09:36:07,07/03/2024
1196.699999988079,"<div class = 'left_align' style='font-size: 3.25rem; line-height: 1.3;'>After the letter goes away, another grid picture will appear, and then<br>another letter.<br><br>At the end of each set of letters and grids, you will recall the letters to the best<br>of your ability. Remember, try your best to get the letters in the correct order.<br><br>It is important to <b>quickly</b> and <b>accurately</b> make the symmetry judgments.</div><br><br><br><br>",0,ospan,instruct,TDVrE9orAgfqBGWMBmOkCjBEfli1,html-button-response,77,407838,0.0-43.0-2.0-0.0-1.0,,,,,,,,,,,,,,,62e023ae6d022e4d7bfc5db1,09:36:07,07/03/2024
6115.800000011921,"<div class = 'left_align' style='font-size: 3.25rem; line-height: 1.3;'>On the feedback screen, if you are not doing well at the symmetry judgments,<br>you will also see a warning in the middle. This indicates your percent <br>correct for the grid pictures for the entire experiment.<br><br>It is <b>very</b> important for you to keep accuracy at least at 85%: <u>We can only use<br>data where the participant was at least 85% accurate on the judgments.</u> Therefore,<br> please try your best to perform well on the symmetry judgments, <b>at the same time</b><br>doing your best to recall as many letters as possible.<br><br>Click the button to try some practice problems.</div><br><br><br><br>",0,ospan,instruct,TDVrE9orAgfqBGWMBmOkCjBEfli1,html-button-response,78,414209,0.0-43.0-2.0-0.0-2.0,,,,,,,,,,,,,,,62e023ae6d022e4d7bfc5db1,09:36:07,07/03/2024
,"<p style=""font-size:75px;"">...</p>",,ospan,iti,TDVrE9orAgfqBGWMBmOkCjBEfli1,html-keyboard-response,79,415465,0.0-43.0-2.0-1.0-0.0,,,,,,,,,,,,,,,62e023ae6d022e4d7bfc5db1,09:36:07,07/03/2024
983.0,,,ospan,symmetry,TDVrE9orAgfqBGWMBmOkCjBEfli1,symmetry-judgement-task,80,417540,0.0-43.0-2.0-1.0-1.0-0.0,,,,,,,,,,1.0,1.0,,,,62e023ae6d022e4d7bfc5db1,09:36:07,07/03/2024
,"<div style=""font-size: 10rem; color: #0000FF"">G</div>",,ospan,letter,TDVrE9orAgfqBGWMBmOkCjBEfli1,html-keyboard-response,81,418545,0.0-43.0-2.0-1.0-1.0-1.0,,,,,,,,,,,,,,,62e023ae6d022e4d7bfc5db1,09:36:07,07/03/2024
1421.0,,,ospan,symmetry,TDVrE9orAgfqBGWMBmOkCjBEfli1,symmetry-judgement-task,82,421807,0.0-43.0-2.0-1.0-1.0-2.0,,,,,,,,,,1.0,1.0,,,,62e023ae6d022e4d7bfc5db1,09:36:07,07/03/2024
,"<div style=""font-size: 10rem; color: #0000FF"">K</div>",,ospan,letter,TDVrE9orAgfqBGWMBmOkCjBEfli1,html-keyboard-response,83,422809,0.0-43.0-2.0-1.0-1.0-3.0,,,,,,,,,,,,,,,62e023ae6d022e4d7bfc5db1,09:36:07,07/03/2024
942.0,,,ospan,symmetry,TDVrE9orAgfqBGWMBmOkCjBEfli1,symmetry-judgement-task,84,425606,0.0-43.0-2.0-1.0-1.0-4.0,,,,,,,,,,1.0,1.0,,,,62e023ae6d022e4d7bfc5db1,09:36:07,07/03/2024
,"<div style=""font-size: 10rem; color: #0000FF"">S</div>",,ospan,letter,TDVrE9orAgfqBGWMBmOkCjBEfli1,html-keyboard-response,85,426609,0.0-43.0-2.0-1.0-1.0-5.0,,,,,,,,,,,,,,,62e023ae6d022e4d7bfc5db1,09:36:07,07/03/2024
4473.4000000059605,"<div class = numbox><p style=""font-size: 2.4rem"">Please recall the letters you saw to the best of your ability. If you do not remember a particular letter, use the SKIP button.<br><b>(When you are ready to lock in your answer, press ENTER)</b></p><button id = button_1 class = ""square num-button"" onclick = ""recordClick(this)""><div class = content><div class = numbers>C</div></div></button><button id = button_2 class = ""square num-button"" onclick = ""recordClick(this)""><div class = content><div class = numbers>G</div></div></button><button id = button_3 class = ""square num-button"" onclick = ""recordClick(this)""><div class = content><div class = numbers>H</div></div></button><button id = button_4 class = ""square num-button"" onclick = ""recordClick(this)""><div class = content><div class = numbers>J</div></div></button><button id = button_5 class = ""square num-button"" onclick = ""recordClick(this)""><div class = content><div class = numbers>K</div></div></button><button id = button_6 class = ""square num-button"" onclick = ""recordClick(this)""><div class = content><div class = numbers>L</div></div></button><button id = button_7 class = ""square num-button"" onclick = ""recordClick(this)""><div class = content><div class = numbers>N</div></div></button><button id = button_8 class = ""square num-button"" onclick = ""recordClick(this)""><div class = content><div class = numbers>P</div></div></button><button id = button_9 class = ""square num-button"" onclick = ""recordClick(this)""><div class = content><div class = numbers>Q</div></div></button><button id = button_10 class = ""square num-button"" onclick = ""recordClick(this)""><div class = content><div class = numbers>R</div></div></button><button id = button_11 class = ""square num-button"" onclick = ""recordClick(this)""><div class = content><div class = numbers>S</div></div></button><button id = button_12 class = ""square num-button"" onclick = ""recordClick(this)""><div class = content><div class = numbers>Y</div></div></button><button class = clear_button id = ""ClearButton"" onclick = ""clearResponse()"">BACKSPACE</button><button class = blank_button id = ""BlankButton"" onclick = ""blankResponse()"">SKIP</button><p style=""font-size: 2.4rem""><u><b>Current Answer:</b></u></p><br><br><div id=echoed_txt style=""font-size: 5rem; color:blue;""><b></b></div></div>",enter,ospan,retrieval,TDVrE9orAgfqBGWMBmOkCjBEfli1,html-keyboard-response,86,431836,0.0-43.0-2.0-1.0-2.0-0.0,NA,NA,NA,3.0,"[""G"",""K"",""S""]","[""G"",""K"",""S""]",1.0,3.0,"['<font color=""green"">G</font>', '<font color=""green"">K</font>', '<font color=""green"">S</font>']",,,,,,62e023ae6d022e4d7bfc5db1,09:36:07,07/03/2024
1031.7000000178814,"['<p style=""font-size:44px"">Letters:<br><br><br><font color=""green"">G</font> <font color=""green"">K</font> <font color=""green"">S</font></p><br><br><p style=""font-size:30px"">Symmetry:<br><br><font color=""green"">100%</font></p><br><br>']",0,ospan,practice_feedback,TDVrE9orAgfqBGWMBmOkCjBEfli1,html-button-response,87,433371,0.0-43.0-2.0-1.0-2.0-1.0,,,,,,,,,,,,,,,62e023ae6d022e4d7bfc5db1,09:36:07,07/03/2024
,"<p style=""font-size:75px;"">...</p>",,ospan,iti,TDVrE9orAgfqBGWMBmOkCjBEfli1,html-keyboard-response,88,434373,0.0-43.0-2.0-2.0-0.0,,,,,,,,,,,,,,,62e023ae6d022e4d7bfc5db1,09:36:07,07/03/2024
1376.0,,,ospan,symmetry,TDVrE9orAgfqBGWMBmOkCjBEfli1,symmetry-judgement-task,89,436856,0.0-43.0-2.0-2.0-1.0-0.0,,,,,,,,,,1.0,1.0,,,,62e023ae6d022e4d7bfc5db1,09:36:07,07/03/2024
,"<div style=""font-size: 10rem; color: #0000FF"">Q</div>",,ospan,letter,TDVrE9orAgfqBGWMBmOkCjBEfli1,html-keyboard-response,90,437861,0.0-43.0-2.0-2.0-1.0-1.0,,,,,,,,,,,,,,,62e023ae6d022e4d7bfc5db1,09:36:07,07/03/2024
1029.0,,,ospan,symmetry,TDVrE9orAgfqBGWMBmOkCjBEfli1,symmetry-judgement-task,91,440738,0.0-43.0-2.0-2.0-1.0-2.0,,,,,,,,,,1.0,1.0,,,,62e023ae6d022e4d7bfc5db1,09:36:07,07/03/2024
,"<div style=""font-size: 10rem; color: #0000FF"">C</div>",,ospan,letter,TDVrE9orAgfqBGWMBmOkCjBEfli1,html-keyboard-response,92,441741,0.0-43.0-2.0-2.0-1.0-3.0,,,,,,,,,,,,,,,62e023ae6d022e4d7bfc5db1,09:36:07,07/03/2024
1264.0,,,ospan,symmetry,TDVrE9orAgfqBGWMBmOkCjBEfli1,symmetry-judgement-task,93,444856,0.0-43.0-2.0-2.0-1.0-4.0,,,,,,,,,,1.0,1.0,,,,62e023ae6d022e4d7bfc5db1,09:36:07,07/03/2024
,"<div style=""font-size: 10rem; color: #0000FF"">L</div>",,ospan,letter,TDVrE9orAgfqBGWMBmOkCjBEfli1,html-keyboard-response,94,445859,0.0-43.0-2.0-2.0-1.0-5.0,,,,,,,,,,,,,,,62e023ae6d022e4d7bfc5db1,09:36:07,07/03/2024
3382.0,"<div class = numbox><p style=""font-size: 2.4rem"">Please recall the letters you saw to the best of your ability. If you do not remember a particular letter, use the SKIP button.<br><b>(When you are ready to lock in your answer, press ENTER)</b></p><button id = button_1 class = ""square num-button"" onclick = ""recordClick(this)""><div class = content><div class = numbers>C</div></div></button><button id = button_2 class = ""square num-button"" onclick = ""recordClick(this)""><div class = content><div class = numbers>G</div></div></button><button id = button_3 class = ""square num-button"" onclick = ""recordClick(this)""><div class = content><div class = numbers>H</div></div></button><button id = button_4 class = ""square num-button"" onclick = ""recordClick(this)""><div class = content><div class = numbers>J</div></div></button><button id = button_5 class = ""square num-button"" onclick = ""recordClick(this)""><div class = content><div class = numbers>K</div></div></button><button id = button_6 class = ""square num-button"" onclick = ""recordClick(this)""><div class = content><div class = numbers>L</div></div></button><button id = button_7 class = ""square num-button"" onclick = ""recordClick(this)""><div class = content><div class = numbers>N</div></div></button><button id = button_8 class = ""square num-button"" onclick = ""recordClick(this)""><div class = content><div class = numbers>P</div></div></button><button id = button_9 class = ""square num-button"" onclick = ""recordClick(this)""><div class = content><div class = numbers>Q</div></div></button><button id = button_10 class = ""square num-button"" onclick = ""recordClick(this)""><div class = content><div class = numbers>R</div></div></button><button id = button_11 class = ""square num-button"" onclick = ""recordClick(this)""><div class = content><div class = numbers>S</div></div></button><button id = button_12 class = ""square num-button"" onclick = ""recordClick(this)""><div class = content><div class = numbers>Y</div></div></button><button class = clear_button id = ""ClearButton"" onclick = ""clearResponse()"">BACKSPACE</button><button class = blank_button id = ""BlankButton"" onclick = ""blankResponse()"">SKIP</button><p style=""font-size: 2.4rem""><u><b>Current Answer:</b></u></p><br><br><div id=echoed_txt style=""font-size: 5rem; color:blue;""><b></b></div></div>",enter,ospan,retrieval,TDVrE9orAgfqBGWMBmOkCjBEfli1,html-keyboard-response,95,449995,0.0-43.0-2.0-2.0-2.0-0.0,NA,NA,NA,3.0,"[""Q"",""C"",""L""]","[""Q"",""C"",""L""]",1.0,3.0,"['<font color=""green"">Q</font>', '<font color=""green"">C</font>', '<font color=""green"">L</font>']",,,,,,62e023ae6d022e4d7bfc5db1,09:36:07,07/03/2024
989.6999999880791,"['<p style=""font-size:44px"">Letters:<br><br><br><font color=""green"">Q</font> <font color=""green"">C</font> <font color=""green"">L</font></p><br><br><p style=""font-size:30px"">Symmetry:<br><br><font color=""green"">100%</font></p><br><br>']",0,ospan,practice_feedback,TDVrE9orAgfqBGWMBmOkCjBEfli1,html-button-response,96,451487,0.0-43.0-2.0-2.0-2.0-1.0,,,,,,,,,,,,,,,62e023ae6d022e4d7bfc5db1,09:36:07,07/03/2024
4232.5,"<div class = 'left_align' style='font-size: 3rem; line-height: 1.3;'><b>Great work! That is the end of practice.</b><br><br>The real trials will look just like the practice trials you just completed.<br><br><u>Here, you will not see feedback</u>. First, you will see an grid picture to judge,<br>then a letter to remember. When the recall screen appears, report the letters in the<br>order presented. If you forget a letter, remember to use the <b>blank</b> button to move to the<br>next letter. Some of the sets will have more symmetry grids and letters than others.<br><br>It is important that you do your best on both the symmetry judgments and the letter recall<br>parts of the experiment. For for the symmetry judgments, try to work as <b>quickly</b> and <br>as <b>accurately</b> as possible. Remember to keep your symmetry accuracy at 85% or above.<br><br><b>For the letters, do NOT use any external aid (e.g., writing on paper, electronic device).</b><br><br>It is <u>very important</u> to our experiment to have a <b>true</b> view of your real performance.<br><br>Do not worry if you miss some when it gets hard! This task is meant to be very challenging!<br><br>Click the button to begin.</div><br><br><br><br>",0,ospan,starting_real_here,TDVrE9orAgfqBGWMBmOkCjBEfli1,html-button-response,97,455720,0.0-43.0-2.0-3.0,,,,,,,,,,,,,,,62e023ae6d022e4d7bfc5db1,09:36:07,07/03/2024
,"<p style=""font-size:75px;"">...</p>",,ospan,iti,TDVrE9orAgfqBGWMBmOkCjBEfli1,html-keyboard-response,98,457443,0.0-43.0-3.0-0.0-0.0,,,,,,,,,,,,,,,62e023ae6d022e4d7bfc5db1,09:36:07,07/03/2024
4632.0,,,ospan,symmetry,TDVrE9orAgfqBGWMBmOkCjBEfli1,symmetry-judgement-task,99,463156,0.0-43.0-3.0-0.0-1.0-0.0,,,,,,,,,,1.0,1.0,,,,62e023ae6d022e4d7bfc5db1,09:36:07,07/03/2024
,"<div style=""font-size: 10rem; color: #0000FF"">C</div>",,ospan,letter,TDVrE9orAgfqBGWMBmOkCjBEfli1,html-keyboard-response,100,464160,0.0-43.0-3.0-0.0-1.0-1.0,,,,,,,,,,,,,,,62e023ae6d022e4d7bfc5db1,09:36:07,07/03/2024
1324.0,,,ospan,symmetry,TDVrE9orAgfqBGWMBmOkCjBEfli1,symmetry-judgement-task,101,467340,0.0-43.0-3.0-0.0-1.0-2.0,,,,,,,,,,1.0,1.0,,,,62e023ae6d022e4d7bfc5db1,09:36:07,07/03/2024
,"<div style=""font-size: 10rem; color: #0000FF"">J</div>",,ospan,letter,TDVrE9orAgfqBGWMBmOkCjBEfli1,html-keyboard-response,102,468344,0.0-43.0-3.0-0.0-1.0-3.0,,,,,,,,,,,,,,,62e023ae6d022e4d7bfc5db1,09:36:07,07/03/2024
1478.0,,,ospan,symmetry,TDVrE9orAgfqBGWMBmOkCjBEfli1,symmetry-judgement-task,103,471656,0.0-43.0-3.0-0.0-1.0-4.0,,,,,,,,,,1.0,1.0,,,,62e023ae6d022e4d7bfc5db1,09:36:07,07/03/2024
,"<div style=""font-size: 10rem; color: #0000FF"">N</div>",,ospan,letter,TDVrE9orAgfqBGWMBmOkCjBEfli1,html-keyboard-response,104,472660,0.0-43.0-3.0-0.0-1.0-5.0,,,,,,,,,,,,,,,62e023ae6d022e4d7bfc5db1,09:36:07,07/03/2024
3266.199999988079,"<div class = numbox><p style=""font-size: 2.4rem"">Please recall the letters you saw to the best of your ability. If you do not remember a particular letter, use the SKIP button.<br><b>(When you are ready to lock in your answer, press ENTER)</b></p><button id = button_1 class = ""square num-button"" onclick = ""recordClick(this)""><div class = content><div class = numbers>C</div></div></button><button id = button_2 class = ""square num-button"" onclick = ""recordClick(this)""><div class = content><div class = numbers>G</div></div></button><button id = button_3 class = ""square num-button"" onclick = ""recordClick(this)""><div class = content><div class = numbers>H</div></div></button><button id = button_4 class = ""square num-button"" onclick = ""recordClick(this)""><div class = content><div class = numbers>J</div></div></button><button id = button_5 class = ""square num-button"" onclick = ""recordClick(this)""><div class = content><div class = numbers>K</div></div></button><button id = button_6 class = ""square num-button"" onclick = ""recordClick(this)""><div class = content><div class = numbers>L</div></div></button><button id = button_7 class = ""square num-button"" onclick = ""recordClick(this)""><div class = content><div class = numbers>N</div></div></button><button id = button_8 class = ""square num-button"" onclick = ""recordClick(this)""><div class = content><div class = numbers>P</div></div></button><button id = button_9 class = ""square num-button"" onclick = ""recordClick(this)""><div class = content><div class = numbers>Q</div></div></button><button id = button_10 class = ""square num-button"" onclick = ""recordClick(this)""><div class = content><div class = numbers>R</div></div></button><button id = button_11 class = ""square num-button"" onclick = ""recordClick(this)""><div class = content><div class = numbers>S</div></div></button><button id = button_12 class = ""square num-button"" onclick = ""recordClick(this)""><div class = content><div class = numbers>Y</div></div></button><button class = clear_button id = ""ClearButton"" onclick = ""clearResponse()"">BACKSPACE</button><button class = blank_button id = ""BlankButton"" onclick = ""blankResponse()"">SKIP</button><p style=""font-size: 2.4rem""><u><b>Current Answer:</b></u></p><br><br><div id=echoed_txt style=""font-size: 5rem; color:blue;""><b></b></div></div>",enter,ospan,retrieval,TDVrE9orAgfqBGWMBmOkCjBEfli1,html-keyboard-response,105,476679,0.0-43.0-3.0-0.0-2.0,3,3,3,3.0,"[""C"",""J"",""N""]","[""C"",""J"",""N""]",1.0,3.0,,,,,,,62e023ae6d022e4d7bfc5db1,09:36:07,07/03/2024
624.5,[''],0,ospan,feedback,TDVrE9orAgfqBGWMBmOkCjBEfli1,html-button-response,106,477808,0.0-43.0-3.0-0.0-3.0,,,,,,,,,,,,100.0,0.0,,62e023ae6d022e4d7bfc5db1,09:36:07,07/03/2024
,"<p style=""font-size:75px;"">...</p>",,ospan,iti,TDVrE9orAgfqBGWMBmOkCjBEfli1,html-keyboard-response,107,478812,0.0-43.0-4.0-0.0-0.0,,,,,,,,,,,,,,,62e023ae6d022e4d7bfc5db1,09:36:07,07/03/2024
1943.0,,,ospan,symmetry,TDVrE9orAgfqBGWMBmOkCjBEfli1,symmetry-judgement-task,108,481839,0.0-43.0-4.0-0.0-1.0-0.0,,,,,,,,,,1.0,1.0,,,,62e023ae6d022e4d7bfc5db1,09:36:07,07/03/2024
,"<div style=""font-size: 10rem; color: #0000FF"">H</div>",,ospan,letter,TDVrE9orAgfqBGWMBmOkCjBEfli1,html-keyboard-response,109,482844,0.0-43.0-4.0-0.0-1.0-1.0,,,,,,,,,,,,,,,62e023ae6d022e4d7bfc5db1,09:36:07,07/03/2024
3391.0,,,ospan,symmetry,TDVrE9orAgfqBGWMBmOkCjBEfli1,symmetry-judgement-task,110,488089,0.0-43.0-4.0-0.0-1.0-2.0,,,,,,,,,,1.0,1.0,,,,62e023ae6d022e4d7bfc5db1,09:36:07,07/03/2024
,"<div style=""font-size: 10rem; color: #0000FF"">S</div>",,ospan,letter,TDVrE9orAgfqBGWMBmOkCjBEfli1,html-keyboard-response,111,489094,0.0-43.0-4.0-0.0-1.0-3.0,,,,,,,,,,,,,,,62e023ae6d022e4d7bfc5db1,09:36:07,07/03/2024
3813.0,,,ospan,symmetry,TDVrE9orAgfqBGWMBmOkCjBEfli1,symmetry-judgement-task,112,495355,0.0-43.0-4.0-0.0-1.0-4.0,,,,,,,,,,1.0,1.0,,,,62e023ae6d022e4d7bfc5db1,09:36:07,07/03/2024
,"<div style=""font-size: 10rem; color: #0000FF"">L</div>",,ospan,letter,TDVrE9orAgfqBGWMBmOkCjBEfli1,html-keyboard-response,113,496358,0.0-43.0-4.0-0.0-1.0-5.0,,,,,,,,,,,,,,,62e023ae6d022e4d7bfc5db1,09:36:07,07/03/2024
2330.0,,,ospan,symmetry,TDVrE9orAgfqBGWMBmOkCjBEfli1,symmetry-judgement-task,114,500540,0.0-43.0-4.0-0.0-1.0-6.0,,,,,,,,,,1.0,1.0,,,,62e023ae6d022e4d7bfc5db1,09:36:07,07/03/2024
,"<div style=""font-size: 10rem; color: #0000FF"">G</div>",,ospan,letter,TDVrE9orAgfqBGWMBmOkCjBEfli1,html-keyboard-response,115,501543,0.0-43.0-4.0-0.0-1.0-7.0,,,,,,,,,,,,,,,62e023ae6d022e4d7bfc5db1,09:36:07,07/03/2024
4130.899999976158,"<div class = numbox><p style=""font-size: 2.4rem"">Please recall the letters you saw to the best of your ability. If you do not remember a particular letter, use the SKIP button.<br><b>(When you are ready to lock in your answer, press ENTER)</b></p><button id = button_1 class = ""square num-button"" onclick = ""recordClick(this)""><div class = content><div class = numbers>C</div></div></button><button id = button_2 class = ""square num-button"" onclick = ""recordClick(this)""><div class = content><div class = numbers>G</div></div></button><button id = button_3 class = ""square num-button"" onclick = ""recordClick(this)""><div class = content><div class = numbers>H</div></div></button><button id = button_4 class = ""square num-button"" onclick = ""recordClick(this)""><div class = content><div class = numbers>J</div></div></button><button id = button_5 class = ""square num-button"" onclick = ""recordClick(this)""><div class = content><div class = numbers>K</div></div></button><button id = button_6 class = ""square num-button"" onclick = ""recordClick(this)""><div class = content><div class = numbers>L</div></div></button><button id = button_7 class = ""square num-button"" onclick = ""recordClick(this)""><div class = content><div class = numbers>N</div></div></button><button id = button_8 class = ""square num-button"" onclick = ""recordClick(this)""><div class = content><div class = numbers>P</div></div></button><button id = button_9 class = ""square num-button"" onclick = ""recordClick(this)""><div class = content><div class = numbers>Q</div></div></button><button id = button_10 class = ""square num-button"" onclick = ""recordClick(this)""><div class = content><div class = numbers>R</div></div></button><button id = button_11 class = ""square num-button"" onclick = ""recordClick(this)""><div class = content><div class = numbers>S</div></div></button><button id = button_12 class = ""square num-button"" onclick = ""recordClick(this)""><div class = content><div class = numbers>Y</div></div></button><button class = clear_button id = ""ClearButton"" onclick = ""clearResponse()"">BACKSPACE</button><button class = blank_button id = ""BlankButton"" onclick = ""blankResponse()"">SKIP</button><p style=""font-size: 2.4rem""><u><b>Current Answer:</b></u></p><br><br><div id=echoed_txt style=""font-size: 5rem; color:blue;""><b></b></div></div>",enter,ospan,retrieval,TDVrE9orAgfqBGWMBmOkCjBEfli1,html-keyboard-response,116,506428,0.0-43.0-4.0-0.0-2.0,7,5,3,4.0,"[""H"",""S"",""G""]","[""H"",""S"",""L"",""G""]",0.0,2.0,,,,,,,62e023ae6d022e4d7bfc5db1,09:36:07,07/03/2024
1522.7000000178814,[''],0,ospan,feedback,TDVrE9orAgfqBGWMBmOkCjBEfli1,html-button-response,117,508453,0.0-43.0-4.0-0.0-3.0,,,,,,,,,,,,100.0,0.0,,62e023ae6d022e4d7bfc5db1,09:36:07,07/03/2024
,"<p style=""font-size:75px;"">...</p>",,ospan,iti,TDVrE9orAgfqBGWMBmOkCjBEfli1,html-keyboard-response,118,509456,0.0-43.0-4.0-1.0-0.0,,,,,,,,,,,,,,,62e023ae6d022e4d7bfc5db1,09:36:07,07/03/2024
1426.0,,,ospan,symmetry,TDVrE9orAgfqBGWMBmOkCjBEfli1,symmetry-judgement-task,119,511921,0.0-43.0-4.0-1.0-1.0-0.0,,,,,,,,,,1.0,1.0,,,,62e023ae6d022e4d7bfc5db1,09:36:07,07/03/2024
,"<div style=""font-size: 10rem; color: #0000FF"">Q</div>",,ospan,letter,TDVrE9orAgfqBGWMBmOkCjBEfli1,html-keyboard-response,120,512925,0.0-43.0-4.0-1.0-1.0-1.0,,,,,,,,,,,,,,,62e023ae6d022e4d7bfc5db1,09:36:07,07/03/2024
1506.0,,,ospan,symmetry,TDVrE9orAgfqBGWMBmOkCjBEfli1,symmetry-judgement-task,121,516288,0.0-43.0-4.0-1.0-1.0-2.0,,,,,,,,,,1.0,1.0,,,,62e023ae6d022e4d7bfc5db1,09:36:07,07/03/2024
,"<div style=""font-size: 10rem; color: #0000FF"">L</div>",,ospan,letter,TDVrE9orAgfqBGWMBmOkCjBEfli1,html-keyboard-response,122,517292,0.0-43.0-4.0-1.0-1.0-3.0,,,,,,,,,,,,,,,62e023ae6d022e4d7bfc5db1,09:36:07,07/03/2024
1472.0,,,ospan,symmetry,TDVrE9orAgfqBGWMBmOkCjBEfli1,symmetry-judgement-task,123,520621,0.0-43.0-4.0-1.0-1.0-4.0,,,,,,,,,,1.0,1.0,,,,62e023ae6d022e4d7bfc5db1,09:36:07,07/03/2024
,"<div style=""font-size: 10rem; color: #0000FF"">P</div>",,ospan,letter,TDVrE9orAgfqBGWMBmOkCjBEfli1,html-keyboard-response,124,521623,0.0-43.0-4.0-1.0-1.0-5.0,,,,,,,,,,,,,,,62e023ae6d022e4d7bfc5db1,09:36:07,07/03/2024
1490.0,,,ospan,symmetry,TDVrE9orAgfqBGWMBmOkCjBEfli1,symmetry-judgement-task,125,524972,0.0-43.0-4.0-1.0-1.0-6.0,,,,,,,,,,1.0,1.0,,,,62e023ae6d022e4d7bfc5db1,09:36:07,07/03/2024
,"<div style=""font-size: 10rem; color: #0000FF"">H</div>",,ospan,letter,TDVrE9orAgfqBGWMBmOkCjBEfli1,html-keyboard-response,126,525976,0.0-43.0-4.0-1.0-1.0-7.0,,,,,,,,,,,,,,,62e023ae6d022e4d7bfc5db1,09:36:07,07/03/2024
5318.0,,,ospan,symmetry,TDVrE9orAgfqBGWMBmOkCjBEfli1,symmetry-judgement-task,127,533138,0.0-43.0-4.0-1.0-1.0-8.0,,,,,,,,,,1.0,1.0,,,,62e023ae6d022e4d7bfc5db1,09:36:07,07/03/2024
,"<div style=""font-size: 10rem; color: #0000FF"">R</div>",,ospan,letter,TDVrE9orAgfqBGWMBmOkCjBEfli1,html-keyboard-response,128,534148,0.0-43.0-4.0-1.0-1.0-9.0,,,,,,,,,,,,,,,62e023ae6d022e4d7bfc5db1,09:36:07,07/03/2024
4667.300000011921,"<div class = numbox><p style=""font-size: 2.4rem"">Please recall the letters you saw to the best of your ability. If you do not remember a particular letter, use the SKIP button.<br><b>(When you are ready to lock in your answer, press ENTER)</b></p><button id = button_1 class = ""square num-button"" onclick = ""recordClick(this)""><div class = content><div class = numbers>C</div></div></button><button id = button_2 class = ""square num-button"" onclick = ""recordClick(this)""><div class = content><div class = numbers>G</div></div></button><button id = button_3 class = ""square num-button"" onclick = ""recordClick(this)""><div class = content><div class = numbers>H</div></div></button><button id = button_4 class = ""square num-button"" onclick = ""recordClick(this)""><div class = content><div class = numbers>J</div></div></button><button id = button_5 class = ""square num-button"" onclick = ""recordClick(this)""><div class = content><div class = numbers>K</div></div></button><button id = button_6 class = ""square num-button"" onclick = ""recordClick(this)""><div class = content><div class = numbers>L</div></div></button><button id = button_7 class = ""square num-button"" onclick = ""recordClick(this)""><div class = content><div class = numbers>N</div></div></button><button id = button_8 class = ""square num-button"" onclick = ""recordClick(this)""><div class = content><div class = numbers>P</div></div></button><button id = button_9 class = ""square num-button"" onclick = ""recordClick(this)""><div class = content><div class = numbers>Q</div></div></button><button id = button_10 class = ""square num-button"" onclick = ""recordClick(this)""><div class = content><div class = numbers>R</div></div></button><button id = button_11 class = ""square num-button"" onclick = ""recordClick(this)""><div class = content><div class = numbers>S</div></div></button><button id = button_12 class = ""square num-button"" onclick = ""recordClick(this)""><div class = content><div class = numbers>Y</div></div></button><button class = clear_button id = ""ClearButton"" onclick = ""clearResponse()"">BACKSPACE</button><button class = blank_button id = ""BlankButton"" onclick = ""blankResponse()"">SKIP</button><p style=""font-size: 2.4rem""><u><b>Current Answer:</b></u></p><br><br><div id=echoed_txt style=""font-size: 5rem; color:blue;""><b></b></div></div>",enter,ospan,retrieval,TDVrE9orAgfqBGWMBmOkCjBEfli1,html-keyboard-response,129,539569,0.0-43.0-4.0-1.0-2.0,12,10,8,5.0,"[""Q"",""L"",""P"",""H"",""R""]","[""Q"",""L"",""P"",""H"",""R""]",1.0,5.0,,,,,,,62e023ae6d022e4d7bfc5db1,09:36:07,07/03/2024
3463.4000000059605,[''],0,ospan,feedback,TDVrE9orAgfqBGWMBmOkCjBEfli1,html-button-response,130,543536,0.0-43.0-4.0-1.0-3.0,,,,,,,,,,,,100.0,0.0,,62e023ae6d022e4d7bfc5db1,09:36:07,07/03/2024
,"<p style=""font-size:75px;"">...</p>",,ospan,iti,TDVrE9orAgfqBGWMBmOkCjBEfli1,html-keyboard-response,131,544539,0.0-43.0-4.0-2.0-0.0,,,,,,,,,,,,,,,62e023ae6d022e4d7bfc5db1,09:36:07,07/03/2024
2261.0,,,ospan,symmetry,TDVrE9orAgfqBGWMBmOkCjBEfli1,symmetry-judgement-task,132,547887,0.0-43.0-4.0-2.0-1.0-0.0,,,,,,,,,,1.0,1.0,,,,62e023ae6d022e4d7bfc5db1,09:36:07,07/03/2024
,"<div style=""font-size: 10rem; color: #0000FF"">K</div>",,ospan,letter,TDVrE9orAgfqBGWMBmOkCjBEfli1,html-keyboard-response,133,548892,0.0-43.0-4.0-2.0-1.0-1.0,,,,,,,,,,,,,,,62e023ae6d022e4d7bfc5db1,09:36:07,07/03/2024
2090.0,,,ospan,symmetry,TDVrE9orAgfqBGWMBmOkCjBEfli1,symmetry-judgement-task,134,552821,0.0-43.0-4.0-2.0-1.0-2.0,,,,,,,,,,1.0,1.0,,,,62e023ae6d022e4d7bfc5db1,09:36:07,07/03/2024
,"<div style=""font-size: 10rem; color: #0000FF"">G</div>",,ospan,letter,TDVrE9orAgfqBGWMBmOkCjBEfli1,html-keyboard-response,135,553825,0.0-43.0-4.0-2.0-1.0-3.0,,,,,,,,,,,,,,,62e023ae6d022e4d7bfc5db1,09:36:07,07/03/2024
1456.0,,,ospan,symmetry,TDVrE9orAgfqBGWMBmOkCjBEfli1,symmetry-judgement-task,136,557120,0.0-43.0-4.0-2.0-1.0-4.0,,,,,,,,,,1.0,1.0,,,,62e023ae6d022e4d7bfc5db1,09:36:07,07/03/2024
,"<div style=""font-size: 10rem; color: #0000FF"">P</div>",,ospan,letter,TDVrE9orAgfqBGWMBmOkCjBEfli1,html-keyboard-response,137,558123,0.0-43.0-4.0-2.0-1.0-5.0,,,,,,,,,,,,,,,62e023ae6d022e4d7bfc5db1,09:36:07,07/03/2024
4478.100000023842,"<div class = numbox><p style=""font-size: 2.4rem"">Please recall the letters you saw to the best of your ability. If you do not remember a particular letter, use the SKIP button.<br><b>(When you are ready to lock in your answer, press ENTER)</b></p><button id = button_1 class = ""square num-button"" onclick = ""recordClick(this)""><div class = content><div class = numbers>C</div></div></button><button id = button_2 class = ""square num-button"" onclick = ""recordClick(this)""><div class = content><div class = numbers>G</div></div></button><button id = button_3 class = ""square num-button"" onclick = ""recordClick(this)""><div class = content><div class = numbers>H</div></div></button><button id = button_4 class = ""square num-button"" onclick = ""recordClick(this)""><div class = content><div class = numbers>J</div></div></button><button id = button_5 class = ""square num-button"" onclick = ""recordClick(this)""><div class = content><div class = numbers>K</div></div></button><button id = button_6 class = ""square num-button"" onclick = ""recordClick(this)""><div class = content><div class = numbers>L</div></div></button><button id = button_7 class = ""square num-button"" onclick = ""recordClick(this)""><div class = content><div class = numbers>N</div></div></button><button id = button_8 class = ""square num-button"" onclick = ""recordClick(this)""><div class = content><div class = numbers>P</div></div></button><button id = button_9 class = ""square num-button"" onclick = ""recordClick(this)""><div class = content><div class = numbers>Q</div></div></button><button id = button_10 class = ""square num-button"" onclick = ""recordClick(this)""><div class = content><div class = numbers>R</div></div></button><button id = button_11 class = ""square num-button"" onclick = ""recordClick(this)""><div class = content><div class = numbers>S</div></div></button><button id = button_12 class = ""square num-button"" onclick = ""recordClick(this)""><div class = content><div class = numbers>Y</div></div></button><button class = clear_button id = ""ClearButton"" onclick = ""clearResponse()"">BACKSPACE</button><button class = blank_button id = ""BlankButton"" onclick = ""blankResponse()"">SKIP</button><p style=""font-size: 2.4rem""><u><b>Current Answer:</b></u></p><br><br><div id=echoed_txt style=""font-size: 5rem; color:blue;""><b></b></div></div>",enter,ospan,retrieval,TDVrE9orAgfqBGWMBmOkCjBEfli1,html-keyboard-response,138,563355,0.0-43.0-4.0-2.0-2.0,15,13,11,3.0,"[""K"",""G"",""P""]","[""K"",""G"",""P""]",1.0,3.0,,,,,,,62e023ae6d022e4d7bfc5db1,09:36:07,07/03/2024
976.5,[''],0,ospan,feedback,TDVrE9orAgfqBGWMBmOkCjBEfli1,html-button-response,139,564836,0.0-43.0-4.0-2.0-3.0,,,,,,,,,,,,100.0,0.0,,62e023ae6d022e4d7bfc5db1,09:36:07,07/03/2024
,"<p style=""font-size:75px;"">...</p>",,ospan,iti,TDVrE9orAgfqBGWMBmOkCjBEfli1,html-keyboard-response,140,565839,0.0-43.0-5.0-0.0-0.0,,,,,,,,,,,,,,,62e023ae6d022e4d7bfc5db1,09:36:07,07/03/2024
1558.0,,,ospan,symmetry,TDVrE9orAgfqBGWMBmOkCjBEfli1,symmetry-judgement-task,141,568438,0.0-43.0-5.0-0.0-1.0-0.0,,,,,,,,,,1.0,1.0,,,,62e023ae6d022e4d7bfc5db1,09:36:07,07/03/2024
,"<div style=""font-size: 10rem; color: #0000FF"">G</div>",,ospan,letter,TDVrE9orAgfqBGWMBmOkCjBEfli1,html-keyboard-response,142,569442,0.0-43.0-5.0-0.0-1.0-1.0,,,,,,,,,,,,,,,62e023ae6d022e4d7bfc5db1,09:36:07,07/03/2024
1656.0,,,ospan,symmetry,TDVrE9orAgfqBGWMBmOkCjBEfli1,symmetry-judgement-task,143,572954,0.0-43.0-5.0-0.0-1.0-2.0,,,,,,,,,,1.0,1.0,,,,62e023ae6d022e4d7bfc5db1,09:36:07,07/03/2024
,"<div style=""font-size: 10rem; color: #0000FF"">J</div>",,ospan,letter,TDVrE9orAgfqBGWMBmOkCjBEfli1,html-keyboard-response,144,573957,0.0-43.0-5.0-0.0-1.0-3.0,,,,,,,,,,,,,,,62e023ae6d022e4d7bfc5db1,09:36:07,07/03/2024
1730.0,,,ospan,symmetry,TDVrE9orAgfqBGWMBmOkCjBEfli1,symmetry-judgement-task,145,577537,0.0-43.0-5.0-0.0-1.0-4.0,,,,,,,,,,1.0,1.0,,,,62e023ae6d022e4d7bfc5db1,09:36:07,07/03/2024
,"<div style=""font-size: 10rem; color: #0000FF"">R</div>",,ospan,letter,TDVrE9orAgfqBGWMBmOkCjBEfli1,html-keyboard-response,146,578542,0.0-43.0-5.0-0.0-1.0-5.0,,,,,,,,,,,,,,,62e023ae6d022e4d7bfc5db1,09:36:07,07/03/2024
2332.0,,,ospan,symmetry,TDVrE9orAgfqBGWMBmOkCjBEfli1,symmetry-judgement-task,147,582721,0.0-43.0-5.0-0.0-1.0-6.0,,,,,,,,,,1.0,1.0,,,,62e023ae6d022e4d7bfc5db1,09:36:07,07/03/2024
,"<div style=""font-size: 10rem; color: #0000FF"">K</div>",,ospan,letter,TDVrE9orAgfqBGWMBmOkCjBEfli1,html-keyboard-response,148,583724,0.0-43.0-5.0-0.0-1.0-7.0,,,,,,,,,,,,,,,62e023ae6d022e4d7bfc5db1,09:36:07,07/03/2024
3291.0,,,ospan,symmetry,TDVrE9orAgfqBGWMBmOkCjBEfli1,symmetry-judgement-task,149,588854,0.0-43.0-5.0-0.0-1.0-8.0,,,,,,,,,,1.0,1.0,,,,62e023ae6d022e4d7bfc5db1,09:36:07,07/03/2024
,"<div style=""font-size: 10rem; color: #0000FF"">H</div>",,ospan,letter,TDVrE9orAgfqBGWMBmOkCjBEfli1,html-keyboard-response,150,589860,0.0-43.0-5.0-0.0-1.0-9.0,,,,,,,,,,,,,,,62e023ae6d022e4d7bfc5db1,09:36:07,07/03/2024
2289.0,,,ospan,symmetry,TDVrE9orAgfqBGWMBmOkCjBEfli1,symmetry-judgement-task,151,593987,0.0-43.0-5.0-0.0-1.0-10.0,,,,,,,,,,1.0,1.0,,,,62e023ae6d022e4d7bfc5db1,09:36:07,07/03/2024
,"<div style=""font-size: 10rem; color: #0000FF"">S</div>",,ospan,letter,TDVrE9orAgfqBGWMBmOkCjBEfli1,html-keyboard-response,152,594991,0.0-43.0-5.0-0.0-1.0-11.0,,,,,,,,,,,,,,,62e023ae6d022e4d7bfc5db1,09:36:07,07/03/2024
8320.100000023842,"<div class = numbox><p style=""font-size: 2.4rem"">Please recall the letters you saw to the best of your ability. If you do not remember a particular letter, use the SKIP button.<br><b>(When you are ready to lock in your answer, press ENTER)</b></p><button id = button_1 class = ""square num-button"" onclick = ""recordClick(this)""><div class = content><div class = numbers>C</div></div></button><button id = button_2 class = ""square num-button"" onclick = ""recordClick(this)""><div class = content><div class = numbers>G</div></div></button><button id = button_3 class = ""square num-button"" onclick = ""recordClick(this)""><div class = content><div class = numbers>H</div></div></button><button id = button_4 class = ""square num-button"" onclick = ""recordClick(this)""><div class = content><div class = numbers>J</div></div></button><button id = button_5 class = ""square num-button"" onclick = ""recordClick(this)""><div class = content><div class = numbers>K</div></div></button><button id = button_6 class = ""square num-button"" onclick = ""recordClick(this)""><div class = content><div class = numbers>L</div></div></button><button id = button_7 class = ""square num-button"" onclick = ""recordClick(this)""><div class = content><div class = numbers>N</div></div></button><button id = button_8 class = ""square num-button"" onclick = ""recordClick(this)""><div class = content><div class = numbers>P</div></div></button><button id = button_9 class = ""square num-button"" onclick = ""recordClick(this)""><div class = content><div class = numbers>Q</div></div></button><button id = button_10 class = ""square num-button"" onclick = ""recordClick(this)""><div class = content><div class = numbers>R</div></div></button><button id = button_11 class = ""square num-button"" onclick = ""recordClick(this)""><div class = content><div class = numbers>S</div></div></button><button id = button_12 class = ""square num-button"" onclick = ""recordClick(this)""><div class = content><div class = numbers>Y</div></div></button><button class = clear_button id = ""ClearButton"" onclick = ""clearResponse()"">BACKSPACE</button><button class = blank_button id = ""BlankButton"" onclick = ""blankResponse()"">SKIP</button><p style=""font-size: 2.4rem""><u><b>Current Answer:</b></u></p><br><br><div id=echoed_txt style=""font-size: 5rem; color:blue;""><b></b></div></div>",enter,ospan,retrieval,TDVrE9orAgfqBGWMBmOkCjBEfli1,html-keyboard-response,153,604066,0.0-43.0-5.0-0.0-2.0,21,19,17,6.0,"[""G"",""J"",""R"",""K"",""H"",""S""]","[""G"",""J"",""R"",""K"",""H"",""S""]",1.0,6.0,,,,,,,62e023ae6d022e4d7bfc5db1,09:36:07,07/03/2024
3083.9000000059605,[''],0,ospan,feedback,TDVrE9orAgfqBGWMBmOkCjBEfli1,html-button-response,154,607652,0.0-43.0-5.0-0.0-3.0,,,,,,,,,,,,100.0,0.0,,62e023ae6d022e4d7bfc5db1,09:36:07,07/03/2024
,"<p style=""font-size:75px;"">...</p>",,ospan,iti,TDVrE9orAgfqBGWMBmOkCjBEfli1,html-keyboard-response,155,608656,0.0-43.0-5.0-1.0-0.0,,,,,,,,,,,,,,,62e023ae6d022e4d7bfc5db1,09:36:07,07/03/2024
2862.0,,,ospan,symmetry,TDVrE9orAgfqBGWMBmOkCjBEfli1,symmetry-judgement-task,156,612537,0.0-43.0-5.0-1.0-1.0-0.0,,,,,,,,,,1.0,1.0,,,,62e023ae6d022e4d7bfc5db1,09:36:07,07/03/2024
,"<div style=""font-size: 10rem; color: #0000FF"">C</div>",,ospan,letter,TDVrE9orAgfqBGWMBmOkCjBEfli1,html-keyboard-response,157,613540,0.0-43.0-5.0-1.0-1.0-1.0,,,,,,,,,,,,,,,62e023ae6d022e4d7bfc5db1,09:36:07,07/03/2024
3013.0,,,ospan,symmetry,TDVrE9orAgfqBGWMBmOkCjBEfli1,symmetry-judgement-task,158,618403,0.0-43.0-5.0-1.0-1.0-2.0,,,,,,,,,,1.0,1.0,,,,62e023ae6d022e4d7bfc5db1,09:36:07,07/03/2024
,"<div style=""font-size: 10rem; color: #0000FF"">P</div>",,ospan,letter,TDVrE9orAgfqBGWMBmOkCjBEfli1,html-keyboard-response,159,619407,0.0-43.0-5.0-1.0-1.0-3.0,,,,,,,,,,,,,,,62e023ae6d022e4d7bfc5db1,09:36:07,07/03/2024
3191.0,,,ospan,symmetry,TDVrE9orAgfqBGWMBmOkCjBEfli1,symmetry-judgement-task,160,624437,0.0-43.0-5.0-1.0-1.0-4.0,,,,,,,,,,1.0,1.0,,,,62e023ae6d022e4d7bfc5db1,09:36:07,07/03/2024
,"<div style=""font-size: 10rem; color: #0000FF"">Y</div>",,ospan,letter,TDVrE9orAgfqBGWMBmOkCjBEfli1,html-keyboard-response,161,625442,0.0-43.0-5.0-1.0-1.0-5.0,,,,,,,,,,,,,,,62e023ae6d022e4d7bfc5db1,09:36:07,07/03/2024
1741.0,,,ospan,symmetry,TDVrE9orAgfqBGWMBmOkCjBEfli1,symmetry-judgement-task,162,629038,0.0-43.0-5.0-1.0-1.0-6.0,,,,,,,,,,1.0,1.0,,,,62e023ae6d022e4d7bfc5db1,09:36:07,07/03/2024
,"<div style=""font-size: 10rem; color: #0000FF"">K</div>",,ospan,letter,TDVrE9orAgfqBGWMBmOkCjBEfli1,html-keyboard-response,163,630042,0.0-43.0-5.0-1.0-1.0-7.0,,,,,,,,,,,,,,,62e023ae6d022e4d7bfc5db1,09:36:07,07/03/2024
1628.0,,,ospan,symmetry,TDVrE9orAgfqBGWMBmOkCjBEfli1,symmetry-judgement-task,164,633504,0.0-43.0-5.0-1.0-1.0-8.0,,,,,,,,,,1.0,1.0,,,,62e023ae6d022e4d7bfc5db1,09:36:07,07/03/2024
,"<div style=""font-size: 10rem; color: #0000FF"">J</div>",,ospan,letter,TDVrE9orAgfqBGWMBmOkCjBEfli1,html-keyboard-response,165,634507,0.0-43.0-5.0-1.0-1.0-9.0,,,,,,,,,,,,,,,62e023ae6d022e4d7bfc5db1,09:36:07,07/03/2024
1929.0,,,ospan,symmetry,TDVrE9orAgfqBGWMBmOkCjBEfli1,symmetry-judgement-task,166,638270,0.0-43.0-5.0-1.0-1.0-10.0,,,,,,,,,,1.0,1.0,,,,62e023ae6d022e4d7bfc5db1,09:36:07,07/03/2024
,"<div style=""font-size: 10rem; color: #0000FF"">S</div>",,ospan,letter,TDVrE9orAgfqBGWMBmOkCjBEfli1,html-keyboard-response,167,639274,0.0-43.0-5.0-1.0-1.0-11.0,,,,,,,,,,,,,,,62e023ae6d022e4d7bfc5db1,09:36:07,07/03/2024
2079.0,,,ospan,symmetry,TDVrE9orAgfqBGWMBmOkCjBEfli1,symmetry-judgement-task,168,643224,0.0-43.0-5.0-1.0-1.0-12.0,,,,,,,,,,1.0,1.0,,,,62e023ae6d022e4d7bfc5db1,09:36:07,07/03/2024
,"<div style=""font-size: 10rem; color: #0000FF"">R</div>",,ospan,letter,TDVrE9orAgfqBGWMBmOkCjBEfli1,html-keyboard-response,169,644226,0.0-43.0-5.0-1.0-1.0-13.0,,,,,,,,,,,,,,,62e023ae6d022e4d7bfc5db1,09:36:07,07/03/2024
9578.699999988079,"<div class = numbox><p style=""font-size: 2.4rem"">Please recall the letters you saw to the best of your ability. If you do not remember a particular letter, use the SKIP button.<br><b>(When you are ready to lock in your answer, press ENTER)</b></p><button id = button_1 class = ""square num-button"" onclick = ""recordClick(this)""><div class = content><div class = numbers>C</div></div></button><button id = button_2 class = ""square num-button"" onclick = ""recordClick(this)""><div class = content><div class = numbers>G</div></div></button><button id = button_3 class = ""square num-button"" onclick = ""recordClick(this)""><div class = content><div class = numbers>H</div></div></button><button id = button_4 class = ""square num-button"" onclick = ""recordClick(this)""><div class = content><div class = numbers>J</div></div></button><button id = button_5 class = ""square num-button"" onclick = ""recordClick(this)""><div class = content><div class = numbers>K</div></div></button><button id = button_6 class = ""square num-button"" onclick = ""recordClick(this)""><div class = content><div class = numbers>L</div></div></button><button id = button_7 class = ""square num-button"" onclick = ""recordClick(this)""><div class = content><div class = numbers>N</div></div></button><button id = button_8 class = ""square num-button"" onclick = ""recordClick(this)""><div class = content><div class = numbers>P</div></div></button><button id = button_9 class = ""square num-button"" onclick = ""recordClick(this)""><div class = content><div class = numbers>Q</div></div></button><button id = button_10 class = ""square num-button"" onclick = ""recordClick(this)""><div class = content><div class = numbers>R</div></div></button><button id = button_11 class = ""square num-button"" onclick = ""recordClick(this)""><div class = content><div class = numbers>S</div></div></button><button id = button_12 class = ""square num-button"" onclick = ""recordClick(this)""><div class = content><div class = numbers>Y</div></div></button><button class = clear_button id = ""ClearButton"" onclick = ""clearResponse()"">BACKSPACE</button><button class = blank_button id = ""BlankButton"" onclick = ""blankResponse()"">SKIP</button><p style=""font-size: 2.4rem""><u><b>Current Answer:</b></u></p><br><br><div id=echoed_txt style=""font-size: 5rem; color:blue;""><b></b></div></div>",enter,ospan,retrieval,TDVrE9orAgfqBGWMBmOkCjBEfli1,html-keyboard-response,170,654558,0.0-43.0-5.0-1.0-2.0,28,21,17,7.0,"[""C"",""P"",""K"",""_"",""_""]","[""C"",""P"",""Y"",""K"",""J"",""S"",""R""]",0.0,2.0,,,,,,,62e023ae6d022e4d7bfc5db1,09:36:07,07/03/2024
1190.300000011921,[''],0,ospan,feedback,TDVrE9orAgfqBGWMBmOkCjBEfli1,html-button-response,171,656251,0.0-43.0-5.0-1.0-3.0,,,,,,,,,,,,100.0,0.0,,62e023ae6d022e4d7bfc5db1,09:36:07,07/03/2024
,"<p style=""font-size:75px;"">...</p>",,ospan,iti,TDVrE9orAgfqBGWMBmOkCjBEfli1,html-keyboard-response,172,657254,0.0-43.0-6.0-0.0-0.0,,,,,,,,,,,,,,,62e023ae6d022e4d7bfc5db1,09:36:07,07/03/2024
2191.0,,,ospan,symmetry,TDVrE9orAgfqBGWMBmOkCjBEfli1,symmetry-judgement-task,173,660536,0.0-43.0-6.0-0.0-1.0-0.0,,,,,,,,,,1.0,1.0,,,,62e023ae6d022e4d7bfc5db1,09:36:07,07/03/2024
,"<div style=""font-size: 10rem; color: #0000FF"">H</div>",,ospan,letter,TDVrE9orAgfqBGWMBmOkCjBEfli1,html-keyboard-response,174,661540,0.0-43.0-6.0-0.0-1.0-1.0,,,,,,,,,,,,,,,62e023ae6d022e4d7bfc5db1,09:36:07,07/03/2024
1991.0,,,ospan,symmetry,TDVrE9orAgfqBGWMBmOkCjBEfli1,symmetry-judgement-task,175,665385,0.0-43.0-6.0-0.0-1.0-2.0,,,,,,,,,,0.0,0.0,,,,62e023ae6d022e4d7bfc5db1,09:36:07,07/03/2024
,"<div style=""font-size: 10rem; color: #0000FF"">R</div>",,ospan,letter,TDVrE9orAgfqBGWMBmOkCjBEfli1,html-keyboard-response,176,666388,0.0-43.0-6.0-0.0-1.0-3.0,,,,,,,,,,,,,,,62e023ae6d022e4d7bfc5db1,09:36:07,07/03/2024
2055.0,,,ospan,symmetry,TDVrE9orAgfqBGWMBmOkCjBEfli1,symmetry-judgement-task,177,670303,0.0-43.0-6.0-0.0-1.0-4.0,,,,,,,,,,1.0,1.0,,,,62e023ae6d022e4d7bfc5db1,09:36:07,07/03/2024
,"<div style=""font-size: 10rem; color: #0000FF"">L</div>",,ospan,letter,TDVrE9orAgfqBGWMBmOkCjBEfli1,html-keyboard-response,178,671308,0.0-43.0-6.0-0.0-1.0-5.0,,,,,,,,,,,,,,,62e023ae6d022e4d7bfc5db1,09:36:07,07/03/2024
2024.0,,,ospan,symmetry,TDVrE9orAgfqBGWMBmOkCjBEfli1,symmetry-judgement-task,179,675170,0.0-43.0-6.0-0.0-1.0-6.0,,,,,,,,,,1.0,1.0,,,,62e023ae6d022e4d7bfc5db1,09:36:07,07/03/2024
,"<div style=""font-size: 10rem; color: #0000FF"">Q</div>",,ospan,letter,TDVrE9orAgfqBGWMBmOkCjBEfli1,html-keyboard-response,180,676173,0.0-43.0-6.0-0.0-1.0-7.0,,,,,,,,,,,,,,,62e023ae6d022e4d7bfc5db1,09:36:07,07/03/2024
1488.0,,,ospan,symmetry,TDVrE9orAgfqBGWMBmOkCjBEfli1,symmetry-judgement-task,181,679519,0.0-43.0-6.0-0.0-1.0-8.0,,,,,,,,,,1.0,1.0,,,,62e023ae6d022e4d7bfc5db1,09:36:07,07/03/2024
,"<div style=""font-size: 10rem; color: #0000FF"">N</div>",,ospan,letter,TDVrE9orAgfqBGWMBmOkCjBEfli1,html-keyboard-response,182,680523,0.0-43.0-6.0-0.0-1.0-9.0,,,,,,,,,,,,,,,62e023ae6d022e4d7bfc5db1,09:36:07,07/03/2024
7450.600000023842,"<div class = numbox><p style=""font-size: 2.4rem"">Please recall the letters you saw to the best of your ability. If you do not remember a particular letter, use the SKIP button.<br><b>(When you are ready to lock in your answer, press ENTER)</b></p><button id = button_1 class = ""square num-button"" onclick = ""recordClick(this)""><div class = content><div class = numbers>C</div></div></button><button id = button_2 class = ""square num-button"" onclick = ""recordClick(this)""><div class = content><div class = numbers>G</div></div></button><button id = button_3 class = ""square num-button"" onclick = ""recordClick(this)""><div class = content><div class = numbers>H</div></div></button><button id = button_4 class = ""square num-button"" onclick = ""recordClick(this)""><div class = content><div class = numbers>J</div></div></button><button id = button_5 class = ""square num-button"" onclick = ""recordClick(this)""><div class = content><div class = numbers>K</div></div></button><button id = button_6 class = ""square num-button"" onclick = ""recordClick(this)""><div class = content><div class = numbers>L</div></div></button><button id = button_7 class = ""square num-button"" onclick = ""recordClick(this)""><div class = content><div class = numbers>N</div></div></button><button id = button_8 class = ""square num-button"" onclick = ""recordClick(this)""><div class = content><div class = numbers>P</div></div></button><button id = button_9 class = ""square num-button"" onclick = ""recordClick(this)""><div class = content><div class = numbers>Q</div></div></button><button id = button_10 class = ""square num-button"" onclick = ""recordClick(this)""><div class = content><div class = numbers>R</div></div></button><button id = button_11 class = ""square num-button"" onclick = ""recordClick(this)""><div class = content><div class = numbers>S</div></div></button><button id = button_12 class = ""square num-button"" onclick = ""recordClick(this)""><div class = content><div class = numbers>Y</div></div></button><button class = clear_button id = ""ClearButton"" onclick = ""clearResponse()"">BACKSPACE</button><button class = blank_button id = ""BlankButton"" onclick = ""blankResponse()"">SKIP</button><p style=""font-size: 2.4rem""><u><b>Current Answer:</b></u></p><br><br><div id=echoed_txt style=""font-size: 5rem; color:blue;""><b></b></div></div>",enter,ospan,retrieval,TDVrE9orAgfqBGWMBmOkCjBEfli1,html-keyboard-response,183,688728,0.0-43.0-6.0-0.0-2.0,33,24,17,5.0,"[""H"",""R"",""L"",""_"",""_""]","[""H"",""R"",""L"",""Q"",""N""]",0.0,3.0,,,,,,,62e023ae6d022e4d7bfc5db1,09:36:07,07/03/2024
1119.8999999761581,[''],0,ospan,feedback,TDVrE9orAgfqBGWMBmOkCjBEfli1,html-button-response,184,690350,0.0-43.0-6.0-0.0-3.0,,,,,,,,,,,,97.0,0.0,,62e023ae6d022e4d7bfc5db1,09:36:07,07/03/2024
,"<p style=""font-size:75px;"">...</p>",,ospan,iti,TDVrE9orAgfqBGWMBmOkCjBEfli1,html-keyboard-response,185,691356,0.0-43.0-6.0-1.0-0.0,,,,,,,,,,,,,,,62e023ae6d022e4d7bfc5db1,09:36:07,07/03/2024
1959.0,,,ospan,symmetry,TDVrE9orAgfqBGWMBmOkCjBEfli1,symmetry-judgement-task,186,694402,0.0-43.0-6.0-1.0-1.0-0.0,,,,,,,,,,1.0,1.0,,,,62e023ae6d022e4d7bfc5db1,09:36:07,07/03/2024
,"<div style=""font-size: 10rem; color: #0000FF"">R</div>",,ospan,letter,TDVrE9orAgfqBGWMBmOkCjBEfli1,html-keyboard-response,187,695406,0.0-43.0-6.0-1.0-1.0-1.0,,,,,,,,,,,,,,,62e023ae6d022e4d7bfc5db1,09:36:07,07/03/2024
2496.0,,,ospan,symmetry,TDVrE9orAgfqBGWMBmOkCjBEfli1,symmetry-judgement-task,188,699751,0.0-43.0-6.0-1.0-1.0-2.0,,,,,,,,,,1.0,1.0,,,,62e023ae6d022e4d7bfc5db1,09:36:07,07/03/2024
,"<div style=""font-size: 10rem; color: #0000FF"">N</div>",,ospan,letter,TDVrE9orAgfqBGWMBmOkCjBEfli1,html-keyboard-response,189,700754,0.0-43.0-6.0-1.0-1.0-3.0,,,,,,,,,,,,,,,62e023ae6d022e4d7bfc5db1,09:36:07,07/03/2024
1510.0,,,ospan,symmetry,TDVrE9orAgfqBGWMBmOkCjBEfli1,symmetry-judgement-task,190,704120,0.0-43.0-6.0-1.0-1.0-4.0,,,,,,,,,,1.0,1.0,,,,62e023ae6d022e4d7bfc5db1,09:36:07,07/03/2024
,"<div style=""font-size: 10rem; color: #0000FF"">H</div>",,ospan,letter,TDVrE9orAgfqBGWMBmOkCjBEfli1,html-keyboard-response,191,705122,0.0-43.0-6.0-1.0-1.0-5.0,,,,,,,,,,,,,,,62e023ae6d022e4d7bfc5db1,09:36:07,07/03/2024
1787.0,,,ospan,symmetry,TDVrE9orAgfqBGWMBmOkCjBEfli1,symmetry-judgement-task,192,708752,0.0-43.0-6.0-1.0-1.0-6.0,,,,,,,,,,1.0,1.0,,,,62e023ae6d022e4d7bfc5db1,09:36:07,07/03/2024
,"<div style=""font-size: 10rem; color: #0000FF"">S</div>",,ospan,letter,TDVrE9orAgfqBGWMBmOkCjBEfli1,html-keyboard-response,193,709754,0.0-43.0-6.0-1.0-1.0-7.0,,,,,,,,,,,,,,,62e023ae6d022e4d7bfc5db1,09:36:07,07/03/2024
2289.0,,,ospan,symmetry,TDVrE9orAgfqBGWMBmOkCjBEfli1,symmetry-judgement-task,194,713901,0.0-43.0-6.0-1.0-1.0-8.0,,,,,,,,,,1.0,1.0,,,,62e023ae6d022e4d7bfc5db1,09:36:07,07/03/2024
,"<div style=""font-size: 10rem; color: #0000FF"">Y</div>",,ospan,letter,TDVrE9orAgfqBGWMBmOkCjBEfli1,html-keyboard-response,195,714904,0.0-43.0-6.0-1.0-1.0-9.0,,,,,,,,,,,,,,,62e023ae6d022e4d7bfc5db1,09:36:07,07/03/2024
2504.0,,,ospan,symmetry,TDVrE9orAgfqBGWMBmOkCjBEfli1,symmetry-judgement-task,196,719252,0.0-43.0-6.0-1.0-1.0-10.0,,,,,,,,,,1.0,1.0,,,,62e023ae6d022e4d7bfc5db1,09:36:07,07/03/2024
,"<div style=""font-size: 10rem; color: #0000FF"">C</div>",,ospan,letter,TDVrE9orAgfqBGWMBmOkCjBEfli1,html-keyboard-response,197,720255,0.0-43.0-6.0-1.0-1.0-11.0,,,,,,,,,,,,,,,62e023ae6d022e4d7bfc5db1,09:36:07,07/03/2024
2410.0,,,ospan,symmetry,TDVrE9orAgfqBGWMBmOkCjBEfli1,symmetry-judgement-task,198,724519,0.0-43.0-6.0-1.0-1.0-12.0,,,,,,,,,,1.0,1.0,,,,62e023ae6d022e4d7bfc5db1,09:36:07,07/03/2024
,"<div style=""font-size: 10rem; color: #0000FF"">L</div>",,ospan,letter,TDVrE9orAgfqBGWMBmOkCjBEfli1,html-keyboard-response,199,725523,0.0-43.0-6.0-1.0-1.0-13.0,,,,,,,,,,,,,,,62e023ae6d022e4d7bfc5db1,09:36:07,07/03/2024
1442.0,,,ospan,symmetry,TDVrE9orAgfqBGWMBmOkCjBEfli1,symmetry-judgement-task,200,728818,0.0-43.0-6.0-1.0-1.0-14.0,,,,,,,,,,1.0,1.0,,,,62e023ae6d022e4d7bfc5db1,09:36:07,07/03/2024
,"<div style=""font-size: 10rem; color: #0000FF"">P</div>",,ospan,letter,TDVrE9orAgfqBGWMBmOkCjBEfli1,html-keyboard-response,201,729820,0.0-43.0-6.0-1.0-1.0-15.0,,,,,,,,,,,,,,,62e023ae6d022e4d7bfc5db1,09:36:07,07/03/2024
6234.0999999940395,"<div class = numbox><p style=""font-size: 2.4rem"">Please recall the letters you saw to the best of your ability. If you do not remember a particular letter, use the SKIP button.<br><b>(When you are ready to lock in your answer, press ENTER)</b></p><button id = button_1 class = ""square num-button"" onclick = ""recordClick(this)""><div class = content><div class = numbers>C</div></div></button><button id = button_2 class = ""square num-button"" onclick = ""recordClick(this)""><div class = content><div class = numbers>G</div></div></button><button id = button_3 class = ""square num-button"" onclick = ""recordClick(this)""><div class = content><div class = numbers>H</div></div></button><button id = button_4 class = ""square num-button"" onclick = ""recordClick(this)""><div class = content><div class = numbers>J</div></div></button><button id = button_5 class = ""square num-button"" onclick = ""recordClick(this)""><div class = content><div class = numbers>K</div></div></button><button id = button_6 class = ""square num-button"" onclick = ""recordClick(this)""><div class = content><div class = numbers>L</div></div></button><button id = button_7 class = ""square num-button"" onclick = ""recordClick(this)""><div class = content><div class = numbers>N</div></div></button><button id = button_8 class = ""square num-button"" onclick = ""recordClick(this)""><div class = content><div class = numbers>P</div></div></button><button id = button_9 class = ""square num-button"" onclick = ""recordClick(this)""><div class = content><div class = numbers>Q</div></div></button><button id = button_10 class = ""square num-button"" onclick = ""recordClick(this)""><div class = content><div class = numbers>R</div></div></button><button id = button_11 class = ""square num-button"" onclick = ""recordClick(this)""><div class = content><div class = numbers>S</div></div></button><button id = button_12 class = ""square num-button"" onclick = ""recordClick(this)""><div class = content><div class = numbers>Y</div></div></button><button class = clear_button id = ""ClearButton"" onclick = ""clearResponse()"">BACKSPACE</button><button class = blank_button id = ""BlankButton"" onclick = ""blankResponse()"">SKIP</button><p style=""font-size: 2.4rem""><u><b>Current Answer:</b></u></p><br><br><div id=echoed_txt style=""font-size: 5rem; color:blue;""><b></b></div></div>",enter,ospan,retrieval,TDVrE9orAgfqBGWMBmOkCjBEfli1,html-keyboard-response,202,736808,0.0-43.0-6.0-1.0-2.0,41,25,17,8.0,"[""R"",""H"",""S"",""_"",""_""]","[""R"",""N"",""H"",""S"",""Y"",""C"",""L"",""P""]",0.0,1.0,,,,,,,62e023ae6d022e4d7bfc5db1,09:36:07,07/03/2024
871.8000000119209,[''],0,ospan,feedback,TDVrE9orAgfqBGWMBmOkCjBEfli1,html-button-response,203,738184,0.0-43.0-6.0-1.0-3.0,,,,,,,,,,,,98.0,0.0,,62e023ae6d022e4d7bfc5db1,09:36:07,07/03/2024
17515.5,,{'Q0': 'It was very clear - a progress tracker woudl be helpful'},ospan,survey_ospan,TDVrE9orAgfqBGWMBmOkCjBEfli1,lmdlab-survey-text,204,756453,0.0-43.0-7.0,,,,,,,,,,,,,,TDVrE9orAgfqBGWMBmOkCjBEfli1,62e023ae6d022e4d7bfc5db1,09:36:07,07/03/2024
1006.5,<p><p style='font-size: 3rem'>Great work!<br><br>This completes the symmetry and memory task.</p><br><br><br>,0,ospan,finish,TDVrE9orAgfqBGWMBmOkCjBEfli1,html-button-response,205,757466,0.0-43.0-8.0,41,25,17,,,,,,,,,98.0,,,62e023ae6d022e4d7bfc5db1,09:36:07,07/03/2024
