rt,stimulus,response,exp_name,exp_stage,subjectID,trial_type,trial_index,time_elapsed,internal_node_id,ospan_shown,ospan_total,ospan_abs,length,resp_actual,resp_correct,full_correct,num_correct,feedback,accuracy,correct,math_acc,math_warning,databaseID,prolificID,start_time,date
2969.5999999046326,<div class = 'left_align' style='font-size: 3.25rem; line-height: 1.3;'><p class = 'center_align'><b>Welcome to the Symmetry and Memory Task</b><br><br><br><br></p>Press 'continue' to show the instructions.<br><br><br><br></div>,0,ospan,instruct,OW8yoKsiAbeEN12U9lj6LwoyLBI3,html-button-response,51,418227,0.0-43.0-0.0-0.0-0.0,,,,,,,,,,,,,,,641373f8117053037093d10a,20:42:14,04/03/2024
15234.100000023842,"<div class = 'left_align' style='font-size: 3.25rem; line-height: 1.3;'><p class = 'center_align'><b>Symmetry and Memory Task</b><br><br></p>In this task, you will try to memorize letters you see on the screen<br>while you also view black and white grid pictures.<br><br>In the next few minutes, you will have some practice to get you familiar<br>with how the task works.<br><br>It may be difficult sometimes, but please do not worry about making mistakes!<br><br>We will begin by practicing the letter part of the task.<br><br><br><br></div>",0,ospan,instruct,OW8yoKsiAbeEN12U9lj6LwoyLBI3,html-button-response,52,433720,0.0-43.0-0.0-0.0-1.0,,,,,,,,,,,,,,,641373f8117053037093d10a,20:42:14,04/03/2024
11660.200000047684,"<div class = 'left_align' style='font-size: 3.25rem; line-height: 1.3;'>For this practice part, letters will appear on the screen one at a time.<br><br>Try to remember each letter in the order presented.<br><br>After some letters have been shown, you will see a response screen. Your<br>goal is to report the letters you saw <b>in order</b>. If you do not remember<br>a particular letter, you will have the option to leave it blank.<br><br><br><br></div>",0,ospan,instruct,OW8yoKsiAbeEN12U9lj6LwoyLBI3,html-button-response,53,445647,0.0-43.0-0.0-0.0-2.0,,,,,,,,,,,,,,,641373f8117053037093d10a,20:42:14,04/03/2024
3074.5,"<div class = 'left_align' style='font-size: 3.25rem; line-height: 1.3;'>Remember, it is very important to get the letters in the same<br>order as you see them.<br><br>When you are ready, you may begin the letter practice.</div><br><br><br><br>",0,ospan,instruct,OW8yoKsiAbeEN12U9lj6LwoyLBI3,html-button-response,54,448980,0.0-43.0-0.0-0.0-3.0,,,,,,,,,,,,,,,641373f8117053037093d10a,20:42:14,04/03/2024
,"<p style=""font-size:75px;"">...</p>",,ospan,iti,OW8yoKsiAbeEN12U9lj6LwoyLBI3,html-keyboard-response,55,450247,0.0-43.0-0.0-1.0-0.0,,,,,,,,,,,,,,,641373f8117053037093d10a,20:42:14,04/03/2024
,"<div style=""font-size: 10rem; color: #0000FF"">Y</div>",,ospan,letter,OW8yoKsiAbeEN12U9lj6LwoyLBI3,html-keyboard-response,56,451263,0.0-43.0-0.0-1.0-1.0,,,,,,,,,,,,,,,641373f8117053037093d10a,20:42:14,04/03/2024
,"<div style=""font-size: 10rem; color: #0000FF"">K</div>",,ospan,letter,OW8yoKsiAbeEN12U9lj6LwoyLBI3,html-keyboard-response,57,453021,0.0-43.0-0.0-1.0-2.0,,,,,,,,,,,,,,,641373f8117053037093d10a,20:42:14,04/03/2024
8596.700000047684,"<div class = numbox><p style=""font-size: 2.4rem"">Please recall the letters you saw to the best of your ability. If you do not remember a particular letter, use the SKIP button.<br><b>(When you are ready to lock in your answer, press ENTER)</b></p><button id = button_1 class = ""square num-button"" onclick = ""recordClick(this)""><div class = content><div class = numbers>C</div></div></button><button id = button_2 class = ""square num-button"" onclick = ""recordClick(this)""><div class = content><div class = numbers>G</div></div></button><button id = button_3 class = ""square num-button"" onclick = ""recordClick(this)""><div class = content><div class = numbers>H</div></div></button><button id = button_4 class = ""square num-button"" onclick = ""recordClick(this)""><div class = content><div class = numbers>J</div></div></button><button id = button_5 class = ""square num-button"" onclick = ""recordClick(this)""><div class = content><div class = numbers>K</div></div></button><button id = button_6 class = ""square num-button"" onclick = ""recordClick(this)""><div class = content><div class = numbers>L</div></div></button><button id = button_7 class = ""square num-button"" onclick = ""recordClick(this)""><div class = content><div class = numbers>N</div></div></button><button id = button_8 class = ""square num-button"" onclick = ""recordClick(this)""><div class = content><div class = numbers>P</div></div></button><button id = button_9 class = ""square num-button"" onclick = ""recordClick(this)""><div class = content><div class = numbers>Q</div></div></button><button id = button_10 class = ""square num-button"" onclick = ""recordClick(this)""><div class = content><div class = numbers>R</div></div></button><button id = button_11 class = ""square num-button"" onclick = ""recordClick(this)""><div class = content><div class = numbers>S</div></div></button><button id = button_12 class = ""square num-button"" onclick = ""recordClick(this)""><div class = content><div class = numbers>Y</div></div></button><button class = clear_button id = ""ClearButton"" onclick = ""clearResponse()"">BACKSPACE</button><button class = blank_button id = ""BlankButton"" onclick = ""blankResponse()"">SKIP</button><p style=""font-size: 2.4rem""><u><b>Current Answer:</b></u></p><br><br><div id=echoed_txt style=""font-size: 5rem; color:blue;""><b></b></div></div>",enter,ospan,retrieval,OW8yoKsiAbeEN12U9lj6LwoyLBI3,html-keyboard-response,58,462377,0.0-43.0-0.0-1.0-3.0,NA,NA,NA,2.0,"[""Y"",""K""]","[""Y"",""K""]",1.0,2.0,"['<font color=""green"">Y</font>', '<font color=""green"">K</font>']",,,,,,641373f8117053037093d10a,20:42:14,04/03/2024
1158.6999999284744,"['<p style=""font-size:44px"">Letters:<br><br><br><font color=""green"">Y</font> <font color=""green"">K</font></p><br><br>']",0,ospan,practice_feedback,OW8yoKsiAbeEN12U9lj6LwoyLBI3,html-button-response,59,464053,0.0-43.0-0.0-1.0-4.0,,,,,,,,,,,,,,,641373f8117053037093d10a,20:42:14,04/03/2024
,"<p style=""font-size:75px;"">...</p>",,ospan,iti,OW8yoKsiAbeEN12U9lj6LwoyLBI3,html-keyboard-response,60,465065,0.0-43.0-0.0-2.0-0.0,,,,,,,,,,,,,,,641373f8117053037093d10a,20:42:14,04/03/2024
,"<div style=""font-size: 10rem; color: #0000FF"">P</div>",,ospan,letter,OW8yoKsiAbeEN12U9lj6LwoyLBI3,html-keyboard-response,61,466070,0.0-43.0-0.0-2.0-1.0,,,,,,,,,,,,,,,641373f8117053037093d10a,20:42:14,04/03/2024
,"<div style=""font-size: 10rem; color: #0000FF"">H</div>",,ospan,letter,OW8yoKsiAbeEN12U9lj6LwoyLBI3,html-keyboard-response,62,467846,0.0-43.0-0.0-2.0-2.0,,,,,,,,,,,,,,,641373f8117053037093d10a,20:42:14,04/03/2024
,"<div style=""font-size: 10rem; color: #0000FF"">N</div>",,ospan,letter,OW8yoKsiAbeEN12U9lj6LwoyLBI3,html-keyboard-response,63,469617,0.0-43.0-0.0-2.0-3.0,,,,,,,,,,,,,,,641373f8117053037093d10a,20:42:14,04/03/2024
4109.5,"<div class = numbox><p style=""font-size: 2.4rem"">Please recall the letters you saw to the best of your ability. If you do not remember a particular letter, use the SKIP button.<br><b>(When you are ready to lock in your answer, press ENTER)</b></p><button id = button_1 class = ""square num-button"" onclick = ""recordClick(this)""><div class = content><div class = numbers>C</div></div></button><button id = button_2 class = ""square num-button"" onclick = ""recordClick(this)""><div class = content><div class = numbers>G</div></div></button><button id = button_3 class = ""square num-button"" onclick = ""recordClick(this)""><div class = content><div class = numbers>H</div></div></button><button id = button_4 class = ""square num-button"" onclick = ""recordClick(this)""><div class = content><div class = numbers>J</div></div></button><button id = button_5 class = ""square num-button"" onclick = ""recordClick(this)""><div class = content><div class = numbers>K</div></div></button><button id = button_6 class = ""square num-button"" onclick = ""recordClick(this)""><div class = content><div class = numbers>L</div></div></button><button id = button_7 class = ""square num-button"" onclick = ""recordClick(this)""><div class = content><div class = numbers>N</div></div></button><button id = button_8 class = ""square num-button"" onclick = ""recordClick(this)""><div class = content><div class = numbers>P</div></div></button><button id = button_9 class = ""square num-button"" onclick = ""recordClick(this)""><div class = content><div class = numbers>Q</div></div></button><button id = button_10 class = ""square num-button"" onclick = ""recordClick(this)""><div class = content><div class = numbers>R</div></div></button><button id = button_11 class = ""square num-button"" onclick = ""recordClick(this)""><div class = content><div class = numbers>S</div></div></button><button id = button_12 class = ""square num-button"" onclick = ""recordClick(this)""><div class = content><div class = numbers>Y</div></div></button><button class = clear_button id = ""ClearButton"" onclick = ""clearResponse()"">BACKSPACE</button><button class = blank_button id = ""BlankButton"" onclick = ""blankResponse()"">SKIP</button><p style=""font-size: 2.4rem""><u><b>Current Answer:</b></u></p><br><br><div id=echoed_txt style=""font-size: 5rem; color:blue;""><b></b></div></div>",enter,ospan,retrieval,OW8yoKsiAbeEN12U9lj6LwoyLBI3,html-keyboard-response,64,474489,0.0-43.0-0.0-2.0-4.0,NA,NA,NA,3.0,"[""P"",""H"",""N""]","[""P"",""H"",""N""]",1.0,3.0,"['<font color=""green"">P</font>', '<font color=""green"">H</font>', '<font color=""green"">N</font>']",,,,,,641373f8117053037093d10a,20:42:14,04/03/2024
874.5,"['<p style=""font-size:44px"">Letters:<br><br><br><font color=""green"">P</font> <font color=""green"">H</font> <font color=""green"">N</font></p><br><br>']",0,ospan,practice_feedback,OW8yoKsiAbeEN12U9lj6LwoyLBI3,html-button-response,65,475876,0.0-43.0-0.0-2.0-5.0,,,,,,,,,,,,,,,641373f8117053037093d10a,20:42:14,04/03/2024
22355.100000023842,"<div class = 'left_align' style='font-size: 3.25rem; line-height: 1.3;'>Now you will practice doing the <b>symmetry judgment part</b> of the experiment.<br><br>A black and white grid picture will appear on the screen and you have to judge if it is <br>symmetrical or asymetrical.<br><br>A picture is 'mirror' symmetrical if its left half is identical to the right half when flipped.<br>Here are examples of a symmetrical and an asymetrical picture:<br><br><center><img src='Stimuli/img/symm_instructions_extra.png' style='height:420px; width:900'></img></center><br>To judge symmetry, imagine you were to fold each picture down the middle, like a book –<br>would the left half match the right half when folded onto each other?<br><br></div><br>",0,ospan,instruct,OW8yoKsiAbeEN12U9lj6LwoyLBI3,html-button-response,66,498236,0.0-43.0-1.0-0.0-0.0,,,,,,,,,,,,,,,641373f8117053037093d10a,20:42:14,04/03/2024
19432.299999952316,"<div class = 'left_align' style='font-size: 3.25rem; line-height: 1.3;'>When you have viewed the picture and determined whether it is symmetrical or not,<br>you can <b>click the Yes or No button</b> below to answer.<br><br>If you take longer than 15 seconds, it will continue automatically<br>and record the answer as an error.</div><br>",0,ospan,instruct,OW8yoKsiAbeEN12U9lj6LwoyLBI3,html-button-response,67,517924,0.0-43.0-1.0-0.0-1.0,,,,,,,,,,,,,,,641373f8117053037093d10a,20:42:14,04/03/2024
6443.899999976158,"<div class = 'left_align' style='font-size: 3.25rem; line-height: 1.3;'>It is <b>very</b> important that you make the symmetry judgment correctly.<br><br>It is also important that you try and judge the picture as quickly as you can.<br><br>When you are ready, click on the button below to try some practice problems.</div><br><br><br><br>",0,ospan,instruct,OW8yoKsiAbeEN12U9lj6LwoyLBI3,html-button-response,68,524625,0.0-43.0-1.0-0.0-2.0,,,,,,,,,,,,,,,641373f8117053037093d10a,20:42:14,04/03/2024
4786.0,,,ospan,symmetry,OW8yoKsiAbeEN12U9lj6LwoyLBI3,symmetry-judgement-task,69,530289,0.0-43.0-1.0-1.0-0.0,,,,,,,,,,1.0,1.0,,,,641373f8117053037093d10a,20:42:14,04/03/2024
,"<p style=""color:green; font-size: 35px"">Correct</p>",,ospan,feedback,OW8yoKsiAbeEN12U9lj6LwoyLBI3,html-keyboard-response,70,531047,0.0-43.0-1.0-1.0-1.0,,,,,,,,,,,,,,,641373f8117053037093d10a,20:42:14,04/03/2024
1439.0,,,ospan,symmetry,OW8yoKsiAbeEN12U9lj6LwoyLBI3,symmetry-judgement-task,71,535345,0.0-43.0-1.0-1.0-2.0,,,,,,,,,,1.0,1.0,,,,641373f8117053037093d10a,20:42:14,04/03/2024
,"<p style=""color:green; font-size: 35px"">Correct</p>",,ospan,feedback,OW8yoKsiAbeEN12U9lj6LwoyLBI3,html-keyboard-response,72,536105,0.0-43.0-1.0-1.0-3.0,,,,,,,,,,,,,,,641373f8117053037093d10a,20:42:14,04/03/2024
1610.0,,,ospan,symmetry,OW8yoKsiAbeEN12U9lj6LwoyLBI3,symmetry-judgement-task,73,540674,0.0-43.0-1.0-1.0-4.0,,,,,,,,,,1.0,1.0,,,,641373f8117053037093d10a,20:42:14,04/03/2024
,"<p style=""color:green; font-size: 35px"">Correct</p>",,ospan,feedback,OW8yoKsiAbeEN12U9lj6LwoyLBI3,html-keyboard-response,74,541441,0.0-43.0-1.0-1.0-5.0,,,,,,,,,,,,,,,641373f8117053037093d10a,20:42:14,04/03/2024
1054.2000000476837,"<p style=""font-size: 3rem;"">You responded correctly on 3 of 3 symmetry judgments. Good job!</p><br><br>",0,ospan,practice,OW8yoKsiAbeEN12U9lj6LwoyLBI3,html-button-response,75,544511,0.0-43.0-1.0-2.0,,,,,,,,,,,,,,,641373f8117053037093d10a,20:42:14,04/03/2024
17067.899999976158,"<div class = 'left_align' style='font-size: 3.25rem; line-height: 1.3;'>Now you will practice doing both parts of the experiment at the same time.<br><br>In the next practice set, you will be given one grid picture to judge.<br>Then letter will appear on the screen. Try to remember the letter.<br><br>It is <b>very important</b> to make the symmetry judgment as quickly and accurately as possible.<br><br>Just as before, once you have make the symmetry judgment, you can click Yes or No.<br><b>Note that you will no longer see Correct or Incorrect feedback.</div><br><br><br><br>",0,ospan,instruct,OW8yoKsiAbeEN12U9lj6LwoyLBI3,html-button-response,76,561836,0.0-43.0-2.0-0.0-0.0,,,,,,,,,,,,,,,641373f8117053037093d10a,20:42:14,04/03/2024
7072.399999976158,"<div class = 'left_align' style='font-size: 3.25rem; line-height: 1.3;'>After the letter goes away, another grid picture will appear, and then<br>another letter.<br><br>At the end of each set of letters and grids, you will recall the letters to the best<br>of your ability. Remember, try your best to get the letters in the correct order.<br><br>It is important to <b>quickly</b> and <b>accurately</b> make the symmetry judgments.</div><br><br><br><br>",0,ospan,instruct,OW8yoKsiAbeEN12U9lj6LwoyLBI3,html-button-response,77,569175,0.0-43.0-2.0-0.0-1.0,,,,,,,,,,,,,,,641373f8117053037093d10a,20:42:14,04/03/2024
12135.0,"<div class = 'left_align' style='font-size: 3.25rem; line-height: 1.3;'>On the feedback screen, if you are not doing well at the symmetry judgments,<br>you will also see a warning in the middle. This indicates your percent <br>correct for the grid pictures for the entire experiment.<br><br>It is <b>very</b> important for you to keep accuracy at least at 85%: <u>We can only use<br>data where the participant was at least 85% accurate on the judgments.</u> Therefore,<br> please try your best to perform well on the symmetry judgments, <b>at the same time</b><br>doing your best to recall as many letters as possible.<br><br>Click the button to try some practice problems.</div><br><br><br><br>",0,ospan,instruct,OW8yoKsiAbeEN12U9lj6LwoyLBI3,html-button-response,78,581568,0.0-43.0-2.0-0.0-2.0,,,,,,,,,,,,,,,641373f8117053037093d10a,20:42:14,04/03/2024
,"<p style=""font-size:75px;"">...</p>",,ospan,iti,OW8yoKsiAbeEN12U9lj6LwoyLBI3,html-keyboard-response,79,582830,0.0-43.0-2.0-1.0-0.0,,,,,,,,,,,,,,,641373f8117053037093d10a,20:42:14,04/03/2024
1788.0,,,ospan,symmetry,OW8yoKsiAbeEN12U9lj6LwoyLBI3,symmetry-judgement-task,80,586110,0.0-43.0-2.0-1.0-1.0-0.0,,,,,,,,,,1.0,1.0,,,,641373f8117053037093d10a,20:42:14,04/03/2024
,"<div style=""font-size: 10rem; color: #0000FF"">K</div>",,ospan,letter,OW8yoKsiAbeEN12U9lj6LwoyLBI3,html-keyboard-response,81,587114,0.0-43.0-2.0-1.0-1.0-1.0,,,,,,,,,,,,,,,641373f8117053037093d10a,20:42:14,04/03/2024
1187.0,,,ospan,symmetry,OW8yoKsiAbeEN12U9lj6LwoyLBI3,symmetry-judgement-task,82,590502,0.0-43.0-2.0-1.0-1.0-2.0,,,,,,,,,,1.0,1.0,,,,641373f8117053037093d10a,20:42:14,04/03/2024
,"<div style=""font-size: 10rem; color: #0000FF"">G</div>",,ospan,letter,OW8yoKsiAbeEN12U9lj6LwoyLBI3,html-keyboard-response,83,591515,0.0-43.0-2.0-1.0-1.0-3.0,,,,,,,,,,,,,,,641373f8117053037093d10a,20:42:14,04/03/2024
1590.0,,,ospan,symmetry,OW8yoKsiAbeEN12U9lj6LwoyLBI3,symmetry-judgement-task,84,595223,0.0-43.0-2.0-1.0-1.0-4.0,,,,,,,,,,1.0,1.0,,,,641373f8117053037093d10a,20:42:14,04/03/2024
,"<div style=""font-size: 10rem; color: #0000FF"">N</div>",,ospan,letter,OW8yoKsiAbeEN12U9lj6LwoyLBI3,html-keyboard-response,85,596225,0.0-43.0-2.0-1.0-1.0-5.0,,,,,,,,,,,,,,,641373f8117053037093d10a,20:42:14,04/03/2024
2909.5,"<div class = numbox><p style=""font-size: 2.4rem"">Please recall the letters you saw to the best of your ability. If you do not remember a particular letter, use the SKIP button.<br><b>(When you are ready to lock in your answer, press ENTER)</b></p><button id = button_1 class = ""square num-button"" onclick = ""recordClick(this)""><div class = content><div class = numbers>C</div></div></button><button id = button_2 class = ""square num-button"" onclick = ""recordClick(this)""><div class = content><div class = numbers>G</div></div></button><button id = button_3 class = ""square num-button"" onclick = ""recordClick(this)""><div class = content><div class = numbers>H</div></div></button><button id = button_4 class = ""square num-button"" onclick = ""recordClick(this)""><div class = content><div class = numbers>J</div></div></button><button id = button_5 class = ""square num-button"" onclick = ""recordClick(this)""><div class = content><div class = numbers>K</div></div></button><button id = button_6 class = ""square num-button"" onclick = ""recordClick(this)""><div class = content><div class = numbers>L</div></div></button><button id = button_7 class = ""square num-button"" onclick = ""recordClick(this)""><div class = content><div class = numbers>N</div></div></button><button id = button_8 class = ""square num-button"" onclick = ""recordClick(this)""><div class = content><div class = numbers>P</div></div></button><button id = button_9 class = ""square num-button"" onclick = ""recordClick(this)""><div class = content><div class = numbers>Q</div></div></button><button id = button_10 class = ""square num-button"" onclick = ""recordClick(this)""><div class = content><div class = numbers>R</div></div></button><button id = button_11 class = ""square num-button"" onclick = ""recordClick(this)""><div class = content><div class = numbers>S</div></div></button><button id = button_12 class = ""square num-button"" onclick = ""recordClick(this)""><div class = content><div class = numbers>Y</div></div></button><button class = clear_button id = ""ClearButton"" onclick = ""clearResponse()"">BACKSPACE</button><button class = blank_button id = ""BlankButton"" onclick = ""blankResponse()"">SKIP</button><p style=""font-size: 2.4rem""><u><b>Current Answer:</b></u></p><br><br><div id=echoed_txt style=""font-size: 5rem; color:blue;""><b></b></div></div>",enter,ospan,retrieval,OW8yoKsiAbeEN12U9lj6LwoyLBI3,html-keyboard-response,86,599889,0.0-43.0-2.0-1.0-2.0-0.0,NA,NA,NA,3.0,"[""K"",""G"",""N""]","[""K"",""G"",""N""]",1.0,3.0,"['<font color=""green"">K</font>', '<font color=""green"">G</font>', '<font color=""green"">N</font>']",,,,,,641373f8117053037093d10a,20:42:14,04/03/2024
1054.8000000715256,"['<p style=""font-size:44px"">Letters:<br><br><br><font color=""green"">K</font> <font color=""green"">G</font> <font color=""green"">N</font></p><br><br><p style=""font-size:30px"">Symmetry:<br><br><font color=""green"">100%</font></p><br><br>']",0,ospan,practice_feedback,OW8yoKsiAbeEN12U9lj6LwoyLBI3,html-button-response,87,601454,0.0-43.0-2.0-1.0-2.0-1.0,,,,,,,,,,,,,,,641373f8117053037093d10a,20:42:14,04/03/2024
,"<p style=""font-size:75px;"">...</p>",,ospan,iti,OW8yoKsiAbeEN12U9lj6LwoyLBI3,html-keyboard-response,88,602467,0.0-43.0-2.0-2.0-0.0,,,,,,,,,,,,,,,641373f8117053037093d10a,20:42:14,04/03/2024
1534.0,,,ospan,symmetry,OW8yoKsiAbeEN12U9lj6LwoyLBI3,symmetry-judgement-task,89,605355,0.0-43.0-2.0-2.0-1.0-0.0,,,,,,,,,,1.0,1.0,,,,641373f8117053037093d10a,20:42:14,04/03/2024
,"<div style=""font-size: 10rem; color: #0000FF"">S</div>",,ospan,letter,OW8yoKsiAbeEN12U9lj6LwoyLBI3,html-keyboard-response,90,606366,0.0-43.0-2.0-2.0-1.0-1.0,,,,,,,,,,,,,,,641373f8117053037093d10a,20:42:14,04/03/2024
1850.0,,,ospan,symmetry,OW8yoKsiAbeEN12U9lj6LwoyLBI3,symmetry-judgement-task,91,610458,0.0-43.0-2.0-2.0-1.0-2.0,,,,,,,,,,1.0,1.0,,,,641373f8117053037093d10a,20:42:14,04/03/2024
,"<div style=""font-size: 10rem; color: #0000FF"">P</div>",,ospan,letter,OW8yoKsiAbeEN12U9lj6LwoyLBI3,html-keyboard-response,92,611475,0.0-43.0-2.0-2.0-1.0-3.0,,,,,,,,,,,,,,,641373f8117053037093d10a,20:42:14,04/03/2024
1994.0,,,ospan,symmetry,OW8yoKsiAbeEN12U9lj6LwoyLBI3,symmetry-judgement-task,93,615564,0.0-43.0-2.0-2.0-1.0-4.0,,,,,,,,,,1.0,1.0,,,,641373f8117053037093d10a,20:42:14,04/03/2024
,"<div style=""font-size: 10rem; color: #0000FF"">C</div>",,ospan,letter,OW8yoKsiAbeEN12U9lj6LwoyLBI3,html-keyboard-response,94,616576,0.0-43.0-2.0-2.0-1.0-5.0,,,,,,,,,,,,,,,641373f8117053037093d10a,20:42:14,04/03/2024
2909.3000000715256,"<div class = numbox><p style=""font-size: 2.4rem"">Please recall the letters you saw to the best of your ability. If you do not remember a particular letter, use the SKIP button.<br><b>(When you are ready to lock in your answer, press ENTER)</b></p><button id = button_1 class = ""square num-button"" onclick = ""recordClick(this)""><div class = content><div class = numbers>C</div></div></button><button id = button_2 class = ""square num-button"" onclick = ""recordClick(this)""><div class = content><div class = numbers>G</div></div></button><button id = button_3 class = ""square num-button"" onclick = ""recordClick(this)""><div class = content><div class = numbers>H</div></div></button><button id = button_4 class = ""square num-button"" onclick = ""recordClick(this)""><div class = content><div class = numbers>J</div></div></button><button id = button_5 class = ""square num-button"" onclick = ""recordClick(this)""><div class = content><div class = numbers>K</div></div></button><button id = button_6 class = ""square num-button"" onclick = ""recordClick(this)""><div class = content><div class = numbers>L</div></div></button><button id = button_7 class = ""square num-button"" onclick = ""recordClick(this)""><div class = content><div class = numbers>N</div></div></button><button id = button_8 class = ""square num-button"" onclick = ""recordClick(this)""><div class = content><div class = numbers>P</div></div></button><button id = button_9 class = ""square num-button"" onclick = ""recordClick(this)""><div class = content><div class = numbers>Q</div></div></button><button id = button_10 class = ""square num-button"" onclick = ""recordClick(this)""><div class = content><div class = numbers>R</div></div></button><button id = button_11 class = ""square num-button"" onclick = ""recordClick(this)""><div class = content><div class = numbers>S</div></div></button><button id = button_12 class = ""square num-button"" onclick = ""recordClick(this)""><div class = content><div class = numbers>Y</div></div></button><button class = clear_button id = ""ClearButton"" onclick = ""clearResponse()"">BACKSPACE</button><button class = blank_button id = ""BlankButton"" onclick = ""blankResponse()"">SKIP</button><p style=""font-size: 2.4rem""><u><b>Current Answer:</b></u></p><br><br><div id=echoed_txt style=""font-size: 5rem; color:blue;""><b></b></div></div>",enter,ospan,retrieval,OW8yoKsiAbeEN12U9lj6LwoyLBI3,html-keyboard-response,95,620245,0.0-43.0-2.0-2.0-2.0-0.0,NA,NA,NA,3.0,"[""S"",""P"",""C""]","[""S"",""P"",""C""]",1.0,3.0,"['<font color=""green"">S</font>', '<font color=""green"">P</font>', '<font color=""green"">C</font>']",,,,,,641373f8117053037093d10a,20:42:14,04/03/2024
723.6000000238419,"['<p style=""font-size:44px"">Letters:<br><br><br><font color=""green"">S</font> <font color=""green"">P</font> <font color=""green"">C</font></p><br><br><p style=""font-size:30px"">Symmetry:<br><br><font color=""green"">100%</font></p><br><br>']",0,ospan,practice_feedback,OW8yoKsiAbeEN12U9lj6LwoyLBI3,html-button-response,96,621481,0.0-43.0-2.0-2.0-2.0-1.0,,,,,,,,,,,,,,,641373f8117053037093d10a,20:42:14,04/03/2024
17303.600000023842,"<div class = 'left_align' style='font-size: 3rem; line-height: 1.3;'><b>Great work! That is the end of practice.</b><br><br>The real trials will look just like the practice trials you just completed.<br><br><u>Here, you will not see feedback</u>. First, you will see an grid picture to judge,<br>then a letter to remember. When the recall screen appears, report the letters in the<br>order presented. If you forget a letter, remember to use the <b>blank</b> button to move to the<br>next letter. Some of the sets will have more symmetry grids and letters than others.<br><br>It is important that you do your best on both the symmetry judgments and the letter recall<br>parts of the experiment. For for the symmetry judgments, try to work as <b>quickly</b> and <br>as <b>accurately</b> as possible. Remember to keep your symmetry accuracy at 85% or above.<br><br><b>For the letters, do NOT use any external aid (e.g., writing on paper, electronic device).</b><br><br>It is <u>very important</u> to our experiment to have a <b>true</b> view of your real performance.<br><br>Do not worry if you miss some when it gets hard! This task is meant to be very challenging!<br><br>Click the button to begin.</div><br><br><br><br>",0,ospan,starting_real_here,OW8yoKsiAbeEN12U9lj6LwoyLBI3,html-button-response,97,638787,0.0-43.0-2.0-3.0,,,,,,,,,,,,,,,641373f8117053037093d10a,20:42:14,04/03/2024
,"<p style=""font-size:75px;"">...</p>",,ospan,iti,OW8yoKsiAbeEN12U9lj6LwoyLBI3,html-keyboard-response,98,640062,0.0-43.0-3.0-0.0-0.0,,,,,,,,,,,,,,,641373f8117053037093d10a,20:42:14,04/03/2024
1288.0,,,ospan,symmetry,OW8yoKsiAbeEN12U9lj6LwoyLBI3,symmetry-judgement-task,99,642667,0.0-43.0-3.0-0.0-1.0-0.0,,,,,,,,,,1.0,1.0,,,,641373f8117053037093d10a,20:42:14,04/03/2024
,"<div style=""font-size: 10rem; color: #0000FF"">P</div>",,ospan,letter,OW8yoKsiAbeEN12U9lj6LwoyLBI3,html-keyboard-response,100,643689,0.0-43.0-3.0-0.0-1.0-1.0,,,,,,,,,,,,,,,641373f8117053037093d10a,20:42:14,04/03/2024
1127.0,,,ospan,symmetry,OW8yoKsiAbeEN12U9lj6LwoyLBI3,symmetry-judgement-task,101,646918,0.0-43.0-3.0-0.0-1.0-2.0,,,,,,,,,,1.0,1.0,,,,641373f8117053037093d10a,20:42:14,04/03/2024
,"<div style=""font-size: 10rem; color: #0000FF"">N</div>",,ospan,letter,OW8yoKsiAbeEN12U9lj6LwoyLBI3,html-keyboard-response,102,647931,0.0-43.0-3.0-0.0-1.0-3.0,,,,,,,,,,,,,,,641373f8117053037093d10a,20:42:14,04/03/2024
1212.0,,,ospan,symmetry,OW8yoKsiAbeEN12U9lj6LwoyLBI3,symmetry-judgement-task,103,651481,0.0-43.0-3.0-0.0-1.0-4.0,,,,,,,,,,1.0,1.0,,,,641373f8117053037093d10a,20:42:14,04/03/2024
,"<div style=""font-size: 10rem; color: #0000FF"">Q</div>",,ospan,letter,OW8yoKsiAbeEN12U9lj6LwoyLBI3,html-keyboard-response,104,652484,0.0-43.0-3.0-0.0-1.0-5.0,,,,,,,,,,,,,,,641373f8117053037093d10a,20:42:14,04/03/2024
3087.4000000953674,"<div class = numbox><p style=""font-size: 2.4rem"">Please recall the letters you saw to the best of your ability. If you do not remember a particular letter, use the SKIP button.<br><b>(When you are ready to lock in your answer, press ENTER)</b></p><button id = button_1 class = ""square num-button"" onclick = ""recordClick(this)""><div class = content><div class = numbers>C</div></div></button><button id = button_2 class = ""square num-button"" onclick = ""recordClick(this)""><div class = content><div class = numbers>G</div></div></button><button id = button_3 class = ""square num-button"" onclick = ""recordClick(this)""><div class = content><div class = numbers>H</div></div></button><button id = button_4 class = ""square num-button"" onclick = ""recordClick(this)""><div class = content><div class = numbers>J</div></div></button><button id = button_5 class = ""square num-button"" onclick = ""recordClick(this)""><div class = content><div class = numbers>K</div></div></button><button id = button_6 class = ""square num-button"" onclick = ""recordClick(this)""><div class = content><div class = numbers>L</div></div></button><button id = button_7 class = ""square num-button"" onclick = ""recordClick(this)""><div class = content><div class = numbers>N</div></div></button><button id = button_8 class = ""square num-button"" onclick = ""recordClick(this)""><div class = content><div class = numbers>P</div></div></button><button id = button_9 class = ""square num-button"" onclick = ""recordClick(this)""><div class = content><div class = numbers>Q</div></div></button><button id = button_10 class = ""square num-button"" onclick = ""recordClick(this)""><div class = content><div class = numbers>R</div></div></button><button id = button_11 class = ""square num-button"" onclick = ""recordClick(this)""><div class = content><div class = numbers>S</div></div></button><button id = button_12 class = ""square num-button"" onclick = ""recordClick(this)""><div class = content><div class = numbers>Y</div></div></button><button class = clear_button id = ""ClearButton"" onclick = ""clearResponse()"">BACKSPACE</button><button class = blank_button id = ""BlankButton"" onclick = ""blankResponse()"">SKIP</button><p style=""font-size: 2.4rem""><u><b>Current Answer:</b></u></p><br><br><div id=echoed_txt style=""font-size: 5rem; color:blue;""><b></b></div></div>",enter,ospan,retrieval,OW8yoKsiAbeEN12U9lj6LwoyLBI3,html-keyboard-response,105,656329,0.0-43.0-3.0-0.0-2.0,3,3,3,3.0,"[""P"",""N"",""Q""]","[""P"",""N"",""Q""]",1.0,3.0,,,,,,,641373f8117053037093d10a,20:42:14,04/03/2024
1059.5,[''],0,ospan,feedback,OW8yoKsiAbeEN12U9lj6LwoyLBI3,html-button-response,106,657909,0.0-43.0-3.0-0.0-3.0,,,,,,,,,,,,100.0,0.0,,641373f8117053037093d10a,20:42:14,04/03/2024
,"<p style=""font-size:75px;"">...</p>",,ospan,iti,OW8yoKsiAbeEN12U9lj6LwoyLBI3,html-keyboard-response,107,658919,0.0-43.0-4.0-0.0-0.0,,,,,,,,,,,,,,,641373f8117053037093d10a,20:42:14,04/03/2024
1983.0,,,ospan,symmetry,OW8yoKsiAbeEN12U9lj6LwoyLBI3,symmetry-judgement-task,108,662034,0.0-43.0-4.0-0.0-1.0-0.0,,,,,,,,,,1.0,1.0,,,,641373f8117053037093d10a,20:42:14,04/03/2024
,"<div style=""font-size: 10rem; color: #0000FF"">L</div>",,ospan,letter,OW8yoKsiAbeEN12U9lj6LwoyLBI3,html-keyboard-response,109,663053,0.0-43.0-4.0-0.0-1.0-1.0,,,,,,,,,,,,,,,641373f8117053037093d10a,20:42:14,04/03/2024
2272.0,,,ospan,symmetry,OW8yoKsiAbeEN12U9lj6LwoyLBI3,symmetry-judgement-task,110,667501,0.0-43.0-4.0-0.0-1.0-2.0,,,,,,,,,,1.0,1.0,,,,641373f8117053037093d10a,20:42:14,04/03/2024
,"<div style=""font-size: 10rem; color: #0000FF"">R</div>",,ospan,letter,OW8yoKsiAbeEN12U9lj6LwoyLBI3,html-keyboard-response,111,668518,0.0-43.0-4.0-0.0-1.0-3.0,,,,,,,,,,,,,,,641373f8117053037093d10a,20:42:14,04/03/2024
2828.0,,,ospan,symmetry,OW8yoKsiAbeEN12U9lj6LwoyLBI3,symmetry-judgement-task,112,673549,0.0-43.0-4.0-0.0-1.0-4.0,,,,,,,,,,1.0,1.0,,,,641373f8117053037093d10a,20:42:14,04/03/2024
,"<div style=""font-size: 10rem; color: #0000FF"">Y</div>",,ospan,letter,OW8yoKsiAbeEN12U9lj6LwoyLBI3,html-keyboard-response,113,674557,0.0-43.0-4.0-0.0-1.0-5.0,,,,,,,,,,,,,,,641373f8117053037093d10a,20:42:14,04/03/2024
1690.0,,,ospan,symmetry,OW8yoKsiAbeEN12U9lj6LwoyLBI3,symmetry-judgement-task,114,678432,0.0-43.0-4.0-0.0-1.0-6.0,,,,,,,,,,1.0,1.0,,,,641373f8117053037093d10a,20:42:14,04/03/2024
,"<div style=""font-size: 10rem; color: #0000FF"">K</div>",,ospan,letter,OW8yoKsiAbeEN12U9lj6LwoyLBI3,html-keyboard-response,115,679437,0.0-43.0-4.0-0.0-1.0-7.0,,,,,,,,,,,,,,,641373f8117053037093d10a,20:42:14,04/03/2024
3533.7000000476837,"<div class = numbox><p style=""font-size: 2.4rem"">Please recall the letters you saw to the best of your ability. If you do not remember a particular letter, use the SKIP button.<br><b>(When you are ready to lock in your answer, press ENTER)</b></p><button id = button_1 class = ""square num-button"" onclick = ""recordClick(this)""><div class = content><div class = numbers>C</div></div></button><button id = button_2 class = ""square num-button"" onclick = ""recordClick(this)""><div class = content><div class = numbers>G</div></div></button><button id = button_3 class = ""square num-button"" onclick = ""recordClick(this)""><div class = content><div class = numbers>H</div></div></button><button id = button_4 class = ""square num-button"" onclick = ""recordClick(this)""><div class = content><div class = numbers>J</div></div></button><button id = button_5 class = ""square num-button"" onclick = ""recordClick(this)""><div class = content><div class = numbers>K</div></div></button><button id = button_6 class = ""square num-button"" onclick = ""recordClick(this)""><div class = content><div class = numbers>L</div></div></button><button id = button_7 class = ""square num-button"" onclick = ""recordClick(this)""><div class = content><div class = numbers>N</div></div></button><button id = button_8 class = ""square num-button"" onclick = ""recordClick(this)""><div class = content><div class = numbers>P</div></div></button><button id = button_9 class = ""square num-button"" onclick = ""recordClick(this)""><div class = content><div class = numbers>Q</div></div></button><button id = button_10 class = ""square num-button"" onclick = ""recordClick(this)""><div class = content><div class = numbers>R</div></div></button><button id = button_11 class = ""square num-button"" onclick = ""recordClick(this)""><div class = content><div class = numbers>S</div></div></button><button id = button_12 class = ""square num-button"" onclick = ""recordClick(this)""><div class = content><div class = numbers>Y</div></div></button><button class = clear_button id = ""ClearButton"" onclick = ""clearResponse()"">BACKSPACE</button><button class = blank_button id = ""BlankButton"" onclick = ""blankResponse()"">SKIP</button><p style=""font-size: 2.4rem""><u><b>Current Answer:</b></u></p><br><br><div id=echoed_txt style=""font-size: 5rem; color:blue;""><b></b></div></div>",enter,ospan,retrieval,OW8yoKsiAbeEN12U9lj6LwoyLBI3,html-keyboard-response,116,683738,0.0-43.0-4.0-0.0-2.0,7,7,7,4.0,"[""L"",""R"",""Y"",""K""]","[""L"",""R"",""Y"",""K""]",1.0,4.0,,,,,,,641373f8117053037093d10a,20:42:14,04/03/2024
931.6999999284744,[''],0,ospan,feedback,OW8yoKsiAbeEN12U9lj6LwoyLBI3,html-button-response,117,685180,0.0-43.0-4.0-0.0-3.0,,,,,,,,,,,,100.0,0.0,,641373f8117053037093d10a,20:42:14,04/03/2024
,"<p style=""font-size:75px;"">...</p>",,ospan,iti,OW8yoKsiAbeEN12U9lj6LwoyLBI3,html-keyboard-response,118,686188,0.0-43.0-4.0-1.0-0.0,,,,,,,,,,,,,,,641373f8117053037093d10a,20:42:14,04/03/2024
1632.0,,,ospan,symmetry,OW8yoKsiAbeEN12U9lj6LwoyLBI3,symmetry-judgement-task,119,689137,0.0-43.0-4.0-1.0-1.0-0.0,,,,,,,,,,1.0,1.0,,,,641373f8117053037093d10a,20:42:14,04/03/2024
,"<div style=""font-size: 10rem; color: #0000FF"">H</div>",,ospan,letter,OW8yoKsiAbeEN12U9lj6LwoyLBI3,html-keyboard-response,120,690142,0.0-43.0-4.0-1.0-1.0-1.0,,,,,,,,,,,,,,,641373f8117053037093d10a,20:42:14,04/03/2024
2085.0,,,ospan,symmetry,OW8yoKsiAbeEN12U9lj6LwoyLBI3,symmetry-judgement-task,121,694288,0.0-43.0-4.0-1.0-1.0-2.0,,,,,,,,,,1.0,1.0,,,,641373f8117053037093d10a,20:42:14,04/03/2024
,"<div style=""font-size: 10rem; color: #0000FF"">P</div>",,ospan,letter,OW8yoKsiAbeEN12U9lj6LwoyLBI3,html-keyboard-response,122,695304,0.0-43.0-4.0-1.0-1.0-3.0,,,,,,,,,,,,,,,641373f8117053037093d10a,20:42:14,04/03/2024
1046.0,,,ospan,symmetry,OW8yoKsiAbeEN12U9lj6LwoyLBI3,symmetry-judgement-task,123,698482,0.0-43.0-4.0-1.0-1.0-4.0,,,,,,,,,,1.0,1.0,,,,641373f8117053037093d10a,20:42:14,04/03/2024
,"<div style=""font-size: 10rem; color: #0000FF"">Q</div>",,ospan,letter,OW8yoKsiAbeEN12U9lj6LwoyLBI3,html-keyboard-response,124,699487,0.0-43.0-4.0-1.0-1.0-5.0,,,,,,,,,,,,,,,641373f8117053037093d10a,20:42:14,04/03/2024
3923.0,"<div class = numbox><p style=""font-size: 2.4rem"">Please recall the letters you saw to the best of your ability. If you do not remember a particular letter, use the SKIP button.<br><b>(When you are ready to lock in your answer, press ENTER)</b></p><button id = button_1 class = ""square num-button"" onclick = ""recordClick(this)""><div class = content><div class = numbers>C</div></div></button><button id = button_2 class = ""square num-button"" onclick = ""recordClick(this)""><div class = content><div class = numbers>G</div></div></button><button id = button_3 class = ""square num-button"" onclick = ""recordClick(this)""><div class = content><div class = numbers>H</div></div></button><button id = button_4 class = ""square num-button"" onclick = ""recordClick(this)""><div class = content><div class = numbers>J</div></div></button><button id = button_5 class = ""square num-button"" onclick = ""recordClick(this)""><div class = content><div class = numbers>K</div></div></button><button id = button_6 class = ""square num-button"" onclick = ""recordClick(this)""><div class = content><div class = numbers>L</div></div></button><button id = button_7 class = ""square num-button"" onclick = ""recordClick(this)""><div class = content><div class = numbers>N</div></div></button><button id = button_8 class = ""square num-button"" onclick = ""recordClick(this)""><div class = content><div class = numbers>P</div></div></button><button id = button_9 class = ""square num-button"" onclick = ""recordClick(this)""><div class = content><div class = numbers>Q</div></div></button><button id = button_10 class = ""square num-button"" onclick = ""recordClick(this)""><div class = content><div class = numbers>R</div></div></button><button id = button_11 class = ""square num-button"" onclick = ""recordClick(this)""><div class = content><div class = numbers>S</div></div></button><button id = button_12 class = ""square num-button"" onclick = ""recordClick(this)""><div class = content><div class = numbers>Y</div></div></button><button class = clear_button id = ""ClearButton"" onclick = ""clearResponse()"">BACKSPACE</button><button class = blank_button id = ""BlankButton"" onclick = ""blankResponse()"">SKIP</button><p style=""font-size: 2.4rem""><u><b>Current Answer:</b></u></p><br><br><div id=echoed_txt style=""font-size: 5rem; color:blue;""><b></b></div></div>",enter,ospan,retrieval,OW8yoKsiAbeEN12U9lj6LwoyLBI3,html-keyboard-response,125,704173,0.0-43.0-4.0-1.0-2.0,10,10,10,3.0,"[""H"",""P"",""Q""]","[""H"",""P"",""Q""]",1.0,3.0,,,,,,,641373f8117053037093d10a,20:42:14,04/03/2024
1519.3000000715256,[''],0,ospan,feedback,OW8yoKsiAbeEN12U9lj6LwoyLBI3,html-button-response,126,706203,0.0-43.0-4.0-1.0-3.0,,,,,,,,,,,,100.0,0.0,,641373f8117053037093d10a,20:42:14,04/03/2024
,"<p style=""font-size:75px;"">...</p>",,ospan,iti,OW8yoKsiAbeEN12U9lj6LwoyLBI3,html-keyboard-response,127,707216,0.0-43.0-4.0-2.0-0.0,,,,,,,,,,,,,,,641373f8117053037093d10a,20:42:14,04/03/2024
1520.0,,,ospan,symmetry,OW8yoKsiAbeEN12U9lj6LwoyLBI3,symmetry-judgement-task,128,710067,0.0-43.0-4.0-2.0-1.0-0.0,,,,,,,,,,1.0,1.0,,,,641373f8117053037093d10a,20:42:14,04/03/2024
,"<div style=""font-size: 10rem; color: #0000FF"">Q</div>",,ospan,letter,OW8yoKsiAbeEN12U9lj6LwoyLBI3,html-keyboard-response,129,711084,0.0-43.0-4.0-2.0-1.0-1.0,,,,,,,,,,,,,,,641373f8117053037093d10a,20:42:14,04/03/2024
1577.0,,,ospan,symmetry,OW8yoKsiAbeEN12U9lj6LwoyLBI3,symmetry-judgement-task,130,714864,0.0-43.0-4.0-2.0-1.0-2.0,,,,,,,,,,1.0,1.0,,,,641373f8117053037093d10a,20:42:14,04/03/2024
,"<div style=""font-size: 10rem; color: #0000FF"">R</div>",,ospan,letter,OW8yoKsiAbeEN12U9lj6LwoyLBI3,html-keyboard-response,131,715881,0.0-43.0-4.0-2.0-1.0-3.0,,,,,,,,,,,,,,,641373f8117053037093d10a,20:42:14,04/03/2024
1253.0,,,ospan,symmetry,OW8yoKsiAbeEN12U9lj6LwoyLBI3,symmetry-judgement-task,132,719243,0.0-43.0-4.0-2.0-1.0-4.0,,,,,,,,,,1.0,1.0,,,,641373f8117053037093d10a,20:42:14,04/03/2024
,"<div style=""font-size: 10rem; color: #0000FF"">K</div>",,ospan,letter,OW8yoKsiAbeEN12U9lj6LwoyLBI3,html-keyboard-response,133,720249,0.0-43.0-4.0-2.0-1.0-5.0,,,,,,,,,,,,,,,641373f8117053037093d10a,20:42:14,04/03/2024
1524.0,,,ospan,symmetry,OW8yoKsiAbeEN12U9lj6LwoyLBI3,symmetry-judgement-task,134,723907,0.0-43.0-4.0-2.0-1.0-6.0,,,,,,,,,,1.0,1.0,,,,641373f8117053037093d10a,20:42:14,04/03/2024
,"<div style=""font-size: 10rem; color: #0000FF"">L</div>",,ospan,letter,OW8yoKsiAbeEN12U9lj6LwoyLBI3,html-keyboard-response,135,724917,0.0-43.0-4.0-2.0-1.0-7.0,,,,,,,,,,,,,,,641373f8117053037093d10a,20:42:14,04/03/2024
1732.0,,,ospan,symmetry,OW8yoKsiAbeEN12U9lj6LwoyLBI3,symmetry-judgement-task,136,728523,0.0-43.0-4.0-2.0-1.0-8.0,,,,,,,,,,1.0,1.0,,,,641373f8117053037093d10a,20:42:14,04/03/2024
,"<div style=""font-size: 10rem; color: #0000FF"">P</div>",,ospan,letter,OW8yoKsiAbeEN12U9lj6LwoyLBI3,html-keyboard-response,137,729529,0.0-43.0-4.0-2.0-1.0-9.0,,,,,,,,,,,,,,,641373f8117053037093d10a,20:42:14,04/03/2024
5268.800000071526,"<div class = numbox><p style=""font-size: 2.4rem"">Please recall the letters you saw to the best of your ability. If you do not remember a particular letter, use the SKIP button.<br><b>(When you are ready to lock in your answer, press ENTER)</b></p><button id = button_1 class = ""square num-button"" onclick = ""recordClick(this)""><div class = content><div class = numbers>C</div></div></button><button id = button_2 class = ""square num-button"" onclick = ""recordClick(this)""><div class = content><div class = numbers>G</div></div></button><button id = button_3 class = ""square num-button"" onclick = ""recordClick(this)""><div class = content><div class = numbers>H</div></div></button><button id = button_4 class = ""square num-button"" onclick = ""recordClick(this)""><div class = content><div class = numbers>J</div></div></button><button id = button_5 class = ""square num-button"" onclick = ""recordClick(this)""><div class = content><div class = numbers>K</div></div></button><button id = button_6 class = ""square num-button"" onclick = ""recordClick(this)""><div class = content><div class = numbers>L</div></div></button><button id = button_7 class = ""square num-button"" onclick = ""recordClick(this)""><div class = content><div class = numbers>N</div></div></button><button id = button_8 class = ""square num-button"" onclick = ""recordClick(this)""><div class = content><div class = numbers>P</div></div></button><button id = button_9 class = ""square num-button"" onclick = ""recordClick(this)""><div class = content><div class = numbers>Q</div></div></button><button id = button_10 class = ""square num-button"" onclick = ""recordClick(this)""><div class = content><div class = numbers>R</div></div></button><button id = button_11 class = ""square num-button"" onclick = ""recordClick(this)""><div class = content><div class = numbers>S</div></div></button><button id = button_12 class = ""square num-button"" onclick = ""recordClick(this)""><div class = content><div class = numbers>Y</div></div></button><button class = clear_button id = ""ClearButton"" onclick = ""clearResponse()"">BACKSPACE</button><button class = blank_button id = ""BlankButton"" onclick = ""blankResponse()"">SKIP</button><p style=""font-size: 2.4rem""><u><b>Current Answer:</b></u></p><br><br><div id=echoed_txt style=""font-size: 5rem; color:blue;""><b></b></div></div>",enter,ospan,retrieval,OW8yoKsiAbeEN12U9lj6LwoyLBI3,html-keyboard-response,138,735565,0.0-43.0-4.0-2.0-2.0,15,15,15,5.0,"[""Q"",""R"",""K"",""L"",""P""]","[""Q"",""R"",""K"",""L"",""P""]",1.0,5.0,,,,,,,641373f8117053037093d10a,20:42:14,04/03/2024
874.3000000715256,[''],0,ospan,feedback,OW8yoKsiAbeEN12U9lj6LwoyLBI3,html-button-response,139,736951,0.0-43.0-4.0-2.0-3.0,,,,,,,,,,,,100.0,0.0,,641373f8117053037093d10a,20:42:14,04/03/2024
,"<p style=""font-size:75px;"">...</p>",,ospan,iti,OW8yoKsiAbeEN12U9lj6LwoyLBI3,html-keyboard-response,140,737970,0.0-43.0-5.0-0.0-0.0,,,,,,,,,,,,,,,641373f8117053037093d10a,20:42:14,04/03/2024
1634.0,,,ospan,symmetry,OW8yoKsiAbeEN12U9lj6LwoyLBI3,symmetry-judgement-task,141,740744,0.0-43.0-5.0-0.0-1.0-0.0,,,,,,,,,,1.0,1.0,,,,641373f8117053037093d10a,20:42:14,04/03/2024
,"<div style=""font-size: 10rem; color: #0000FF"">K</div>",,ospan,letter,OW8yoKsiAbeEN12U9lj6LwoyLBI3,html-keyboard-response,142,741747,0.0-43.0-5.0-0.0-1.0-1.0,,,,,,,,,,,,,,,641373f8117053037093d10a,20:42:14,04/03/2024
1725.0,,,ospan,symmetry,OW8yoKsiAbeEN12U9lj6LwoyLBI3,symmetry-judgement-task,143,745536,0.0-43.0-5.0-0.0-1.0-2.0,,,,,,,,,,1.0,1.0,,,,641373f8117053037093d10a,20:42:14,04/03/2024
,"<div style=""font-size: 10rem; color: #0000FF"">J</div>",,ospan,letter,OW8yoKsiAbeEN12U9lj6LwoyLBI3,html-keyboard-response,144,746549,0.0-43.0-5.0-0.0-1.0-3.0,,,,,,,,,,,,,,,641373f8117053037093d10a,20:42:14,04/03/2024
1317.0,,,ospan,symmetry,OW8yoKsiAbeEN12U9lj6LwoyLBI3,symmetry-judgement-task,145,750014,0.0-43.0-5.0-0.0-1.0-4.0,,,,,,,,,,1.0,1.0,,,,641373f8117053037093d10a,20:42:14,04/03/2024
,"<div style=""font-size: 10rem; color: #0000FF"">G</div>",,ospan,letter,OW8yoKsiAbeEN12U9lj6LwoyLBI3,html-keyboard-response,146,751027,0.0-43.0-5.0-0.0-1.0-5.0,,,,,,,,,,,,,,,641373f8117053037093d10a,20:42:14,04/03/2024
1023.0,,,ospan,symmetry,OW8yoKsiAbeEN12U9lj6LwoyLBI3,symmetry-judgement-task,147,754418,0.0-43.0-5.0-0.0-1.0-6.0,,,,,,,,,,1.0,1.0,,,,641373f8117053037093d10a,20:42:14,04/03/2024
,"<div style=""font-size: 10rem; color: #0000FF"">Y</div>",,ospan,letter,OW8yoKsiAbeEN12U9lj6LwoyLBI3,html-keyboard-response,148,755430,0.0-43.0-5.0-0.0-1.0-7.0,,,,,,,,,,,,,,,641373f8117053037093d10a,20:42:14,04/03/2024
1737.0,,,ospan,symmetry,OW8yoKsiAbeEN12U9lj6LwoyLBI3,symmetry-judgement-task,149,759470,0.0-43.0-5.0-0.0-1.0-8.0,,,,,,,,,,1.0,1.0,,,,641373f8117053037093d10a,20:42:14,04/03/2024
,"<div style=""font-size: 10rem; color: #0000FF"">Q</div>",,ospan,letter,OW8yoKsiAbeEN12U9lj6LwoyLBI3,html-keyboard-response,150,760488,0.0-43.0-5.0-0.0-1.0-9.0,,,,,,,,,,,,,,,641373f8117053037093d10a,20:42:14,04/03/2024
2417.0,,,ospan,symmetry,OW8yoKsiAbeEN12U9lj6LwoyLBI3,symmetry-judgement-task,151,765230,0.0-43.0-5.0-0.0-1.0-10.0,,,,,,,,,,1.0,1.0,,,,641373f8117053037093d10a,20:42:14,04/03/2024
,"<div style=""font-size: 10rem; color: #0000FF"">L</div>",,ospan,letter,OW8yoKsiAbeEN12U9lj6LwoyLBI3,html-keyboard-response,152,766248,0.0-43.0-5.0-0.0-1.0-11.0,,,,,,,,,,,,,,,641373f8117053037093d10a,20:42:14,04/03/2024
10175.100000023842,"<div class = numbox><p style=""font-size: 2.4rem"">Please recall the letters you saw to the best of your ability. If you do not remember a particular letter, use the SKIP button.<br><b>(When you are ready to lock in your answer, press ENTER)</b></p><button id = button_1 class = ""square num-button"" onclick = ""recordClick(this)""><div class = content><div class = numbers>C</div></div></button><button id = button_2 class = ""square num-button"" onclick = ""recordClick(this)""><div class = content><div class = numbers>G</div></div></button><button id = button_3 class = ""square num-button"" onclick = ""recordClick(this)""><div class = content><div class = numbers>H</div></div></button><button id = button_4 class = ""square num-button"" onclick = ""recordClick(this)""><div class = content><div class = numbers>J</div></div></button><button id = button_5 class = ""square num-button"" onclick = ""recordClick(this)""><div class = content><div class = numbers>K</div></div></button><button id = button_6 class = ""square num-button"" onclick = ""recordClick(this)""><div class = content><div class = numbers>L</div></div></button><button id = button_7 class = ""square num-button"" onclick = ""recordClick(this)""><div class = content><div class = numbers>N</div></div></button><button id = button_8 class = ""square num-button"" onclick = ""recordClick(this)""><div class = content><div class = numbers>P</div></div></button><button id = button_9 class = ""square num-button"" onclick = ""recordClick(this)""><div class = content><div class = numbers>Q</div></div></button><button id = button_10 class = ""square num-button"" onclick = ""recordClick(this)""><div class = content><div class = numbers>R</div></div></button><button id = button_11 class = ""square num-button"" onclick = ""recordClick(this)""><div class = content><div class = numbers>S</div></div></button><button id = button_12 class = ""square num-button"" onclick = ""recordClick(this)""><div class = content><div class = numbers>Y</div></div></button><button class = clear_button id = ""ClearButton"" onclick = ""clearResponse()"">BACKSPACE</button><button class = blank_button id = ""BlankButton"" onclick = ""blankResponse()"">SKIP</button><p style=""font-size: 2.4rem""><u><b>Current Answer:</b></u></p><br><br><div id=echoed_txt style=""font-size: 5rem; color:blue;""><b></b></div></div>",enter,ospan,retrieval,OW8yoKsiAbeEN12U9lj6LwoyLBI3,html-keyboard-response,153,777190,0.0-43.0-5.0-0.0-2.0,21,21,21,6.0,"[""K"",""J"",""G"",""Y"",""Q"",""L""]","[""K"",""J"",""G"",""Y"",""Q"",""L""]",1.0,6.0,,,,,,,641373f8117053037093d10a,20:42:14,04/03/2024
3366.5,[''],0,ospan,feedback,OW8yoKsiAbeEN12U9lj6LwoyLBI3,html-button-response,154,781062,0.0-43.0-5.0-0.0-3.0,,,,,,,,,,,,100.0,0.0,,641373f8117053037093d10a,20:42:14,04/03/2024
,"<p style=""font-size:75px;"">...</p>",,ospan,iti,OW8yoKsiAbeEN12U9lj6LwoyLBI3,html-keyboard-response,155,782086,0.0-43.0-5.0-1.0-0.0,,,,,,,,,,,,,,,641373f8117053037093d10a,20:42:14,04/03/2024
1884.0,,,ospan,symmetry,OW8yoKsiAbeEN12U9lj6LwoyLBI3,symmetry-judgement-task,156,785329,0.0-43.0-5.0-1.0-1.0-0.0,,,,,,,,,,1.0,1.0,,,,641373f8117053037093d10a,20:42:14,04/03/2024
,"<div style=""font-size: 10rem; color: #0000FF"">Q</div>",,ospan,letter,OW8yoKsiAbeEN12U9lj6LwoyLBI3,html-keyboard-response,157,786345,0.0-43.0-5.0-1.0-1.0-1.0,,,,,,,,,,,,,,,641373f8117053037093d10a,20:42:14,04/03/2024
1735.0,,,ospan,symmetry,OW8yoKsiAbeEN12U9lj6LwoyLBI3,symmetry-judgement-task,158,790210,0.0-43.0-5.0-1.0-1.0-2.0,,,,,,,,,,1.0,1.0,,,,641373f8117053037093d10a,20:42:14,04/03/2024
,"<div style=""font-size: 10rem; color: #0000FF"">N</div>",,ospan,letter,OW8yoKsiAbeEN12U9lj6LwoyLBI3,html-keyboard-response,159,791224,0.0-43.0-5.0-1.0-1.0-3.0,,,,,,,,,,,,,,,641373f8117053037093d10a,20:42:14,04/03/2024
1734.0,,,ospan,symmetry,OW8yoKsiAbeEN12U9lj6LwoyLBI3,symmetry-judgement-task,160,795225,0.0-43.0-5.0-1.0-1.0-4.0,,,,,,,,,,1.0,1.0,,,,641373f8117053037093d10a,20:42:14,04/03/2024
,"<div style=""font-size: 10rem; color: #0000FF"">K</div>",,ospan,letter,OW8yoKsiAbeEN12U9lj6LwoyLBI3,html-keyboard-response,161,796232,0.0-43.0-5.0-1.0-1.0-5.0,,,,,,,,,,,,,,,641373f8117053037093d10a,20:42:14,04/03/2024
1314.0,,,ospan,symmetry,OW8yoKsiAbeEN12U9lj6LwoyLBI3,symmetry-judgement-task,162,799607,0.0-43.0-5.0-1.0-1.0-6.0,,,,,,,,,,1.0,1.0,,,,641373f8117053037093d10a,20:42:14,04/03/2024
,"<div style=""font-size: 10rem; color: #0000FF"">L</div>",,ospan,letter,OW8yoKsiAbeEN12U9lj6LwoyLBI3,html-keyboard-response,163,800622,0.0-43.0-5.0-1.0-1.0-7.0,,,,,,,,,,,,,,,641373f8117053037093d10a,20:42:14,04/03/2024
1051.0,,,ospan,symmetry,OW8yoKsiAbeEN12U9lj6LwoyLBI3,symmetry-judgement-task,164,803912,0.0-43.0-5.0-1.0-1.0-8.0,,,,,,,,,,1.0,1.0,,,,641373f8117053037093d10a,20:42:14,04/03/2024
,"<div style=""font-size: 10rem; color: #0000FF"">J</div>",,ospan,letter,OW8yoKsiAbeEN12U9lj6LwoyLBI3,html-keyboard-response,165,804915,0.0-43.0-5.0-1.0-1.0-9.0,,,,,,,,,,,,,,,641373f8117053037093d10a,20:42:14,04/03/2024
969.0,,,ospan,symmetry,OW8yoKsiAbeEN12U9lj6LwoyLBI3,symmetry-judgement-task,166,808104,0.0-43.0-5.0-1.0-1.0-10.0,,,,,,,,,,1.0,1.0,,,,641373f8117053037093d10a,20:42:14,04/03/2024
,"<div style=""font-size: 10rem; color: #0000FF"">H</div>",,ospan,letter,OW8yoKsiAbeEN12U9lj6LwoyLBI3,html-keyboard-response,167,809121,0.0-43.0-5.0-1.0-1.0-11.0,,,,,,,,,,,,,,,641373f8117053037093d10a,20:42:14,04/03/2024
3198.0,,,ospan,symmetry,OW8yoKsiAbeEN12U9lj6LwoyLBI3,symmetry-judgement-task,168,814505,0.0-43.0-5.0-1.0-1.0-12.0,,,,,,,,,,1.0,1.0,,,,641373f8117053037093d10a,20:42:14,04/03/2024
,"<div style=""font-size: 10rem; color: #0000FF"">R</div>",,ospan,letter,OW8yoKsiAbeEN12U9lj6LwoyLBI3,html-keyboard-response,169,815523,0.0-43.0-5.0-1.0-1.0-13.0,,,,,,,,,,,,,,,641373f8117053037093d10a,20:42:14,04/03/2024
7693.900000095367,"<div class = numbox><p style=""font-size: 2.4rem"">Please recall the letters you saw to the best of your ability. If you do not remember a particular letter, use the SKIP button.<br><b>(When you are ready to lock in your answer, press ENTER)</b></p><button id = button_1 class = ""square num-button"" onclick = ""recordClick(this)""><div class = content><div class = numbers>C</div></div></button><button id = button_2 class = ""square num-button"" onclick = ""recordClick(this)""><div class = content><div class = numbers>G</div></div></button><button id = button_3 class = ""square num-button"" onclick = ""recordClick(this)""><div class = content><div class = numbers>H</div></div></button><button id = button_4 class = ""square num-button"" onclick = ""recordClick(this)""><div class = content><div class = numbers>J</div></div></button><button id = button_5 class = ""square num-button"" onclick = ""recordClick(this)""><div class = content><div class = numbers>K</div></div></button><button id = button_6 class = ""square num-button"" onclick = ""recordClick(this)""><div class = content><div class = numbers>L</div></div></button><button id = button_7 class = ""square num-button"" onclick = ""recordClick(this)""><div class = content><div class = numbers>N</div></div></button><button id = button_8 class = ""square num-button"" onclick = ""recordClick(this)""><div class = content><div class = numbers>P</div></div></button><button id = button_9 class = ""square num-button"" onclick = ""recordClick(this)""><div class = content><div class = numbers>Q</div></div></button><button id = button_10 class = ""square num-button"" onclick = ""recordClick(this)""><div class = content><div class = numbers>R</div></div></button><button id = button_11 class = ""square num-button"" onclick = ""recordClick(this)""><div class = content><div class = numbers>S</div></div></button><button id = button_12 class = ""square num-button"" onclick = ""recordClick(this)""><div class = content><div class = numbers>Y</div></div></button><button class = clear_button id = ""ClearButton"" onclick = ""clearResponse()"">BACKSPACE</button><button class = blank_button id = ""BlankButton"" onclick = ""blankResponse()"">SKIP</button><p style=""font-size: 2.4rem""><u><b>Current Answer:</b></u></p><br><br><div id=echoed_txt style=""font-size: 5rem; color:blue;""><b></b></div></div>",enter,ospan,retrieval,OW8yoKsiAbeEN12U9lj6LwoyLBI3,html-keyboard-response,170,823975,0.0-43.0-5.0-1.0-2.0,28,28,28,7.0,"[""Q"",""N"",""K"",""L"",""J"",""H"",""R""]","[""Q"",""N"",""K"",""L"",""J"",""H"",""R""]",1.0,7.0,,,,,,,641373f8117053037093d10a,20:42:14,04/03/2024
2773.1999999284744,[''],0,ospan,feedback,OW8yoKsiAbeEN12U9lj6LwoyLBI3,html-button-response,171,827257,0.0-43.0-5.0-1.0-3.0,,,,,,,,,,,,100.0,0.0,,641373f8117053037093d10a,20:42:14,04/03/2024
,"<p style=""font-size:75px;"">...</p>",,ospan,iti,OW8yoKsiAbeEN12U9lj6LwoyLBI3,html-keyboard-response,172,828283,0.0-43.0-6.0-0.0-0.0,,,,,,,,,,,,,,,641373f8117053037093d10a,20:42:14,04/03/2024
1288.0,,,ospan,symmetry,OW8yoKsiAbeEN12U9lj6LwoyLBI3,symmetry-judgement-task,173,831004,0.0-43.0-6.0-0.0-1.0-0.0,,,,,,,,,,1.0,1.0,,,,641373f8117053037093d10a,20:42:14,04/03/2024
,"<div style=""font-size: 10rem; color: #0000FF"">H</div>",,ospan,letter,OW8yoKsiAbeEN12U9lj6LwoyLBI3,html-keyboard-response,174,832014,0.0-43.0-6.0-0.0-1.0-1.0,,,,,,,,,,,,,,,641373f8117053037093d10a,20:42:14,04/03/2024
1286.0,,,ospan,symmetry,OW8yoKsiAbeEN12U9lj6LwoyLBI3,symmetry-judgement-task,175,835496,0.0-43.0-6.0-0.0-1.0-2.0,,,,,,,,,,1.0,1.0,,,,641373f8117053037093d10a,20:42:14,04/03/2024
,"<div style=""font-size: 10rem; color: #0000FF"">L</div>",,ospan,letter,OW8yoKsiAbeEN12U9lj6LwoyLBI3,html-keyboard-response,176,836511,0.0-43.0-6.0-0.0-1.0-3.0,,,,,,,,,,,,,,,641373f8117053037093d10a,20:42:14,04/03/2024
808.0,,,ospan,symmetry,OW8yoKsiAbeEN12U9lj6LwoyLBI3,symmetry-judgement-task,177,839562,0.0-43.0-6.0-0.0-1.0-4.0,,,,,,,,,,1.0,1.0,,,,641373f8117053037093d10a,20:42:14,04/03/2024
,"<div style=""font-size: 10rem; color: #0000FF"">N</div>",,ospan,letter,OW8yoKsiAbeEN12U9lj6LwoyLBI3,html-keyboard-response,178,840579,0.0-43.0-6.0-0.0-1.0-5.0,,,,,,,,,,,,,,,641373f8117053037093d10a,20:42:14,04/03/2024
1260.0,,,ospan,symmetry,OW8yoKsiAbeEN12U9lj6LwoyLBI3,symmetry-judgement-task,179,843992,0.0-43.0-6.0-0.0-1.0-6.0,,,,,,,,,,1.0,1.0,,,,641373f8117053037093d10a,20:42:14,04/03/2024
,"<div style=""font-size: 10rem; color: #0000FF"">S</div>",,ospan,letter,OW8yoKsiAbeEN12U9lj6LwoyLBI3,html-keyboard-response,180,845000,0.0-43.0-6.0-0.0-1.0-7.0,,,,,,,,,,,,,,,641373f8117053037093d10a,20:42:14,04/03/2024
1125.0,,,ospan,symmetry,OW8yoKsiAbeEN12U9lj6LwoyLBI3,symmetry-judgement-task,181,848371,0.0-43.0-6.0-0.0-1.0-8.0,,,,,,,,,,1.0,1.0,,,,641373f8117053037093d10a,20:42:14,04/03/2024
,"<div style=""font-size: 10rem; color: #0000FF"">G</div>",,ospan,letter,OW8yoKsiAbeEN12U9lj6LwoyLBI3,html-keyboard-response,182,849380,0.0-43.0-6.0-0.0-1.0-9.0,,,,,,,,,,,,,,,641373f8117053037093d10a,20:42:14,04/03/2024
7265.0,"<div class = numbox><p style=""font-size: 2.4rem"">Please recall the letters you saw to the best of your ability. If you do not remember a particular letter, use the SKIP button.<br><b>(When you are ready to lock in your answer, press ENTER)</b></p><button id = button_1 class = ""square num-button"" onclick = ""recordClick(this)""><div class = content><div class = numbers>C</div></div></button><button id = button_2 class = ""square num-button"" onclick = ""recordClick(this)""><div class = content><div class = numbers>G</div></div></button><button id = button_3 class = ""square num-button"" onclick = ""recordClick(this)""><div class = content><div class = numbers>H</div></div></button><button id = button_4 class = ""square num-button"" onclick = ""recordClick(this)""><div class = content><div class = numbers>J</div></div></button><button id = button_5 class = ""square num-button"" onclick = ""recordClick(this)""><div class = content><div class = numbers>K</div></div></button><button id = button_6 class = ""square num-button"" onclick = ""recordClick(this)""><div class = content><div class = numbers>L</div></div></button><button id = button_7 class = ""square num-button"" onclick = ""recordClick(this)""><div class = content><div class = numbers>N</div></div></button><button id = button_8 class = ""square num-button"" onclick = ""recordClick(this)""><div class = content><div class = numbers>P</div></div></button><button id = button_9 class = ""square num-button"" onclick = ""recordClick(this)""><div class = content><div class = numbers>Q</div></div></button><button id = button_10 class = ""square num-button"" onclick = ""recordClick(this)""><div class = content><div class = numbers>R</div></div></button><button id = button_11 class = ""square num-button"" onclick = ""recordClick(this)""><div class = content><div class = numbers>S</div></div></button><button id = button_12 class = ""square num-button"" onclick = ""recordClick(this)""><div class = content><div class = numbers>Y</div></div></button><button class = clear_button id = ""ClearButton"" onclick = ""clearResponse()"">BACKSPACE</button><button class = blank_button id = ""BlankButton"" onclick = ""blankResponse()"">SKIP</button><p style=""font-size: 2.4rem""><u><b>Current Answer:</b></u></p><br><br><div id=echoed_txt style=""font-size: 5rem; color:blue;""><b></b></div></div>",enter,ospan,retrieval,OW8yoKsiAbeEN12U9lj6LwoyLBI3,html-keyboard-response,183,857399,0.0-43.0-6.0-0.0-2.0,33,33,33,5.0,"[""H"",""L"",""N"",""S"",""G""]","[""H"",""L"",""N"",""S"",""G""]",1.0,5.0,,,,,,,641373f8117053037093d10a,20:42:14,04/03/2024
1034.2999999523163,[''],0,ospan,feedback,OW8yoKsiAbeEN12U9lj6LwoyLBI3,html-button-response,184,858944,0.0-43.0-6.0-0.0-3.0,,,,,,,,,,,,100.0,0.0,,641373f8117053037093d10a,20:42:14,04/03/2024
,"<p style=""font-size:75px;"">...</p>",,ospan,iti,OW8yoKsiAbeEN12U9lj6LwoyLBI3,html-keyboard-response,185,859951,0.0-43.0-6.0-1.0-0.0,,,,,,,,,,,,,,,641373f8117053037093d10a,20:42:14,04/03/2024
1129.0,,,ospan,symmetry,OW8yoKsiAbeEN12U9lj6LwoyLBI3,symmetry-judgement-task,186,862486,0.0-43.0-6.0-1.0-1.0-0.0,,,,,,,,,,1.0,1.0,,,,641373f8117053037093d10a,20:42:14,04/03/2024
,"<div style=""font-size: 10rem; color: #0000FF"">Y</div>",,ospan,letter,OW8yoKsiAbeEN12U9lj6LwoyLBI3,html-keyboard-response,187,863491,0.0-43.0-6.0-1.0-1.0-1.0,,,,,,,,,,,,,,,641373f8117053037093d10a,20:42:14,04/03/2024
1289.0,,,ospan,symmetry,OW8yoKsiAbeEN12U9lj6LwoyLBI3,symmetry-judgement-task,188,867021,0.0-43.0-6.0-1.0-1.0-2.0,,,,,,,,,,1.0,1.0,,,,641373f8117053037093d10a,20:42:14,04/03/2024
,"<div style=""font-size: 10rem; color: #0000FF"">R</div>",,ospan,letter,OW8yoKsiAbeEN12U9lj6LwoyLBI3,html-keyboard-response,189,868026,0.0-43.0-6.0-1.0-1.0-3.0,,,,,,,,,,,,,,,641373f8117053037093d10a,20:42:14,04/03/2024
1034.0,,,ospan,symmetry,OW8yoKsiAbeEN12U9lj6LwoyLBI3,symmetry-judgement-task,190,871209,0.0-43.0-6.0-1.0-1.0-4.0,,,,,,,,,,1.0,1.0,,,,641373f8117053037093d10a,20:42:14,04/03/2024
,"<div style=""font-size: 10rem; color: #0000FF"">G</div>",,ospan,letter,OW8yoKsiAbeEN12U9lj6LwoyLBI3,html-keyboard-response,191,872226,0.0-43.0-6.0-1.0-1.0-5.0,,,,,,,,,,,,,,,641373f8117053037093d10a,20:42:14,04/03/2024
1707.0,,,ospan,symmetry,OW8yoKsiAbeEN12U9lj6LwoyLBI3,symmetry-judgement-task,192,876193,0.0-43.0-6.0-1.0-1.0-6.0,,,,,,,,,,1.0,1.0,,,,641373f8117053037093d10a,20:42:14,04/03/2024
,"<div style=""font-size: 10rem; color: #0000FF"">K</div>",,ospan,letter,OW8yoKsiAbeEN12U9lj6LwoyLBI3,html-keyboard-response,193,877204,0.0-43.0-6.0-1.0-1.0-7.0,,,,,,,,,,,,,,,641373f8117053037093d10a,20:42:14,04/03/2024
1448.0,,,ospan,symmetry,OW8yoKsiAbeEN12U9lj6LwoyLBI3,symmetry-judgement-task,194,880830,0.0-43.0-6.0-1.0-1.0-8.0,,,,,,,,,,1.0,1.0,,,,641373f8117053037093d10a,20:42:14,04/03/2024
,"<div style=""font-size: 10rem; color: #0000FF"">P</div>",,ospan,letter,OW8yoKsiAbeEN12U9lj6LwoyLBI3,html-keyboard-response,195,881833,0.0-43.0-6.0-1.0-1.0-9.0,,,,,,,,,,,,,,,641373f8117053037093d10a,20:42:14,04/03/2024
1764.0,,,ospan,symmetry,OW8yoKsiAbeEN12U9lj6LwoyLBI3,symmetry-judgement-task,196,885841,0.0-43.0-6.0-1.0-1.0-10.0,,,,,,,,,,1.0,1.0,,,,641373f8117053037093d10a,20:42:14,04/03/2024
,"<div style=""font-size: 10rem; color: #0000FF"">N</div>",,ospan,letter,OW8yoKsiAbeEN12U9lj6LwoyLBI3,html-keyboard-response,197,886855,0.0-43.0-6.0-1.0-1.0-11.0,,,,,,,,,,,,,,,641373f8117053037093d10a,20:42:14,04/03/2024
1446.0,,,ospan,symmetry,OW8yoKsiAbeEN12U9lj6LwoyLBI3,symmetry-judgement-task,198,890409,0.0-43.0-6.0-1.0-1.0-12.0,,,,,,,,,,1.0,1.0,,,,641373f8117053037093d10a,20:42:14,04/03/2024
,"<div style=""font-size: 10rem; color: #0000FF"">J</div>",,ospan,letter,OW8yoKsiAbeEN12U9lj6LwoyLBI3,html-keyboard-response,199,891421,0.0-43.0-6.0-1.0-1.0-13.0,,,,,,,,,,,,,,,641373f8117053037093d10a,20:42:14,04/03/2024
1086.0,,,ospan,symmetry,OW8yoKsiAbeEN12U9lj6LwoyLBI3,symmetry-judgement-task,200,894640,0.0-43.0-6.0-1.0-1.0-14.0,,,,,,,,,,1.0,1.0,,,,641373f8117053037093d10a,20:42:14,04/03/2024
,"<div style=""font-size: 10rem; color: #0000FF"">L</div>",,ospan,letter,OW8yoKsiAbeEN12U9lj6LwoyLBI3,html-keyboard-response,201,895649,0.0-43.0-6.0-1.0-1.0-15.0,,,,,,,,,,,,,,,641373f8117053037093d10a,20:42:14,04/03/2024
10010.800000071526,"<div class = numbox><p style=""font-size: 2.4rem"">Please recall the letters you saw to the best of your ability. If you do not remember a particular letter, use the SKIP button.<br><b>(When you are ready to lock in your answer, press ENTER)</b></p><button id = button_1 class = ""square num-button"" onclick = ""recordClick(this)""><div class = content><div class = numbers>C</div></div></button><button id = button_2 class = ""square num-button"" onclick = ""recordClick(this)""><div class = content><div class = numbers>G</div></div></button><button id = button_3 class = ""square num-button"" onclick = ""recordClick(this)""><div class = content><div class = numbers>H</div></div></button><button id = button_4 class = ""square num-button"" onclick = ""recordClick(this)""><div class = content><div class = numbers>J</div></div></button><button id = button_5 class = ""square num-button"" onclick = ""recordClick(this)""><div class = content><div class = numbers>K</div></div></button><button id = button_6 class = ""square num-button"" onclick = ""recordClick(this)""><div class = content><div class = numbers>L</div></div></button><button id = button_7 class = ""square num-button"" onclick = ""recordClick(this)""><div class = content><div class = numbers>N</div></div></button><button id = button_8 class = ""square num-button"" onclick = ""recordClick(this)""><div class = content><div class = numbers>P</div></div></button><button id = button_9 class = ""square num-button"" onclick = ""recordClick(this)""><div class = content><div class = numbers>Q</div></div></button><button id = button_10 class = ""square num-button"" onclick = ""recordClick(this)""><div class = content><div class = numbers>R</div></div></button><button id = button_11 class = ""square num-button"" onclick = ""recordClick(this)""><div class = content><div class = numbers>S</div></div></button><button id = button_12 class = ""square num-button"" onclick = ""recordClick(this)""><div class = content><div class = numbers>Y</div></div></button><button class = clear_button id = ""ClearButton"" onclick = ""clearResponse()"">BACKSPACE</button><button class = blank_button id = ""BlankButton"" onclick = ""blankResponse()"">SKIP</button><p style=""font-size: 2.4rem""><u><b>Current Answer:</b></u></p><br><br><div id=echoed_txt style=""font-size: 5rem; color:blue;""><b></b></div></div>",enter,ospan,retrieval,OW8yoKsiAbeEN12U9lj6LwoyLBI3,html-keyboard-response,202,906418,0.0-43.0-6.0-1.0-2.0,41,41,41,8.0,"[""Y"",""R"",""G"",""K"",""P"",""N"",""J"",""L"",""R""]","[""Y"",""R"",""G"",""K"",""P"",""N"",""J"",""L""]",1.0,8.0,,,,,,,641373f8117053037093d10a,20:42:14,04/03/2024
1083.2000000476837,[''],0,ospan,feedback,OW8yoKsiAbeEN12U9lj6LwoyLBI3,html-button-response,203,908010,0.0-43.0-6.0-1.0-3.0,,,,,,,,,,,,100.0,0.0,,641373f8117053037093d10a,20:42:14,04/03/2024
16634.199999928474,,{'Q0': 'none - i found it to be a good challenge'},ospan,survey_ospan,OW8yoKsiAbeEN12U9lj6LwoyLBI3,lmdlab-survey-text,204,925416,0.0-43.0-7.0,,,,,,,,,,,,,,OW8yoKsiAbeEN12U9lj6LwoyLBI3,641373f8117053037093d10a,20:42:14,04/03/2024
1926.9000000953674,<p><p style='font-size: 3rem'>Great work!<br><br>This completes the symmetry and memory task.</p><br><br><br>,0,ospan,finish,OW8yoKsiAbeEN12U9lj6LwoyLBI3,html-button-response,205,927350,0.0-43.0-8.0,41,41,41,,,,,,,,,100.0,,,641373f8117053037093d10a,20:42:14,04/03/2024
