rt,stimulus,response,exp_name,exp_stage,subjectID,trial_type,trial_index,time_elapsed,internal_node_id,ospan_shown,ospan_total,ospan_abs,length,resp_actual,resp_correct,full_correct,num_correct,feedback,accuracy,correct,math_acc,math_warning,databaseID,prolificID,start_time,date
2148.9000000953674,<div class = 'left_align' style='font-size: 3.25rem; line-height: 1.3;'><p class = 'center_align'><b>Welcome to the Symmetry and Memory Task</b><br><br><br><br></p>Press 'continue' to show the instructions.<br><br><br><br></div>,0,ospan,instruct,HlKnc2xMQvQcXPryoa2GrsGTzQJ3,html-button-response,54,627181,0.0-46.0-0.0-0.0-0.0,,,,,,,,,,,,,,,5f4839443d0cb52ec017448e,14:45:44,03/04/2024
11667.900000095367,"<div class = 'left_align' style='font-size: 3.25rem; line-height: 1.3;'><p class = 'center_align'><b>Symmetry and Memory Task</b><br><br></p>In this task, you will try to memorize letters you see on the screen<br>while you also view black and white grid pictures.<br><br>In the next few minutes, you will have some practice to get you familiar<br>with how the task works.<br><br>It may be difficult sometimes, but please do not worry about making mistakes!<br><br>We will begin by practicing the letter part of the task.<br><br><br><br></div>",0,ospan,instruct,HlKnc2xMQvQcXPryoa2GrsGTzQJ3,html-button-response,55,639113,0.0-46.0-0.0-0.0-1.0,,,,,,,,,,,,,,,5f4839443d0cb52ec017448e,14:45:44,03/04/2024
77998.5,"<div class = 'left_align' style='font-size: 3.25rem; line-height: 1.3;'>For this practice part, letters will appear on the screen one at a time.<br><br>Try to remember each letter in the order presented.<br><br>After some letters have been shown, you will see a response screen. Your<br>goal is to report the letters you saw <b>in order</b>. If you do not remember<br>a particular letter, you will have the option to leave it blank.<br><br><br><br></div>",0,ospan,instruct,HlKnc2xMQvQcXPryoa2GrsGTzQJ3,html-button-response,56,717375,0.0-46.0-0.0-0.0-2.0,,,,,,,,,,,,,,,5f4839443d0cb52ec017448e,14:45:44,03/04/2024
2765.8999996185303,"<div class = 'left_align' style='font-size: 3.25rem; line-height: 1.3;'>Remember, it is very important to get the letters in the same<br>order as you see them.<br><br>When you are ready, you may begin the letter practice.</div><br><br><br><br>",0,ospan,instruct,HlKnc2xMQvQcXPryoa2GrsGTzQJ3,html-button-response,57,720394,0.0-46.0-0.0-0.0-3.0,,,,,,,,,,,,,,,5f4839443d0cb52ec017448e,14:45:44,03/04/2024
,"<p style=""font-size:75px;"">...</p>",,ospan,iti,HlKnc2xMQvQcXPryoa2GrsGTzQJ3,html-keyboard-response,58,721664,0.0-46.0-0.0-1.0-0.0,,,,,,,,,,,,,,,5f4839443d0cb52ec017448e,14:45:44,03/04/2024
,"<div style=""font-size: 10rem; color: #0000FF"">Y</div>",,ospan,letter,HlKnc2xMQvQcXPryoa2GrsGTzQJ3,html-keyboard-response,59,722681,0.0-46.0-0.0-1.0-1.0,,,,,,,,,,,,,,,5f4839443d0cb52ec017448e,14:45:44,03/04/2024
,"<div style=""font-size: 10rem; color: #0000FF"">S</div>",,ospan,letter,HlKnc2xMQvQcXPryoa2GrsGTzQJ3,html-keyboard-response,60,724448,0.0-46.0-0.0-1.0-2.0,,,,,,,,,,,,,,,5f4839443d0cb52ec017448e,14:45:44,03/04/2024
11172.0,"<div class = numbox><p style=""font-size: 2.4rem"">Please recall the letters you saw to the best of your ability. If you do not remember a particular letter, use the SKIP button.<br><b>(When you are ready to lock in your answer, press ENTER)</b></p><button id = button_1 class = ""square num-button"" onclick = ""recordClick(this)""><div class = content><div class = numbers>C</div></div></button><button id = button_2 class = ""square num-button"" onclick = ""recordClick(this)""><div class = content><div class = numbers>G</div></div></button><button id = button_3 class = ""square num-button"" onclick = ""recordClick(this)""><div class = content><div class = numbers>H</div></div></button><button id = button_4 class = ""square num-button"" onclick = ""recordClick(this)""><div class = content><div class = numbers>J</div></div></button><button id = button_5 class = ""square num-button"" onclick = ""recordClick(this)""><div class = content><div class = numbers>K</div></div></button><button id = button_6 class = ""square num-button"" onclick = ""recordClick(this)""><div class = content><div class = numbers>L</div></div></button><button id = button_7 class = ""square num-button"" onclick = ""recordClick(this)""><div class = content><div class = numbers>N</div></div></button><button id = button_8 class = ""square num-button"" onclick = ""recordClick(this)""><div class = content><div class = numbers>P</div></div></button><button id = button_9 class = ""square num-button"" onclick = ""recordClick(this)""><div class = content><div class = numbers>Q</div></div></button><button id = button_10 class = ""square num-button"" onclick = ""recordClick(this)""><div class = content><div class = numbers>R</div></div></button><button id = button_11 class = ""square num-button"" onclick = ""recordClick(this)""><div class = content><div class = numbers>S</div></div></button><button id = button_12 class = ""square num-button"" onclick = ""recordClick(this)""><div class = content><div class = numbers>Y</div></div></button><button class = clear_button id = ""ClearButton"" onclick = ""clearResponse()"">BACKSPACE</button><button class = blank_button id = ""BlankButton"" onclick = ""blankResponse()"">SKIP</button><p style=""font-size: 2.4rem""><u><b>Current Answer:</b></u></p><br><br><div id=echoed_txt style=""font-size: 5rem; color:blue;""><b></b></div></div>",enter,ospan,retrieval,HlKnc2xMQvQcXPryoa2GrsGTzQJ3,html-keyboard-response,61,736384,0.0-46.0-0.0-1.0-3.0,NA,NA,NA,2.0,"[""Y"",""S""]","[""Y"",""S""]",1.0,2.0,"['<font color=""green"">Y</font>', '<font color=""green"">S</font>']",,,,,,5f4839443d0cb52ec017448e,14:45:44,03/04/2024
1757.0,"['<p style=""font-size:44px"">Letters:<br><br><br><font color=""green"">Y</font> <font color=""green"">S</font></p><br><br>']",0,ospan,practice_feedback,HlKnc2xMQvQcXPryoa2GrsGTzQJ3,html-button-response,62,738654,0.0-46.0-0.0-1.0-4.0,,,,,,,,,,,,,,,5f4839443d0cb52ec017448e,14:45:44,03/04/2024
,"<p style=""font-size:75px;"">...</p>",,ospan,iti,HlKnc2xMQvQcXPryoa2GrsGTzQJ3,html-keyboard-response,63,739663,0.0-46.0-0.0-2.0-0.0,,,,,,,,,,,,,,,5f4839443d0cb52ec017448e,14:45:44,03/04/2024
,"<div style=""font-size: 10rem; color: #0000FF"">K</div>",,ospan,letter,HlKnc2xMQvQcXPryoa2GrsGTzQJ3,html-keyboard-response,64,740679,0.0-46.0-0.0-2.0-1.0,,,,,,,,,,,,,,,5f4839443d0cb52ec017448e,14:45:44,03/04/2024
,"<div style=""font-size: 10rem; color: #0000FF"">L</div>",,ospan,letter,HlKnc2xMQvQcXPryoa2GrsGTzQJ3,html-keyboard-response,65,742445,0.0-46.0-0.0-2.0-2.0,,,,,,,,,,,,,,,5f4839443d0cb52ec017448e,14:45:44,03/04/2024
,"<div style=""font-size: 10rem; color: #0000FF"">H</div>",,ospan,letter,HlKnc2xMQvQcXPryoa2GrsGTzQJ3,html-keyboard-response,66,744212,0.0-46.0-0.0-2.0-3.0,,,,,,,,,,,,,,,5f4839443d0cb52ec017448e,14:45:44,03/04/2024
4639.900000095367,"<div class = numbox><p style=""font-size: 2.4rem"">Please recall the letters you saw to the best of your ability. If you do not remember a particular letter, use the SKIP button.<br><b>(When you are ready to lock in your answer, press ENTER)</b></p><button id = button_1 class = ""square num-button"" onclick = ""recordClick(this)""><div class = content><div class = numbers>C</div></div></button><button id = button_2 class = ""square num-button"" onclick = ""recordClick(this)""><div class = content><div class = numbers>G</div></div></button><button id = button_3 class = ""square num-button"" onclick = ""recordClick(this)""><div class = content><div class = numbers>H</div></div></button><button id = button_4 class = ""square num-button"" onclick = ""recordClick(this)""><div class = content><div class = numbers>J</div></div></button><button id = button_5 class = ""square num-button"" onclick = ""recordClick(this)""><div class = content><div class = numbers>K</div></div></button><button id = button_6 class = ""square num-button"" onclick = ""recordClick(this)""><div class = content><div class = numbers>L</div></div></button><button id = button_7 class = ""square num-button"" onclick = ""recordClick(this)""><div class = content><div class = numbers>N</div></div></button><button id = button_8 class = ""square num-button"" onclick = ""recordClick(this)""><div class = content><div class = numbers>P</div></div></button><button id = button_9 class = ""square num-button"" onclick = ""recordClick(this)""><div class = content><div class = numbers>Q</div></div></button><button id = button_10 class = ""square num-button"" onclick = ""recordClick(this)""><div class = content><div class = numbers>R</div></div></button><button id = button_11 class = ""square num-button"" onclick = ""recordClick(this)""><div class = content><div class = numbers>S</div></div></button><button id = button_12 class = ""square num-button"" onclick = ""recordClick(this)""><div class = content><div class = numbers>Y</div></div></button><button class = clear_button id = ""ClearButton"" onclick = ""clearResponse()"">BACKSPACE</button><button class = blank_button id = ""BlankButton"" onclick = ""blankResponse()"">SKIP</button><p style=""font-size: 2.4rem""><u><b>Current Answer:</b></u></p><br><br><div id=echoed_txt style=""font-size: 5rem; color:blue;""><b></b></div></div>",enter,ospan,retrieval,HlKnc2xMQvQcXPryoa2GrsGTzQJ3,html-keyboard-response,67,749619,0.0-46.0-0.0-2.0-4.0,NA,NA,NA,3.0,"[""K"",""L"",""H""]","[""K"",""L"",""H""]",1.0,3.0,"['<font color=""green"">K</font>', '<font color=""green"">L</font>', '<font color=""green"">H</font>']",,,,,,5f4839443d0cb52ec017448e,14:45:44,03/04/2024
1367.2000002861023,"['<p style=""font-size:44px"">Letters:<br><br><br><font color=""green"">K</font> <font color=""green"">L</font> <font color=""green"">H</font></p><br><br>']",0,ospan,practice_feedback,HlKnc2xMQvQcXPryoa2GrsGTzQJ3,html-button-response,68,751497,0.0-46.0-0.0-2.0-5.0,,,,,,,,,,,,,,,5f4839443d0cb52ec017448e,14:45:44,03/04/2024
25164.0,"<div class = 'left_align' style='font-size: 3.25rem; line-height: 1.3;'>Now you will practice doing the <b>symmetry judgment part</b> of the experiment.<br><br>A black and white grid picture will appear on the screen and you have to judge if it is <br>symmetrical or asymetrical.<br><br>A picture is 'mirror' symmetrical if its left half is identical to the right half when flipped.<br>Here are examples of a symmetrical and an asymetrical picture:<br><br><center><img src='Stimuli/img/symm_instructions_extra.png' style='height:420px; width:900'></img></center><br>To judge symmetry, imagine you were to fold each picture down the middle, like a book –<br>would the left half match the right half when folded onto each other?<br><br></div><br>",0,ospan,instruct,HlKnc2xMQvQcXPryoa2GrsGTzQJ3,html-button-response,69,776662,0.0-46.0-1.0-0.0-0.0,,,,,,,,,,,,,,,5f4839443d0cb52ec017448e,14:45:44,03/04/2024
7326.200000286102,"<div class = 'left_align' style='font-size: 3.25rem; line-height: 1.3;'>When you have viewed the picture and determined whether it is symmetrical or not,<br>you can <b>click the Yes or No button</b> below to answer.<br><br>If you take longer than 15 seconds, it will continue automatically<br>and record the answer as an error.</div><br>",0,ospan,instruct,HlKnc2xMQvQcXPryoa2GrsGTzQJ3,html-button-response,70,784252,0.0-46.0-1.0-0.0-1.0,,,,,,,,,,,,,,,5f4839443d0cb52ec017448e,14:45:44,03/04/2024
4027.5999999046326,"<div class = 'left_align' style='font-size: 3.25rem; line-height: 1.3;'>It is <b>very</b> important that you make the symmetry judgment correctly.<br><br>It is also important that you try and judge the picture as quickly as you can.<br><br>When you are ready, click on the button below to try some practice problems.</div><br><br><br><br>",0,ospan,instruct,HlKnc2xMQvQcXPryoa2GrsGTzQJ3,html-button-response,71,788537,0.0-46.0-1.0-0.0-2.0,,,,,,,,,,,,,,,5f4839443d0cb52ec017448e,14:45:44,03/04/2024
2189.0,,,ospan,symmetry,HlKnc2xMQvQcXPryoa2GrsGTzQJ3,symmetry-judgement-task,72,791510,0.0-46.0-1.0-1.0-0.0,,,,,,,,,,1.0,1.0,,,,5f4839443d0cb52ec017448e,14:45:44,03/04/2024
,"<p style=""color:green; font-size: 35px"">Correct</p>",,ospan,feedback,HlKnc2xMQvQcXPryoa2GrsGTzQJ3,html-keyboard-response,73,792262,0.0-46.0-1.0-1.0-1.0,,,,,,,,,,,,,,,5f4839443d0cb52ec017448e,14:45:44,03/04/2024
2303.0,,,ospan,symmetry,HlKnc2xMQvQcXPryoa2GrsGTzQJ3,symmetry-judgement-task,74,797177,0.0-46.0-1.0-1.0-2.0,,,,,,,,,,1.0,1.0,,,,5f4839443d0cb52ec017448e,14:45:44,03/04/2024
,"<p style=""color:green; font-size: 35px"">Correct</p>",,ospan,feedback,HlKnc2xMQvQcXPryoa2GrsGTzQJ3,html-keyboard-response,75,797943,0.0-46.0-1.0-1.0-3.0,,,,,,,,,,,,,,,5f4839443d0cb52ec017448e,14:45:44,03/04/2024
2005.0,,,ospan,symmetry,HlKnc2xMQvQcXPryoa2GrsGTzQJ3,symmetry-judgement-task,76,802561,0.0-46.0-1.0-1.0-4.0,,,,,,,,,,1.0,1.0,,,,5f4839443d0cb52ec017448e,14:45:44,03/04/2024
,"<p style=""color:green; font-size: 35px"">Correct</p>",,ospan,feedback,HlKnc2xMQvQcXPryoa2GrsGTzQJ3,html-keyboard-response,77,803326,0.0-46.0-1.0-1.0-5.0,,,,,,,,,,,,,,,5f4839443d0cb52ec017448e,14:45:44,03/04/2024
11445.199999809265,"<p style=""font-size: 3rem;"">You responded correctly on 3 of 3 symmetry judgments. Good job!</p><br><br>",0,ospan,practice,HlKnc2xMQvQcXPryoa2GrsGTzQJ3,html-button-response,78,816781,0.0-46.0-1.0-2.0,,,,,,,,,,,,,,,5f4839443d0cb52ec017448e,14:45:44,03/04/2024
9868.300000190735,"<div class = 'left_align' style='font-size: 3.25rem; line-height: 1.3;'>Now you will practice doing both parts of the experiment at the same time.<br><br>In the next practice set, you will be given one grid picture to judge.<br>Then letter will appear on the screen. Try to remember the letter.<br><br>It is <b>very important</b> to make the symmetry judgment as quickly and accurately as possible.<br><br>Just as before, once you have make the symmetry judgment, you can click Yes or No.<br><b>Note that you will no longer see Correct or Incorrect feedback.</div><br><br><br><br>",0,ospan,instruct,HlKnc2xMQvQcXPryoa2GrsGTzQJ3,html-button-response,79,826911,0.0-46.0-2.0-0.0-0.0,,,,,,,,,,,,,,,5f4839443d0cb52ec017448e,14:45:44,03/04/2024
14898.299999713898,"<div class = 'left_align' style='font-size: 3.25rem; line-height: 1.3;'>After the letter goes away, another grid picture will appear, and then<br>another letter.<br><br>At the end of each set of letters and grids, you will recall the letters to the best<br>of your ability. Remember, try your best to get the letters in the correct order.<br><br>It is important to <b>quickly</b> and <b>accurately</b> make the symmetry judgments.</div><br><br><br><br>",0,ospan,instruct,HlKnc2xMQvQcXPryoa2GrsGTzQJ3,html-button-response,80,842074,0.0-46.0-2.0-0.0-1.0,,,,,,,,,,,,,,,5f4839443d0cb52ec017448e,14:45:44,03/04/2024
19289.300000190735,"<div class = 'left_align' style='font-size: 3.25rem; line-height: 1.3;'>On the feedback screen, if you are not doing well at the symmetry judgments,<br>you will also see a warning in the middle. This indicates your percent <br>correct for the grid pictures for the entire experiment.<br><br>It is <b>very</b> important for you to keep accuracy at least at 85%: <u>We can only use<br>data where the participant was at least 85% accurate on the judgments.</u> Therefore,<br> please try your best to perform well on the symmetry judgments, <b>at the same time</b><br>doing your best to recall as many letters as possible.<br><br>Click the button to try some practice problems.</div><br><br><br><br>",0,ospan,instruct,HlKnc2xMQvQcXPryoa2GrsGTzQJ3,html-button-response,81,861630,0.0-46.0-2.0-0.0-2.0,,,,,,,,,,,,,,,5f4839443d0cb52ec017448e,14:45:44,03/04/2024
,"<p style=""font-size:75px;"">...</p>",,ospan,iti,HlKnc2xMQvQcXPryoa2GrsGTzQJ3,html-keyboard-response,82,862895,0.0-46.0-2.0-1.0-0.0,,,,,,,,,,,,,,,5f4839443d0cb52ec017448e,14:45:44,03/04/2024
2348.0,,,ospan,symmetry,HlKnc2xMQvQcXPryoa2GrsGTzQJ3,symmetry-judgement-task,83,866361,0.0-46.0-2.0-1.0-1.0-0.0,,,,,,,,,,1.0,1.0,,,,5f4839443d0cb52ec017448e,14:45:44,03/04/2024
,"<div style=""font-size: 10rem; color: #0000FF"">N</div>",,ospan,letter,HlKnc2xMQvQcXPryoa2GrsGTzQJ3,html-keyboard-response,84,867378,0.0-46.0-2.0-1.0-1.0-1.0,,,,,,,,,,,,,,,5f4839443d0cb52ec017448e,14:45:44,03/04/2024
2378.0,,,ospan,symmetry,HlKnc2xMQvQcXPryoa2GrsGTzQJ3,symmetry-judgement-task,85,871644,0.0-46.0-2.0-1.0-1.0-2.0,,,,,,,,,,0.0,0.0,,,,5f4839443d0cb52ec017448e,14:45:44,03/04/2024
,"<div style=""font-size: 10rem; color: #0000FF"">J</div>",,ospan,letter,HlKnc2xMQvQcXPryoa2GrsGTzQJ3,html-keyboard-response,86,872661,0.0-46.0-2.0-1.0-1.0-3.0,,,,,,,,,,,,,,,5f4839443d0cb52ec017448e,14:45:44,03/04/2024
1805.0,,,ospan,symmetry,HlKnc2xMQvQcXPryoa2GrsGTzQJ3,symmetry-judgement-task,87,876326,0.0-46.0-2.0-1.0-1.0-4.0,,,,,,,,,,1.0,1.0,,,,5f4839443d0cb52ec017448e,14:45:44,03/04/2024
,"<div style=""font-size: 10rem; color: #0000FF"">P</div>",,ospan,letter,HlKnc2xMQvQcXPryoa2GrsGTzQJ3,html-keyboard-response,88,877334,0.0-46.0-2.0-1.0-1.0-5.0,,,,,,,,,,,,,,,5f4839443d0cb52ec017448e,14:45:44,03/04/2024
5688.300000190735,"<div class = numbox><p style=""font-size: 2.4rem"">Please recall the letters you saw to the best of your ability. If you do not remember a particular letter, use the SKIP button.<br><b>(When you are ready to lock in your answer, press ENTER)</b></p><button id = button_1 class = ""square num-button"" onclick = ""recordClick(this)""><div class = content><div class = numbers>C</div></div></button><button id = button_2 class = ""square num-button"" onclick = ""recordClick(this)""><div class = content><div class = numbers>G</div></div></button><button id = button_3 class = ""square num-button"" onclick = ""recordClick(this)""><div class = content><div class = numbers>H</div></div></button><button id = button_4 class = ""square num-button"" onclick = ""recordClick(this)""><div class = content><div class = numbers>J</div></div></button><button id = button_5 class = ""square num-button"" onclick = ""recordClick(this)""><div class = content><div class = numbers>K</div></div></button><button id = button_6 class = ""square num-button"" onclick = ""recordClick(this)""><div class = content><div class = numbers>L</div></div></button><button id = button_7 class = ""square num-button"" onclick = ""recordClick(this)""><div class = content><div class = numbers>N</div></div></button><button id = button_8 class = ""square num-button"" onclick = ""recordClick(this)""><div class = content><div class = numbers>P</div></div></button><button id = button_9 class = ""square num-button"" onclick = ""recordClick(this)""><div class = content><div class = numbers>Q</div></div></button><button id = button_10 class = ""square num-button"" onclick = ""recordClick(this)""><div class = content><div class = numbers>R</div></div></button><button id = button_11 class = ""square num-button"" onclick = ""recordClick(this)""><div class = content><div class = numbers>S</div></div></button><button id = button_12 class = ""square num-button"" onclick = ""recordClick(this)""><div class = content><div class = numbers>Y</div></div></button><button class = clear_button id = ""ClearButton"" onclick = ""clearResponse()"">BACKSPACE</button><button class = blank_button id = ""BlankButton"" onclick = ""blankResponse()"">SKIP</button><p style=""font-size: 2.4rem""><u><b>Current Answer:</b></u></p><br><br><div id=echoed_txt style=""font-size: 5rem; color:blue;""><b></b></div></div>",enter,ospan,retrieval,HlKnc2xMQvQcXPryoa2GrsGTzQJ3,html-keyboard-response,89,883781,0.0-46.0-2.0-1.0-2.0-0.0,NA,NA,NA,3.0,"[""N"",""J"",""P""]","[""N"",""J"",""P""]",1.0,3.0,"['<font color=""green"">N</font>', '<font color=""green"">J</font>', '<font color=""green"">P</font>']",,,,,,5f4839443d0cb52ec017448e,14:45:44,03/04/2024
5831.39999961853,"['<p style=""font-size:44px"">Letters:<br><br><br><font color=""green"">N</font> <font color=""green"">J</font> <font color=""green"">P</font></p><br><br><p style=""font-size:30px"">Symmetry:<br><br><font color=""red"">67%</font></p><br><br>']",0,ospan,practice_feedback,HlKnc2xMQvQcXPryoa2GrsGTzQJ3,html-button-response,90,890123,0.0-46.0-2.0-1.0-2.0-1.0,,,,,,,,,,,,,,,5f4839443d0cb52ec017448e,14:45:44,03/04/2024
,"<p style=""font-size:75px;"">...</p>",,ospan,iti,HlKnc2xMQvQcXPryoa2GrsGTzQJ3,html-keyboard-response,91,891127,0.0-46.0-2.0-2.0-0.0,,,,,,,,,,,,,,,5f4839443d0cb52ec017448e,14:45:44,03/04/2024
1427.0,,,ospan,symmetry,HlKnc2xMQvQcXPryoa2GrsGTzQJ3,symmetry-judgement-task,92,893677,0.0-46.0-2.0-2.0-1.0-0.0,,,,,,,,,,1.0,1.0,,,,5f4839443d0cb52ec017448e,14:45:44,03/04/2024
,"<div style=""font-size: 10rem; color: #0000FF"">L</div>",,ospan,letter,HlKnc2xMQvQcXPryoa2GrsGTzQJ3,html-keyboard-response,93,894693,0.0-46.0-2.0-2.0-1.0-1.0,,,,,,,,,,,,,,,5f4839443d0cb52ec017448e,14:45:44,03/04/2024
1816.0,,,ospan,symmetry,HlKnc2xMQvQcXPryoa2GrsGTzQJ3,symmetry-judgement-task,94,898390,0.0-46.0-2.0-2.0-1.0-2.0,,,,,,,,,,1.0,1.0,,,,5f4839443d0cb52ec017448e,14:45:44,03/04/2024
,"<div style=""font-size: 10rem; color: #0000FF"">C</div>",,ospan,letter,HlKnc2xMQvQcXPryoa2GrsGTzQJ3,html-keyboard-response,95,899396,0.0-46.0-2.0-2.0-1.0-3.0,,,,,,,,,,,,,,,5f4839443d0cb52ec017448e,14:45:44,03/04/2024
1916.0,,,ospan,symmetry,HlKnc2xMQvQcXPryoa2GrsGTzQJ3,symmetry-judgement-task,96,903173,0.0-46.0-2.0-2.0-1.0-4.0,,,,,,,,,,1.0,1.0,,,,5f4839443d0cb52ec017448e,14:45:44,03/04/2024
,"<div style=""font-size: 10rem; color: #0000FF"">P</div>",,ospan,letter,HlKnc2xMQvQcXPryoa2GrsGTzQJ3,html-keyboard-response,97,904175,0.0-46.0-2.0-2.0-1.0-5.0,,,,,,,,,,,,,,,5f4839443d0cb52ec017448e,14:45:44,03/04/2024
5216.799999713898,"<div class = numbox><p style=""font-size: 2.4rem"">Please recall the letters you saw to the best of your ability. If you do not remember a particular letter, use the SKIP button.<br><b>(When you are ready to lock in your answer, press ENTER)</b></p><button id = button_1 class = ""square num-button"" onclick = ""recordClick(this)""><div class = content><div class = numbers>C</div></div></button><button id = button_2 class = ""square num-button"" onclick = ""recordClick(this)""><div class = content><div class = numbers>G</div></div></button><button id = button_3 class = ""square num-button"" onclick = ""recordClick(this)""><div class = content><div class = numbers>H</div></div></button><button id = button_4 class = ""square num-button"" onclick = ""recordClick(this)""><div class = content><div class = numbers>J</div></div></button><button id = button_5 class = ""square num-button"" onclick = ""recordClick(this)""><div class = content><div class = numbers>K</div></div></button><button id = button_6 class = ""square num-button"" onclick = ""recordClick(this)""><div class = content><div class = numbers>L</div></div></button><button id = button_7 class = ""square num-button"" onclick = ""recordClick(this)""><div class = content><div class = numbers>N</div></div></button><button id = button_8 class = ""square num-button"" onclick = ""recordClick(this)""><div class = content><div class = numbers>P</div></div></button><button id = button_9 class = ""square num-button"" onclick = ""recordClick(this)""><div class = content><div class = numbers>Q</div></div></button><button id = button_10 class = ""square num-button"" onclick = ""recordClick(this)""><div class = content><div class = numbers>R</div></div></button><button id = button_11 class = ""square num-button"" onclick = ""recordClick(this)""><div class = content><div class = numbers>S</div></div></button><button id = button_12 class = ""square num-button"" onclick = ""recordClick(this)""><div class = content><div class = numbers>Y</div></div></button><button class = clear_button id = ""ClearButton"" onclick = ""clearResponse()"">BACKSPACE</button><button class = blank_button id = ""BlankButton"" onclick = ""blankResponse()"">SKIP</button><p style=""font-size: 2.4rem""><u><b>Current Answer:</b></u></p><br><br><div id=echoed_txt style=""font-size: 5rem; color:blue;""><b></b></div></div>",enter,ospan,retrieval,HlKnc2xMQvQcXPryoa2GrsGTzQJ3,html-keyboard-response,98,910159,0.0-46.0-2.0-2.0-2.0-0.0,NA,NA,NA,3.0,"[""L"",""C"",""P""]","[""L"",""C"",""P""]",1.0,3.0,"['<font color=""green"">L</font>', '<font color=""green"">C</font>', '<font color=""green"">P</font>']",,,,,,5f4839443d0cb52ec017448e,14:45:44,03/04/2024
4253.300000190735,"['<p style=""font-size:44px"">Letters:<br><br><br><font color=""green"">L</font> <font color=""green"">C</font> <font color=""green"">P</font></p><br><br><p style=""font-size:30px"">Symmetry:<br><br><font color=""red"">83%</font></p><br><br>']",0,ospan,practice_feedback,HlKnc2xMQvQcXPryoa2GrsGTzQJ3,html-button-response,99,914927,0.0-46.0-2.0-2.0-2.0-1.0,,,,,,,,,,,,,,,5f4839443d0cb52ec017448e,14:45:44,03/04/2024
27477.799999713898,"<div class = 'left_align' style='font-size: 3rem; line-height: 1.3;'><b>Great work! That is the end of practice.</b><br><br>The real trials will look just like the practice trials you just completed.<br><br><u>Here, you will not see feedback</u>. First, you will see an grid picture to judge,<br>then a letter to remember. When the recall screen appears, report the letters in the<br>order presented. If you forget a letter, remember to use the <b>blank</b> button to move to the<br>next letter. Some of the sets will have more symmetry grids and letters than others.<br><br>It is important that you do your best on both the symmetry judgments and the letter recall<br>parts of the experiment. For for the symmetry judgments, try to work as <b>quickly</b> and <br>as <b>accurately</b> as possible. Remember to keep your symmetry accuracy at 85% or above.<br><br><b>For the letters, do NOT use any external aid (e.g., writing on paper, electronic device).</b><br><br>It is <u>very important</u> to our experiment to have a <b>true</b> view of your real performance.<br><br>Do not worry if you miss some when it gets hard! This task is meant to be very challenging!<br><br>Click the button to begin.</div><br><br><br><br>",0,ospan,starting_real_here,HlKnc2xMQvQcXPryoa2GrsGTzQJ3,html-button-response,100,942406,0.0-46.0-2.0-3.0,,,,,,,,,,,,,,,5f4839443d0cb52ec017448e,14:45:44,03/04/2024
,"<p style=""font-size:75px;"">...</p>",,ospan,iti,HlKnc2xMQvQcXPryoa2GrsGTzQJ3,html-keyboard-response,101,943676,0.0-46.0-3.0-0.0-0.0,,,,,,,,,,,,,,,5f4839443d0cb52ec017448e,14:45:44,03/04/2024
2232.0,,,ospan,symmetry,HlKnc2xMQvQcXPryoa2GrsGTzQJ3,symmetry-judgement-task,102,947008,0.0-46.0-3.0-0.0-1.0-0.0,,,,,,,,,,1.0,1.0,,,,5f4839443d0cb52ec017448e,14:45:44,03/04/2024
,"<div style=""font-size: 10rem; color: #0000FF"">P</div>",,ospan,letter,HlKnc2xMQvQcXPryoa2GrsGTzQJ3,html-keyboard-response,103,948010,0.0-46.0-3.0-0.0-1.0-1.0,,,,,,,,,,,,,,,5f4839443d0cb52ec017448e,14:45:44,03/04/2024
1919.0,,,ospan,symmetry,HlKnc2xMQvQcXPryoa2GrsGTzQJ3,symmetry-judgement-task,104,951793,0.0-46.0-3.0-0.0-1.0-2.0,,,,,,,,,,1.0,1.0,,,,5f4839443d0cb52ec017448e,14:45:44,03/04/2024
,"<div style=""font-size: 10rem; color: #0000FF"">G</div>",,ospan,letter,HlKnc2xMQvQcXPryoa2GrsGTzQJ3,html-keyboard-response,105,952808,0.0-46.0-3.0-0.0-1.0-3.0,,,,,,,,,,,,,,,5f4839443d0cb52ec017448e,14:45:44,03/04/2024
2033.0,,,ospan,symmetry,HlKnc2xMQvQcXPryoa2GrsGTzQJ3,symmetry-judgement-task,106,956708,0.0-46.0-3.0-0.0-1.0-4.0,,,,,,,,,,1.0,1.0,,,,5f4839443d0cb52ec017448e,14:45:44,03/04/2024
,"<div style=""font-size: 10rem; color: #0000FF"">Y</div>",,ospan,letter,HlKnc2xMQvQcXPryoa2GrsGTzQJ3,html-keyboard-response,107,957721,0.0-46.0-3.0-0.0-1.0-5.0,,,,,,,,,,,,,,,5f4839443d0cb52ec017448e,14:45:44,03/04/2024
13916.700000286102,"<div class = numbox><p style=""font-size: 2.4rem"">Please recall the letters you saw to the best of your ability. If you do not remember a particular letter, use the SKIP button.<br><b>(When you are ready to lock in your answer, press ENTER)</b></p><button id = button_1 class = ""square num-button"" onclick = ""recordClick(this)""><div class = content><div class = numbers>C</div></div></button><button id = button_2 class = ""square num-button"" onclick = ""recordClick(this)""><div class = content><div class = numbers>G</div></div></button><button id = button_3 class = ""square num-button"" onclick = ""recordClick(this)""><div class = content><div class = numbers>H</div></div></button><button id = button_4 class = ""square num-button"" onclick = ""recordClick(this)""><div class = content><div class = numbers>J</div></div></button><button id = button_5 class = ""square num-button"" onclick = ""recordClick(this)""><div class = content><div class = numbers>K</div></div></button><button id = button_6 class = ""square num-button"" onclick = ""recordClick(this)""><div class = content><div class = numbers>L</div></div></button><button id = button_7 class = ""square num-button"" onclick = ""recordClick(this)""><div class = content><div class = numbers>N</div></div></button><button id = button_8 class = ""square num-button"" onclick = ""recordClick(this)""><div class = content><div class = numbers>P</div></div></button><button id = button_9 class = ""square num-button"" onclick = ""recordClick(this)""><div class = content><div class = numbers>Q</div></div></button><button id = button_10 class = ""square num-button"" onclick = ""recordClick(this)""><div class = content><div class = numbers>R</div></div></button><button id = button_11 class = ""square num-button"" onclick = ""recordClick(this)""><div class = content><div class = numbers>S</div></div></button><button id = button_12 class = ""square num-button"" onclick = ""recordClick(this)""><div class = content><div class = numbers>Y</div></div></button><button class = clear_button id = ""ClearButton"" onclick = ""clearResponse()"">BACKSPACE</button><button class = blank_button id = ""BlankButton"" onclick = ""blankResponse()"">SKIP</button><p style=""font-size: 2.4rem""><u><b>Current Answer:</b></u></p><br><br><div id=echoed_txt style=""font-size: 5rem; color:blue;""><b></b></div></div>",enter,ospan,retrieval,HlKnc2xMQvQcXPryoa2GrsGTzQJ3,html-keyboard-response,108,972393,0.0-46.0-3.0-0.0-2.0,3,2,0,3.0,"[""_"",""G"",""Y""]","[""P"",""G"",""Y""]",0.0,2.0,,,,,,,5f4839443d0cb52ec017448e,14:45:44,03/04/2024
1136.7000002861023,[''],0,ospan,feedback,HlKnc2xMQvQcXPryoa2GrsGTzQJ3,html-button-response,109,974040,0.0-46.0-3.0-0.0-3.0,,,,,,,,,,,,100.0,0.0,,5f4839443d0cb52ec017448e,14:45:44,03/04/2024
,"<p style=""font-size:75px;"">...</p>",,ospan,iti,HlKnc2xMQvQcXPryoa2GrsGTzQJ3,html-keyboard-response,110,975042,0.0-46.0-4.0-0.0-0.0,,,,,,,,,,,,,,,5f4839443d0cb52ec017448e,14:45:44,03/04/2024
1970.0,,,ospan,symmetry,HlKnc2xMQvQcXPryoa2GrsGTzQJ3,symmetry-judgement-task,111,978125,0.0-46.0-4.0-0.0-1.0-0.0,,,,,,,,,,1.0,1.0,,,,5f4839443d0cb52ec017448e,14:45:44,03/04/2024
,"<div style=""font-size: 10rem; color: #0000FF"">P</div>",,ospan,letter,HlKnc2xMQvQcXPryoa2GrsGTzQJ3,html-keyboard-response,112,979141,0.0-46.0-4.0-0.0-1.0-1.0,,,,,,,,,,,,,,,5f4839443d0cb52ec017448e,14:45:44,03/04/2024
1957.0,,,ospan,symmetry,HlKnc2xMQvQcXPryoa2GrsGTzQJ3,symmetry-judgement-task,113,982993,0.0-46.0-4.0-0.0-1.0-2.0,,,,,,,,,,1.0,1.0,,,,5f4839443d0cb52ec017448e,14:45:44,03/04/2024
,"<div style=""font-size: 10rem; color: #0000FF"">S</div>",,ospan,letter,HlKnc2xMQvQcXPryoa2GrsGTzQJ3,html-keyboard-response,114,984009,0.0-46.0-4.0-0.0-1.0-3.0,,,,,,,,,,,,,,,5f4839443d0cb52ec017448e,14:45:44,03/04/2024
2171.0,,,ospan,symmetry,HlKnc2xMQvQcXPryoa2GrsGTzQJ3,symmetry-judgement-task,115,988043,0.0-46.0-4.0-0.0-1.0-4.0,,,,,,,,,,1.0,1.0,,,,5f4839443d0cb52ec017448e,14:45:44,03/04/2024
,"<div style=""font-size: 10rem; color: #0000FF"">R</div>",,ospan,letter,HlKnc2xMQvQcXPryoa2GrsGTzQJ3,html-keyboard-response,116,989058,0.0-46.0-4.0-0.0-1.0-5.0,,,,,,,,,,,,,,,5f4839443d0cb52ec017448e,14:45:44,03/04/2024
3332.0,,,ospan,symmetry,HlKnc2xMQvQcXPryoa2GrsGTzQJ3,symmetry-judgement-task,117,994258,0.0-46.0-4.0-0.0-1.0-6.0,,,,,,,,,,1.0,1.0,,,,5f4839443d0cb52ec017448e,14:45:44,03/04/2024
,"<div style=""font-size: 10rem; color: #0000FF"">G</div>",,ospan,letter,HlKnc2xMQvQcXPryoa2GrsGTzQJ3,html-keyboard-response,118,995274,0.0-46.0-4.0-0.0-1.0-7.0,,,,,,,,,,,,,,,5f4839443d0cb52ec017448e,14:45:44,03/04/2024
10098.200000286102,"<div class = numbox><p style=""font-size: 2.4rem"">Please recall the letters you saw to the best of your ability. If you do not remember a particular letter, use the SKIP button.<br><b>(When you are ready to lock in your answer, press ENTER)</b></p><button id = button_1 class = ""square num-button"" onclick = ""recordClick(this)""><div class = content><div class = numbers>C</div></div></button><button id = button_2 class = ""square num-button"" onclick = ""recordClick(this)""><div class = content><div class = numbers>G</div></div></button><button id = button_3 class = ""square num-button"" onclick = ""recordClick(this)""><div class = content><div class = numbers>H</div></div></button><button id = button_4 class = ""square num-button"" onclick = ""recordClick(this)""><div class = content><div class = numbers>J</div></div></button><button id = button_5 class = ""square num-button"" onclick = ""recordClick(this)""><div class = content><div class = numbers>K</div></div></button><button id = button_6 class = ""square num-button"" onclick = ""recordClick(this)""><div class = content><div class = numbers>L</div></div></button><button id = button_7 class = ""square num-button"" onclick = ""recordClick(this)""><div class = content><div class = numbers>N</div></div></button><button id = button_8 class = ""square num-button"" onclick = ""recordClick(this)""><div class = content><div class = numbers>P</div></div></button><button id = button_9 class = ""square num-button"" onclick = ""recordClick(this)""><div class = content><div class = numbers>Q</div></div></button><button id = button_10 class = ""square num-button"" onclick = ""recordClick(this)""><div class = content><div class = numbers>R</div></div></button><button id = button_11 class = ""square num-button"" onclick = ""recordClick(this)""><div class = content><div class = numbers>S</div></div></button><button id = button_12 class = ""square num-button"" onclick = ""recordClick(this)""><div class = content><div class = numbers>Y</div></div></button><button class = clear_button id = ""ClearButton"" onclick = ""clearResponse()"">BACKSPACE</button><button class = blank_button id = ""BlankButton"" onclick = ""blankResponse()"">SKIP</button><p style=""font-size: 2.4rem""><u><b>Current Answer:</b></u></p><br><br><div id=echoed_txt style=""font-size: 5rem; color:blue;""><b></b></div></div>",enter,ospan,retrieval,HlKnc2xMQvQcXPryoa2GrsGTzQJ3,html-keyboard-response,119,1006138,0.0-46.0-4.0-0.0-2.0,7,6,4,4.0,"[""P"",""S"",""R"",""G""]","[""P"",""S"",""R"",""G""]",1.0,4.0,,,,,,,5f4839443d0cb52ec017448e,14:45:44,03/04/2024
1200.9000000953674,[''],0,ospan,feedback,HlKnc2xMQvQcXPryoa2GrsGTzQJ3,html-button-response,120,1007855,0.0-46.0-4.0-0.0-3.0,,,,,,,,,,,,100.0,0.0,,5f4839443d0cb52ec017448e,14:45:44,03/04/2024
,"<p style=""font-size:75px;"">...</p>",,ospan,iti,HlKnc2xMQvQcXPryoa2GrsGTzQJ3,html-keyboard-response,121,1008857,0.0-46.0-4.0-1.0-0.0,,,,,,,,,,,,,,,5f4839443d0cb52ec017448e,14:45:44,03/04/2024
1611.0,,,ospan,symmetry,HlKnc2xMQvQcXPryoa2GrsGTzQJ3,symmetry-judgement-task,122,1011574,0.0-46.0-4.0-1.0-1.0-0.0,,,,,,,,,,1.0,1.0,,,,5f4839443d0cb52ec017448e,14:45:44,03/04/2024
,"<div style=""font-size: 10rem; color: #0000FF"">R</div>",,ospan,letter,HlKnc2xMQvQcXPryoa2GrsGTzQJ3,html-keyboard-response,123,1012576,0.0-46.0-4.0-1.0-1.0-1.0,,,,,,,,,,,,,,,5f4839443d0cb52ec017448e,14:45:44,03/04/2024
2125.0,,,ospan,symmetry,HlKnc2xMQvQcXPryoa2GrsGTzQJ3,symmetry-judgement-task,124,1016572,0.0-46.0-4.0-1.0-1.0-2.0,,,,,,,,,,1.0,1.0,,,,5f4839443d0cb52ec017448e,14:45:44,03/04/2024
,"<div style=""font-size: 10rem; color: #0000FF"">C</div>",,ospan,letter,HlKnc2xMQvQcXPryoa2GrsGTzQJ3,html-keyboard-response,125,1017576,0.0-46.0-4.0-1.0-1.0-3.0,,,,,,,,,,,,,,,5f4839443d0cb52ec017448e,14:45:44,03/04/2024
1608.0,,,ospan,symmetry,HlKnc2xMQvQcXPryoa2GrsGTzQJ3,symmetry-judgement-task,126,1021074,0.0-46.0-4.0-1.0-1.0-4.0,,,,,,,,,,1.0,1.0,,,,5f4839443d0cb52ec017448e,14:45:44,03/04/2024
,"<div style=""font-size: 10rem; color: #0000FF"">J</div>",,ospan,letter,HlKnc2xMQvQcXPryoa2GrsGTzQJ3,html-keyboard-response,127,1022089,0.0-46.0-4.0-1.0-1.0-5.0,,,,,,,,,,,,,,,5f4839443d0cb52ec017448e,14:45:44,03/04/2024
1527.0,,,ospan,symmetry,HlKnc2xMQvQcXPryoa2GrsGTzQJ3,symmetry-judgement-task,128,1025491,0.0-46.0-4.0-1.0-1.0-6.0,,,,,,,,,,1.0,1.0,,,,5f4839443d0cb52ec017448e,14:45:44,03/04/2024
,"<div style=""font-size: 10rem; color: #0000FF"">G</div>",,ospan,letter,HlKnc2xMQvQcXPryoa2GrsGTzQJ3,html-keyboard-response,129,1026506,0.0-46.0-4.0-1.0-1.0-7.0,,,,,,,,,,,,,,,5f4839443d0cb52ec017448e,14:45:44,03/04/2024
2373.0,,,ospan,symmetry,HlKnc2xMQvQcXPryoa2GrsGTzQJ3,symmetry-judgement-task,130,1030741,0.0-46.0-4.0-1.0-1.0-8.0,,,,,,,,,,1.0,1.0,,,,5f4839443d0cb52ec017448e,14:45:44,03/04/2024
,"<div style=""font-size: 10rem; color: #0000FF"">N</div>",,ospan,letter,HlKnc2xMQvQcXPryoa2GrsGTzQJ3,html-keyboard-response,131,1031756,0.0-46.0-4.0-1.0-1.0-9.0,,,,,,,,,,,,,,,5f4839443d0cb52ec017448e,14:45:44,03/04/2024
13936.5,"<div class = numbox><p style=""font-size: 2.4rem"">Please recall the letters you saw to the best of your ability. If you do not remember a particular letter, use the SKIP button.<br><b>(When you are ready to lock in your answer, press ENTER)</b></p><button id = button_1 class = ""square num-button"" onclick = ""recordClick(this)""><div class = content><div class = numbers>C</div></div></button><button id = button_2 class = ""square num-button"" onclick = ""recordClick(this)""><div class = content><div class = numbers>G</div></div></button><button id = button_3 class = ""square num-button"" onclick = ""recordClick(this)""><div class = content><div class = numbers>H</div></div></button><button id = button_4 class = ""square num-button"" onclick = ""recordClick(this)""><div class = content><div class = numbers>J</div></div></button><button id = button_5 class = ""square num-button"" onclick = ""recordClick(this)""><div class = content><div class = numbers>K</div></div></button><button id = button_6 class = ""square num-button"" onclick = ""recordClick(this)""><div class = content><div class = numbers>L</div></div></button><button id = button_7 class = ""square num-button"" onclick = ""recordClick(this)""><div class = content><div class = numbers>N</div></div></button><button id = button_8 class = ""square num-button"" onclick = ""recordClick(this)""><div class = content><div class = numbers>P</div></div></button><button id = button_9 class = ""square num-button"" onclick = ""recordClick(this)""><div class = content><div class = numbers>Q</div></div></button><button id = button_10 class = ""square num-button"" onclick = ""recordClick(this)""><div class = content><div class = numbers>R</div></div></button><button id = button_11 class = ""square num-button"" onclick = ""recordClick(this)""><div class = content><div class = numbers>S</div></div></button><button id = button_12 class = ""square num-button"" onclick = ""recordClick(this)""><div class = content><div class = numbers>Y</div></div></button><button class = clear_button id = ""ClearButton"" onclick = ""clearResponse()"">BACKSPACE</button><button class = blank_button id = ""BlankButton"" onclick = ""blankResponse()"">SKIP</button><p style=""font-size: 2.4rem""><u><b>Current Answer:</b></u></p><br><br><div id=echoed_txt style=""font-size: 5rem; color:blue;""><b></b></div></div>",enter,ospan,retrieval,HlKnc2xMQvQcXPryoa2GrsGTzQJ3,html-keyboard-response,132,1046460,0.0-46.0-4.0-1.0-2.0,12,10,4,5.0,"[""R"",""C"",""J"",""_"",""N""]","[""R"",""C"",""J"",""G"",""N""]",0.0,4.0,,,,,,,5f4839443d0cb52ec017448e,14:45:44,03/04/2024
1079.5,[''],0,ospan,feedback,HlKnc2xMQvQcXPryoa2GrsGTzQJ3,html-button-response,133,1048050,0.0-46.0-4.0-1.0-3.0,,,,,,,,,,,,100.0,0.0,,5f4839443d0cb52ec017448e,14:45:44,03/04/2024
,"<p style=""font-size:75px;"">...</p>",,ospan,iti,HlKnc2xMQvQcXPryoa2GrsGTzQJ3,html-keyboard-response,134,1049059,0.0-46.0-4.0-2.0-0.0,,,,,,,,,,,,,,,5f4839443d0cb52ec017448e,14:45:44,03/04/2024
3379.0,,,ospan,symmetry,HlKnc2xMQvQcXPryoa2GrsGTzQJ3,symmetry-judgement-task,135,1053540,0.0-46.0-4.0-2.0-1.0-0.0,,,,,,,,,,1.0,1.0,,,,5f4839443d0cb52ec017448e,14:45:44,03/04/2024
,"<div style=""font-size: 10rem; color: #0000FF"">H</div>",,ospan,letter,HlKnc2xMQvQcXPryoa2GrsGTzQJ3,html-keyboard-response,136,1054554,0.0-46.0-4.0-2.0-1.0-1.0,,,,,,,,,,,,,,,5f4839443d0cb52ec017448e,14:45:44,03/04/2024
2012.0,,,ospan,symmetry,HlKnc2xMQvQcXPryoa2GrsGTzQJ3,symmetry-judgement-task,137,1058441,0.0-46.0-4.0-2.0-1.0-2.0,,,,,,,,,,1.0,1.0,,,,5f4839443d0cb52ec017448e,14:45:44,03/04/2024
,"<div style=""font-size: 10rem; color: #0000FF"">Q</div>",,ospan,letter,HlKnc2xMQvQcXPryoa2GrsGTzQJ3,html-keyboard-response,138,1059457,0.0-46.0-4.0-2.0-1.0-3.0,,,,,,,,,,,,,,,5f4839443d0cb52ec017448e,14:45:44,03/04/2024
2143.0,,,ospan,symmetry,HlKnc2xMQvQcXPryoa2GrsGTzQJ3,symmetry-judgement-task,139,1063473,0.0-46.0-4.0-2.0-1.0-4.0,,,,,,,,,,1.0,1.0,,,,5f4839443d0cb52ec017448e,14:45:44,03/04/2024
,"<div style=""font-size: 10rem; color: #0000FF"">L</div>",,ospan,letter,HlKnc2xMQvQcXPryoa2GrsGTzQJ3,html-keyboard-response,140,1064475,0.0-46.0-4.0-2.0-1.0-5.0,,,,,,,,,,,,,,,5f4839443d0cb52ec017448e,14:45:44,03/04/2024
4621.599999904633,"<div class = numbox><p style=""font-size: 2.4rem"">Please recall the letters you saw to the best of your ability. If you do not remember a particular letter, use the SKIP button.<br><b>(When you are ready to lock in your answer, press ENTER)</b></p><button id = button_1 class = ""square num-button"" onclick = ""recordClick(this)""><div class = content><div class = numbers>C</div></div></button><button id = button_2 class = ""square num-button"" onclick = ""recordClick(this)""><div class = content><div class = numbers>G</div></div></button><button id = button_3 class = ""square num-button"" onclick = ""recordClick(this)""><div class = content><div class = numbers>H</div></div></button><button id = button_4 class = ""square num-button"" onclick = ""recordClick(this)""><div class = content><div class = numbers>J</div></div></button><button id = button_5 class = ""square num-button"" onclick = ""recordClick(this)""><div class = content><div class = numbers>K</div></div></button><button id = button_6 class = ""square num-button"" onclick = ""recordClick(this)""><div class = content><div class = numbers>L</div></div></button><button id = button_7 class = ""square num-button"" onclick = ""recordClick(this)""><div class = content><div class = numbers>N</div></div></button><button id = button_8 class = ""square num-button"" onclick = ""recordClick(this)""><div class = content><div class = numbers>P</div></div></button><button id = button_9 class = ""square num-button"" onclick = ""recordClick(this)""><div class = content><div class = numbers>Q</div></div></button><button id = button_10 class = ""square num-button"" onclick = ""recordClick(this)""><div class = content><div class = numbers>R</div></div></button><button id = button_11 class = ""square num-button"" onclick = ""recordClick(this)""><div class = content><div class = numbers>S</div></div></button><button id = button_12 class = ""square num-button"" onclick = ""recordClick(this)""><div class = content><div class = numbers>Y</div></div></button><button class = clear_button id = ""ClearButton"" onclick = ""clearResponse()"">BACKSPACE</button><button class = blank_button id = ""BlankButton"" onclick = ""blankResponse()"">SKIP</button><p style=""font-size: 2.4rem""><u><b>Current Answer:</b></u></p><br><br><div id=echoed_txt style=""font-size: 5rem; color:blue;""><b></b></div></div>",enter,ospan,retrieval,HlKnc2xMQvQcXPryoa2GrsGTzQJ3,html-keyboard-response,141,1069849,0.0-46.0-4.0-2.0-2.0,15,13,7,3.0,"[""H"",""Q"",""L""]","[""H"",""Q"",""L""]",1.0,3.0,,,,,,,5f4839443d0cb52ec017448e,14:45:44,03/04/2024
1437.6999998092651,[''],0,ospan,feedback,HlKnc2xMQvQcXPryoa2GrsGTzQJ3,html-button-response,142,1071793,0.0-46.0-4.0-2.0-3.0,,,,,,,,,,,,100.0,0.0,,5f4839443d0cb52ec017448e,14:45:44,03/04/2024
,"<p style=""font-size:75px;"">...</p>",,ospan,iti,HlKnc2xMQvQcXPryoa2GrsGTzQJ3,html-keyboard-response,143,1072808,0.0-46.0-5.0-0.0-0.0,,,,,,,,,,,,,,,5f4839443d0cb52ec017448e,14:45:44,03/04/2024
1665.0,,,ospan,symmetry,HlKnc2xMQvQcXPryoa2GrsGTzQJ3,symmetry-judgement-task,144,1075588,0.0-46.0-5.0-0.0-1.0-0.0,,,,,,,,,,1.0,1.0,,,,5f4839443d0cb52ec017448e,14:45:44,03/04/2024
,"<div style=""font-size: 10rem; color: #0000FF"">S</div>",,ospan,letter,HlKnc2xMQvQcXPryoa2GrsGTzQJ3,html-keyboard-response,145,1076593,0.0-46.0-5.0-0.0-1.0-1.0,,,,,,,,,,,,,,,5f4839443d0cb52ec017448e,14:45:44,03/04/2024
2917.0,,,ospan,symmetry,HlKnc2xMQvQcXPryoa2GrsGTzQJ3,symmetry-judgement-task,146,1081373,0.0-46.0-5.0-0.0-1.0-2.0,,,,,,,,,,1.0,1.0,,,,5f4839443d0cb52ec017448e,14:45:44,03/04/2024
,"<div style=""font-size: 10rem; color: #0000FF"">K</div>",,ospan,letter,HlKnc2xMQvQcXPryoa2GrsGTzQJ3,html-keyboard-response,147,1082388,0.0-46.0-5.0-0.0-1.0-3.0,,,,,,,,,,,,,,,5f4839443d0cb52ec017448e,14:45:44,03/04/2024
1501.0,,,ospan,symmetry,HlKnc2xMQvQcXPryoa2GrsGTzQJ3,symmetry-judgement-task,148,1085756,0.0-46.0-5.0-0.0-1.0-4.0,,,,,,,,,,1.0,1.0,,,,5f4839443d0cb52ec017448e,14:45:44,03/04/2024
,"<div style=""font-size: 10rem; color: #0000FF"">P</div>",,ospan,letter,HlKnc2xMQvQcXPryoa2GrsGTzQJ3,html-keyboard-response,149,1086768,0.0-46.0-5.0-0.0-1.0-5.0,,,,,,,,,,,,,,,5f4839443d0cb52ec017448e,14:45:44,03/04/2024
1354.0,,,ospan,symmetry,HlKnc2xMQvQcXPryoa2GrsGTzQJ3,symmetry-judgement-task,150,1089988,0.0-46.0-5.0-0.0-1.0-6.0,,,,,,,,,,1.0,1.0,,,,5f4839443d0cb52ec017448e,14:45:44,03/04/2024
,"<div style=""font-size: 10rem; color: #0000FF"">Q</div>",,ospan,letter,HlKnc2xMQvQcXPryoa2GrsGTzQJ3,html-keyboard-response,151,1091006,0.0-46.0-5.0-0.0-1.0-7.0,,,,,,,,,,,,,,,5f4839443d0cb52ec017448e,14:45:44,03/04/2024
2112.0,,,ospan,symmetry,HlKnc2xMQvQcXPryoa2GrsGTzQJ3,symmetry-judgement-task,152,1094989,0.0-46.0-5.0-0.0-1.0-8.0,,,,,,,,,,1.0,1.0,,,,5f4839443d0cb52ec017448e,14:45:44,03/04/2024
,"<div style=""font-size: 10rem; color: #0000FF"">G</div>",,ospan,letter,HlKnc2xMQvQcXPryoa2GrsGTzQJ3,html-keyboard-response,153,1096005,0.0-46.0-5.0-0.0-1.0-9.0,,,,,,,,,,,,,,,5f4839443d0cb52ec017448e,14:45:44,03/04/2024
2421.0,,,ospan,symmetry,HlKnc2xMQvQcXPryoa2GrsGTzQJ3,symmetry-judgement-task,154,1100291,0.0-46.0-5.0-0.0-1.0-10.0,,,,,,,,,,1.0,1.0,,,,5f4839443d0cb52ec017448e,14:45:44,03/04/2024
,"<div style=""font-size: 10rem; color: #0000FF"">H</div>",,ospan,letter,HlKnc2xMQvQcXPryoa2GrsGTzQJ3,html-keyboard-response,155,1101306,0.0-46.0-5.0-0.0-1.0-11.0,,,,,,,,,,,,,,,5f4839443d0cb52ec017448e,14:45:44,03/04/2024
7264.0,"<div class = numbox><p style=""font-size: 2.4rem"">Please recall the letters you saw to the best of your ability. If you do not remember a particular letter, use the SKIP button.<br><b>(When you are ready to lock in your answer, press ENTER)</b></p><button id = button_1 class = ""square num-button"" onclick = ""recordClick(this)""><div class = content><div class = numbers>C</div></div></button><button id = button_2 class = ""square num-button"" onclick = ""recordClick(this)""><div class = content><div class = numbers>G</div></div></button><button id = button_3 class = ""square num-button"" onclick = ""recordClick(this)""><div class = content><div class = numbers>H</div></div></button><button id = button_4 class = ""square num-button"" onclick = ""recordClick(this)""><div class = content><div class = numbers>J</div></div></button><button id = button_5 class = ""square num-button"" onclick = ""recordClick(this)""><div class = content><div class = numbers>K</div></div></button><button id = button_6 class = ""square num-button"" onclick = ""recordClick(this)""><div class = content><div class = numbers>L</div></div></button><button id = button_7 class = ""square num-button"" onclick = ""recordClick(this)""><div class = content><div class = numbers>N</div></div></button><button id = button_8 class = ""square num-button"" onclick = ""recordClick(this)""><div class = content><div class = numbers>P</div></div></button><button id = button_9 class = ""square num-button"" onclick = ""recordClick(this)""><div class = content><div class = numbers>Q</div></div></button><button id = button_10 class = ""square num-button"" onclick = ""recordClick(this)""><div class = content><div class = numbers>R</div></div></button><button id = button_11 class = ""square num-button"" onclick = ""recordClick(this)""><div class = content><div class = numbers>S</div></div></button><button id = button_12 class = ""square num-button"" onclick = ""recordClick(this)""><div class = content><div class = numbers>Y</div></div></button><button class = clear_button id = ""ClearButton"" onclick = ""clearResponse()"">BACKSPACE</button><button class = blank_button id = ""BlankButton"" onclick = ""blankResponse()"">SKIP</button><p style=""font-size: 2.4rem""><u><b>Current Answer:</b></u></p><br><br><div id=echoed_txt style=""font-size: 5rem; color:blue;""><b></b></div></div>",enter,ospan,retrieval,HlKnc2xMQvQcXPryoa2GrsGTzQJ3,html-keyboard-response,156,1109336,0.0-46.0-5.0-0.0-2.0,21,19,13,6.0,"[""S"",""K"",""P"",""Q"",""G"",""H""]","[""S"",""K"",""P"",""Q"",""G"",""H""]",1.0,6.0,,,,,,,5f4839443d0cb52ec017448e,14:45:44,03/04/2024
1039.4000000953674,[''],0,ospan,feedback,HlKnc2xMQvQcXPryoa2GrsGTzQJ3,html-button-response,157,1110877,0.0-46.0-5.0-0.0-3.0,,,,,,,,,,,,100.0,0.0,,5f4839443d0cb52ec017448e,14:45:44,03/04/2024
,"<p style=""font-size:75px;"">...</p>",,ospan,iti,HlKnc2xMQvQcXPryoa2GrsGTzQJ3,html-keyboard-response,158,1111880,0.0-46.0-5.0-1.0-0.0,,,,,,,,,,,,,,,5f4839443d0cb52ec017448e,14:45:44,03/04/2024
1999.0,,,ospan,symmetry,HlKnc2xMQvQcXPryoa2GrsGTzQJ3,symmetry-judgement-task,159,1115007,0.0-46.0-5.0-1.0-1.0-0.0,,,,,,,,,,1.0,1.0,,,,5f4839443d0cb52ec017448e,14:45:44,03/04/2024
,"<div style=""font-size: 10rem; color: #0000FF"">H</div>",,ospan,letter,HlKnc2xMQvQcXPryoa2GrsGTzQJ3,html-keyboard-response,160,1116021,0.0-46.0-5.0-1.0-1.0-1.0,,,,,,,,,,,,,,,5f4839443d0cb52ec017448e,14:45:44,03/04/2024
3045.0,,,ospan,symmetry,HlKnc2xMQvQcXPryoa2GrsGTzQJ3,symmetry-judgement-task,161,1120922,0.0-46.0-5.0-1.0-1.0-2.0,,,,,,,,,,1.0,1.0,,,,5f4839443d0cb52ec017448e,14:45:44,03/04/2024
,"<div style=""font-size: 10rem; color: #0000FF"">Y</div>",,ospan,letter,HlKnc2xMQvQcXPryoa2GrsGTzQJ3,html-keyboard-response,162,1121937,0.0-46.0-5.0-1.0-1.0-3.0,,,,,,,,,,,,,,,5f4839443d0cb52ec017448e,14:45:44,03/04/2024
2156.0,,,ospan,symmetry,HlKnc2xMQvQcXPryoa2GrsGTzQJ3,symmetry-judgement-task,163,1125974,0.0-46.0-5.0-1.0-1.0-4.0,,,,,,,,,,1.0,1.0,,,,5f4839443d0cb52ec017448e,14:45:44,03/04/2024
,"<div style=""font-size: 10rem; color: #0000FF"">S</div>",,ospan,letter,HlKnc2xMQvQcXPryoa2GrsGTzQJ3,html-keyboard-response,164,1126989,0.0-46.0-5.0-1.0-1.0-5.0,,,,,,,,,,,,,,,5f4839443d0cb52ec017448e,14:45:44,03/04/2024
1381.0,,,ospan,symmetry,HlKnc2xMQvQcXPryoa2GrsGTzQJ3,symmetry-judgement-task,165,1130238,0.0-46.0-5.0-1.0-1.0-6.0,,,,,,,,,,1.0,1.0,,,,5f4839443d0cb52ec017448e,14:45:44,03/04/2024
,"<div style=""font-size: 10rem; color: #0000FF"">G</div>",,ospan,letter,HlKnc2xMQvQcXPryoa2GrsGTzQJ3,html-keyboard-response,166,1131242,0.0-46.0-5.0-1.0-1.0-7.0,,,,,,,,,,,,,,,5f4839443d0cb52ec017448e,14:45:44,03/04/2024
2949.0,,,ospan,symmetry,HlKnc2xMQvQcXPryoa2GrsGTzQJ3,symmetry-judgement-task,167,1136055,0.0-46.0-5.0-1.0-1.0-8.0,,,,,,,,,,1.0,1.0,,,,5f4839443d0cb52ec017448e,14:45:44,03/04/2024
,"<div style=""font-size: 10rem; color: #0000FF"">K</div>",,ospan,letter,HlKnc2xMQvQcXPryoa2GrsGTzQJ3,html-keyboard-response,168,1137072,0.0-46.0-5.0-1.0-1.0-9.0,,,,,,,,,,,,,,,5f4839443d0cb52ec017448e,14:45:44,03/04/2024
1371.0,,,ospan,symmetry,HlKnc2xMQvQcXPryoa2GrsGTzQJ3,symmetry-judgement-task,169,1140320,0.0-46.0-5.0-1.0-1.0-10.0,,,,,,,,,,1.0,1.0,,,,5f4839443d0cb52ec017448e,14:45:44,03/04/2024
,"<div style=""font-size: 10rem; color: #0000FF"">Q</div>",,ospan,letter,HlKnc2xMQvQcXPryoa2GrsGTzQJ3,html-keyboard-response,170,1141322,0.0-46.0-5.0-1.0-1.0-11.0,,,,,,,,,,,,,,,5f4839443d0cb52ec017448e,14:45:44,03/04/2024
4697.0,,,ospan,symmetry,HlKnc2xMQvQcXPryoa2GrsGTzQJ3,symmetry-judgement-task,171,1147888,0.0-46.0-5.0-1.0-1.0-12.0,,,,,,,,,,1.0,1.0,,,,5f4839443d0cb52ec017448e,14:45:44,03/04/2024
,"<div style=""font-size: 10rem; color: #0000FF"">L</div>",,ospan,letter,HlKnc2xMQvQcXPryoa2GrsGTzQJ3,html-keyboard-response,172,1148906,0.0-46.0-5.0-1.0-1.0-13.0,,,,,,,,,,,,,,,5f4839443d0cb52ec017448e,14:45:44,03/04/2024
8786.60000038147,"<div class = numbox><p style=""font-size: 2.4rem"">Please recall the letters you saw to the best of your ability. If you do not remember a particular letter, use the SKIP button.<br><b>(When you are ready to lock in your answer, press ENTER)</b></p><button id = button_1 class = ""square num-button"" onclick = ""recordClick(this)""><div class = content><div class = numbers>C</div></div></button><button id = button_2 class = ""square num-button"" onclick = ""recordClick(this)""><div class = content><div class = numbers>G</div></div></button><button id = button_3 class = ""square num-button"" onclick = ""recordClick(this)""><div class = content><div class = numbers>H</div></div></button><button id = button_4 class = ""square num-button"" onclick = ""recordClick(this)""><div class = content><div class = numbers>J</div></div></button><button id = button_5 class = ""square num-button"" onclick = ""recordClick(this)""><div class = content><div class = numbers>K</div></div></button><button id = button_6 class = ""square num-button"" onclick = ""recordClick(this)""><div class = content><div class = numbers>L</div></div></button><button id = button_7 class = ""square num-button"" onclick = ""recordClick(this)""><div class = content><div class = numbers>N</div></div></button><button id = button_8 class = ""square num-button"" onclick = ""recordClick(this)""><div class = content><div class = numbers>P</div></div></button><button id = button_9 class = ""square num-button"" onclick = ""recordClick(this)""><div class = content><div class = numbers>Q</div></div></button><button id = button_10 class = ""square num-button"" onclick = ""recordClick(this)""><div class = content><div class = numbers>R</div></div></button><button id = button_11 class = ""square num-button"" onclick = ""recordClick(this)""><div class = content><div class = numbers>S</div></div></button><button id = button_12 class = ""square num-button"" onclick = ""recordClick(this)""><div class = content><div class = numbers>Y</div></div></button><button class = clear_button id = ""ClearButton"" onclick = ""clearResponse()"">BACKSPACE</button><button class = blank_button id = ""BlankButton"" onclick = ""blankResponse()"">SKIP</button><p style=""font-size: 2.4rem""><u><b>Current Answer:</b></u></p><br><br><div id=echoed_txt style=""font-size: 5rem; color:blue;""><b></b></div></div>",enter,ospan,retrieval,HlKnc2xMQvQcXPryoa2GrsGTzQJ3,html-keyboard-response,173,1158456,0.0-46.0-5.0-1.0-2.0,28,23,13,7.0,"[""H"",""Y"",""S"",""G"",""Q"",""_""]","[""H"",""Y"",""S"",""G"",""K"",""Q"",""L""]",0.0,4.0,,,,,,,5f4839443d0cb52ec017448e,14:45:44,03/04/2024
4424.099999904633,[''],0,ospan,feedback,HlKnc2xMQvQcXPryoa2GrsGTzQJ3,html-button-response,174,1163393,0.0-46.0-5.0-1.0-3.0,,,,,,,,,,,,100.0,0.0,,5f4839443d0cb52ec017448e,14:45:44,03/04/2024
,"<p style=""font-size:75px;"">...</p>",,ospan,iti,HlKnc2xMQvQcXPryoa2GrsGTzQJ3,html-keyboard-response,175,1164395,0.0-46.0-6.0-0.0-0.0,,,,,,,,,,,,,,,5f4839443d0cb52ec017448e,14:45:44,03/04/2024
1323.0,,,ospan,symmetry,HlKnc2xMQvQcXPryoa2GrsGTzQJ3,symmetry-judgement-task,176,1166824,0.0-46.0-6.0-0.0-1.0-0.0,,,,,,,,,,1.0,1.0,,,,5f4839443d0cb52ec017448e,14:45:44,03/04/2024
,"<div style=""font-size: 10rem; color: #0000FF"">H</div>",,ospan,letter,HlKnc2xMQvQcXPryoa2GrsGTzQJ3,html-keyboard-response,177,1167836,0.0-46.0-6.0-0.0-1.0-1.0,,,,,,,,,,,,,,,5f4839443d0cb52ec017448e,14:45:44,03/04/2024
2259.0,,,ospan,symmetry,HlKnc2xMQvQcXPryoa2GrsGTzQJ3,symmetry-judgement-task,178,1171970,0.0-46.0-6.0-0.0-1.0-2.0,,,,,,,,,,1.0,1.0,,,,5f4839443d0cb52ec017448e,14:45:44,03/04/2024
,"<div style=""font-size: 10rem; color: #0000FF"">P</div>",,ospan,letter,HlKnc2xMQvQcXPryoa2GrsGTzQJ3,html-keyboard-response,179,1172987,0.0-46.0-6.0-0.0-1.0-3.0,,,,,,,,,,,,,,,5f4839443d0cb52ec017448e,14:45:44,03/04/2024
2451.0,,,ospan,symmetry,HlKnc2xMQvQcXPryoa2GrsGTzQJ3,symmetry-judgement-task,180,1177289,0.0-46.0-6.0-0.0-1.0-4.0,,,,,,,,,,1.0,1.0,,,,5f4839443d0cb52ec017448e,14:45:44,03/04/2024
,"<div style=""font-size: 10rem; color: #0000FF"">K</div>",,ospan,letter,HlKnc2xMQvQcXPryoa2GrsGTzQJ3,html-keyboard-response,181,1178304,0.0-46.0-6.0-0.0-1.0-5.0,,,,,,,,,,,,,,,5f4839443d0cb52ec017448e,14:45:44,03/04/2024
2383.0,,,ospan,symmetry,HlKnc2xMQvQcXPryoa2GrsGTzQJ3,symmetry-judgement-task,182,1182556,0.0-46.0-6.0-0.0-1.0-6.0,,,,,,,,,,1.0,1.0,,,,5f4839443d0cb52ec017448e,14:45:44,03/04/2024
,"<div style=""font-size: 10rem; color: #0000FF"">L</div>",,ospan,letter,HlKnc2xMQvQcXPryoa2GrsGTzQJ3,html-keyboard-response,183,1183573,0.0-46.0-6.0-0.0-1.0-7.0,,,,,,,,,,,,,,,5f4839443d0cb52ec017448e,14:45:44,03/04/2024
2741.0,,,ospan,symmetry,HlKnc2xMQvQcXPryoa2GrsGTzQJ3,symmetry-judgement-task,184,1188187,0.0-46.0-6.0-0.0-1.0-8.0,,,,,,,,,,1.0,1.0,,,,5f4839443d0cb52ec017448e,14:45:44,03/04/2024
,"<div style=""font-size: 10rem; color: #0000FF"">N</div>",,ospan,letter,HlKnc2xMQvQcXPryoa2GrsGTzQJ3,html-keyboard-response,185,1189201,0.0-46.0-6.0-0.0-1.0-9.0,,,,,,,,,,,,,,,5f4839443d0cb52ec017448e,14:45:44,03/04/2024
14216.599999904633,"<div class = numbox><p style=""font-size: 2.4rem"">Please recall the letters you saw to the best of your ability. If you do not remember a particular letter, use the SKIP button.<br><b>(When you are ready to lock in your answer, press ENTER)</b></p><button id = button_1 class = ""square num-button"" onclick = ""recordClick(this)""><div class = content><div class = numbers>C</div></div></button><button id = button_2 class = ""square num-button"" onclick = ""recordClick(this)""><div class = content><div class = numbers>G</div></div></button><button id = button_3 class = ""square num-button"" onclick = ""recordClick(this)""><div class = content><div class = numbers>H</div></div></button><button id = button_4 class = ""square num-button"" onclick = ""recordClick(this)""><div class = content><div class = numbers>J</div></div></button><button id = button_5 class = ""square num-button"" onclick = ""recordClick(this)""><div class = content><div class = numbers>K</div></div></button><button id = button_6 class = ""square num-button"" onclick = ""recordClick(this)""><div class = content><div class = numbers>L</div></div></button><button id = button_7 class = ""square num-button"" onclick = ""recordClick(this)""><div class = content><div class = numbers>N</div></div></button><button id = button_8 class = ""square num-button"" onclick = ""recordClick(this)""><div class = content><div class = numbers>P</div></div></button><button id = button_9 class = ""square num-button"" onclick = ""recordClick(this)""><div class = content><div class = numbers>Q</div></div></button><button id = button_10 class = ""square num-button"" onclick = ""recordClick(this)""><div class = content><div class = numbers>R</div></div></button><button id = button_11 class = ""square num-button"" onclick = ""recordClick(this)""><div class = content><div class = numbers>S</div></div></button><button id = button_12 class = ""square num-button"" onclick = ""recordClick(this)""><div class = content><div class = numbers>Y</div></div></button><button class = clear_button id = ""ClearButton"" onclick = ""clearResponse()"">BACKSPACE</button><button class = blank_button id = ""BlankButton"" onclick = ""blankResponse()"">SKIP</button><p style=""font-size: 2.4rem""><u><b>Current Answer:</b></u></p><br><br><div id=echoed_txt style=""font-size: 5rem; color:blue;""><b></b></div></div>",enter,ospan,retrieval,HlKnc2xMQvQcXPryoa2GrsGTzQJ3,html-keyboard-response,186,1204171,0.0-46.0-6.0-0.0-2.0,33,28,18,5.0,"[""H"",""P"",""K"",""L"",""N""]","[""H"",""P"",""K"",""L"",""N""]",1.0,5.0,,,,,,,5f4839443d0cb52ec017448e,14:45:44,03/04/2024
949.9000000953674,[''],0,ospan,feedback,HlKnc2xMQvQcXPryoa2GrsGTzQJ3,html-button-response,187,1205636,0.0-46.0-6.0-0.0-3.0,,,,,,,,,,,,100.0,0.0,,5f4839443d0cb52ec017448e,14:45:44,03/04/2024
,"<p style=""font-size:75px;"">...</p>",,ospan,iti,HlKnc2xMQvQcXPryoa2GrsGTzQJ3,html-keyboard-response,188,1206638,0.0-46.0-6.0-1.0-0.0,,,,,,,,,,,,,,,5f4839443d0cb52ec017448e,14:45:44,03/04/2024
1752.0,,,ospan,symmetry,HlKnc2xMQvQcXPryoa2GrsGTzQJ3,symmetry-judgement-task,189,1209489,0.0-46.0-6.0-1.0-1.0-0.0,,,,,,,,,,1.0,1.0,,,,5f4839443d0cb52ec017448e,14:45:44,03/04/2024
,"<div style=""font-size: 10rem; color: #0000FF"">L</div>",,ospan,letter,HlKnc2xMQvQcXPryoa2GrsGTzQJ3,html-keyboard-response,190,1210502,0.0-46.0-6.0-1.0-1.0-1.0,,,,,,,,,,,,,,,5f4839443d0cb52ec017448e,14:45:44,03/04/2024
2302.0,,,ospan,symmetry,HlKnc2xMQvQcXPryoa2GrsGTzQJ3,symmetry-judgement-task,191,1214653,0.0-46.0-6.0-1.0-1.0-2.0,,,,,,,,,,1.0,1.0,,,,5f4839443d0cb52ec017448e,14:45:44,03/04/2024
,"<div style=""font-size: 10rem; color: #0000FF"">C</div>",,ospan,letter,HlKnc2xMQvQcXPryoa2GrsGTzQJ3,html-keyboard-response,192,1215667,0.0-46.0-6.0-1.0-1.0-3.0,,,,,,,,,,,,,,,5f4839443d0cb52ec017448e,14:45:44,03/04/2024
1367.0,,,ospan,symmetry,HlKnc2xMQvQcXPryoa2GrsGTzQJ3,symmetry-judgement-task,193,1218888,0.0-46.0-6.0-1.0-1.0-4.0,,,,,,,,,,1.0,1.0,,,,5f4839443d0cb52ec017448e,14:45:44,03/04/2024
,"<div style=""font-size: 10rem; color: #0000FF"">G</div>",,ospan,letter,HlKnc2xMQvQcXPryoa2GrsGTzQJ3,html-keyboard-response,194,1219904,0.0-46.0-6.0-1.0-1.0-5.0,,,,,,,,,,,,,,,5f4839443d0cb52ec017448e,14:45:44,03/04/2024
1503.0,,,ospan,symmetry,HlKnc2xMQvQcXPryoa2GrsGTzQJ3,symmetry-judgement-task,195,1223270,0.0-46.0-6.0-1.0-1.0-6.0,,,,,,,,,,1.0,1.0,,,,5f4839443d0cb52ec017448e,14:45:44,03/04/2024
,"<div style=""font-size: 10rem; color: #0000FF"">J</div>",,ospan,letter,HlKnc2xMQvQcXPryoa2GrsGTzQJ3,html-keyboard-response,196,1224287,0.0-46.0-6.0-1.0-1.0-7.0,,,,,,,,,,,,,,,5f4839443d0cb52ec017448e,14:45:44,03/04/2024
1288.0,,,ospan,symmetry,HlKnc2xMQvQcXPryoa2GrsGTzQJ3,symmetry-judgement-task,197,1227437,0.0-46.0-6.0-1.0-1.0-8.0,,,,,,,,,,1.0,1.0,,,,5f4839443d0cb52ec017448e,14:45:44,03/04/2024
,"<div style=""font-size: 10rem; color: #0000FF"">Q</div>",,ospan,letter,HlKnc2xMQvQcXPryoa2GrsGTzQJ3,html-keyboard-response,198,1228453,0.0-46.0-6.0-1.0-1.0-9.0,,,,,,,,,,,,,,,5f4839443d0cb52ec017448e,14:45:44,03/04/2024
2568.0,,,ospan,symmetry,HlKnc2xMQvQcXPryoa2GrsGTzQJ3,symmetry-judgement-task,199,1232885,0.0-46.0-6.0-1.0-1.0-10.0,,,,,,,,,,1.0,1.0,,,,5f4839443d0cb52ec017448e,14:45:44,03/04/2024
,"<div style=""font-size: 10rem; color: #0000FF"">K</div>",,ospan,letter,HlKnc2xMQvQcXPryoa2GrsGTzQJ3,html-keyboard-response,200,1233901,0.0-46.0-6.0-1.0-1.0-11.0,,,,,,,,,,,,,,,5f4839443d0cb52ec017448e,14:45:44,03/04/2024
1411.0,,,ospan,symmetry,HlKnc2xMQvQcXPryoa2GrsGTzQJ3,symmetry-judgement-task,201,1237170,0.0-46.0-6.0-1.0-1.0-12.0,,,,,,,,,,1.0,1.0,,,,5f4839443d0cb52ec017448e,14:45:44,03/04/2024
,"<div style=""font-size: 10rem; color: #0000FF"">H</div>",,ospan,letter,HlKnc2xMQvQcXPryoa2GrsGTzQJ3,html-keyboard-response,202,1238185,0.0-46.0-6.0-1.0-1.0-13.0,,,,,,,,,,,,,,,5f4839443d0cb52ec017448e,14:45:44,03/04/2024
1851.0,,,ospan,symmetry,HlKnc2xMQvQcXPryoa2GrsGTzQJ3,symmetry-judgement-task,203,1241888,0.0-46.0-6.0-1.0-1.0-14.0,,,,,,,,,,1.0,1.0,,,,5f4839443d0cb52ec017448e,14:45:44,03/04/2024
,"<div style=""font-size: 10rem; color: #0000FF"">Y</div>",,ospan,letter,HlKnc2xMQvQcXPryoa2GrsGTzQJ3,html-keyboard-response,204,1242902,0.0-46.0-6.0-1.0-1.0-15.0,,,,,,,,,,,,,,,5f4839443d0cb52ec017448e,14:45:44,03/04/2024
12606.700000286102,"<div class = numbox><p style=""font-size: 2.4rem"">Please recall the letters you saw to the best of your ability. If you do not remember a particular letter, use the SKIP button.<br><b>(When you are ready to lock in your answer, press ENTER)</b></p><button id = button_1 class = ""square num-button"" onclick = ""recordClick(this)""><div class = content><div class = numbers>C</div></div></button><button id = button_2 class = ""square num-button"" onclick = ""recordClick(this)""><div class = content><div class = numbers>G</div></div></button><button id = button_3 class = ""square num-button"" onclick = ""recordClick(this)""><div class = content><div class = numbers>H</div></div></button><button id = button_4 class = ""square num-button"" onclick = ""recordClick(this)""><div class = content><div class = numbers>J</div></div></button><button id = button_5 class = ""square num-button"" onclick = ""recordClick(this)""><div class = content><div class = numbers>K</div></div></button><button id = button_6 class = ""square num-button"" onclick = ""recordClick(this)""><div class = content><div class = numbers>L</div></div></button><button id = button_7 class = ""square num-button"" onclick = ""recordClick(this)""><div class = content><div class = numbers>N</div></div></button><button id = button_8 class = ""square num-button"" onclick = ""recordClick(this)""><div class = content><div class = numbers>P</div></div></button><button id = button_9 class = ""square num-button"" onclick = ""recordClick(this)""><div class = content><div class = numbers>Q</div></div></button><button id = button_10 class = ""square num-button"" onclick = ""recordClick(this)""><div class = content><div class = numbers>R</div></div></button><button id = button_11 class = ""square num-button"" onclick = ""recordClick(this)""><div class = content><div class = numbers>S</div></div></button><button id = button_12 class = ""square num-button"" onclick = ""recordClick(this)""><div class = content><div class = numbers>Y</div></div></button><button class = clear_button id = ""ClearButton"" onclick = ""clearResponse()"">BACKSPACE</button><button class = blank_button id = ""BlankButton"" onclick = ""blankResponse()"">SKIP</button><p style=""font-size: 2.4rem""><u><b>Current Answer:</b></u></p><br><br><div id=echoed_txt style=""font-size: 5rem; color:blue;""><b></b></div></div>",enter,ospan,retrieval,HlKnc2xMQvQcXPryoa2GrsGTzQJ3,html-keyboard-response,205,1256275,0.0-46.0-6.0-1.0-2.0,41,32,18,8.0,"[""L"",""C"",""G"",""J"",""_"",""_"",""_""]","[""L"",""C"",""G"",""J"",""Q"",""K"",""H"",""Y""]",0.0,4.0,,,,,,,5f4839443d0cb52ec017448e,14:45:44,03/04/2024
4440.199999809265,[''],0,ospan,feedback,HlKnc2xMQvQcXPryoa2GrsGTzQJ3,html-button-response,206,1261223,0.0-46.0-6.0-1.0-3.0,,,,,,,,,,,,100.0,0.0,,5f4839443d0cb52ec017448e,14:45:44,03/04/2024
22679.400000095367,,{'Q0': 'i found it a bit tasking but instructions were clear'},ospan,survey_ospan,HlKnc2xMQvQcXPryoa2GrsGTzQJ3,lmdlab-survey-text,207,1284666,0.0-46.0-7.0,,,,,,,,,,,,,,HlKnc2xMQvQcXPryoa2GrsGTzQJ3,5f4839443d0cb52ec017448e,14:45:44,03/04/2024
1827.7000002861023,<p><p style='font-size: 3rem'>Great work!<br><br>This completes the symmetry and memory task.</p><br><br><br>,0,ospan,finish,HlKnc2xMQvQcXPryoa2GrsGTzQJ3,html-button-response,208,1286499,0.0-46.0-8.0,41,32,18,,,,,,,,,100.0,,,5f4839443d0cb52ec017448e,14:45:44,03/04/2024
