rt,stimulus,response,exp_name,exp_stage,subjectID,trial_type,trial_index,time_elapsed,internal_node_id,ospan_shown,ospan_total,ospan_abs,length,resp_actual,resp_correct,full_correct,num_correct,feedback,accuracy,correct,math_acc,math_warning,databaseID,prolificID,start_time,date
1457.5,<div class = 'left_align' style='font-size: 3.25rem; line-height: 1.3;'><p class = 'center_align'><b>Welcome to the Symmetry and Memory Task</b><br><br><br><br></p>Press 'continue' to show the instructions.<br><br><br><br></div>,0,ospan,instruct,tIr7bcthaucBlXbrpcYyxKemv8u1,html-button-response,51,359979,0.0-43.0-0.0-0.0-0.0,,,,,,,,,,,,,,,607d6e86f96c147cf2b3223c,16:19:49,04/03/2024
7411.300000011921,"<div class = 'left_align' style='font-size: 3.25rem; line-height: 1.3;'><p class = 'center_align'><b>Symmetry and Memory Task</b><br><br></p>In this task, you will try to memorize letters you see on the screen<br>while you also view black and white grid pictures.<br><br>In the next few minutes, you will have some practice to get you familiar<br>with how the task works.<br><br>It may be difficult sometimes, but please do not worry about making mistakes!<br><br>We will begin by practicing the letter part of the task.<br><br><br><br></div>",0,ospan,instruct,tIr7bcthaucBlXbrpcYyxKemv8u1,html-button-response,52,367643,0.0-43.0-0.0-0.0-1.0,,,,,,,,,,,,,,,607d6e86f96c147cf2b3223c,16:19:49,04/03/2024
5048.0,"<div class = 'left_align' style='font-size: 3.25rem; line-height: 1.3;'>For this practice part, letters will appear on the screen one at a time.<br><br>Try to remember each letter in the order presented.<br><br>After some letters have been shown, you will see a response screen. Your<br>goal is to report the letters you saw <b>in order</b>. If you do not remember<br>a particular letter, you will have the option to leave it blank.<br><br><br><br></div>",0,ospan,instruct,tIr7bcthaucBlXbrpcYyxKemv8u1,html-button-response,53,372950,0.0-43.0-0.0-0.0-2.0,,,,,,,,,,,,,,,607d6e86f96c147cf2b3223c,16:19:49,04/03/2024
2176.199999988079,"<div class = 'left_align' style='font-size: 3.25rem; line-height: 1.3;'>Remember, it is very important to get the letters in the same<br>order as you see them.<br><br>When you are ready, you may begin the letter practice.</div><br><br><br><br>",0,ospan,instruct,tIr7bcthaucBlXbrpcYyxKemv8u1,html-button-response,54,375381,0.0-43.0-0.0-0.0-3.0,,,,,,,,,,,,,,,607d6e86f96c147cf2b3223c,16:19:49,04/03/2024
,"<p style=""font-size:75px;"">...</p>",,ospan,iti,tIr7bcthaucBlXbrpcYyxKemv8u1,html-keyboard-response,55,376643,0.0-43.0-0.0-1.0-0.0,,,,,,,,,,,,,,,607d6e86f96c147cf2b3223c,16:19:49,04/03/2024
,"<div style=""font-size: 10rem; color: #0000FF"">G</div>",,ospan,letter,tIr7bcthaucBlXbrpcYyxKemv8u1,html-keyboard-response,56,377655,0.0-43.0-0.0-1.0-1.0,,,,,,,,,,,,,,,607d6e86f96c147cf2b3223c,16:19:49,04/03/2024
,"<div style=""font-size: 10rem; color: #0000FF"">J</div>",,ospan,letter,tIr7bcthaucBlXbrpcYyxKemv8u1,html-keyboard-response,57,379425,0.0-43.0-0.0-1.0-2.0,,,,,,,,,,,,,,,607d6e86f96c147cf2b3223c,16:19:49,04/03/2024
8735.40000000596,"<div class = numbox><p style=""font-size: 2.4rem"">Please recall the letters you saw to the best of your ability. If you do not remember a particular letter, use the SKIP button.<br><b>(When you are ready to lock in your answer, press ENTER)</b></p><button id = button_1 class = ""square num-button"" onclick = ""recordClick(this)""><div class = content><div class = numbers>C</div></div></button><button id = button_2 class = ""square num-button"" onclick = ""recordClick(this)""><div class = content><div class = numbers>G</div></div></button><button id = button_3 class = ""square num-button"" onclick = ""recordClick(this)""><div class = content><div class = numbers>H</div></div></button><button id = button_4 class = ""square num-button"" onclick = ""recordClick(this)""><div class = content><div class = numbers>J</div></div></button><button id = button_5 class = ""square num-button"" onclick = ""recordClick(this)""><div class = content><div class = numbers>K</div></div></button><button id = button_6 class = ""square num-button"" onclick = ""recordClick(this)""><div class = content><div class = numbers>L</div></div></button><button id = button_7 class = ""square num-button"" onclick = ""recordClick(this)""><div class = content><div class = numbers>N</div></div></button><button id = button_8 class = ""square num-button"" onclick = ""recordClick(this)""><div class = content><div class = numbers>P</div></div></button><button id = button_9 class = ""square num-button"" onclick = ""recordClick(this)""><div class = content><div class = numbers>Q</div></div></button><button id = button_10 class = ""square num-button"" onclick = ""recordClick(this)""><div class = content><div class = numbers>R</div></div></button><button id = button_11 class = ""square num-button"" onclick = ""recordClick(this)""><div class = content><div class = numbers>S</div></div></button><button id = button_12 class = ""square num-button"" onclick = ""recordClick(this)""><div class = content><div class = numbers>Y</div></div></button><button class = clear_button id = ""ClearButton"" onclick = ""clearResponse()"">BACKSPACE</button><button class = blank_button id = ""BlankButton"" onclick = ""blankResponse()"">SKIP</button><p style=""font-size: 2.4rem""><u><b>Current Answer:</b></u></p><br><br><div id=echoed_txt style=""font-size: 5rem; color:blue;""><b></b></div></div>",enter,ospan,retrieval,tIr7bcthaucBlXbrpcYyxKemv8u1,html-keyboard-response,58,388914,0.0-43.0-0.0-1.0-3.0,NA,NA,NA,2.0,"[""G"",""J""]","[""G"",""J""]",1.0,2.0,"['<font color=""green"">G</font>', '<font color=""green"">J</font>']",,,,,,607d6e86f96c147cf2b3223c,16:19:49,04/03/2024
1102.4000000059605,"['<p style=""font-size:44px"">Letters:<br><br><br><font color=""green"">G</font> <font color=""green"">J</font></p><br><br>']",0,ospan,practice_feedback,tIr7bcthaucBlXbrpcYyxKemv8u1,html-button-response,59,390522,0.0-43.0-0.0-1.0-4.0,,,,,,,,,,,,,,,607d6e86f96c147cf2b3223c,16:19:49,04/03/2024
,"<p style=""font-size:75px;"">...</p>",,ospan,iti,tIr7bcthaucBlXbrpcYyxKemv8u1,html-keyboard-response,60,391525,0.0-43.0-0.0-2.0-0.0,,,,,,,,,,,,,,,607d6e86f96c147cf2b3223c,16:19:49,04/03/2024
,"<div style=""font-size: 10rem; color: #0000FF"">H</div>",,ospan,letter,tIr7bcthaucBlXbrpcYyxKemv8u1,html-keyboard-response,61,392526,0.0-43.0-0.0-2.0-1.0,,,,,,,,,,,,,,,607d6e86f96c147cf2b3223c,16:19:49,04/03/2024
,"<div style=""font-size: 10rem; color: #0000FF"">G</div>",,ospan,letter,tIr7bcthaucBlXbrpcYyxKemv8u1,html-keyboard-response,62,394294,0.0-43.0-0.0-2.0-2.0,,,,,,,,,,,,,,,607d6e86f96c147cf2b3223c,16:19:49,04/03/2024
,"<div style=""font-size: 10rem; color: #0000FF"">Q</div>",,ospan,letter,tIr7bcthaucBlXbrpcYyxKemv8u1,html-keyboard-response,63,396046,0.0-43.0-0.0-2.0-3.0,,,,,,,,,,,,,,,607d6e86f96c147cf2b3223c,16:19:49,04/03/2024
4205.299999982119,"<div class = numbox><p style=""font-size: 2.4rem"">Please recall the letters you saw to the best of your ability. If you do not remember a particular letter, use the SKIP button.<br><b>(When you are ready to lock in your answer, press ENTER)</b></p><button id = button_1 class = ""square num-button"" onclick = ""recordClick(this)""><div class = content><div class = numbers>C</div></div></button><button id = button_2 class = ""square num-button"" onclick = ""recordClick(this)""><div class = content><div class = numbers>G</div></div></button><button id = button_3 class = ""square num-button"" onclick = ""recordClick(this)""><div class = content><div class = numbers>H</div></div></button><button id = button_4 class = ""square num-button"" onclick = ""recordClick(this)""><div class = content><div class = numbers>J</div></div></button><button id = button_5 class = ""square num-button"" onclick = ""recordClick(this)""><div class = content><div class = numbers>K</div></div></button><button id = button_6 class = ""square num-button"" onclick = ""recordClick(this)""><div class = content><div class = numbers>L</div></div></button><button id = button_7 class = ""square num-button"" onclick = ""recordClick(this)""><div class = content><div class = numbers>N</div></div></button><button id = button_8 class = ""square num-button"" onclick = ""recordClick(this)""><div class = content><div class = numbers>P</div></div></button><button id = button_9 class = ""square num-button"" onclick = ""recordClick(this)""><div class = content><div class = numbers>Q</div></div></button><button id = button_10 class = ""square num-button"" onclick = ""recordClick(this)""><div class = content><div class = numbers>R</div></div></button><button id = button_11 class = ""square num-button"" onclick = ""recordClick(this)""><div class = content><div class = numbers>S</div></div></button><button id = button_12 class = ""square num-button"" onclick = ""recordClick(this)""><div class = content><div class = numbers>Y</div></div></button><button class = clear_button id = ""ClearButton"" onclick = ""clearResponse()"">BACKSPACE</button><button class = blank_button id = ""BlankButton"" onclick = ""blankResponse()"">SKIP</button><p style=""font-size: 2.4rem""><u><b>Current Answer:</b></u></p><br><br><div id=echoed_txt style=""font-size: 5rem; color:blue;""><b></b></div></div>",enter,ospan,retrieval,tIr7bcthaucBlXbrpcYyxKemv8u1,html-keyboard-response,64,401003,0.0-43.0-0.0-2.0-4.0,NA,NA,NA,3.0,"[""H"",""G"",""Q""]","[""H"",""G"",""Q""]",1.0,3.0,"['<font color=""green"">H</font>', '<font color=""green"">G</font>', '<font color=""green"">Q</font>']",,,,,,607d6e86f96c147cf2b3223c,16:19:49,04/03/2024
742.0,"['<p style=""font-size:44px"">Letters:<br><br><br><font color=""green"">H</font> <font color=""green"">G</font> <font color=""green"">Q</font></p><br><br>']",0,ospan,practice_feedback,tIr7bcthaucBlXbrpcYyxKemv8u1,html-button-response,65,402255,0.0-43.0-0.0-2.0-5.0,,,,,,,,,,,,,,,607d6e86f96c147cf2b3223c,16:19:49,04/03/2024
5433.9000000059605,"<div class = 'left_align' style='font-size: 3.25rem; line-height: 1.3;'>Now you will practice doing the <b>symmetry judgment part</b> of the experiment.<br><br>A black and white grid picture will appear on the screen and you have to judge if it is <br>symmetrical or asymetrical.<br><br>A picture is 'mirror' symmetrical if its left half is identical to the right half when flipped.<br>Here are examples of a symmetrical and an asymetrical picture:<br><br><center><img src='Stimuli/img/symm_instructions_extra.png' style='height:420px; width:900'></img></center><br>To judge symmetry, imagine you were to fold each picture down the middle, like a book –<br>would the left half match the right half when folded onto each other?<br><br></div><br>",0,ospan,instruct,tIr7bcthaucBlXbrpcYyxKemv8u1,html-button-response,66,407690,0.0-43.0-1.0-0.0-0.0,,,,,,,,,,,,,,,607d6e86f96c147cf2b3223c,16:19:49,04/03/2024
1899.0,"<div class = 'left_align' style='font-size: 3.25rem; line-height: 1.3;'>When you have viewed the picture and determined whether it is symmetrical or not,<br>you can <b>click the Yes or No button</b> below to answer.<br><br>If you take longer than 15 seconds, it will continue automatically<br>and record the answer as an error.</div><br>",0,ospan,instruct,tIr7bcthaucBlXbrpcYyxKemv8u1,html-button-response,67,409841,0.0-43.0-1.0-0.0-1.0,,,,,,,,,,,,,,,607d6e86f96c147cf2b3223c,16:19:49,04/03/2024
1394.300000011921,"<div class = 'left_align' style='font-size: 3.25rem; line-height: 1.3;'>It is <b>very</b> important that you make the symmetry judgment correctly.<br><br>It is also important that you try and judge the picture as quickly as you can.<br><br>When you are ready, click on the button below to try some practice problems.</div><br><br><br><br>",0,ospan,instruct,tIr7bcthaucBlXbrpcYyxKemv8u1,html-button-response,68,411497,0.0-43.0-1.0-0.0-2.0,,,,,,,,,,,,,,,607d6e86f96c147cf2b3223c,16:19:49,04/03/2024
1551.0,,,ospan,symmetry,tIr7bcthaucBlXbrpcYyxKemv8u1,symmetry-judgement-task,69,413862,0.0-43.0-1.0-1.0-0.0,,,,,,,,,,1.0,1.0,,,,607d6e86f96c147cf2b3223c,16:19:49,04/03/2024
,"<p style=""color:green; font-size: 35px"">Correct</p>",,ospan,feedback,tIr7bcthaucBlXbrpcYyxKemv8u1,html-keyboard-response,70,414627,0.0-43.0-1.0-1.0-1.0,,,,,,,,,,,,,,,607d6e86f96c147cf2b3223c,16:19:49,04/03/2024
1047.0,,,ospan,symmetry,tIr7bcthaucBlXbrpcYyxKemv8u1,symmetry-judgement-task,71,418341,0.0-43.0-1.0-1.0-2.0,,,,,,,,,,1.0,1.0,,,,607d6e86f96c147cf2b3223c,16:19:49,04/03/2024
,"<p style=""color:green; font-size: 35px"">Correct</p>",,ospan,feedback,tIr7bcthaucBlXbrpcYyxKemv8u1,html-keyboard-response,72,419097,0.0-43.0-1.0-1.0-3.0,,,,,,,,,,,,,,,607d6e86f96c147cf2b3223c,16:19:49,04/03/2024
1257.0,,,ospan,symmetry,tIr7bcthaucBlXbrpcYyxKemv8u1,symmetry-judgement-task,73,422902,0.0-43.0-1.0-1.0-4.0,,,,,,,,,,1.0,1.0,,,,607d6e86f96c147cf2b3223c,16:19:49,04/03/2024
,"<p style=""color:green; font-size: 35px"">Correct</p>",,ospan,feedback,tIr7bcthaucBlXbrpcYyxKemv8u1,html-keyboard-response,74,423666,0.0-43.0-1.0-1.0-5.0,,,,,,,,,,,,,,,607d6e86f96c147cf2b3223c,16:19:49,04/03/2024
1200.4000000059605,"<p style=""font-size: 3rem;"">You responded correctly on 3 of 3 symmetry judgments. Good job!</p><br><br>",0,ospan,practice,tIr7bcthaucBlXbrpcYyxKemv8u1,html-button-response,75,426882,0.0-43.0-1.0-2.0,,,,,,,,,,,,,,,607d6e86f96c147cf2b3223c,16:19:49,04/03/2024
2817.5999999940395,"<div class = 'left_align' style='font-size: 3.25rem; line-height: 1.3;'>Now you will practice doing both parts of the experiment at the same time.<br><br>In the next practice set, you will be given one grid picture to judge.<br>Then letter will appear on the screen. Try to remember the letter.<br><br>It is <b>very important</b> to make the symmetry judgment as quickly and accurately as possible.<br><br>Just as before, once you have make the symmetry judgment, you can click Yes or No.<br><b>Note that you will no longer see Correct or Incorrect feedback.</div><br><br><br><br>",0,ospan,instruct,tIr7bcthaucBlXbrpcYyxKemv8u1,html-button-response,76,429961,0.0-43.0-2.0-0.0-0.0,,,,,,,,,,,,,,,607d6e86f96c147cf2b3223c,16:19:49,04/03/2024
4107.300000011921,"<div class = 'left_align' style='font-size: 3.25rem; line-height: 1.3;'>After the letter goes away, another grid picture will appear, and then<br>another letter.<br><br>At the end of each set of letters and grids, you will recall the letters to the best<br>of your ability. Remember, try your best to get the letters in the correct order.<br><br>It is important to <b>quickly</b> and <b>accurately</b> make the symmetry judgments.</div><br><br><br><br>",0,ospan,instruct,tIr7bcthaucBlXbrpcYyxKemv8u1,html-button-response,77,434327,0.0-43.0-2.0-0.0-1.0,,,,,,,,,,,,,,,607d6e86f96c147cf2b3223c,16:19:49,04/03/2024
5482.800000011921,"<div class = 'left_align' style='font-size: 3.25rem; line-height: 1.3;'>On the feedback screen, if you are not doing well at the symmetry judgments,<br>you will also see a warning in the middle. This indicates your percent <br>correct for the grid pictures for the entire experiment.<br><br>It is <b>very</b> important for you to keep accuracy at least at 85%: <u>We can only use<br>data where the participant was at least 85% accurate on the judgments.</u> Therefore,<br> please try your best to perform well on the symmetry judgments, <b>at the same time</b><br>doing your best to recall as many letters as possible.<br><br>Click the button to try some practice problems.</div><br><br><br><br>",0,ospan,instruct,tIr7bcthaucBlXbrpcYyxKemv8u1,html-button-response,78,440070,0.0-43.0-2.0-0.0-2.0,,,,,,,,,,,,,,,607d6e86f96c147cf2b3223c,16:19:49,04/03/2024
,"<p style=""font-size:75px;"">...</p>",,ospan,iti,tIr7bcthaucBlXbrpcYyxKemv8u1,html-keyboard-response,79,441328,0.0-43.0-2.0-1.0-0.0,,,,,,,,,,,,,,,607d6e86f96c147cf2b3223c,16:19:49,04/03/2024
2122.0,,,ospan,symmetry,tIr7bcthaucBlXbrpcYyxKemv8u1,symmetry-judgement-task,80,444486,0.0-43.0-2.0-1.0-1.0-0.0,,,,,,,,,,1.0,1.0,,,,607d6e86f96c147cf2b3223c,16:19:49,04/03/2024
,"<div style=""font-size: 10rem; color: #0000FF"">S</div>",,ospan,letter,tIr7bcthaucBlXbrpcYyxKemv8u1,html-keyboard-response,81,445502,0.0-43.0-2.0-1.0-1.0-1.0,,,,,,,,,,,,,,,607d6e86f96c147cf2b3223c,16:19:49,04/03/2024
2160.0,,,ospan,symmetry,tIr7bcthaucBlXbrpcYyxKemv8u1,symmetry-judgement-task,82,449589,0.0-43.0-2.0-1.0-1.0-2.0,,,,,,,,,,1.0,1.0,,,,607d6e86f96c147cf2b3223c,16:19:49,04/03/2024
,"<div style=""font-size: 10rem; color: #0000FF"">N</div>",,ospan,letter,tIr7bcthaucBlXbrpcYyxKemv8u1,html-keyboard-response,83,450603,0.0-43.0-2.0-1.0-1.0-3.0,,,,,,,,,,,,,,,607d6e86f96c147cf2b3223c,16:19:49,04/03/2024
1159.0,,,ospan,symmetry,tIr7bcthaucBlXbrpcYyxKemv8u1,symmetry-judgement-task,84,453666,0.0-43.0-2.0-1.0-1.0-4.0,,,,,,,,,,1.0,1.0,,,,607d6e86f96c147cf2b3223c,16:19:49,04/03/2024
,"<div style=""font-size: 10rem; color: #0000FF"">H</div>",,ospan,letter,tIr7bcthaucBlXbrpcYyxKemv8u1,html-keyboard-response,85,454676,0.0-43.0-2.0-1.0-1.0-5.0,,,,,,,,,,,,,,,607d6e86f96c147cf2b3223c,16:19:49,04/03/2024
3247.199999988079,"<div class = numbox><p style=""font-size: 2.4rem"">Please recall the letters you saw to the best of your ability. If you do not remember a particular letter, use the SKIP button.<br><b>(When you are ready to lock in your answer, press ENTER)</b></p><button id = button_1 class = ""square num-button"" onclick = ""recordClick(this)""><div class = content><div class = numbers>C</div></div></button><button id = button_2 class = ""square num-button"" onclick = ""recordClick(this)""><div class = content><div class = numbers>G</div></div></button><button id = button_3 class = ""square num-button"" onclick = ""recordClick(this)""><div class = content><div class = numbers>H</div></div></button><button id = button_4 class = ""square num-button"" onclick = ""recordClick(this)""><div class = content><div class = numbers>J</div></div></button><button id = button_5 class = ""square num-button"" onclick = ""recordClick(this)""><div class = content><div class = numbers>K</div></div></button><button id = button_6 class = ""square num-button"" onclick = ""recordClick(this)""><div class = content><div class = numbers>L</div></div></button><button id = button_7 class = ""square num-button"" onclick = ""recordClick(this)""><div class = content><div class = numbers>N</div></div></button><button id = button_8 class = ""square num-button"" onclick = ""recordClick(this)""><div class = content><div class = numbers>P</div></div></button><button id = button_9 class = ""square num-button"" onclick = ""recordClick(this)""><div class = content><div class = numbers>Q</div></div></button><button id = button_10 class = ""square num-button"" onclick = ""recordClick(this)""><div class = content><div class = numbers>R</div></div></button><button id = button_11 class = ""square num-button"" onclick = ""recordClick(this)""><div class = content><div class = numbers>S</div></div></button><button id = button_12 class = ""square num-button"" onclick = ""recordClick(this)""><div class = content><div class = numbers>Y</div></div></button><button class = clear_button id = ""ClearButton"" onclick = ""clearResponse()"">BACKSPACE</button><button class = blank_button id = ""BlankButton"" onclick = ""blankResponse()"">SKIP</button><p style=""font-size: 2.4rem""><u><b>Current Answer:</b></u></p><br><br><div id=echoed_txt style=""font-size: 5rem; color:blue;""><b></b></div></div>",enter,ospan,retrieval,tIr7bcthaucBlXbrpcYyxKemv8u1,html-keyboard-response,86,458684,0.0-43.0-2.0-1.0-2.0-0.0,NA,NA,NA,3.0,"[""S"",""N"",""H""]","[""S"",""N"",""H""]",1.0,3.0,"['<font color=""green"">S</font>', '<font color=""green"">N</font>', '<font color=""green"">H</font>']",,,,,,607d6e86f96c147cf2b3223c,16:19:49,04/03/2024
1328.0,"['<p style=""font-size:44px"">Letters:<br><br><br><font color=""green"">S</font> <font color=""green"">N</font> <font color=""green"">H</font></p><br><br><p style=""font-size:30px"">Symmetry:<br><br><font color=""green"">100%</font></p><br><br>']",0,ospan,practice_feedback,tIr7bcthaucBlXbrpcYyxKemv8u1,html-button-response,87,460525,0.0-43.0-2.0-1.0-2.0-1.0,,,,,,,,,,,,,,,607d6e86f96c147cf2b3223c,16:19:49,04/03/2024
,"<p style=""font-size:75px;"">...</p>",,ospan,iti,tIr7bcthaucBlXbrpcYyxKemv8u1,html-keyboard-response,88,461529,0.0-43.0-2.0-2.0-0.0,,,,,,,,,,,,,,,607d6e86f96c147cf2b3223c,16:19:49,04/03/2024
1346.0,,,ospan,symmetry,tIr7bcthaucBlXbrpcYyxKemv8u1,symmetry-judgement-task,89,463918,0.0-43.0-2.0-2.0-1.0-0.0,,,,,,,,,,1.0,1.0,,,,607d6e86f96c147cf2b3223c,16:19:49,04/03/2024
,"<div style=""font-size: 10rem; color: #0000FF"">Q</div>",,ospan,letter,tIr7bcthaucBlXbrpcYyxKemv8u1,html-keyboard-response,90,464928,0.0-43.0-2.0-2.0-1.0-1.0,,,,,,,,,,,,,,,607d6e86f96c147cf2b3223c,16:19:49,04/03/2024
1068.0,,,ospan,symmetry,tIr7bcthaucBlXbrpcYyxKemv8u1,symmetry-judgement-task,91,467915,0.0-43.0-2.0-2.0-1.0-2.0,,,,,,,,,,1.0,1.0,,,,607d6e86f96c147cf2b3223c,16:19:49,04/03/2024
,"<div style=""font-size: 10rem; color: #0000FF"">L</div>",,ospan,letter,tIr7bcthaucBlXbrpcYyxKemv8u1,html-keyboard-response,92,468929,0.0-43.0-2.0-2.0-1.0-3.0,,,,,,,,,,,,,,,607d6e86f96c147cf2b3223c,16:19:49,04/03/2024
985.0,,,ospan,symmetry,tIr7bcthaucBlXbrpcYyxKemv8u1,symmetry-judgement-task,93,471847,0.0-43.0-2.0-2.0-1.0-4.0,,,,,,,,,,1.0,1.0,,,,607d6e86f96c147cf2b3223c,16:19:49,04/03/2024
,"<div style=""font-size: 10rem; color: #0000FF"">H</div>",,ospan,letter,tIr7bcthaucBlXbrpcYyxKemv8u1,html-keyboard-response,94,472849,0.0-43.0-2.0-2.0-1.0-5.0,,,,,,,,,,,,,,,607d6e86f96c147cf2b3223c,16:19:49,04/03/2024
3845.0999999940395,"<div class = numbox><p style=""font-size: 2.4rem"">Please recall the letters you saw to the best of your ability. If you do not remember a particular letter, use the SKIP button.<br><b>(When you are ready to lock in your answer, press ENTER)</b></p><button id = button_1 class = ""square num-button"" onclick = ""recordClick(this)""><div class = content><div class = numbers>C</div></div></button><button id = button_2 class = ""square num-button"" onclick = ""recordClick(this)""><div class = content><div class = numbers>G</div></div></button><button id = button_3 class = ""square num-button"" onclick = ""recordClick(this)""><div class = content><div class = numbers>H</div></div></button><button id = button_4 class = ""square num-button"" onclick = ""recordClick(this)""><div class = content><div class = numbers>J</div></div></button><button id = button_5 class = ""square num-button"" onclick = ""recordClick(this)""><div class = content><div class = numbers>K</div></div></button><button id = button_6 class = ""square num-button"" onclick = ""recordClick(this)""><div class = content><div class = numbers>L</div></div></button><button id = button_7 class = ""square num-button"" onclick = ""recordClick(this)""><div class = content><div class = numbers>N</div></div></button><button id = button_8 class = ""square num-button"" onclick = ""recordClick(this)""><div class = content><div class = numbers>P</div></div></button><button id = button_9 class = ""square num-button"" onclick = ""recordClick(this)""><div class = content><div class = numbers>Q</div></div></button><button id = button_10 class = ""square num-button"" onclick = ""recordClick(this)""><div class = content><div class = numbers>R</div></div></button><button id = button_11 class = ""square num-button"" onclick = ""recordClick(this)""><div class = content><div class = numbers>S</div></div></button><button id = button_12 class = ""square num-button"" onclick = ""recordClick(this)""><div class = content><div class = numbers>Y</div></div></button><button class = clear_button id = ""ClearButton"" onclick = ""clearResponse()"">BACKSPACE</button><button class = blank_button id = ""BlankButton"" onclick = ""blankResponse()"">SKIP</button><p style=""font-size: 2.4rem""><u><b>Current Answer:</b></u></p><br><br><div id=echoed_txt style=""font-size: 5rem; color:blue;""><b></b></div></div>",enter,ospan,retrieval,tIr7bcthaucBlXbrpcYyxKemv8u1,html-keyboard-response,95,477457,0.0-43.0-2.0-2.0-2.0-0.0,NA,NA,NA,3.0,"[""Q"",""L"",""H""]","[""Q"",""L"",""H""]",1.0,3.0,"['<font color=""green"">Q</font>', '<font color=""green"">L</font>', '<font color=""green"">H</font>']",,,,,,607d6e86f96c147cf2b3223c,16:19:49,04/03/2024
834.9000000059605,"['<p style=""font-size:44px"">Letters:<br><br><br><font color=""green"">Q</font> <font color=""green"">L</font> <font color=""green"">H</font></p><br><br><p style=""font-size:30px"">Symmetry:<br><br><font color=""green"">100%</font></p><br><br>']",0,ospan,practice_feedback,tIr7bcthaucBlXbrpcYyxKemv8u1,html-button-response,96,478795,0.0-43.0-2.0-2.0-2.0-1.0,,,,,,,,,,,,,,,607d6e86f96c147cf2b3223c,16:19:49,04/03/2024
12703.299999982119,"<div class = 'left_align' style='font-size: 3rem; line-height: 1.3;'><b>Great work! That is the end of practice.</b><br><br>The real trials will look just like the practice trials you just completed.<br><br><u>Here, you will not see feedback</u>. First, you will see an grid picture to judge,<br>then a letter to remember. When the recall screen appears, report the letters in the<br>order presented. If you forget a letter, remember to use the <b>blank</b> button to move to the<br>next letter. Some of the sets will have more symmetry grids and letters than others.<br><br>It is important that you do your best on both the symmetry judgments and the letter recall<br>parts of the experiment. For for the symmetry judgments, try to work as <b>quickly</b> and <br>as <b>accurately</b> as possible. Remember to keep your symmetry accuracy at 85% or above.<br><br><b>For the letters, do NOT use any external aid (e.g., writing on paper, electronic device).</b><br><br>It is <u>very important</u> to our experiment to have a <b>true</b> view of your real performance.<br><br>Do not worry if you miss some when it gets hard! This task is meant to be very challenging!<br><br>Click the button to begin.</div><br><br><br><br>",0,ospan,starting_real_here,tIr7bcthaucBlXbrpcYyxKemv8u1,html-button-response,97,491499,0.0-43.0-2.0-3.0,,,,,,,,,,,,,,,607d6e86f96c147cf2b3223c,16:19:49,04/03/2024
,"<p style=""font-size:75px;"">...</p>",,ospan,iti,tIr7bcthaucBlXbrpcYyxKemv8u1,html-keyboard-response,98,492754,0.0-43.0-3.0-0.0-0.0,,,,,,,,,,,,,,,607d6e86f96c147cf2b3223c,16:19:49,04/03/2024
1604.0,,,ospan,symmetry,tIr7bcthaucBlXbrpcYyxKemv8u1,symmetry-judgement-task,99,495392,0.0-43.0-3.0-0.0-1.0-0.0,,,,,,,,,,1.0,1.0,,,,607d6e86f96c147cf2b3223c,16:19:49,04/03/2024
,"<div style=""font-size: 10rem; color: #0000FF"">R</div>",,ospan,letter,tIr7bcthaucBlXbrpcYyxKemv8u1,html-keyboard-response,100,496407,0.0-43.0-3.0-0.0-1.0-1.0,,,,,,,,,,,,,,,607d6e86f96c147cf2b3223c,16:19:49,04/03/2024
1093.0,,,ospan,symmetry,tIr7bcthaucBlXbrpcYyxKemv8u1,symmetry-judgement-task,101,499434,0.0-43.0-3.0-0.0-1.0-2.0,,,,,,,,,,1.0,1.0,,,,607d6e86f96c147cf2b3223c,16:19:49,04/03/2024
,"<div style=""font-size: 10rem; color: #0000FF"">Y</div>",,ospan,letter,tIr7bcthaucBlXbrpcYyxKemv8u1,html-keyboard-response,102,500446,0.0-43.0-3.0-0.0-1.0-3.0,,,,,,,,,,,,,,,607d6e86f96c147cf2b3223c,16:19:49,04/03/2024
892.0,,,ospan,symmetry,tIr7bcthaucBlXbrpcYyxKemv8u1,symmetry-judgement-task,103,503264,0.0-43.0-3.0-0.0-1.0-4.0,,,,,,,,,,1.0,1.0,,,,607d6e86f96c147cf2b3223c,16:19:49,04/03/2024
,"<div style=""font-size: 10rem; color: #0000FF"">N</div>",,ospan,letter,tIr7bcthaucBlXbrpcYyxKemv8u1,html-keyboard-response,104,504265,0.0-43.0-3.0-0.0-1.0-5.0,,,,,,,,,,,,,,,607d6e86f96c147cf2b3223c,16:19:49,04/03/2024
3240.0,"<div class = numbox><p style=""font-size: 2.4rem"">Please recall the letters you saw to the best of your ability. If you do not remember a particular letter, use the SKIP button.<br><b>(When you are ready to lock in your answer, press ENTER)</b></p><button id = button_1 class = ""square num-button"" onclick = ""recordClick(this)""><div class = content><div class = numbers>C</div></div></button><button id = button_2 class = ""square num-button"" onclick = ""recordClick(this)""><div class = content><div class = numbers>G</div></div></button><button id = button_3 class = ""square num-button"" onclick = ""recordClick(this)""><div class = content><div class = numbers>H</div></div></button><button id = button_4 class = ""square num-button"" onclick = ""recordClick(this)""><div class = content><div class = numbers>J</div></div></button><button id = button_5 class = ""square num-button"" onclick = ""recordClick(this)""><div class = content><div class = numbers>K</div></div></button><button id = button_6 class = ""square num-button"" onclick = ""recordClick(this)""><div class = content><div class = numbers>L</div></div></button><button id = button_7 class = ""square num-button"" onclick = ""recordClick(this)""><div class = content><div class = numbers>N</div></div></button><button id = button_8 class = ""square num-button"" onclick = ""recordClick(this)""><div class = content><div class = numbers>P</div></div></button><button id = button_9 class = ""square num-button"" onclick = ""recordClick(this)""><div class = content><div class = numbers>Q</div></div></button><button id = button_10 class = ""square num-button"" onclick = ""recordClick(this)""><div class = content><div class = numbers>R</div></div></button><button id = button_11 class = ""square num-button"" onclick = ""recordClick(this)""><div class = content><div class = numbers>S</div></div></button><button id = button_12 class = ""square num-button"" onclick = ""recordClick(this)""><div class = content><div class = numbers>Y</div></div></button><button class = clear_button id = ""ClearButton"" onclick = ""clearResponse()"">BACKSPACE</button><button class = blank_button id = ""BlankButton"" onclick = ""blankResponse()"">SKIP</button><p style=""font-size: 2.4rem""><u><b>Current Answer:</b></u></p><br><br><div id=echoed_txt style=""font-size: 5rem; color:blue;""><b></b></div></div>",enter,ospan,retrieval,tIr7bcthaucBlXbrpcYyxKemv8u1,html-keyboard-response,105,508259,0.0-43.0-3.0-0.0-2.0,3,3,3,3.0,"[""R"",""Y"",""N""]","[""R"",""Y"",""N""]",1.0,3.0,,,,,,,607d6e86f96c147cf2b3223c,16:19:49,04/03/2024
889.1999999880791,[''],0,ospan,feedback,tIr7bcthaucBlXbrpcYyxKemv8u1,html-button-response,106,509651,0.0-43.0-3.0-0.0-3.0,,,,,,,,,,,,100.0,0.0,,607d6e86f96c147cf2b3223c,16:19:49,04/03/2024
,"<p style=""font-size:75px;"">...</p>",,ospan,iti,tIr7bcthaucBlXbrpcYyxKemv8u1,html-keyboard-response,107,510653,0.0-43.0-4.0-0.0-0.0,,,,,,,,,,,,,,,607d6e86f96c147cf2b3223c,16:19:49,04/03/2024
1164.0,,,ospan,symmetry,tIr7bcthaucBlXbrpcYyxKemv8u1,symmetry-judgement-task,108,512977,0.0-43.0-4.0-0.0-1.0-0.0,,,,,,,,,,1.0,1.0,,,,607d6e86f96c147cf2b3223c,16:19:49,04/03/2024
,"<div style=""font-size: 10rem; color: #0000FF"">Y</div>",,ospan,letter,tIr7bcthaucBlXbrpcYyxKemv8u1,html-keyboard-response,109,513979,0.0-43.0-4.0-0.0-1.0-1.0,,,,,,,,,,,,,,,607d6e86f96c147cf2b3223c,16:19:49,04/03/2024
1518.0,,,ospan,symmetry,tIr7bcthaucBlXbrpcYyxKemv8u1,symmetry-judgement-task,110,517410,0.0-43.0-4.0-0.0-1.0-2.0,,,,,,,,,,1.0,1.0,,,,607d6e86f96c147cf2b3223c,16:19:49,04/03/2024
,"<div style=""font-size: 10rem; color: #0000FF"">K</div>",,ospan,letter,tIr7bcthaucBlXbrpcYyxKemv8u1,html-keyboard-response,111,518411,0.0-43.0-4.0-0.0-1.0-3.0,,,,,,,,,,,,,,,607d6e86f96c147cf2b3223c,16:19:49,04/03/2024
1984.0,,,ospan,symmetry,tIr7bcthaucBlXbrpcYyxKemv8u1,symmetry-judgement-task,112,522328,0.0-43.0-4.0-0.0-1.0-4.0,,,,,,,,,,1.0,1.0,,,,607d6e86f96c147cf2b3223c,16:19:49,04/03/2024
,"<div style=""font-size: 10rem; color: #0000FF"">G</div>",,ospan,letter,tIr7bcthaucBlXbrpcYyxKemv8u1,html-keyboard-response,113,523333,0.0-43.0-4.0-0.0-1.0-5.0,,,,,,,,,,,,,,,607d6e86f96c147cf2b3223c,16:19:49,04/03/2024
1263.0,,,ospan,symmetry,tIr7bcthaucBlXbrpcYyxKemv8u1,symmetry-judgement-task,114,526510,0.0-43.0-4.0-0.0-1.0-6.0,,,,,,,,,,1.0,1.0,,,,607d6e86f96c147cf2b3223c,16:19:49,04/03/2024
,"<div style=""font-size: 10rem; color: #0000FF"">N</div>",,ospan,letter,tIr7bcthaucBlXbrpcYyxKemv8u1,html-keyboard-response,115,527513,0.0-43.0-4.0-0.0-1.0-7.0,,,,,,,,,,,,,,,607d6e86f96c147cf2b3223c,16:19:49,04/03/2024
4562.399999976158,"<div class = numbox><p style=""font-size: 2.4rem"">Please recall the letters you saw to the best of your ability. If you do not remember a particular letter, use the SKIP button.<br><b>(When you are ready to lock in your answer, press ENTER)</b></p><button id = button_1 class = ""square num-button"" onclick = ""recordClick(this)""><div class = content><div class = numbers>C</div></div></button><button id = button_2 class = ""square num-button"" onclick = ""recordClick(this)""><div class = content><div class = numbers>G</div></div></button><button id = button_3 class = ""square num-button"" onclick = ""recordClick(this)""><div class = content><div class = numbers>H</div></div></button><button id = button_4 class = ""square num-button"" onclick = ""recordClick(this)""><div class = content><div class = numbers>J</div></div></button><button id = button_5 class = ""square num-button"" onclick = ""recordClick(this)""><div class = content><div class = numbers>K</div></div></button><button id = button_6 class = ""square num-button"" onclick = ""recordClick(this)""><div class = content><div class = numbers>L</div></div></button><button id = button_7 class = ""square num-button"" onclick = ""recordClick(this)""><div class = content><div class = numbers>N</div></div></button><button id = button_8 class = ""square num-button"" onclick = ""recordClick(this)""><div class = content><div class = numbers>P</div></div></button><button id = button_9 class = ""square num-button"" onclick = ""recordClick(this)""><div class = content><div class = numbers>Q</div></div></button><button id = button_10 class = ""square num-button"" onclick = ""recordClick(this)""><div class = content><div class = numbers>R</div></div></button><button id = button_11 class = ""square num-button"" onclick = ""recordClick(this)""><div class = content><div class = numbers>S</div></div></button><button id = button_12 class = ""square num-button"" onclick = ""recordClick(this)""><div class = content><div class = numbers>Y</div></div></button><button class = clear_button id = ""ClearButton"" onclick = ""clearResponse()"">BACKSPACE</button><button class = blank_button id = ""BlankButton"" onclick = ""blankResponse()"">SKIP</button><p style=""font-size: 2.4rem""><u><b>Current Answer:</b></u></p><br><br><div id=echoed_txt style=""font-size: 5rem; color:blue;""><b></b></div></div>",enter,ospan,retrieval,tIr7bcthaucBlXbrpcYyxKemv8u1,html-keyboard-response,116,532841,0.0-43.0-4.0-0.0-2.0,7,7,7,4.0,"[""Y"",""K"",""G"",""N""]","[""Y"",""K"",""G"",""N""]",1.0,4.0,,,,,,,607d6e86f96c147cf2b3223c,16:19:49,04/03/2024
726.0,[''],0,ospan,feedback,tIr7bcthaucBlXbrpcYyxKemv8u1,html-button-response,117,534070,0.0-43.0-4.0-0.0-3.0,,,,,,,,,,,,100.0,0.0,,607d6e86f96c147cf2b3223c,16:19:49,04/03/2024
,"<p style=""font-size:75px;"">...</p>",,ospan,iti,tIr7bcthaucBlXbrpcYyxKemv8u1,html-keyboard-response,118,535079,0.0-43.0-4.0-1.0-0.0,,,,,,,,,,,,,,,607d6e86f96c147cf2b3223c,16:19:49,04/03/2024
1478.0,,,ospan,symmetry,tIr7bcthaucBlXbrpcYyxKemv8u1,symmetry-judgement-task,119,537723,0.0-43.0-4.0-1.0-1.0-0.0,,,,,,,,,,1.0,1.0,,,,607d6e86f96c147cf2b3223c,16:19:49,04/03/2024
,"<div style=""font-size: 10rem; color: #0000FF"">J</div>",,ospan,letter,tIr7bcthaucBlXbrpcYyxKemv8u1,html-keyboard-response,120,538734,0.0-43.0-4.0-1.0-1.0-1.0,,,,,,,,,,,,,,,607d6e86f96c147cf2b3223c,16:19:49,04/03/2024
1289.0,,,ospan,symmetry,tIr7bcthaucBlXbrpcYyxKemv8u1,symmetry-judgement-task,121,541941,0.0-43.0-4.0-1.0-1.0-2.0,,,,,,,,,,1.0,1.0,,,,607d6e86f96c147cf2b3223c,16:19:49,04/03/2024
,"<div style=""font-size: 10rem; color: #0000FF"">L</div>",,ospan,letter,tIr7bcthaucBlXbrpcYyxKemv8u1,html-keyboard-response,122,542952,0.0-43.0-4.0-1.0-1.0-3.0,,,,,,,,,,,,,,,607d6e86f96c147cf2b3223c,16:19:49,04/03/2024
974.0,,,ospan,symmetry,tIr7bcthaucBlXbrpcYyxKemv8u1,symmetry-judgement-task,123,545859,0.0-43.0-4.0-1.0-1.0-4.0,,,,,,,,,,1.0,1.0,,,,607d6e86f96c147cf2b3223c,16:19:49,04/03/2024
,"<div style=""font-size: 10rem; color: #0000FF"">H</div>",,ospan,letter,tIr7bcthaucBlXbrpcYyxKemv8u1,html-keyboard-response,124,546874,0.0-43.0-4.0-1.0-1.0-5.0,,,,,,,,,,,,,,,607d6e86f96c147cf2b3223c,16:19:49,04/03/2024
3995.0999999940395,"<div class = numbox><p style=""font-size: 2.4rem"">Please recall the letters you saw to the best of your ability. If you do not remember a particular letter, use the SKIP button.<br><b>(When you are ready to lock in your answer, press ENTER)</b></p><button id = button_1 class = ""square num-button"" onclick = ""recordClick(this)""><div class = content><div class = numbers>C</div></div></button><button id = button_2 class = ""square num-button"" onclick = ""recordClick(this)""><div class = content><div class = numbers>G</div></div></button><button id = button_3 class = ""square num-button"" onclick = ""recordClick(this)""><div class = content><div class = numbers>H</div></div></button><button id = button_4 class = ""square num-button"" onclick = ""recordClick(this)""><div class = content><div class = numbers>J</div></div></button><button id = button_5 class = ""square num-button"" onclick = ""recordClick(this)""><div class = content><div class = numbers>K</div></div></button><button id = button_6 class = ""square num-button"" onclick = ""recordClick(this)""><div class = content><div class = numbers>L</div></div></button><button id = button_7 class = ""square num-button"" onclick = ""recordClick(this)""><div class = content><div class = numbers>N</div></div></button><button id = button_8 class = ""square num-button"" onclick = ""recordClick(this)""><div class = content><div class = numbers>P</div></div></button><button id = button_9 class = ""square num-button"" onclick = ""recordClick(this)""><div class = content><div class = numbers>Q</div></div></button><button id = button_10 class = ""square num-button"" onclick = ""recordClick(this)""><div class = content><div class = numbers>R</div></div></button><button id = button_11 class = ""square num-button"" onclick = ""recordClick(this)""><div class = content><div class = numbers>S</div></div></button><button id = button_12 class = ""square num-button"" onclick = ""recordClick(this)""><div class = content><div class = numbers>Y</div></div></button><button class = clear_button id = ""ClearButton"" onclick = ""clearResponse()"">BACKSPACE</button><button class = blank_button id = ""BlankButton"" onclick = ""blankResponse()"">SKIP</button><p style=""font-size: 2.4rem""><u><b>Current Answer:</b></u></p><br><br><div id=echoed_txt style=""font-size: 5rem; color:blue;""><b></b></div></div>",enter,ospan,retrieval,tIr7bcthaucBlXbrpcYyxKemv8u1,html-keyboard-response,125,551635,0.0-43.0-4.0-1.0-2.0,10,10,10,3.0,"[""J"",""L"",""H""]","[""J"",""L"",""H""]",1.0,3.0,,,,,,,607d6e86f96c147cf2b3223c,16:19:49,04/03/2024
602.2999999821186,[''],0,ospan,feedback,tIr7bcthaucBlXbrpcYyxKemv8u1,html-button-response,126,552739,0.0-43.0-4.0-1.0-3.0,,,,,,,,,,,,100.0,0.0,,607d6e86f96c147cf2b3223c,16:19:49,04/03/2024
,"<p style=""font-size:75px;"">...</p>",,ospan,iti,tIr7bcthaucBlXbrpcYyxKemv8u1,html-keyboard-response,127,553754,0.0-43.0-4.0-2.0-0.0,,,,,,,,,,,,,,,607d6e86f96c147cf2b3223c,16:19:49,04/03/2024
1214.0,,,ospan,symmetry,tIr7bcthaucBlXbrpcYyxKemv8u1,symmetry-judgement-task,128,556146,0.0-43.0-4.0-2.0-1.0-0.0,,,,,,,,,,1.0,1.0,,,,607d6e86f96c147cf2b3223c,16:19:49,04/03/2024
,"<div style=""font-size: 10rem; color: #0000FF"">C</div>",,ospan,letter,tIr7bcthaucBlXbrpcYyxKemv8u1,html-keyboard-response,129,557152,0.0-43.0-4.0-2.0-1.0-1.0,,,,,,,,,,,,,,,607d6e86f96c147cf2b3223c,16:19:49,04/03/2024
1030.0,,,ospan,symmetry,tIr7bcthaucBlXbrpcYyxKemv8u1,symmetry-judgement-task,130,560096,0.0-43.0-4.0-2.0-1.0-2.0,,,,,,,,,,1.0,1.0,,,,607d6e86f96c147cf2b3223c,16:19:49,04/03/2024
,"<div style=""font-size: 10rem; color: #0000FF"">R</div>",,ospan,letter,tIr7bcthaucBlXbrpcYyxKemv8u1,html-keyboard-response,131,561107,0.0-43.0-4.0-2.0-1.0-3.0,,,,,,,,,,,,,,,607d6e86f96c147cf2b3223c,16:19:49,04/03/2024
884.0,,,ospan,symmetry,tIr7bcthaucBlXbrpcYyxKemv8u1,symmetry-judgement-task,132,563927,0.0-43.0-4.0-2.0-1.0-4.0,,,,,,,,,,1.0,1.0,,,,607d6e86f96c147cf2b3223c,16:19:49,04/03/2024
,"<div style=""font-size: 10rem; color: #0000FF"">L</div>",,ospan,letter,tIr7bcthaucBlXbrpcYyxKemv8u1,html-keyboard-response,133,564941,0.0-43.0-4.0-2.0-1.0-5.0,,,,,,,,,,,,,,,607d6e86f96c147cf2b3223c,16:19:49,04/03/2024
1733.0,,,ospan,symmetry,tIr7bcthaucBlXbrpcYyxKemv8u1,symmetry-judgement-task,134,568614,0.0-43.0-4.0-2.0-1.0-6.0,,,,,,,,,,1.0,1.0,,,,607d6e86f96c147cf2b3223c,16:19:49,04/03/2024
,"<div style=""font-size: 10rem; color: #0000FF"">P</div>",,ospan,letter,tIr7bcthaucBlXbrpcYyxKemv8u1,html-keyboard-response,135,569616,0.0-43.0-4.0-2.0-1.0-7.0,,,,,,,,,,,,,,,607d6e86f96c147cf2b3223c,16:19:49,04/03/2024
2004.0,,,ospan,symmetry,tIr7bcthaucBlXbrpcYyxKemv8u1,symmetry-judgement-task,136,573560,0.0-43.0-4.0-2.0-1.0-8.0,,,,,,,,,,1.0,1.0,,,,607d6e86f96c147cf2b3223c,16:19:49,04/03/2024
,"<div style=""font-size: 10rem; color: #0000FF"">Q</div>",,ospan,letter,tIr7bcthaucBlXbrpcYyxKemv8u1,html-keyboard-response,137,574564,0.0-43.0-4.0-2.0-1.0-9.0,,,,,,,,,,,,,,,607d6e86f96c147cf2b3223c,16:19:49,04/03/2024
7043.4000000059605,"<div class = numbox><p style=""font-size: 2.4rem"">Please recall the letters you saw to the best of your ability. If you do not remember a particular letter, use the SKIP button.<br><b>(When you are ready to lock in your answer, press ENTER)</b></p><button id = button_1 class = ""square num-button"" onclick = ""recordClick(this)""><div class = content><div class = numbers>C</div></div></button><button id = button_2 class = ""square num-button"" onclick = ""recordClick(this)""><div class = content><div class = numbers>G</div></div></button><button id = button_3 class = ""square num-button"" onclick = ""recordClick(this)""><div class = content><div class = numbers>H</div></div></button><button id = button_4 class = ""square num-button"" onclick = ""recordClick(this)""><div class = content><div class = numbers>J</div></div></button><button id = button_5 class = ""square num-button"" onclick = ""recordClick(this)""><div class = content><div class = numbers>K</div></div></button><button id = button_6 class = ""square num-button"" onclick = ""recordClick(this)""><div class = content><div class = numbers>L</div></div></button><button id = button_7 class = ""square num-button"" onclick = ""recordClick(this)""><div class = content><div class = numbers>N</div></div></button><button id = button_8 class = ""square num-button"" onclick = ""recordClick(this)""><div class = content><div class = numbers>P</div></div></button><button id = button_9 class = ""square num-button"" onclick = ""recordClick(this)""><div class = content><div class = numbers>Q</div></div></button><button id = button_10 class = ""square num-button"" onclick = ""recordClick(this)""><div class = content><div class = numbers>R</div></div></button><button id = button_11 class = ""square num-button"" onclick = ""recordClick(this)""><div class = content><div class = numbers>S</div></div></button><button id = button_12 class = ""square num-button"" onclick = ""recordClick(this)""><div class = content><div class = numbers>Y</div></div></button><button class = clear_button id = ""ClearButton"" onclick = ""clearResponse()"">BACKSPACE</button><button class = blank_button id = ""BlankButton"" onclick = ""blankResponse()"">SKIP</button><p style=""font-size: 2.4rem""><u><b>Current Answer:</b></u></p><br><br><div id=echoed_txt style=""font-size: 5rem; color:blue;""><b></b></div></div>",enter,ospan,retrieval,tIr7bcthaucBlXbrpcYyxKemv8u1,html-keyboard-response,138,582371,0.0-43.0-4.0-2.0-2.0,15,15,15,5.0,"[""C"",""R"",""L"",""P"",""Q""]","[""C"",""R"",""L"",""P"",""Q""]",1.0,5.0,,,,,,,607d6e86f96c147cf2b3223c,16:19:49,04/03/2024
821.1999999880791,[''],0,ospan,feedback,tIr7bcthaucBlXbrpcYyxKemv8u1,html-button-response,139,583707,0.0-43.0-4.0-2.0-3.0,,,,,,,,,,,,100.0,0.0,,607d6e86f96c147cf2b3223c,16:19:49,04/03/2024
,"<p style=""font-size:75px;"">...</p>",,ospan,iti,tIr7bcthaucBlXbrpcYyxKemv8u1,html-keyboard-response,140,584715,0.0-43.0-5.0-0.0-0.0,,,,,,,,,,,,,,,607d6e86f96c147cf2b3223c,16:19:49,04/03/2024
1138.0,,,ospan,symmetry,tIr7bcthaucBlXbrpcYyxKemv8u1,symmetry-judgement-task,141,587021,0.0-43.0-5.0-0.0-1.0-0.0,,,,,,,,,,1.0,1.0,,,,607d6e86f96c147cf2b3223c,16:19:49,04/03/2024
,"<div style=""font-size: 10rem; color: #0000FF"">Y</div>",,ospan,letter,tIr7bcthaucBlXbrpcYyxKemv8u1,html-keyboard-response,142,588036,0.0-43.0-5.0-0.0-1.0-1.0,,,,,,,,,,,,,,,607d6e86f96c147cf2b3223c,16:19:49,04/03/2024
1412.0,,,ospan,symmetry,tIr7bcthaucBlXbrpcYyxKemv8u1,symmetry-judgement-task,143,591363,0.0-43.0-5.0-0.0-1.0-2.0,,,,,,,,,,1.0,1.0,,,,607d6e86f96c147cf2b3223c,16:19:49,04/03/2024
,"<div style=""font-size: 10rem; color: #0000FF"">H</div>",,ospan,letter,tIr7bcthaucBlXbrpcYyxKemv8u1,html-keyboard-response,144,592369,0.0-43.0-5.0-0.0-1.0-3.0,,,,,,,,,,,,,,,607d6e86f96c147cf2b3223c,16:19:49,04/03/2024
1003.0,,,ospan,symmetry,tIr7bcthaucBlXbrpcYyxKemv8u1,symmetry-judgement-task,145,595160,0.0-43.0-5.0-0.0-1.0-4.0,,,,,,,,,,1.0,1.0,,,,607d6e86f96c147cf2b3223c,16:19:49,04/03/2024
,"<div style=""font-size: 10rem; color: #0000FF"">N</div>",,ospan,letter,tIr7bcthaucBlXbrpcYyxKemv8u1,html-keyboard-response,146,596165,0.0-43.0-5.0-0.0-1.0-5.0,,,,,,,,,,,,,,,607d6e86f96c147cf2b3223c,16:19:49,04/03/2024
1057.0,,,ospan,symmetry,tIr7bcthaucBlXbrpcYyxKemv8u1,symmetry-judgement-task,147,599143,0.0-43.0-5.0-0.0-1.0-6.0,,,,,,,,,,1.0,1.0,,,,607d6e86f96c147cf2b3223c,16:19:49,04/03/2024
,"<div style=""font-size: 10rem; color: #0000FF"">G</div>",,ospan,letter,tIr7bcthaucBlXbrpcYyxKemv8u1,html-keyboard-response,148,600145,0.0-43.0-5.0-0.0-1.0-7.0,,,,,,,,,,,,,,,607d6e86f96c147cf2b3223c,16:19:49,04/03/2024
1159.0,,,ospan,symmetry,tIr7bcthaucBlXbrpcYyxKemv8u1,symmetry-judgement-task,149,603214,0.0-43.0-5.0-0.0-1.0-8.0,,,,,,,,,,1.0,1.0,,,,607d6e86f96c147cf2b3223c,16:19:49,04/03/2024
,"<div style=""font-size: 10rem; color: #0000FF"">J</div>",,ospan,letter,tIr7bcthaucBlXbrpcYyxKemv8u1,html-keyboard-response,150,604221,0.0-43.0-5.0-0.0-1.0-9.0,,,,,,,,,,,,,,,607d6e86f96c147cf2b3223c,16:19:49,04/03/2024
1046.0,,,ospan,symmetry,tIr7bcthaucBlXbrpcYyxKemv8u1,symmetry-judgement-task,151,607185,0.0-43.0-5.0-0.0-1.0-10.0,,,,,,,,,,1.0,1.0,,,,607d6e86f96c147cf2b3223c,16:19:49,04/03/2024
,"<div style=""font-size: 10rem; color: #0000FF"">L</div>",,ospan,letter,tIr7bcthaucBlXbrpcYyxKemv8u1,html-keyboard-response,152,608200,0.0-43.0-5.0-0.0-1.0-11.0,,,,,,,,,,,,,,,607d6e86f96c147cf2b3223c,16:19:49,04/03/2024
7910.0,"<div class = numbox><p style=""font-size: 2.4rem"">Please recall the letters you saw to the best of your ability. If you do not remember a particular letter, use the SKIP button.<br><b>(When you are ready to lock in your answer, press ENTER)</b></p><button id = button_1 class = ""square num-button"" onclick = ""recordClick(this)""><div class = content><div class = numbers>C</div></div></button><button id = button_2 class = ""square num-button"" onclick = ""recordClick(this)""><div class = content><div class = numbers>G</div></div></button><button id = button_3 class = ""square num-button"" onclick = ""recordClick(this)""><div class = content><div class = numbers>H</div></div></button><button id = button_4 class = ""square num-button"" onclick = ""recordClick(this)""><div class = content><div class = numbers>J</div></div></button><button id = button_5 class = ""square num-button"" onclick = ""recordClick(this)""><div class = content><div class = numbers>K</div></div></button><button id = button_6 class = ""square num-button"" onclick = ""recordClick(this)""><div class = content><div class = numbers>L</div></div></button><button id = button_7 class = ""square num-button"" onclick = ""recordClick(this)""><div class = content><div class = numbers>N</div></div></button><button id = button_8 class = ""square num-button"" onclick = ""recordClick(this)""><div class = content><div class = numbers>P</div></div></button><button id = button_9 class = ""square num-button"" onclick = ""recordClick(this)""><div class = content><div class = numbers>Q</div></div></button><button id = button_10 class = ""square num-button"" onclick = ""recordClick(this)""><div class = content><div class = numbers>R</div></div></button><button id = button_11 class = ""square num-button"" onclick = ""recordClick(this)""><div class = content><div class = numbers>S</div></div></button><button id = button_12 class = ""square num-button"" onclick = ""recordClick(this)""><div class = content><div class = numbers>Y</div></div></button><button class = clear_button id = ""ClearButton"" onclick = ""clearResponse()"">BACKSPACE</button><button class = blank_button id = ""BlankButton"" onclick = ""blankResponse()"">SKIP</button><p style=""font-size: 2.4rem""><u><b>Current Answer:</b></u></p><br><br><div id=echoed_txt style=""font-size: 5rem; color:blue;""><b></b></div></div>",enter,ospan,retrieval,tIr7bcthaucBlXbrpcYyxKemv8u1,html-keyboard-response,153,616866,0.0-43.0-5.0-0.0-2.0,21,21,21,6.0,"[""Y"",""H"",""N"",""G"",""J"",""L""]","[""Y"",""H"",""N"",""G"",""J"",""L""]",1.0,6.0,,,,,,,607d6e86f96c147cf2b3223c,16:19:49,04/03/2024
640.1999999880791,[''],0,ospan,feedback,tIr7bcthaucBlXbrpcYyxKemv8u1,html-button-response,154,618018,0.0-43.0-5.0-0.0-3.0,,,,,,,,,,,,100.0,0.0,,607d6e86f96c147cf2b3223c,16:19:49,04/03/2024
,"<p style=""font-size:75px;"">...</p>",,ospan,iti,tIr7bcthaucBlXbrpcYyxKemv8u1,html-keyboard-response,155,619020,0.0-43.0-5.0-1.0-0.0,,,,,,,,,,,,,,,607d6e86f96c147cf2b3223c,16:19:49,04/03/2024
1375.0,,,ospan,symmetry,tIr7bcthaucBlXbrpcYyxKemv8u1,symmetry-judgement-task,156,621576,0.0-43.0-5.0-1.0-1.0-0.0,,,,,,,,,,1.0,1.0,,,,607d6e86f96c147cf2b3223c,16:19:49,04/03/2024
,"<div style=""font-size: 10rem; color: #0000FF"">G</div>",,ospan,letter,tIr7bcthaucBlXbrpcYyxKemv8u1,html-keyboard-response,157,622580,0.0-43.0-5.0-1.0-1.0-1.0,,,,,,,,,,,,,,,607d6e86f96c147cf2b3223c,16:19:49,04/03/2024
799.0,,,ospan,symmetry,tIr7bcthaucBlXbrpcYyxKemv8u1,symmetry-judgement-task,158,625300,0.0-43.0-5.0-1.0-1.0-2.0,,,,,,,,,,1.0,1.0,,,,607d6e86f96c147cf2b3223c,16:19:49,04/03/2024
,"<div style=""font-size: 10rem; color: #0000FF"">Q</div>",,ospan,letter,tIr7bcthaucBlXbrpcYyxKemv8u1,html-keyboard-response,159,626309,0.0-43.0-5.0-1.0-1.0-3.0,,,,,,,,,,,,,,,607d6e86f96c147cf2b3223c,16:19:49,04/03/2024
1907.0,,,ospan,symmetry,tIr7bcthaucBlXbrpcYyxKemv8u1,symmetry-judgement-task,160,630140,0.0-43.0-5.0-1.0-1.0-4.0,,,,,,,,,,1.0,1.0,,,,607d6e86f96c147cf2b3223c,16:19:49,04/03/2024
,"<div style=""font-size: 10rem; color: #0000FF"">L</div>",,ospan,letter,tIr7bcthaucBlXbrpcYyxKemv8u1,html-keyboard-response,161,631153,0.0-43.0-5.0-1.0-1.0-5.0,,,,,,,,,,,,,,,607d6e86f96c147cf2b3223c,16:19:49,04/03/2024
720.0,,,ospan,symmetry,tIr7bcthaucBlXbrpcYyxKemv8u1,symmetry-judgement-task,162,633782,0.0-43.0-5.0-1.0-1.0-6.0,,,,,,,,,,1.0,1.0,,,,607d6e86f96c147cf2b3223c,16:19:49,04/03/2024
,"<div style=""font-size: 10rem; color: #0000FF"">S</div>",,ospan,letter,tIr7bcthaucBlXbrpcYyxKemv8u1,html-keyboard-response,163,634787,0.0-43.0-5.0-1.0-1.0-7.0,,,,,,,,,,,,,,,607d6e86f96c147cf2b3223c,16:19:49,04/03/2024
1171.0,,,ospan,symmetry,tIr7bcthaucBlXbrpcYyxKemv8u1,symmetry-judgement-task,164,637886,0.0-43.0-5.0-1.0-1.0-8.0,,,,,,,,,,1.0,1.0,,,,607d6e86f96c147cf2b3223c,16:19:49,04/03/2024
,"<div style=""font-size: 10rem; color: #0000FF"">Y</div>",,ospan,letter,tIr7bcthaucBlXbrpcYyxKemv8u1,html-keyboard-response,165,638891,0.0-43.0-5.0-1.0-1.0-9.0,,,,,,,,,,,,,,,607d6e86f96c147cf2b3223c,16:19:49,04/03/2024
1602.0,,,ospan,symmetry,tIr7bcthaucBlXbrpcYyxKemv8u1,symmetry-judgement-task,166,642418,0.0-43.0-5.0-1.0-1.0-10.0,,,,,,,,,,1.0,1.0,,,,607d6e86f96c147cf2b3223c,16:19:49,04/03/2024
,"<div style=""font-size: 10rem; color: #0000FF"">C</div>",,ospan,letter,tIr7bcthaucBlXbrpcYyxKemv8u1,html-keyboard-response,167,643427,0.0-43.0-5.0-1.0-1.0-11.0,,,,,,,,,,,,,,,607d6e86f96c147cf2b3223c,16:19:49,04/03/2024
1816.0,,,ospan,symmetry,tIr7bcthaucBlXbrpcYyxKemv8u1,symmetry-judgement-task,168,647150,0.0-43.0-5.0-1.0-1.0-12.0,,,,,,,,,,1.0,1.0,,,,607d6e86f96c147cf2b3223c,16:19:49,04/03/2024
,"<div style=""font-size: 10rem; color: #0000FF"">R</div>",,ospan,letter,tIr7bcthaucBlXbrpcYyxKemv8u1,html-keyboard-response,169,648152,0.0-43.0-5.0-1.0-1.0-13.0,,,,,,,,,,,,,,,607d6e86f96c147cf2b3223c,16:19:49,04/03/2024
6141.9000000059605,"<div class = numbox><p style=""font-size: 2.4rem"">Please recall the letters you saw to the best of your ability. If you do not remember a particular letter, use the SKIP button.<br><b>(When you are ready to lock in your answer, press ENTER)</b></p><button id = button_1 class = ""square num-button"" onclick = ""recordClick(this)""><div class = content><div class = numbers>C</div></div></button><button id = button_2 class = ""square num-button"" onclick = ""recordClick(this)""><div class = content><div class = numbers>G</div></div></button><button id = button_3 class = ""square num-button"" onclick = ""recordClick(this)""><div class = content><div class = numbers>H</div></div></button><button id = button_4 class = ""square num-button"" onclick = ""recordClick(this)""><div class = content><div class = numbers>J</div></div></button><button id = button_5 class = ""square num-button"" onclick = ""recordClick(this)""><div class = content><div class = numbers>K</div></div></button><button id = button_6 class = ""square num-button"" onclick = ""recordClick(this)""><div class = content><div class = numbers>L</div></div></button><button id = button_7 class = ""square num-button"" onclick = ""recordClick(this)""><div class = content><div class = numbers>N</div></div></button><button id = button_8 class = ""square num-button"" onclick = ""recordClick(this)""><div class = content><div class = numbers>P</div></div></button><button id = button_9 class = ""square num-button"" onclick = ""recordClick(this)""><div class = content><div class = numbers>Q</div></div></button><button id = button_10 class = ""square num-button"" onclick = ""recordClick(this)""><div class = content><div class = numbers>R</div></div></button><button id = button_11 class = ""square num-button"" onclick = ""recordClick(this)""><div class = content><div class = numbers>S</div></div></button><button id = button_12 class = ""square num-button"" onclick = ""recordClick(this)""><div class = content><div class = numbers>Y</div></div></button><button class = clear_button id = ""ClearButton"" onclick = ""clearResponse()"">BACKSPACE</button><button class = blank_button id = ""BlankButton"" onclick = ""blankResponse()"">SKIP</button><p style=""font-size: 2.4rem""><u><b>Current Answer:</b></u></p><br><br><div id=echoed_txt style=""font-size: 5rem; color:blue;""><b></b></div></div>",enter,ospan,retrieval,tIr7bcthaucBlXbrpcYyxKemv8u1,html-keyboard-response,170,655051,0.0-43.0-5.0-1.0-2.0,28,27,21,7.0,"[""G"",""Q"",""L"",""S"",""Y"",""C""]","[""G"",""Q"",""L"",""S"",""Y"",""C"",""R""]",0.0,6.0,,,,,,,607d6e86f96c147cf2b3223c,16:19:49,04/03/2024
794.2000000178814,[''],0,ospan,feedback,tIr7bcthaucBlXbrpcYyxKemv8u1,html-button-response,171,656346,0.0-43.0-5.0-1.0-3.0,,,,,,,,,,,,100.0,0.0,,607d6e86f96c147cf2b3223c,16:19:49,04/03/2024
,"<p style=""font-size:75px;"">...</p>",,ospan,iti,tIr7bcthaucBlXbrpcYyxKemv8u1,html-keyboard-response,172,657352,0.0-43.0-6.0-0.0-0.0,,,,,,,,,,,,,,,607d6e86f96c147cf2b3223c,16:19:49,04/03/2024
2371.0,,,ospan,symmetry,tIr7bcthaucBlXbrpcYyxKemv8u1,symmetry-judgement-task,173,660895,0.0-43.0-6.0-0.0-1.0-0.0,,,,,,,,,,1.0,1.0,,,,607d6e86f96c147cf2b3223c,16:19:49,04/03/2024
,"<div style=""font-size: 10rem; color: #0000FF"">P</div>",,ospan,letter,tIr7bcthaucBlXbrpcYyxKemv8u1,html-keyboard-response,174,661901,0.0-43.0-6.0-0.0-1.0-1.0,,,,,,,,,,,,,,,607d6e86f96c147cf2b3223c,16:19:49,04/03/2024
999.0,,,ospan,symmetry,tIr7bcthaucBlXbrpcYyxKemv8u1,symmetry-judgement-task,175,664815,0.0-43.0-6.0-0.0-1.0-2.0,,,,,,,,,,1.0,1.0,,,,607d6e86f96c147cf2b3223c,16:19:49,04/03/2024
,"<div style=""font-size: 10rem; color: #0000FF"">H</div>",,ospan,letter,tIr7bcthaucBlXbrpcYyxKemv8u1,html-keyboard-response,176,665828,0.0-43.0-6.0-0.0-1.0-3.0,,,,,,,,,,,,,,,607d6e86f96c147cf2b3223c,16:19:49,04/03/2024
1189.0,,,ospan,symmetry,tIr7bcthaucBlXbrpcYyxKemv8u1,symmetry-judgement-task,177,668932,0.0-43.0-6.0-0.0-1.0-4.0,,,,,,,,,,1.0,1.0,,,,607d6e86f96c147cf2b3223c,16:19:49,04/03/2024
,"<div style=""font-size: 10rem; color: #0000FF"">S</div>",,ospan,letter,tIr7bcthaucBlXbrpcYyxKemv8u1,html-keyboard-response,178,669947,0.0-43.0-6.0-0.0-1.0-5.0,,,,,,,,,,,,,,,607d6e86f96c147cf2b3223c,16:19:49,04/03/2024
1184.0,,,ospan,symmetry,tIr7bcthaucBlXbrpcYyxKemv8u1,symmetry-judgement-task,179,673039,0.0-43.0-6.0-0.0-1.0-6.0,,,,,,,,,,1.0,1.0,,,,607d6e86f96c147cf2b3223c,16:19:49,04/03/2024
,"<div style=""font-size: 10rem; color: #0000FF"">Y</div>",,ospan,letter,tIr7bcthaucBlXbrpcYyxKemv8u1,html-keyboard-response,180,674041,0.0-43.0-6.0-0.0-1.0-7.0,,,,,,,,,,,,,,,607d6e86f96c147cf2b3223c,16:19:49,04/03/2024
868.0,,,ospan,symmetry,tIr7bcthaucBlXbrpcYyxKemv8u1,symmetry-judgement-task,181,676838,0.0-43.0-6.0-0.0-1.0-8.0,,,,,,,,,,1.0,1.0,,,,607d6e86f96c147cf2b3223c,16:19:49,04/03/2024
,"<div style=""font-size: 10rem; color: #0000FF"">Q</div>",,ospan,letter,tIr7bcthaucBlXbrpcYyxKemv8u1,html-keyboard-response,182,677843,0.0-43.0-6.0-0.0-1.0-9.0,,,,,,,,,,,,,,,607d6e86f96c147cf2b3223c,16:19:49,04/03/2024
4928.299999982119,"<div class = numbox><p style=""font-size: 2.4rem"">Please recall the letters you saw to the best of your ability. If you do not remember a particular letter, use the SKIP button.<br><b>(When you are ready to lock in your answer, press ENTER)</b></p><button id = button_1 class = ""square num-button"" onclick = ""recordClick(this)""><div class = content><div class = numbers>C</div></div></button><button id = button_2 class = ""square num-button"" onclick = ""recordClick(this)""><div class = content><div class = numbers>G</div></div></button><button id = button_3 class = ""square num-button"" onclick = ""recordClick(this)""><div class = content><div class = numbers>H</div></div></button><button id = button_4 class = ""square num-button"" onclick = ""recordClick(this)""><div class = content><div class = numbers>J</div></div></button><button id = button_5 class = ""square num-button"" onclick = ""recordClick(this)""><div class = content><div class = numbers>K</div></div></button><button id = button_6 class = ""square num-button"" onclick = ""recordClick(this)""><div class = content><div class = numbers>L</div></div></button><button id = button_7 class = ""square num-button"" onclick = ""recordClick(this)""><div class = content><div class = numbers>N</div></div></button><button id = button_8 class = ""square num-button"" onclick = ""recordClick(this)""><div class = content><div class = numbers>P</div></div></button><button id = button_9 class = ""square num-button"" onclick = ""recordClick(this)""><div class = content><div class = numbers>Q</div></div></button><button id = button_10 class = ""square num-button"" onclick = ""recordClick(this)""><div class = content><div class = numbers>R</div></div></button><button id = button_11 class = ""square num-button"" onclick = ""recordClick(this)""><div class = content><div class = numbers>S</div></div></button><button id = button_12 class = ""square num-button"" onclick = ""recordClick(this)""><div class = content><div class = numbers>Y</div></div></button><button class = clear_button id = ""ClearButton"" onclick = ""clearResponse()"">BACKSPACE</button><button class = blank_button id = ""BlankButton"" onclick = ""blankResponse()"">SKIP</button><p style=""font-size: 2.4rem""><u><b>Current Answer:</b></u></p><br><br><div id=echoed_txt style=""font-size: 5rem; color:blue;""><b></b></div></div>",enter,ospan,retrieval,tIr7bcthaucBlXbrpcYyxKemv8u1,html-keyboard-response,183,683535,0.0-43.0-6.0-0.0-2.0,33,32,26,5.0,"[""P"",""H"",""S"",""Y"",""Q""]","[""P"",""H"",""S"",""Y"",""Q""]",1.0,5.0,,,,,,,607d6e86f96c147cf2b3223c,16:19:49,04/03/2024
652.5,[''],0,ospan,feedback,tIr7bcthaucBlXbrpcYyxKemv8u1,html-button-response,184,684696,0.0-43.0-6.0-0.0-3.0,,,,,,,,,,,,100.0,0.0,,607d6e86f96c147cf2b3223c,16:19:49,04/03/2024
,"<p style=""font-size:75px;"">...</p>",,ospan,iti,tIr7bcthaucBlXbrpcYyxKemv8u1,html-keyboard-response,185,685700,0.0-43.0-6.0-1.0-0.0,,,,,,,,,,,,,,,607d6e86f96c147cf2b3223c,16:19:49,04/03/2024
1139.0,,,ospan,symmetry,tIr7bcthaucBlXbrpcYyxKemv8u1,symmetry-judgement-task,186,688003,0.0-43.0-6.0-1.0-1.0-0.0,,,,,,,,,,1.0,1.0,,,,607d6e86f96c147cf2b3223c,16:19:49,04/03/2024
,"<div style=""font-size: 10rem; color: #0000FF"">Y</div>",,ospan,letter,tIr7bcthaucBlXbrpcYyxKemv8u1,html-keyboard-response,187,689017,0.0-43.0-6.0-1.0-1.0-1.0,,,,,,,,,,,,,,,607d6e86f96c147cf2b3223c,16:19:49,04/03/2024
1154.0,,,ospan,symmetry,tIr7bcthaucBlXbrpcYyxKemv8u1,symmetry-judgement-task,188,692095,0.0-43.0-6.0-1.0-1.0-2.0,,,,,,,,,,1.0,1.0,,,,607d6e86f96c147cf2b3223c,16:19:49,04/03/2024
,"<div style=""font-size: 10rem; color: #0000FF"">C</div>",,ospan,letter,tIr7bcthaucBlXbrpcYyxKemv8u1,html-keyboard-response,189,693099,0.0-43.0-6.0-1.0-1.0-3.0,,,,,,,,,,,,,,,607d6e86f96c147cf2b3223c,16:19:49,04/03/2024
1180.0,,,ospan,symmetry,tIr7bcthaucBlXbrpcYyxKemv8u1,symmetry-judgement-task,190,696201,0.0-43.0-6.0-1.0-1.0-4.0,,,,,,,,,,1.0,1.0,,,,607d6e86f96c147cf2b3223c,16:19:49,04/03/2024
,"<div style=""font-size: 10rem; color: #0000FF"">K</div>",,ospan,letter,tIr7bcthaucBlXbrpcYyxKemv8u1,html-keyboard-response,191,697204,0.0-43.0-6.0-1.0-1.0-5.0,,,,,,,,,,,,,,,607d6e86f96c147cf2b3223c,16:19:49,04/03/2024
900.0,,,ospan,symmetry,tIr7bcthaucBlXbrpcYyxKemv8u1,symmetry-judgement-task,192,700016,0.0-43.0-6.0-1.0-1.0-6.0,,,,,,,,,,1.0,1.0,,,,607d6e86f96c147cf2b3223c,16:19:49,04/03/2024
,"<div style=""font-size: 10rem; color: #0000FF"">N</div>",,ospan,letter,tIr7bcthaucBlXbrpcYyxKemv8u1,html-keyboard-response,193,701019,0.0-43.0-6.0-1.0-1.0-7.0,,,,,,,,,,,,,,,607d6e86f96c147cf2b3223c,16:19:49,04/03/2024
1487.0,,,ospan,symmetry,tIr7bcthaucBlXbrpcYyxKemv8u1,symmetry-judgement-task,194,704427,0.0-43.0-6.0-1.0-1.0-8.0,,,,,,,,,,1.0,1.0,,,,607d6e86f96c147cf2b3223c,16:19:49,04/03/2024
,"<div style=""font-size: 10rem; color: #0000FF"">L</div>",,ospan,letter,tIr7bcthaucBlXbrpcYyxKemv8u1,html-keyboard-response,195,705439,0.0-43.0-6.0-1.0-1.0-9.0,,,,,,,,,,,,,,,607d6e86f96c147cf2b3223c,16:19:49,04/03/2024
1114.0,,,ospan,symmetry,tIr7bcthaucBlXbrpcYyxKemv8u1,symmetry-judgement-task,196,708476,0.0-43.0-6.0-1.0-1.0-10.0,,,,,,,,,,1.0,1.0,,,,607d6e86f96c147cf2b3223c,16:19:49,04/03/2024
,"<div style=""font-size: 10rem; color: #0000FF"">J</div>",,ospan,letter,tIr7bcthaucBlXbrpcYyxKemv8u1,html-keyboard-response,197,709478,0.0-43.0-6.0-1.0-1.0-11.0,,,,,,,,,,,,,,,607d6e86f96c147cf2b3223c,16:19:49,04/03/2024
2893.0,,,ospan,symmetry,tIr7bcthaucBlXbrpcYyxKemv8u1,symmetry-judgement-task,198,714294,0.0-43.0-6.0-1.0-1.0-12.0,,,,,,,,,,1.0,1.0,,,,607d6e86f96c147cf2b3223c,16:19:49,04/03/2024
,"<div style=""font-size: 10rem; color: #0000FF"">P</div>",,ospan,letter,tIr7bcthaucBlXbrpcYyxKemv8u1,html-keyboard-response,199,715301,0.0-43.0-6.0-1.0-1.0-13.0,,,,,,,,,,,,,,,607d6e86f96c147cf2b3223c,16:19:49,04/03/2024
1705.0,,,ospan,symmetry,tIr7bcthaucBlXbrpcYyxKemv8u1,symmetry-judgement-task,200,718920,0.0-43.0-6.0-1.0-1.0-14.0,,,,,,,,,,1.0,1.0,,,,607d6e86f96c147cf2b3223c,16:19:49,04/03/2024
,"<div style=""font-size: 10rem; color: #0000FF"">H</div>",,ospan,letter,tIr7bcthaucBlXbrpcYyxKemv8u1,html-keyboard-response,201,719931,0.0-43.0-6.0-1.0-1.0-15.0,,,,,,,,,,,,,,,607d6e86f96c147cf2b3223c,16:19:49,04/03/2024
8814.100000023842,"<div class = numbox><p style=""font-size: 2.4rem"">Please recall the letters you saw to the best of your ability. If you do not remember a particular letter, use the SKIP button.<br><b>(When you are ready to lock in your answer, press ENTER)</b></p><button id = button_1 class = ""square num-button"" onclick = ""recordClick(this)""><div class = content><div class = numbers>C</div></div></button><button id = button_2 class = ""square num-button"" onclick = ""recordClick(this)""><div class = content><div class = numbers>G</div></div></button><button id = button_3 class = ""square num-button"" onclick = ""recordClick(this)""><div class = content><div class = numbers>H</div></div></button><button id = button_4 class = ""square num-button"" onclick = ""recordClick(this)""><div class = content><div class = numbers>J</div></div></button><button id = button_5 class = ""square num-button"" onclick = ""recordClick(this)""><div class = content><div class = numbers>K</div></div></button><button id = button_6 class = ""square num-button"" onclick = ""recordClick(this)""><div class = content><div class = numbers>L</div></div></button><button id = button_7 class = ""square num-button"" onclick = ""recordClick(this)""><div class = content><div class = numbers>N</div></div></button><button id = button_8 class = ""square num-button"" onclick = ""recordClick(this)""><div class = content><div class = numbers>P</div></div></button><button id = button_9 class = ""square num-button"" onclick = ""recordClick(this)""><div class = content><div class = numbers>Q</div></div></button><button id = button_10 class = ""square num-button"" onclick = ""recordClick(this)""><div class = content><div class = numbers>R</div></div></button><button id = button_11 class = ""square num-button"" onclick = ""recordClick(this)""><div class = content><div class = numbers>S</div></div></button><button id = button_12 class = ""square num-button"" onclick = ""recordClick(this)""><div class = content><div class = numbers>Y</div></div></button><button class = clear_button id = ""ClearButton"" onclick = ""clearResponse()"">BACKSPACE</button><button class = blank_button id = ""BlankButton"" onclick = ""blankResponse()"">SKIP</button><p style=""font-size: 2.4rem""><u><b>Current Answer:</b></u></p><br><br><div id=echoed_txt style=""font-size: 5rem; color:blue;""><b></b></div></div>",enter,ospan,retrieval,tIr7bcthaucBlXbrpcYyxKemv8u1,html-keyboard-response,202,729502,0.0-43.0-6.0-1.0-2.0,41,37,26,8.0,"[""Y"",""C"",""K"",""N"",""L"",""P"",""H""]","[""Y"",""C"",""K"",""N"",""L"",""J"",""P"",""H""]",0.0,5.0,,,,,,,607d6e86f96c147cf2b3223c,16:19:49,04/03/2024
980.5,[''],0,ospan,feedback,tIr7bcthaucBlXbrpcYyxKemv8u1,html-button-response,203,730993,0.0-43.0-6.0-1.0-3.0,,,,,,,,,,,,100.0,0.0,,607d6e86f96c147cf2b3223c,16:19:49,04/03/2024
22749.5,,"{'Q0': 'Enjoyed the task, tried the read the letters aloud to remember as best I could'}",ospan,survey,tIr7bcthaucBlXbrpcYyxKemv8u1,lmdlab-survey-text,204,754498,0.0-43.0-7.0,,,,,,,,,,,,,,tIr7bcthaucBlXbrpcYyxKemv8u1,607d6e86f96c147cf2b3223c,16:19:49,04/03/2024
912.8999999761581,<p><p style='font-size: 3rem'>Great work!<br><br>This completes the symmetry and memory task.</p><br><br><br>,0,ospan,finish,tIr7bcthaucBlXbrpcYyxKemv8u1,html-button-response,205,755413,0.0-43.0-8.0,41,37,26,,,,,,,,,100.0,,,607d6e86f96c147cf2b3223c,16:19:49,04/03/2024
