rt,stimulus,response,exp_name,exp_stage,subjectID,trial_type,trial_index,time_elapsed,internal_node_id,ospan_shown,ospan_total,ospan_abs,length,resp_actual,resp_correct,full_correct,num_correct,feedback,accuracy,correct,math_acc,math_warning,databaseID,prolificID,start_time,date
1828.1000000238419,<div class = 'left_align' style='font-size: 3.25rem; line-height: 1.3;'><p class = 'center_align'><b>Welcome to the Symmetry and Memory Task</b><br><br><br><br></p>Press 'continue' to show the instructions.<br><br><br><br></div>,0,ospan,instruct,Ds8g7g7gCNVimfGUxEngpk7azM33,html-button-response,54,532191,0.0-46.0-0.0-0.0-0.0,,,,,,,,,,,,,,,60650e72f3359295eb889c0f,21:08:24,02/04/2024
5629.5,"<div class = 'left_align' style='font-size: 3.25rem; line-height: 1.3;'><p class = 'center_align'><b>Symmetry and Memory Task</b><br><br></p>In this task, you will try to memorize letters you see on the screen<br>while you also view black and white grid pictures.<br><br>In the next few minutes, you will have some practice to get you familiar<br>with how the task works.<br><br>It may be difficult sometimes, but please do not worry about making mistakes!<br><br>We will begin by practicing the letter part of the task.<br><br><br><br></div>",0,ospan,instruct,Ds8g7g7gCNVimfGUxEngpk7azM33,html-button-response,55,538075,0.0-46.0-0.0-0.0-1.0,,,,,,,,,,,,,,,60650e72f3359295eb889c0f,21:08:24,02/04/2024
2808.0,"<div class = 'left_align' style='font-size: 3.25rem; line-height: 1.3;'>For this practice part, letters will appear on the screen one at a time.<br><br>Try to remember each letter in the order presented.<br><br>After some letters have been shown, you will see a response screen. Your<br>goal is to report the letters you saw <b>in order</b>. If you do not remember<br>a particular letter, you will have the option to leave it blank.<br><br><br><br></div>",0,ospan,instruct,Ds8g7g7gCNVimfGUxEngpk7azM33,html-button-response,56,541146,0.0-46.0-0.0-0.0-2.0,,,,,,,,,,,,,,,60650e72f3359295eb889c0f,21:08:24,02/04/2024
1909.0,"<div class = 'left_align' style='font-size: 3.25rem; line-height: 1.3;'>Remember, it is very important to get the letters in the same<br>order as you see them.<br><br>When you are ready, you may begin the letter practice.</div><br><br><br><br>",0,ospan,instruct,Ds8g7g7gCNVimfGUxEngpk7azM33,html-button-response,57,543311,0.0-46.0-0.0-0.0-3.0,,,,,,,,,,,,,,,60650e72f3359295eb889c0f,21:08:24,02/04/2024
,"<p style=""font-size:75px;"">...</p>",,ospan,iti,Ds8g7g7gCNVimfGUxEngpk7azM33,html-keyboard-response,58,544573,0.0-46.0-0.0-1.0-0.0,,,,,,,,,,,,,,,60650e72f3359295eb889c0f,21:08:24,02/04/2024
,"<div style=""font-size: 10rem; color: #0000FF"">K</div>",,ospan,letter,Ds8g7g7gCNVimfGUxEngpk7azM33,html-keyboard-response,59,545576,0.0-46.0-0.0-1.0-1.0,,,,,,,,,,,,,,,60650e72f3359295eb889c0f,21:08:24,02/04/2024
,"<div style=""font-size: 10rem; color: #0000FF"">Q</div>",,ospan,letter,Ds8g7g7gCNVimfGUxEngpk7azM33,html-keyboard-response,60,547332,0.0-46.0-0.0-1.0-2.0,,,,,,,,,,,,,,,60650e72f3359295eb889c0f,21:08:24,02/04/2024
7100.100000023842,"<div class = numbox><p style=""font-size: 2.4rem"">Please recall the letters you saw to the best of your ability. If you do not remember a particular letter, use the SKIP button.<br><b>(When you are ready to lock in your answer, press ENTER)</b></p><button id = button_1 class = ""square num-button"" onclick = ""recordClick(this)""><div class = content><div class = numbers>C</div></div></button><button id = button_2 class = ""square num-button"" onclick = ""recordClick(this)""><div class = content><div class = numbers>G</div></div></button><button id = button_3 class = ""square num-button"" onclick = ""recordClick(this)""><div class = content><div class = numbers>H</div></div></button><button id = button_4 class = ""square num-button"" onclick = ""recordClick(this)""><div class = content><div class = numbers>J</div></div></button><button id = button_5 class = ""square num-button"" onclick = ""recordClick(this)""><div class = content><div class = numbers>K</div></div></button><button id = button_6 class = ""square num-button"" onclick = ""recordClick(this)""><div class = content><div class = numbers>L</div></div></button><button id = button_7 class = ""square num-button"" onclick = ""recordClick(this)""><div class = content><div class = numbers>N</div></div></button><button id = button_8 class = ""square num-button"" onclick = ""recordClick(this)""><div class = content><div class = numbers>P</div></div></button><button id = button_9 class = ""square num-button"" onclick = ""recordClick(this)""><div class = content><div class = numbers>Q</div></div></button><button id = button_10 class = ""square num-button"" onclick = ""recordClick(this)""><div class = content><div class = numbers>R</div></div></button><button id = button_11 class = ""square num-button"" onclick = ""recordClick(this)""><div class = content><div class = numbers>S</div></div></button><button id = button_12 class = ""square num-button"" onclick = ""recordClick(this)""><div class = content><div class = numbers>Y</div></div></button><button class = clear_button id = ""ClearButton"" onclick = ""clearResponse()"">BACKSPACE</button><button class = blank_button id = ""BlankButton"" onclick = ""blankResponse()"">SKIP</button><p style=""font-size: 2.4rem""><u><b>Current Answer:</b></u></p><br><br><div id=echoed_txt style=""font-size: 5rem; color:blue;""><b></b></div></div>",enter,ospan,retrieval,Ds8g7g7gCNVimfGUxEngpk7azM33,html-keyboard-response,61,555198,0.0-46.0-0.0-1.0-3.0,NA,NA,NA,2.0,"[""K"",""Q""]","[""K"",""Q""]",1.0,2.0,"['<font color=""green"">K</font>', '<font color=""green"">Q</font>']",,,,,,60650e72f3359295eb889c0f,21:08:24,02/04/2024
1514.7999999523163,"['<p style=""font-size:44px"">Letters:<br><br><br><font color=""green"">K</font> <font color=""green"">Q</font></p><br><br>']",0,ospan,practice_feedback,Ds8g7g7gCNVimfGUxEngpk7azM33,html-button-response,62,557219,0.0-46.0-0.0-1.0-4.0,,,,,,,,,,,,,,,60650e72f3359295eb889c0f,21:08:24,02/04/2024
,"<p style=""font-size:75px;"">...</p>",,ospan,iti,Ds8g7g7gCNVimfGUxEngpk7azM33,html-keyboard-response,63,558231,0.0-46.0-0.0-2.0-0.0,,,,,,,,,,,,,,,60650e72f3359295eb889c0f,21:08:24,02/04/2024
,"<div style=""font-size: 10rem; color: #0000FF"">K</div>",,ospan,letter,Ds8g7g7gCNVimfGUxEngpk7azM33,html-keyboard-response,64,559234,0.0-46.0-0.0-2.0-1.0,,,,,,,,,,,,,,,60650e72f3359295eb889c0f,21:08:24,02/04/2024
,"<div style=""font-size: 10rem; color: #0000FF"">Q</div>",,ospan,letter,Ds8g7g7gCNVimfGUxEngpk7azM33,html-keyboard-response,65,561011,0.0-46.0-0.0-2.0-2.0,,,,,,,,,,,,,,,60650e72f3359295eb889c0f,21:08:24,02/04/2024
,"<div style=""font-size: 10rem; color: #0000FF"">G</div>",,ospan,letter,Ds8g7g7gCNVimfGUxEngpk7azM33,html-keyboard-response,66,562783,0.0-46.0-0.0-2.0-3.0,,,,,,,,,,,,,,,60650e72f3359295eb889c0f,21:08:24,02/04/2024
4148.899999976158,"<div class = numbox><p style=""font-size: 2.4rem"">Please recall the letters you saw to the best of your ability. If you do not remember a particular letter, use the SKIP button.<br><b>(When you are ready to lock in your answer, press ENTER)</b></p><button id = button_1 class = ""square num-button"" onclick = ""recordClick(this)""><div class = content><div class = numbers>C</div></div></button><button id = button_2 class = ""square num-button"" onclick = ""recordClick(this)""><div class = content><div class = numbers>G</div></div></button><button id = button_3 class = ""square num-button"" onclick = ""recordClick(this)""><div class = content><div class = numbers>H</div></div></button><button id = button_4 class = ""square num-button"" onclick = ""recordClick(this)""><div class = content><div class = numbers>J</div></div></button><button id = button_5 class = ""square num-button"" onclick = ""recordClick(this)""><div class = content><div class = numbers>K</div></div></button><button id = button_6 class = ""square num-button"" onclick = ""recordClick(this)""><div class = content><div class = numbers>L</div></div></button><button id = button_7 class = ""square num-button"" onclick = ""recordClick(this)""><div class = content><div class = numbers>N</div></div></button><button id = button_8 class = ""square num-button"" onclick = ""recordClick(this)""><div class = content><div class = numbers>P</div></div></button><button id = button_9 class = ""square num-button"" onclick = ""recordClick(this)""><div class = content><div class = numbers>Q</div></div></button><button id = button_10 class = ""square num-button"" onclick = ""recordClick(this)""><div class = content><div class = numbers>R</div></div></button><button id = button_11 class = ""square num-button"" onclick = ""recordClick(this)""><div class = content><div class = numbers>S</div></div></button><button id = button_12 class = ""square num-button"" onclick = ""recordClick(this)""><div class = content><div class = numbers>Y</div></div></button><button class = clear_button id = ""ClearButton"" onclick = ""clearResponse()"">BACKSPACE</button><button class = blank_button id = ""BlankButton"" onclick = ""blankResponse()"">SKIP</button><p style=""font-size: 2.4rem""><u><b>Current Answer:</b></u></p><br><br><div id=echoed_txt style=""font-size: 5rem; color:blue;""><b></b></div></div>",enter,ospan,retrieval,Ds8g7g7gCNVimfGUxEngpk7azM33,html-keyboard-response,67,567697,0.0-46.0-0.0-2.0-4.0,NA,NA,NA,3.0,"[""K"",""Q"",""G""]","[""K"",""Q"",""G""]",1.0,3.0,"['<font color=""green"">K</font>', '<font color=""green"">Q</font>', '<font color=""green"">G</font>']",,,,,,60650e72f3359295eb889c0f,21:08:24,02/04/2024
1031.800000011921,"['<p style=""font-size:44px"">Letters:<br><br><br><font color=""green"">K</font> <font color=""green"">Q</font> <font color=""green"">G</font></p><br><br>']",0,ospan,practice_feedback,Ds8g7g7gCNVimfGUxEngpk7azM33,html-button-response,68,569240,0.0-46.0-0.0-2.0-5.0,,,,,,,,,,,,,,,60650e72f3359295eb889c0f,21:08:24,02/04/2024
5655.300000011921,"<div class = 'left_align' style='font-size: 3.25rem; line-height: 1.3;'>Now you will practice doing the <b>symmetry judgment part</b> of the experiment.<br><br>A black and white grid picture will appear on the screen and you have to judge if it is <br>symmetrical or asymetrical.<br><br>A picture is 'mirror' symmetrical if its left half is identical to the right half when flipped.<br>Here are examples of a symmetrical and an asymetrical picture:<br><br><center><img src='Stimuli/img/symm_instructions_extra.png' style='height:420px; width:900'></img></center><br>To judge symmetry, imagine you were to fold each picture down the middle, like a book –<br>would the left half match the right half when folded onto each other?<br><br></div><br>",0,ospan,instruct,Ds8g7g7gCNVimfGUxEngpk7azM33,html-button-response,69,574898,0.0-46.0-1.0-0.0-0.0,,,,,,,,,,,,,,,60650e72f3359295eb889c0f,21:08:24,02/04/2024
3376.199999988079,"<div class = 'left_align' style='font-size: 3.25rem; line-height: 1.3;'>When you have viewed the picture and determined whether it is symmetrical or not,<br>you can <b>click the Yes or No button</b> below to answer.<br><br>If you take longer than 15 seconds, it will continue automatically<br>and record the answer as an error.</div><br>",0,ospan,instruct,Ds8g7g7gCNVimfGUxEngpk7azM33,html-button-response,70,578526,0.0-46.0-1.0-0.0-1.0,,,,,,,,,,,,,,,60650e72f3359295eb889c0f,21:08:24,02/04/2024
2259.599999964237,"<div class = 'left_align' style='font-size: 3.25rem; line-height: 1.3;'>It is <b>very</b> important that you make the symmetry judgment correctly.<br><br>It is also important that you try and judge the picture as quickly as you can.<br><br>When you are ready, click on the button below to try some practice problems.</div><br><br><br><br>",0,ospan,instruct,Ds8g7g7gCNVimfGUxEngpk7azM33,html-button-response,71,581041,0.0-46.0-1.0-0.0-2.0,,,,,,,,,,,,,,,60650e72f3359295eb889c0f,21:08:24,02/04/2024
2753.0,,,ospan,symmetry,Ds8g7g7gCNVimfGUxEngpk7azM33,symmetry-judgement-task,72,584607,0.0-46.0-1.0-1.0-0.0,,,,,,,,,,1.0,1.0,,,,60650e72f3359295eb889c0f,21:08:24,02/04/2024
,"<p style=""color:green; font-size: 35px"">Correct</p>",,ospan,feedback,Ds8g7g7gCNVimfGUxEngpk7azM33,html-keyboard-response,73,585371,0.0-46.0-1.0-1.0-1.0,,,,,,,,,,,,,,,60650e72f3359295eb889c0f,21:08:24,02/04/2024
1168.0,,,ospan,symmetry,Ds8g7g7gCNVimfGUxEngpk7azM33,symmetry-judgement-task,74,589199,0.0-46.0-1.0-1.0-2.0,,,,,,,,,,1.0,1.0,,,,60650e72f3359295eb889c0f,21:08:24,02/04/2024
,"<p style=""color:green; font-size: 35px"">Correct</p>",,ospan,feedback,Ds8g7g7gCNVimfGUxEngpk7azM33,html-keyboard-response,75,589951,0.0-46.0-1.0-1.0-3.0,,,,,,,,,,,,,,,60650e72f3359295eb889c0f,21:08:24,02/04/2024
1267.0,,,ospan,symmetry,Ds8g7g7gCNVimfGUxEngpk7azM33,symmetry-judgement-task,76,593878,0.0-46.0-1.0-1.0-4.0,,,,,,,,,,1.0,1.0,,,,60650e72f3359295eb889c0f,21:08:24,02/04/2024
,"<p style=""color:green; font-size: 35px"">Correct</p>",,ospan,feedback,Ds8g7g7gCNVimfGUxEngpk7azM33,html-keyboard-response,77,594641,0.0-46.0-1.0-1.0-5.0,,,,,,,,,,,,,,,60650e72f3359295eb889c0f,21:08:24,02/04/2024
1366.1000000238419,"<p style=""font-size: 3rem;"">You responded correctly on 3 of 3 symmetry judgments. Good job!</p><br><br>",0,ospan,practice,Ds8g7g7gCNVimfGUxEngpk7azM33,html-button-response,78,598021,0.0-46.0-1.0-2.0,,,,,,,,,,,,,,,60650e72f3359295eb889c0f,21:08:24,02/04/2024
6004.199999988079,"<div class = 'left_align' style='font-size: 3.25rem; line-height: 1.3;'>Now you will practice doing both parts of the experiment at the same time.<br><br>In the next practice set, you will be given one grid picture to judge.<br>Then letter will appear on the screen. Try to remember the letter.<br><br>It is <b>very important</b> to make the symmetry judgment as quickly and accurately as possible.<br><br>Just as before, once you have make the symmetry judgment, you can click Yes or No.<br><b>Note that you will no longer see Correct or Incorrect feedback.</div><br><br><br><br>",0,ospan,instruct,Ds8g7g7gCNVimfGUxEngpk7azM33,html-button-response,79,604283,0.0-46.0-2.0-0.0-0.0,,,,,,,,,,,,,,,60650e72f3359295eb889c0f,21:08:24,02/04/2024
2085.699999988079,"<div class = 'left_align' style='font-size: 3.25rem; line-height: 1.3;'>After the letter goes away, another grid picture will appear, and then<br>another letter.<br><br>At the end of each set of letters and grids, you will recall the letters to the best<br>of your ability. Remember, try your best to get the letters in the correct order.<br><br>It is important to <b>quickly</b> and <b>accurately</b> make the symmetry judgments.</div><br><br><br><br>",0,ospan,instruct,Ds8g7g7gCNVimfGUxEngpk7azM33,html-button-response,80,606626,0.0-46.0-2.0-0.0-1.0,,,,,,,,,,,,,,,60650e72f3359295eb889c0f,21:08:24,02/04/2024
5938.800000011921,"<div class = 'left_align' style='font-size: 3.25rem; line-height: 1.3;'>On the feedback screen, if you are not doing well at the symmetry judgments,<br>you will also see a warning in the middle. This indicates your percent <br>correct for the grid pictures for the entire experiment.<br><br>It is <b>very</b> important for you to keep accuracy at least at 85%: <u>We can only use<br>data where the participant was at least 85% accurate on the judgments.</u> Therefore,<br> please try your best to perform well on the symmetry judgments, <b>at the same time</b><br>doing your best to recall as many letters as possible.<br><br>Click the button to try some practice problems.</div><br><br><br><br>",0,ospan,instruct,Ds8g7g7gCNVimfGUxEngpk7azM33,html-button-response,81,612831,0.0-46.0-2.0-0.0-2.0,,,,,,,,,,,,,,,60650e72f3359295eb889c0f,21:08:24,02/04/2024
,"<p style=""font-size:75px;"">...</p>",,ospan,iti,Ds8g7g7gCNVimfGUxEngpk7azM33,html-keyboard-response,82,614111,0.0-46.0-2.0-1.0-0.0,,,,,,,,,,,,,,,60650e72f3359295eb889c0f,21:08:24,02/04/2024
1770.0,,,ospan,symmetry,Ds8g7g7gCNVimfGUxEngpk7azM33,symmetry-judgement-task,83,616927,0.0-46.0-2.0-1.0-1.0-0.0,,,,,,,,,,1.0,1.0,,,,60650e72f3359295eb889c0f,21:08:24,02/04/2024
,"<div style=""font-size: 10rem; color: #0000FF"">Y</div>",,ospan,letter,Ds8g7g7gCNVimfGUxEngpk7azM33,html-keyboard-response,84,617942,0.0-46.0-2.0-1.0-1.0-1.0,,,,,,,,,,,,,,,60650e72f3359295eb889c0f,21:08:24,02/04/2024
2471.0,,,ospan,symmetry,Ds8g7g7gCNVimfGUxEngpk7azM33,symmetry-judgement-task,85,622313,0.0-46.0-2.0-1.0-1.0-2.0,,,,,,,,,,1.0,1.0,,,,60650e72f3359295eb889c0f,21:08:24,02/04/2024
,"<div style=""font-size: 10rem; color: #0000FF"">K</div>",,ospan,letter,Ds8g7g7gCNVimfGUxEngpk7azM33,html-keyboard-response,86,623327,0.0-46.0-2.0-1.0-1.0-3.0,,,,,,,,,,,,,,,60650e72f3359295eb889c0f,21:08:24,02/04/2024
1898.0,,,ospan,symmetry,Ds8g7g7gCNVimfGUxEngpk7azM33,symmetry-judgement-task,87,627122,0.0-46.0-2.0-1.0-1.0-4.0,,,,,,,,,,1.0,1.0,,,,60650e72f3359295eb889c0f,21:08:24,02/04/2024
,"<div style=""font-size: 10rem; color: #0000FF"">N</div>",,ospan,letter,Ds8g7g7gCNVimfGUxEngpk7azM33,html-keyboard-response,88,628124,0.0-46.0-2.0-1.0-1.0-5.0,,,,,,,,,,,,,,,60650e72f3359295eb889c0f,21:08:24,02/04/2024
4429.699999988079,"<div class = numbox><p style=""font-size: 2.4rem"">Please recall the letters you saw to the best of your ability. If you do not remember a particular letter, use the SKIP button.<br><b>(When you are ready to lock in your answer, press ENTER)</b></p><button id = button_1 class = ""square num-button"" onclick = ""recordClick(this)""><div class = content><div class = numbers>C</div></div></button><button id = button_2 class = ""square num-button"" onclick = ""recordClick(this)""><div class = content><div class = numbers>G</div></div></button><button id = button_3 class = ""square num-button"" onclick = ""recordClick(this)""><div class = content><div class = numbers>H</div></div></button><button id = button_4 class = ""square num-button"" onclick = ""recordClick(this)""><div class = content><div class = numbers>J</div></div></button><button id = button_5 class = ""square num-button"" onclick = ""recordClick(this)""><div class = content><div class = numbers>K</div></div></button><button id = button_6 class = ""square num-button"" onclick = ""recordClick(this)""><div class = content><div class = numbers>L</div></div></button><button id = button_7 class = ""square num-button"" onclick = ""recordClick(this)""><div class = content><div class = numbers>N</div></div></button><button id = button_8 class = ""square num-button"" onclick = ""recordClick(this)""><div class = content><div class = numbers>P</div></div></button><button id = button_9 class = ""square num-button"" onclick = ""recordClick(this)""><div class = content><div class = numbers>Q</div></div></button><button id = button_10 class = ""square num-button"" onclick = ""recordClick(this)""><div class = content><div class = numbers>R</div></div></button><button id = button_11 class = ""square num-button"" onclick = ""recordClick(this)""><div class = content><div class = numbers>S</div></div></button><button id = button_12 class = ""square num-button"" onclick = ""recordClick(this)""><div class = content><div class = numbers>Y</div></div></button><button class = clear_button id = ""ClearButton"" onclick = ""clearResponse()"">BACKSPACE</button><button class = blank_button id = ""BlankButton"" onclick = ""blankResponse()"">SKIP</button><p style=""font-size: 2.4rem""><u><b>Current Answer:</b></u></p><br><br><div id=echoed_txt style=""font-size: 5rem; color:blue;""><b></b></div></div>",enter,ospan,retrieval,Ds8g7g7gCNVimfGUxEngpk7azM33,html-keyboard-response,89,633321,0.0-46.0-2.0-1.0-2.0-0.0,NA,NA,NA,3.0,"[""Y"",""K"",""N""]","[""Y"",""K"",""N""]",1.0,3.0,"['<font color=""green"">Y</font>', '<font color=""green"">K</font>', '<font color=""green"">N</font>']",,,,,,60650e72f3359295eb889c0f,21:08:24,02/04/2024
1432.699999988079,"['<p style=""font-size:44px"">Letters:<br><br><br><font color=""green"">Y</font> <font color=""green"">K</font> <font color=""green"">N</font></p><br><br><p style=""font-size:30px"">Symmetry:<br><br><font color=""green"">100%</font></p><br><br>']",0,ospan,practice_feedback,Ds8g7g7gCNVimfGUxEngpk7azM33,html-button-response,90,635265,0.0-46.0-2.0-1.0-2.0-1.0,,,,,,,,,,,,,,,60650e72f3359295eb889c0f,21:08:24,02/04/2024
,"<p style=""font-size:75px;"">...</p>",,ospan,iti,Ds8g7g7gCNVimfGUxEngpk7azM33,html-keyboard-response,91,636281,0.0-46.0-2.0-2.0-0.0,,,,,,,,,,,,,,,60650e72f3359295eb889c0f,21:08:24,02/04/2024
1683.0,,,ospan,symmetry,Ds8g7g7gCNVimfGUxEngpk7azM33,symmetry-judgement-task,92,639112,0.0-46.0-2.0-2.0-1.0-0.0,,,,,,,,,,1.0,1.0,,,,60650e72f3359295eb889c0f,21:08:24,02/04/2024
,"<div style=""font-size: 10rem; color: #0000FF"">N</div>",,ospan,letter,Ds8g7g7gCNVimfGUxEngpk7azM33,html-keyboard-response,93,640126,0.0-46.0-2.0-2.0-1.0-1.0,,,,,,,,,,,,,,,60650e72f3359295eb889c0f,21:08:24,02/04/2024
1140.0,,,ospan,symmetry,Ds8g7g7gCNVimfGUxEngpk7azM33,symmetry-judgement-task,94,643166,0.0-46.0-2.0-2.0-1.0-2.0,,,,,,,,,,1.0,1.0,,,,60650e72f3359295eb889c0f,21:08:24,02/04/2024
,"<div style=""font-size: 10rem; color: #0000FF"">K</div>",,ospan,letter,Ds8g7g7gCNVimfGUxEngpk7azM33,html-keyboard-response,95,644171,0.0-46.0-2.0-2.0-1.0-3.0,,,,,,,,,,,,,,,60650e72f3359295eb889c0f,21:08:24,02/04/2024
1373.0,,,ospan,symmetry,Ds8g7g7gCNVimfGUxEngpk7azM33,symmetry-judgement-task,96,647453,0.0-46.0-2.0-2.0-1.0-4.0,,,,,,,,,,1.0,1.0,,,,60650e72f3359295eb889c0f,21:08:24,02/04/2024
,"<div style=""font-size: 10rem; color: #0000FF"">C</div>",,ospan,letter,Ds8g7g7gCNVimfGUxEngpk7azM33,html-keyboard-response,97,648461,0.0-46.0-2.0-2.0-1.0-5.0,,,,,,,,,,,,,,,60650e72f3359295eb889c0f,21:08:24,02/04/2024
3951.900000035763,"<div class = numbox><p style=""font-size: 2.4rem"">Please recall the letters you saw to the best of your ability. If you do not remember a particular letter, use the SKIP button.<br><b>(When you are ready to lock in your answer, press ENTER)</b></p><button id = button_1 class = ""square num-button"" onclick = ""recordClick(this)""><div class = content><div class = numbers>C</div></div></button><button id = button_2 class = ""square num-button"" onclick = ""recordClick(this)""><div class = content><div class = numbers>G</div></div></button><button id = button_3 class = ""square num-button"" onclick = ""recordClick(this)""><div class = content><div class = numbers>H</div></div></button><button id = button_4 class = ""square num-button"" onclick = ""recordClick(this)""><div class = content><div class = numbers>J</div></div></button><button id = button_5 class = ""square num-button"" onclick = ""recordClick(this)""><div class = content><div class = numbers>K</div></div></button><button id = button_6 class = ""square num-button"" onclick = ""recordClick(this)""><div class = content><div class = numbers>L</div></div></button><button id = button_7 class = ""square num-button"" onclick = ""recordClick(this)""><div class = content><div class = numbers>N</div></div></button><button id = button_8 class = ""square num-button"" onclick = ""recordClick(this)""><div class = content><div class = numbers>P</div></div></button><button id = button_9 class = ""square num-button"" onclick = ""recordClick(this)""><div class = content><div class = numbers>Q</div></div></button><button id = button_10 class = ""square num-button"" onclick = ""recordClick(this)""><div class = content><div class = numbers>R</div></div></button><button id = button_11 class = ""square num-button"" onclick = ""recordClick(this)""><div class = content><div class = numbers>S</div></div></button><button id = button_12 class = ""square num-button"" onclick = ""recordClick(this)""><div class = content><div class = numbers>Y</div></div></button><button class = clear_button id = ""ClearButton"" onclick = ""clearResponse()"">BACKSPACE</button><button class = blank_button id = ""BlankButton"" onclick = ""blankResponse()"">SKIP</button><p style=""font-size: 2.4rem""><u><b>Current Answer:</b></u></p><br><br><div id=echoed_txt style=""font-size: 5rem; color:blue;""><b></b></div></div>",enter,ospan,retrieval,Ds8g7g7gCNVimfGUxEngpk7azM33,html-keyboard-response,98,653165,0.0-46.0-2.0-2.0-2.0-0.0,NA,NA,NA,3.0,"[""N"",""K"",""C""]","[""N"",""K"",""C""]",1.0,3.0,"['<font color=""green"">N</font>', '<font color=""green"">K</font>', '<font color=""green"">C</font>']",,,,,,60650e72f3359295eb889c0f,21:08:24,02/04/2024
2385.7999999523163,"['<p style=""font-size:44px"">Letters:<br><br><br><font color=""green"">N</font> <font color=""green"">K</font> <font color=""green"">C</font></p><br><br><p style=""font-size:30px"">Symmetry:<br><br><font color=""green"">100%</font></p><br><br>']",0,ospan,practice_feedback,Ds8g7g7gCNVimfGUxEngpk7azM33,html-button-response,99,656059,0.0-46.0-2.0-2.0-2.0-1.0,,,,,,,,,,,,,,,60650e72f3359295eb889c0f,21:08:24,02/04/2024
7704.100000023842,"<div class = 'left_align' style='font-size: 3rem; line-height: 1.3;'><b>Great work! That is the end of practice.</b><br><br>The real trials will look just like the practice trials you just completed.<br><br><u>Here, you will not see feedback</u>. First, you will see an grid picture to judge,<br>then a letter to remember. When the recall screen appears, report the letters in the<br>order presented. If you forget a letter, remember to use the <b>blank</b> button to move to the<br>next letter. Some of the sets will have more symmetry grids and letters than others.<br><br>It is important that you do your best on both the symmetry judgments and the letter recall<br>parts of the experiment. For for the symmetry judgments, try to work as <b>quickly</b> and <br>as <b>accurately</b> as possible. Remember to keep your symmetry accuracy at 85% or above.<br><br><b>For the letters, do NOT use any external aid (e.g., writing on paper, electronic device).</b><br><br>It is <u>very important</u> to our experiment to have a <b>true</b> view of your real performance.<br><br>Do not worry if you miss some when it gets hard! This task is meant to be very challenging!<br><br>Click the button to begin.</div><br><br><br><br>",0,ospan,starting_real_here,Ds8g7g7gCNVimfGUxEngpk7azM33,html-button-response,100,663765,0.0-46.0-2.0-3.0,,,,,,,,,,,,,,,60650e72f3359295eb889c0f,21:08:24,02/04/2024
,"<p style=""font-size:75px;"">...</p>",,ospan,iti,Ds8g7g7gCNVimfGUxEngpk7azM33,html-keyboard-response,101,665029,0.0-46.0-3.0-0.0-0.0,,,,,,,,,,,,,,,60650e72f3359295eb889c0f,21:08:24,02/04/2024
1207.0,,,ospan,symmetry,Ds8g7g7gCNVimfGUxEngpk7azM33,symmetry-judgement-task,102,667380,0.0-46.0-3.0-0.0-1.0-0.0,,,,,,,,,,1.0,1.0,,,,60650e72f3359295eb889c0f,21:08:24,02/04/2024
,"<div style=""font-size: 10rem; color: #0000FF"">H</div>",,ospan,letter,Ds8g7g7gCNVimfGUxEngpk7azM33,html-keyboard-response,103,668393,0.0-46.0-3.0-0.0-1.0-1.0,,,,,,,,,,,,,,,60650e72f3359295eb889c0f,21:08:24,02/04/2024
1388.0,,,ospan,symmetry,Ds8g7g7gCNVimfGUxEngpk7azM33,symmetry-judgement-task,104,671675,0.0-46.0-3.0-0.0-1.0-2.0,,,,,,,,,,1.0,1.0,,,,60650e72f3359295eb889c0f,21:08:24,02/04/2024
,"<div style=""font-size: 10rem; color: #0000FF"">R</div>",,ospan,letter,Ds8g7g7gCNVimfGUxEngpk7azM33,html-keyboard-response,105,672687,0.0-46.0-3.0-0.0-1.0-3.0,,,,,,,,,,,,,,,60650e72f3359295eb889c0f,21:08:24,02/04/2024
1147.0,,,ospan,symmetry,Ds8g7g7gCNVimfGUxEngpk7azM33,symmetry-judgement-task,106,675764,0.0-46.0-3.0-0.0-1.0-4.0,,,,,,,,,,1.0,1.0,,,,60650e72f3359295eb889c0f,21:08:24,02/04/2024
,"<div style=""font-size: 10rem; color: #0000FF"">J</div>",,ospan,letter,Ds8g7g7gCNVimfGUxEngpk7azM33,html-keyboard-response,107,676779,0.0-46.0-3.0-0.0-1.0-5.0,,,,,,,,,,,,,,,60650e72f3359295eb889c0f,21:08:24,02/04/2024
4856.799999952316,"<div class = numbox><p style=""font-size: 2.4rem"">Please recall the letters you saw to the best of your ability. If you do not remember a particular letter, use the SKIP button.<br><b>(When you are ready to lock in your answer, press ENTER)</b></p><button id = button_1 class = ""square num-button"" onclick = ""recordClick(this)""><div class = content><div class = numbers>C</div></div></button><button id = button_2 class = ""square num-button"" onclick = ""recordClick(this)""><div class = content><div class = numbers>G</div></div></button><button id = button_3 class = ""square num-button"" onclick = ""recordClick(this)""><div class = content><div class = numbers>H</div></div></button><button id = button_4 class = ""square num-button"" onclick = ""recordClick(this)""><div class = content><div class = numbers>J</div></div></button><button id = button_5 class = ""square num-button"" onclick = ""recordClick(this)""><div class = content><div class = numbers>K</div></div></button><button id = button_6 class = ""square num-button"" onclick = ""recordClick(this)""><div class = content><div class = numbers>L</div></div></button><button id = button_7 class = ""square num-button"" onclick = ""recordClick(this)""><div class = content><div class = numbers>N</div></div></button><button id = button_8 class = ""square num-button"" onclick = ""recordClick(this)""><div class = content><div class = numbers>P</div></div></button><button id = button_9 class = ""square num-button"" onclick = ""recordClick(this)""><div class = content><div class = numbers>Q</div></div></button><button id = button_10 class = ""square num-button"" onclick = ""recordClick(this)""><div class = content><div class = numbers>R</div></div></button><button id = button_11 class = ""square num-button"" onclick = ""recordClick(this)""><div class = content><div class = numbers>S</div></div></button><button id = button_12 class = ""square num-button"" onclick = ""recordClick(this)""><div class = content><div class = numbers>Y</div></div></button><button class = clear_button id = ""ClearButton"" onclick = ""clearResponse()"">BACKSPACE</button><button class = blank_button id = ""BlankButton"" onclick = ""blankResponse()"">SKIP</button><p style=""font-size: 2.4rem""><u><b>Current Answer:</b></u></p><br><br><div id=echoed_txt style=""font-size: 5rem; color:blue;""><b></b></div></div>",enter,ospan,retrieval,Ds8g7g7gCNVimfGUxEngpk7azM33,html-keyboard-response,108,682388,0.0-46.0-3.0-0.0-2.0,3,3,3,3.0,"[""H"",""R"",""J""]","[""H"",""R"",""J""]",1.0,3.0,,,,,,,60650e72f3359295eb889c0f,21:08:24,02/04/2024
1220.699999988079,[''],0,ospan,feedback,Ds8g7g7gCNVimfGUxEngpk7azM33,html-button-response,109,684122,0.0-46.0-3.0-0.0-3.0,,,,,,,,,,,,100.0,0.0,,60650e72f3359295eb889c0f,21:08:24,02/04/2024
,"<p style=""font-size:75px;"">...</p>",,ospan,iti,Ds8g7g7gCNVimfGUxEngpk7azM33,html-keyboard-response,110,685129,0.0-46.0-4.0-0.0-0.0,,,,,,,,,,,,,,,60650e72f3359295eb889c0f,21:08:24,02/04/2024
1701.0,,,ospan,symmetry,Ds8g7g7gCNVimfGUxEngpk7azM33,symmetry-judgement-task,111,687954,0.0-46.0-4.0-0.0-1.0-0.0,,,,,,,,,,1.0,1.0,,,,60650e72f3359295eb889c0f,21:08:24,02/04/2024
,"<div style=""font-size: 10rem; color: #0000FF"">P</div>",,ospan,letter,Ds8g7g7gCNVimfGUxEngpk7azM33,html-keyboard-response,112,688968,0.0-46.0-4.0-0.0-1.0-1.0,,,,,,,,,,,,,,,60650e72f3359295eb889c0f,21:08:24,02/04/2024
1667.0,,,ospan,symmetry,Ds8g7g7gCNVimfGUxEngpk7azM33,symmetry-judgement-task,113,692555,0.0-46.0-4.0-0.0-1.0-2.0,,,,,,,,,,1.0,1.0,,,,60650e72f3359295eb889c0f,21:08:24,02/04/2024
,"<div style=""font-size: 10rem; color: #0000FF"">S</div>",,ospan,letter,Ds8g7g7gCNVimfGUxEngpk7azM33,html-keyboard-response,114,693568,0.0-46.0-4.0-0.0-1.0-3.0,,,,,,,,,,,,,,,60650e72f3359295eb889c0f,21:08:24,02/04/2024
1355.0,,,ospan,symmetry,Ds8g7g7gCNVimfGUxEngpk7azM33,symmetry-judgement-task,115,696817,0.0-46.0-4.0-0.0-1.0-4.0,,,,,,,,,,1.0,1.0,,,,60650e72f3359295eb889c0f,21:08:24,02/04/2024
,"<div style=""font-size: 10rem; color: #0000FF"">G</div>",,ospan,letter,Ds8g7g7gCNVimfGUxEngpk7azM33,html-keyboard-response,116,697839,0.0-46.0-4.0-0.0-1.0-5.0,,,,,,,,,,,,,,,60650e72f3359295eb889c0f,21:08:24,02/04/2024
1412.0,,,ospan,symmetry,Ds8g7g7gCNVimfGUxEngpk7azM33,symmetry-judgement-task,117,701142,0.0-46.0-4.0-0.0-1.0-6.0,,,,,,,,,,1.0,1.0,,,,60650e72f3359295eb889c0f,21:08:24,02/04/2024
,"<div style=""font-size: 10rem; color: #0000FF"">R</div>",,ospan,letter,Ds8g7g7gCNVimfGUxEngpk7azM33,html-keyboard-response,118,702146,0.0-46.0-4.0-0.0-1.0-7.0,,,,,,,,,,,,,,,60650e72f3359295eb889c0f,21:08:24,02/04/2024
5887.5,"<div class = numbox><p style=""font-size: 2.4rem"">Please recall the letters you saw to the best of your ability. If you do not remember a particular letter, use the SKIP button.<br><b>(When you are ready to lock in your answer, press ENTER)</b></p><button id = button_1 class = ""square num-button"" onclick = ""recordClick(this)""><div class = content><div class = numbers>C</div></div></button><button id = button_2 class = ""square num-button"" onclick = ""recordClick(this)""><div class = content><div class = numbers>G</div></div></button><button id = button_3 class = ""square num-button"" onclick = ""recordClick(this)""><div class = content><div class = numbers>H</div></div></button><button id = button_4 class = ""square num-button"" onclick = ""recordClick(this)""><div class = content><div class = numbers>J</div></div></button><button id = button_5 class = ""square num-button"" onclick = ""recordClick(this)""><div class = content><div class = numbers>K</div></div></button><button id = button_6 class = ""square num-button"" onclick = ""recordClick(this)""><div class = content><div class = numbers>L</div></div></button><button id = button_7 class = ""square num-button"" onclick = ""recordClick(this)""><div class = content><div class = numbers>N</div></div></button><button id = button_8 class = ""square num-button"" onclick = ""recordClick(this)""><div class = content><div class = numbers>P</div></div></button><button id = button_9 class = ""square num-button"" onclick = ""recordClick(this)""><div class = content><div class = numbers>Q</div></div></button><button id = button_10 class = ""square num-button"" onclick = ""recordClick(this)""><div class = content><div class = numbers>R</div></div></button><button id = button_11 class = ""square num-button"" onclick = ""recordClick(this)""><div class = content><div class = numbers>S</div></div></button><button id = button_12 class = ""square num-button"" onclick = ""recordClick(this)""><div class = content><div class = numbers>Y</div></div></button><button class = clear_button id = ""ClearButton"" onclick = ""clearResponse()"">BACKSPACE</button><button class = blank_button id = ""BlankButton"" onclick = ""blankResponse()"">SKIP</button><p style=""font-size: 2.4rem""><u><b>Current Answer:</b></u></p><br><br><div id=echoed_txt style=""font-size: 5rem; color:blue;""><b></b></div></div>",enter,ospan,retrieval,Ds8g7g7gCNVimfGUxEngpk7azM33,html-keyboard-response,119,708799,0.0-46.0-4.0-0.0-2.0,7,7,7,4.0,"[""P"",""S"",""G"",""R""]","[""P"",""S"",""G"",""R""]",1.0,4.0,,,,,,,60650e72f3359295eb889c0f,21:08:24,02/04/2024
1397.0,[''],0,ospan,feedback,Ds8g7g7gCNVimfGUxEngpk7azM33,html-button-response,120,710714,0.0-46.0-4.0-0.0-3.0,,,,,,,,,,,,100.0,0.0,,60650e72f3359295eb889c0f,21:08:24,02/04/2024
,"<p style=""font-size:75px;"">...</p>",,ospan,iti,Ds8g7g7gCNVimfGUxEngpk7azM33,html-keyboard-response,121,711729,0.0-46.0-4.0-1.0-0.0,,,,,,,,,,,,,,,60650e72f3359295eb889c0f,21:08:24,02/04/2024
1419.0,,,ospan,symmetry,Ds8g7g7gCNVimfGUxEngpk7azM33,symmetry-judgement-task,122,714184,0.0-46.0-4.0-1.0-1.0-0.0,,,,,,,,,,1.0,1.0,,,,60650e72f3359295eb889c0f,21:08:24,02/04/2024
,"<div style=""font-size: 10rem; color: #0000FF"">J</div>",,ospan,letter,Ds8g7g7gCNVimfGUxEngpk7azM33,html-keyboard-response,123,715186,0.0-46.0-4.0-1.0-1.0-1.0,,,,,,,,,,,,,,,60650e72f3359295eb889c0f,21:08:24,02/04/2024
1086.0,,,ospan,symmetry,Ds8g7g7gCNVimfGUxEngpk7azM33,symmetry-judgement-task,124,718164,0.0-46.0-4.0-1.0-1.0-2.0,,,,,,,,,,1.0,1.0,,,,60650e72f3359295eb889c0f,21:08:24,02/04/2024
,"<div style=""font-size: 10rem; color: #0000FF"">G</div>",,ospan,letter,Ds8g7g7gCNVimfGUxEngpk7azM33,html-keyboard-response,125,719167,0.0-46.0-4.0-1.0-1.0-3.0,,,,,,,,,,,,,,,60650e72f3359295eb889c0f,21:08:24,02/04/2024
1188.0,,,ospan,symmetry,Ds8g7g7gCNVimfGUxEngpk7azM33,symmetry-judgement-task,126,722274,0.0-46.0-4.0-1.0-1.0-4.0,,,,,,,,,,1.0,1.0,,,,60650e72f3359295eb889c0f,21:08:24,02/04/2024
,"<div style=""font-size: 10rem; color: #0000FF"">Y</div>",,ospan,letter,Ds8g7g7gCNVimfGUxEngpk7azM33,html-keyboard-response,127,723277,0.0-46.0-4.0-1.0-1.0-5.0,,,,,,,,,,,,,,,60650e72f3359295eb889c0f,21:08:24,02/04/2024
1072.0,,,ospan,symmetry,Ds8g7g7gCNVimfGUxEngpk7azM33,symmetry-judgement-task,128,726255,0.0-46.0-4.0-1.0-1.0-6.0,,,,,,,,,,1.0,1.0,,,,60650e72f3359295eb889c0f,21:08:24,02/04/2024
,"<div style=""font-size: 10rem; color: #0000FF"">P</div>",,ospan,letter,Ds8g7g7gCNVimfGUxEngpk7azM33,html-keyboard-response,129,727265,0.0-46.0-4.0-1.0-1.0-7.0,,,,,,,,,,,,,,,60650e72f3359295eb889c0f,21:08:24,02/04/2024
1041.0,,,ospan,symmetry,Ds8g7g7gCNVimfGUxEngpk7azM33,symmetry-judgement-task,130,730209,0.0-46.0-4.0-1.0-1.0-8.0,,,,,,,,,,1.0,1.0,,,,60650e72f3359295eb889c0f,21:08:24,02/04/2024
,"<div style=""font-size: 10rem; color: #0000FF"">R</div>",,ospan,letter,Ds8g7g7gCNVimfGUxEngpk7azM33,html-keyboard-response,131,731226,0.0-46.0-4.0-1.0-1.0-9.0,,,,,,,,,,,,,,,60650e72f3359295eb889c0f,21:08:24,02/04/2024
6786.299999952316,"<div class = numbox><p style=""font-size: 2.4rem"">Please recall the letters you saw to the best of your ability. If you do not remember a particular letter, use the SKIP button.<br><b>(When you are ready to lock in your answer, press ENTER)</b></p><button id = button_1 class = ""square num-button"" onclick = ""recordClick(this)""><div class = content><div class = numbers>C</div></div></button><button id = button_2 class = ""square num-button"" onclick = ""recordClick(this)""><div class = content><div class = numbers>G</div></div></button><button id = button_3 class = ""square num-button"" onclick = ""recordClick(this)""><div class = content><div class = numbers>H</div></div></button><button id = button_4 class = ""square num-button"" onclick = ""recordClick(this)""><div class = content><div class = numbers>J</div></div></button><button id = button_5 class = ""square num-button"" onclick = ""recordClick(this)""><div class = content><div class = numbers>K</div></div></button><button id = button_6 class = ""square num-button"" onclick = ""recordClick(this)""><div class = content><div class = numbers>L</div></div></button><button id = button_7 class = ""square num-button"" onclick = ""recordClick(this)""><div class = content><div class = numbers>N</div></div></button><button id = button_8 class = ""square num-button"" onclick = ""recordClick(this)""><div class = content><div class = numbers>P</div></div></button><button id = button_9 class = ""square num-button"" onclick = ""recordClick(this)""><div class = content><div class = numbers>Q</div></div></button><button id = button_10 class = ""square num-button"" onclick = ""recordClick(this)""><div class = content><div class = numbers>R</div></div></button><button id = button_11 class = ""square num-button"" onclick = ""recordClick(this)""><div class = content><div class = numbers>S</div></div></button><button id = button_12 class = ""square num-button"" onclick = ""recordClick(this)""><div class = content><div class = numbers>Y</div></div></button><button class = clear_button id = ""ClearButton"" onclick = ""clearResponse()"">BACKSPACE</button><button class = blank_button id = ""BlankButton"" onclick = ""blankResponse()"">SKIP</button><p style=""font-size: 2.4rem""><u><b>Current Answer:</b></u></p><br><br><div id=echoed_txt style=""font-size: 5rem; color:blue;""><b></b></div></div>",enter,ospan,retrieval,Ds8g7g7gCNVimfGUxEngpk7azM33,html-keyboard-response,132,738764,0.0-46.0-4.0-1.0-2.0,12,12,12,5.0,"[""J"",""G"",""Y"",""P"",""R""]","[""J"",""G"",""Y"",""P"",""R""]",1.0,5.0,,,,,,,60650e72f3359295eb889c0f,21:08:24,02/04/2024
925.0,[''],0,ospan,feedback,Ds8g7g7gCNVimfGUxEngpk7azM33,html-button-response,133,740207,0.0-46.0-4.0-1.0-3.0,,,,,,,,,,,,100.0,0.0,,60650e72f3359295eb889c0f,21:08:24,02/04/2024
,"<p style=""font-size:75px;"">...</p>",,ospan,iti,Ds8g7g7gCNVimfGUxEngpk7azM33,html-keyboard-response,134,741209,0.0-46.0-4.0-2.0-0.0,,,,,,,,,,,,,,,60650e72f3359295eb889c0f,21:08:24,02/04/2024
1329.0,,,ospan,symmetry,Ds8g7g7gCNVimfGUxEngpk7azM33,symmetry-judgement-task,135,743690,0.0-46.0-4.0-2.0-1.0-0.0,,,,,,,,,,1.0,1.0,,,,60650e72f3359295eb889c0f,21:08:24,02/04/2024
,"<div style=""font-size: 10rem; color: #0000FF"">N</div>",,ospan,letter,Ds8g7g7gCNVimfGUxEngpk7azM33,html-keyboard-response,136,744692,0.0-46.0-4.0-2.0-1.0-1.0,,,,,,,,,,,,,,,60650e72f3359295eb889c0f,21:08:24,02/04/2024
1264.0,,,ospan,symmetry,Ds8g7g7gCNVimfGUxEngpk7azM33,symmetry-judgement-task,137,747873,0.0-46.0-4.0-2.0-1.0-2.0,,,,,,,,,,1.0,1.0,,,,60650e72f3359295eb889c0f,21:08:24,02/04/2024
,"<div style=""font-size: 10rem; color: #0000FF"">R</div>",,ospan,letter,Ds8g7g7gCNVimfGUxEngpk7azM33,html-keyboard-response,138,748891,0.0-46.0-4.0-2.0-1.0-3.0,,,,,,,,,,,,,,,60650e72f3359295eb889c0f,21:08:24,02/04/2024
1553.0,,,ospan,symmetry,Ds8g7g7gCNVimfGUxEngpk7azM33,symmetry-judgement-task,139,752335,0.0-46.0-4.0-2.0-1.0-4.0,,,,,,,,,,1.0,1.0,,,,60650e72f3359295eb889c0f,21:08:24,02/04/2024
,"<div style=""font-size: 10rem; color: #0000FF"">J</div>",,ospan,letter,Ds8g7g7gCNVimfGUxEngpk7azM33,html-keyboard-response,140,753344,0.0-46.0-4.0-2.0-1.0-5.0,,,,,,,,,,,,,,,60650e72f3359295eb889c0f,21:08:24,02/04/2024
5970.399999976158,"<div class = numbox><p style=""font-size: 2.4rem"">Please recall the letters you saw to the best of your ability. If you do not remember a particular letter, use the SKIP button.<br><b>(When you are ready to lock in your answer, press ENTER)</b></p><button id = button_1 class = ""square num-button"" onclick = ""recordClick(this)""><div class = content><div class = numbers>C</div></div></button><button id = button_2 class = ""square num-button"" onclick = ""recordClick(this)""><div class = content><div class = numbers>G</div></div></button><button id = button_3 class = ""square num-button"" onclick = ""recordClick(this)""><div class = content><div class = numbers>H</div></div></button><button id = button_4 class = ""square num-button"" onclick = ""recordClick(this)""><div class = content><div class = numbers>J</div></div></button><button id = button_5 class = ""square num-button"" onclick = ""recordClick(this)""><div class = content><div class = numbers>K</div></div></button><button id = button_6 class = ""square num-button"" onclick = ""recordClick(this)""><div class = content><div class = numbers>L</div></div></button><button id = button_7 class = ""square num-button"" onclick = ""recordClick(this)""><div class = content><div class = numbers>N</div></div></button><button id = button_8 class = ""square num-button"" onclick = ""recordClick(this)""><div class = content><div class = numbers>P</div></div></button><button id = button_9 class = ""square num-button"" onclick = ""recordClick(this)""><div class = content><div class = numbers>Q</div></div></button><button id = button_10 class = ""square num-button"" onclick = ""recordClick(this)""><div class = content><div class = numbers>R</div></div></button><button id = button_11 class = ""square num-button"" onclick = ""recordClick(this)""><div class = content><div class = numbers>S</div></div></button><button id = button_12 class = ""square num-button"" onclick = ""recordClick(this)""><div class = content><div class = numbers>Y</div></div></button><button class = clear_button id = ""ClearButton"" onclick = ""clearResponse()"">BACKSPACE</button><button class = blank_button id = ""BlankButton"" onclick = ""blankResponse()"">SKIP</button><p style=""font-size: 2.4rem""><u><b>Current Answer:</b></u></p><br><br><div id=echoed_txt style=""font-size: 5rem; color:blue;""><b></b></div></div>",enter,ospan,retrieval,Ds8g7g7gCNVimfGUxEngpk7azM33,html-keyboard-response,141,760078,0.0-46.0-4.0-2.0-2.0,15,15,15,3.0,"[""N"",""R"",""J""]","[""N"",""R"",""J""]",1.0,3.0,,,,,,,60650e72f3359295eb889c0f,21:08:24,02/04/2024
933.6999999880791,[''],0,ospan,feedback,Ds8g7g7gCNVimfGUxEngpk7azM33,html-button-response,142,761522,0.0-46.0-4.0-2.0-3.0,,,,,,,,,,,,100.0,0.0,,60650e72f3359295eb889c0f,21:08:24,02/04/2024
,"<p style=""font-size:75px;"">...</p>",,ospan,iti,Ds8g7g7gCNVimfGUxEngpk7azM33,html-keyboard-response,143,762528,0.0-46.0-5.0-0.0-0.0,,,,,,,,,,,,,,,60650e72f3359295eb889c0f,21:08:24,02/04/2024
1268.0,,,ospan,symmetry,Ds8g7g7gCNVimfGUxEngpk7azM33,symmetry-judgement-task,144,764930,0.0-46.0-5.0-0.0-1.0-0.0,,,,,,,,,,1.0,1.0,,,,60650e72f3359295eb889c0f,21:08:24,02/04/2024
,"<div style=""font-size: 10rem; color: #0000FF"">G</div>",,ospan,letter,Ds8g7g7gCNVimfGUxEngpk7azM33,html-keyboard-response,145,765947,0.0-46.0-5.0-0.0-1.0-1.0,,,,,,,,,,,,,,,60650e72f3359295eb889c0f,21:08:24,02/04/2024
925.0,,,ospan,symmetry,Ds8g7g7gCNVimfGUxEngpk7azM33,symmetry-judgement-task,146,768781,0.0-46.0-5.0-0.0-1.0-2.0,,,,,,,,,,1.0,1.0,,,,60650e72f3359295eb889c0f,21:08:24,02/04/2024
,"<div style=""font-size: 10rem; color: #0000FF"">K</div>",,ospan,letter,Ds8g7g7gCNVimfGUxEngpk7azM33,html-keyboard-response,147,769793,0.0-46.0-5.0-0.0-1.0-3.0,,,,,,,,,,,,,,,60650e72f3359295eb889c0f,21:08:24,02/04/2024
1666.0,,,ospan,symmetry,Ds8g7g7gCNVimfGUxEngpk7azM33,symmetry-judgement-task,148,773367,0.0-46.0-5.0-0.0-1.0-4.0,,,,,,,,,,1.0,1.0,,,,60650e72f3359295eb889c0f,21:08:24,02/04/2024
,"<div style=""font-size: 10rem; color: #0000FF"">Y</div>",,ospan,letter,Ds8g7g7gCNVimfGUxEngpk7azM33,html-keyboard-response,149,774381,0.0-46.0-5.0-0.0-1.0-5.0,,,,,,,,,,,,,,,60650e72f3359295eb889c0f,21:08:24,02/04/2024
931.0,,,ospan,symmetry,Ds8g7g7gCNVimfGUxEngpk7azM33,symmetry-judgement-task,150,777221,0.0-46.0-5.0-0.0-1.0-6.0,,,,,,,,,,1.0,1.0,,,,60650e72f3359295eb889c0f,21:08:24,02/04/2024
,"<div style=""font-size: 10rem; color: #0000FF"">L</div>",,ospan,letter,Ds8g7g7gCNVimfGUxEngpk7azM33,html-keyboard-response,151,778235,0.0-46.0-5.0-0.0-1.0-7.0,,,,,,,,,,,,,,,60650e72f3359295eb889c0f,21:08:24,02/04/2024
1200.0,,,ospan,symmetry,Ds8g7g7gCNVimfGUxEngpk7azM33,symmetry-judgement-task,152,781347,0.0-46.0-5.0-0.0-1.0-8.0,,,,,,,,,,1.0,1.0,,,,60650e72f3359295eb889c0f,21:08:24,02/04/2024
,"<div style=""font-size: 10rem; color: #0000FF"">N</div>",,ospan,letter,Ds8g7g7gCNVimfGUxEngpk7azM33,html-keyboard-response,153,782365,0.0-46.0-5.0-0.0-1.0-9.0,,,,,,,,,,,,,,,60650e72f3359295eb889c0f,21:08:24,02/04/2024
1151.0,,,ospan,symmetry,Ds8g7g7gCNVimfGUxEngpk7azM33,symmetry-judgement-task,154,785422,0.0-46.0-5.0-0.0-1.0-10.0,,,,,,,,,,1.0,1.0,,,,60650e72f3359295eb889c0f,21:08:24,02/04/2024
,"<div style=""font-size: 10rem; color: #0000FF"">H</div>",,ospan,letter,Ds8g7g7gCNVimfGUxEngpk7azM33,html-keyboard-response,155,786440,0.0-46.0-5.0-0.0-1.0-11.0,,,,,,,,,,,,,,,60650e72f3359295eb889c0f,21:08:24,02/04/2024
7616.700000047684,"<div class = numbox><p style=""font-size: 2.4rem"">Please recall the letters you saw to the best of your ability. If you do not remember a particular letter, use the SKIP button.<br><b>(When you are ready to lock in your answer, press ENTER)</b></p><button id = button_1 class = ""square num-button"" onclick = ""recordClick(this)""><div class = content><div class = numbers>C</div></div></button><button id = button_2 class = ""square num-button"" onclick = ""recordClick(this)""><div class = content><div class = numbers>G</div></div></button><button id = button_3 class = ""square num-button"" onclick = ""recordClick(this)""><div class = content><div class = numbers>H</div></div></button><button id = button_4 class = ""square num-button"" onclick = ""recordClick(this)""><div class = content><div class = numbers>J</div></div></button><button id = button_5 class = ""square num-button"" onclick = ""recordClick(this)""><div class = content><div class = numbers>K</div></div></button><button id = button_6 class = ""square num-button"" onclick = ""recordClick(this)""><div class = content><div class = numbers>L</div></div></button><button id = button_7 class = ""square num-button"" onclick = ""recordClick(this)""><div class = content><div class = numbers>N</div></div></button><button id = button_8 class = ""square num-button"" onclick = ""recordClick(this)""><div class = content><div class = numbers>P</div></div></button><button id = button_9 class = ""square num-button"" onclick = ""recordClick(this)""><div class = content><div class = numbers>Q</div></div></button><button id = button_10 class = ""square num-button"" onclick = ""recordClick(this)""><div class = content><div class = numbers>R</div></div></button><button id = button_11 class = ""square num-button"" onclick = ""recordClick(this)""><div class = content><div class = numbers>S</div></div></button><button id = button_12 class = ""square num-button"" onclick = ""recordClick(this)""><div class = content><div class = numbers>Y</div></div></button><button class = clear_button id = ""ClearButton"" onclick = ""clearResponse()"">BACKSPACE</button><button class = blank_button id = ""BlankButton"" onclick = ""blankResponse()"">SKIP</button><p style=""font-size: 2.4rem""><u><b>Current Answer:</b></u></p><br><br><div id=echoed_txt style=""font-size: 5rem; color:blue;""><b></b></div></div>",enter,ospan,retrieval,Ds8g7g7gCNVimfGUxEngpk7azM33,html-keyboard-response,156,794809,0.0-46.0-5.0-0.0-2.0,21,20,15,6.0,"[""G"",""K"",""Y"",""L"",""N"",""J""]","[""G"",""K"",""Y"",""L"",""N"",""H""]",0.0,5.0,,,,,,,60650e72f3359295eb889c0f,21:08:24,02/04/2024
1156.8999999761581,[''],0,ospan,feedback,Ds8g7g7gCNVimfGUxEngpk7azM33,html-button-response,157,796469,0.0-46.0-5.0-0.0-3.0,,,,,,,,,,,,100.0,0.0,,60650e72f3359295eb889c0f,21:08:24,02/04/2024
,"<p style=""font-size:75px;"">...</p>",,ospan,iti,Ds8g7g7gCNVimfGUxEngpk7azM33,html-keyboard-response,158,797483,0.0-46.0-5.0-1.0-0.0,,,,,,,,,,,,,,,60650e72f3359295eb889c0f,21:08:24,02/04/2024
1454.0,,,ospan,symmetry,Ds8g7g7gCNVimfGUxEngpk7azM33,symmetry-judgement-task,159,799978,0.0-46.0-5.0-1.0-1.0-0.0,,,,,,,,,,1.0,1.0,,,,60650e72f3359295eb889c0f,21:08:24,02/04/2024
,"<div style=""font-size: 10rem; color: #0000FF"">C</div>",,ospan,letter,Ds8g7g7gCNVimfGUxEngpk7azM33,html-keyboard-response,160,800989,0.0-46.0-5.0-1.0-1.0-1.0,,,,,,,,,,,,,,,60650e72f3359295eb889c0f,21:08:24,02/04/2024
888.0,,,ospan,symmetry,Ds8g7g7gCNVimfGUxEngpk7azM33,symmetry-judgement-task,161,803784,0.0-46.0-5.0-1.0-1.0-2.0,,,,,,,,,,1.0,1.0,,,,60650e72f3359295eb889c0f,21:08:24,02/04/2024
,"<div style=""font-size: 10rem; color: #0000FF"">H</div>",,ospan,letter,Ds8g7g7gCNVimfGUxEngpk7azM33,html-keyboard-response,162,804800,0.0-46.0-5.0-1.0-1.0-3.0,,,,,,,,,,,,,,,60650e72f3359295eb889c0f,21:08:24,02/04/2024
972.0,,,ospan,symmetry,Ds8g7g7gCNVimfGUxEngpk7azM33,symmetry-judgement-task,163,807706,0.0-46.0-5.0-1.0-1.0-4.0,,,,,,,,,,1.0,1.0,,,,60650e72f3359295eb889c0f,21:08:24,02/04/2024
,"<div style=""font-size: 10rem; color: #0000FF"">Y</div>",,ospan,letter,Ds8g7g7gCNVimfGUxEngpk7azM33,html-keyboard-response,164,808720,0.0-46.0-5.0-1.0-1.0-5.0,,,,,,,,,,,,,,,60650e72f3359295eb889c0f,21:08:24,02/04/2024
1031.0,,,ospan,symmetry,Ds8g7g7gCNVimfGUxEngpk7azM33,symmetry-judgement-task,165,811659,0.0-46.0-5.0-1.0-1.0-6.0,,,,,,,,,,1.0,1.0,,,,60650e72f3359295eb889c0f,21:08:24,02/04/2024
,"<div style=""font-size: 10rem; color: #0000FF"">R</div>",,ospan,letter,Ds8g7g7gCNVimfGUxEngpk7azM33,html-keyboard-response,166,812666,0.0-46.0-5.0-1.0-1.0-7.0,,,,,,,,,,,,,,,60650e72f3359295eb889c0f,21:08:24,02/04/2024
968.0,,,ospan,symmetry,Ds8g7g7gCNVimfGUxEngpk7azM33,symmetry-judgement-task,167,815549,0.0-46.0-5.0-1.0-1.0-8.0,,,,,,,,,,1.0,1.0,,,,60650e72f3359295eb889c0f,21:08:24,02/04/2024
,"<div style=""font-size: 10rem; color: #0000FF"">L</div>",,ospan,letter,Ds8g7g7gCNVimfGUxEngpk7azM33,html-keyboard-response,168,816563,0.0-46.0-5.0-1.0-1.0-9.0,,,,,,,,,,,,,,,60650e72f3359295eb889c0f,21:08:24,02/04/2024
1206.0,,,ospan,symmetry,Ds8g7g7gCNVimfGUxEngpk7azM33,symmetry-judgement-task,169,819658,0.0-46.0-5.0-1.0-1.0-10.0,,,,,,,,,,1.0,1.0,,,,60650e72f3359295eb889c0f,21:08:24,02/04/2024
,"<div style=""font-size: 10rem; color: #0000FF"">J</div>",,ospan,letter,Ds8g7g7gCNVimfGUxEngpk7azM33,html-keyboard-response,170,820674,0.0-46.0-5.0-1.0-1.0-11.0,,,,,,,,,,,,,,,60650e72f3359295eb889c0f,21:08:24,02/04/2024
1042.0,,,ospan,symmetry,Ds8g7g7gCNVimfGUxEngpk7azM33,symmetry-judgement-task,171,823658,0.0-46.0-5.0-1.0-1.0-12.0,,,,,,,,,,1.0,1.0,,,,60650e72f3359295eb889c0f,21:08:24,02/04/2024
,"<div style=""font-size: 10rem; color: #0000FF"">G</div>",,ospan,letter,Ds8g7g7gCNVimfGUxEngpk7azM33,html-keyboard-response,172,824670,0.0-46.0-5.0-1.0-1.0-13.0,,,,,,,,,,,,,,,60650e72f3359295eb889c0f,21:08:24,02/04/2024
6796.599999964237,"<div class = numbox><p style=""font-size: 2.4rem"">Please recall the letters you saw to the best of your ability. If you do not remember a particular letter, use the SKIP button.<br><b>(When you are ready to lock in your answer, press ENTER)</b></p><button id = button_1 class = ""square num-button"" onclick = ""recordClick(this)""><div class = content><div class = numbers>C</div></div></button><button id = button_2 class = ""square num-button"" onclick = ""recordClick(this)""><div class = content><div class = numbers>G</div></div></button><button id = button_3 class = ""square num-button"" onclick = ""recordClick(this)""><div class = content><div class = numbers>H</div></div></button><button id = button_4 class = ""square num-button"" onclick = ""recordClick(this)""><div class = content><div class = numbers>J</div></div></button><button id = button_5 class = ""square num-button"" onclick = ""recordClick(this)""><div class = content><div class = numbers>K</div></div></button><button id = button_6 class = ""square num-button"" onclick = ""recordClick(this)""><div class = content><div class = numbers>L</div></div></button><button id = button_7 class = ""square num-button"" onclick = ""recordClick(this)""><div class = content><div class = numbers>N</div></div></button><button id = button_8 class = ""square num-button"" onclick = ""recordClick(this)""><div class = content><div class = numbers>P</div></div></button><button id = button_9 class = ""square num-button"" onclick = ""recordClick(this)""><div class = content><div class = numbers>Q</div></div></button><button id = button_10 class = ""square num-button"" onclick = ""recordClick(this)""><div class = content><div class = numbers>R</div></div></button><button id = button_11 class = ""square num-button"" onclick = ""recordClick(this)""><div class = content><div class = numbers>S</div></div></button><button id = button_12 class = ""square num-button"" onclick = ""recordClick(this)""><div class = content><div class = numbers>Y</div></div></button><button class = clear_button id = ""ClearButton"" onclick = ""clearResponse()"">BACKSPACE</button><button class = blank_button id = ""BlankButton"" onclick = ""blankResponse()"">SKIP</button><p style=""font-size: 2.4rem""><u><b>Current Answer:</b></u></p><br><br><div id=echoed_txt style=""font-size: 5rem; color:blue;""><b></b></div></div>",enter,ospan,retrieval,Ds8g7g7gCNVimfGUxEngpk7azM33,html-keyboard-response,173,832234,0.0-46.0-5.0-1.0-2.0,28,23,15,7.0,"[""C"",""H"",""Y"",""L"",""J"",""G""]","[""C"",""H"",""Y"",""R"",""L"",""J"",""G""]",0.0,3.0,,,,,,,60650e72f3359295eb889c0f,21:08:24,02/04/2024
941.0,[''],0,ospan,feedback,Ds8g7g7gCNVimfGUxEngpk7azM33,html-button-response,174,833688,0.0-46.0-5.0-1.0-3.0,,,,,,,,,,,,100.0,0.0,,60650e72f3359295eb889c0f,21:08:24,02/04/2024
,"<p style=""font-size:75px;"">...</p>",,ospan,iti,Ds8g7g7gCNVimfGUxEngpk7azM33,html-keyboard-response,175,834692,0.0-46.0-6.0-0.0-0.0,,,,,,,,,,,,,,,60650e72f3359295eb889c0f,21:08:24,02/04/2024
1445.0,,,ospan,symmetry,Ds8g7g7gCNVimfGUxEngpk7azM33,symmetry-judgement-task,176,837260,0.0-46.0-6.0-0.0-1.0-0.0,,,,,,,,,,1.0,1.0,,,,60650e72f3359295eb889c0f,21:08:24,02/04/2024
,"<div style=""font-size: 10rem; color: #0000FF"">C</div>",,ospan,letter,Ds8g7g7gCNVimfGUxEngpk7azM33,html-keyboard-response,177,838267,0.0-46.0-6.0-0.0-1.0-1.0,,,,,,,,,,,,,,,60650e72f3359295eb889c0f,21:08:24,02/04/2024
1014.0,,,ospan,symmetry,Ds8g7g7gCNVimfGUxEngpk7azM33,symmetry-judgement-task,178,841195,0.0-46.0-6.0-0.0-1.0-2.0,,,,,,,,,,1.0,1.0,,,,60650e72f3359295eb889c0f,21:08:24,02/04/2024
,"<div style=""font-size: 10rem; color: #0000FF"">K</div>",,ospan,letter,Ds8g7g7gCNVimfGUxEngpk7azM33,html-keyboard-response,179,842200,0.0-46.0-6.0-0.0-1.0-3.0,,,,,,,,,,,,,,,60650e72f3359295eb889c0f,21:08:24,02/04/2024
1171.0,,,ospan,symmetry,Ds8g7g7gCNVimfGUxEngpk7azM33,symmetry-judgement-task,180,845284,0.0-46.0-6.0-0.0-1.0-4.0,,,,,,,,,,1.0,1.0,,,,60650e72f3359295eb889c0f,21:08:24,02/04/2024
,"<div style=""font-size: 10rem; color: #0000FF"">P</div>",,ospan,letter,Ds8g7g7gCNVimfGUxEngpk7azM33,html-keyboard-response,181,846293,0.0-46.0-6.0-0.0-1.0-5.0,,,,,,,,,,,,,,,60650e72f3359295eb889c0f,21:08:24,02/04/2024
964.0,,,ospan,symmetry,Ds8g7g7gCNVimfGUxEngpk7azM33,symmetry-judgement-task,182,849148,0.0-46.0-6.0-0.0-1.0-6.0,,,,,,,,,,1.0,1.0,,,,60650e72f3359295eb889c0f,21:08:24,02/04/2024
,"<div style=""font-size: 10rem; color: #0000FF"">L</div>",,ospan,letter,Ds8g7g7gCNVimfGUxEngpk7azM33,html-keyboard-response,183,850157,0.0-46.0-6.0-0.0-1.0-7.0,,,,,,,,,,,,,,,60650e72f3359295eb889c0f,21:08:24,02/04/2024
1521.0,,,ospan,symmetry,Ds8g7g7gCNVimfGUxEngpk7azM33,symmetry-judgement-task,184,853561,0.0-46.0-6.0-0.0-1.0-8.0,,,,,,,,,,1.0,1.0,,,,60650e72f3359295eb889c0f,21:08:24,02/04/2024
,"<div style=""font-size: 10rem; color: #0000FF"">G</div>",,ospan,letter,Ds8g7g7gCNVimfGUxEngpk7azM33,html-keyboard-response,185,854576,0.0-46.0-6.0-0.0-1.0-9.0,,,,,,,,,,,,,,,60650e72f3359295eb889c0f,21:08:24,02/04/2024
6377.0,"<div class = numbox><p style=""font-size: 2.4rem"">Please recall the letters you saw to the best of your ability. If you do not remember a particular letter, use the SKIP button.<br><b>(When you are ready to lock in your answer, press ENTER)</b></p><button id = button_1 class = ""square num-button"" onclick = ""recordClick(this)""><div class = content><div class = numbers>C</div></div></button><button id = button_2 class = ""square num-button"" onclick = ""recordClick(this)""><div class = content><div class = numbers>G</div></div></button><button id = button_3 class = ""square num-button"" onclick = ""recordClick(this)""><div class = content><div class = numbers>H</div></div></button><button id = button_4 class = ""square num-button"" onclick = ""recordClick(this)""><div class = content><div class = numbers>J</div></div></button><button id = button_5 class = ""square num-button"" onclick = ""recordClick(this)""><div class = content><div class = numbers>K</div></div></button><button id = button_6 class = ""square num-button"" onclick = ""recordClick(this)""><div class = content><div class = numbers>L</div></div></button><button id = button_7 class = ""square num-button"" onclick = ""recordClick(this)""><div class = content><div class = numbers>N</div></div></button><button id = button_8 class = ""square num-button"" onclick = ""recordClick(this)""><div class = content><div class = numbers>P</div></div></button><button id = button_9 class = ""square num-button"" onclick = ""recordClick(this)""><div class = content><div class = numbers>Q</div></div></button><button id = button_10 class = ""square num-button"" onclick = ""recordClick(this)""><div class = content><div class = numbers>R</div></div></button><button id = button_11 class = ""square num-button"" onclick = ""recordClick(this)""><div class = content><div class = numbers>S</div></div></button><button id = button_12 class = ""square num-button"" onclick = ""recordClick(this)""><div class = content><div class = numbers>Y</div></div></button><button class = clear_button id = ""ClearButton"" onclick = ""clearResponse()"">BACKSPACE</button><button class = blank_button id = ""BlankButton"" onclick = ""blankResponse()"">SKIP</button><p style=""font-size: 2.4rem""><u><b>Current Answer:</b></u></p><br><br><div id=echoed_txt style=""font-size: 5rem; color:blue;""><b></b></div></div>",enter,ospan,retrieval,Ds8g7g7gCNVimfGUxEngpk7azM33,html-keyboard-response,186,861706,0.0-46.0-6.0-0.0-2.0,33,28,20,5.0,"[""C"",""K"",""P"",""L"",""G""]","[""C"",""K"",""P"",""L"",""G""]",1.0,5.0,,,,,,,60650e72f3359295eb889c0f,21:08:24,02/04/2024
961.3999999761581,[''],0,ospan,feedback,Ds8g7g7gCNVimfGUxEngpk7azM33,html-button-response,187,863173,0.0-46.0-6.0-0.0-3.0,,,,,,,,,,,,100.0,0.0,,60650e72f3359295eb889c0f,21:08:24,02/04/2024
,"<p style=""font-size:75px;"">...</p>",,ospan,iti,Ds8g7g7gCNVimfGUxEngpk7azM33,html-keyboard-response,188,864177,0.0-46.0-6.0-1.0-0.0,,,,,,,,,,,,,,,60650e72f3359295eb889c0f,21:08:24,02/04/2024
1437.0,,,ospan,symmetry,Ds8g7g7gCNVimfGUxEngpk7azM33,symmetry-judgement-task,189,866754,0.0-46.0-6.0-1.0-1.0-0.0,,,,,,,,,,1.0,1.0,,,,60650e72f3359295eb889c0f,21:08:24,02/04/2024
,"<div style=""font-size: 10rem; color: #0000FF"">S</div>",,ospan,letter,Ds8g7g7gCNVimfGUxEngpk7azM33,html-keyboard-response,190,867766,0.0-46.0-6.0-1.0-1.0-1.0,,,,,,,,,,,,,,,60650e72f3359295eb889c0f,21:08:24,02/04/2024
1663.0,,,ospan,symmetry,Ds8g7g7gCNVimfGUxEngpk7azM33,symmetry-judgement-task,191,871342,0.0-46.0-6.0-1.0-1.0-2.0,,,,,,,,,,1.0,1.0,,,,60650e72f3359295eb889c0f,21:08:24,02/04/2024
,"<div style=""font-size: 10rem; color: #0000FF"">K</div>",,ospan,letter,Ds8g7g7gCNVimfGUxEngpk7azM33,html-keyboard-response,192,872357,0.0-46.0-6.0-1.0-1.0-3.0,,,,,,,,,,,,,,,60650e72f3359295eb889c0f,21:08:24,02/04/2024
1183.0,,,ospan,symmetry,Ds8g7g7gCNVimfGUxEngpk7azM33,symmetry-judgement-task,193,875450,0.0-46.0-6.0-1.0-1.0-4.0,,,,,,,,,,1.0,1.0,,,,60650e72f3359295eb889c0f,21:08:24,02/04/2024
,"<div style=""font-size: 10rem; color: #0000FF"">H</div>",,ospan,letter,Ds8g7g7gCNVimfGUxEngpk7azM33,html-keyboard-response,194,876461,0.0-46.0-6.0-1.0-1.0-5.0,,,,,,,,,,,,,,,60650e72f3359295eb889c0f,21:08:24,02/04/2024
1071.0,,,ospan,symmetry,Ds8g7g7gCNVimfGUxEngpk7azM33,symmetry-judgement-task,195,879453,0.0-46.0-6.0-1.0-1.0-6.0,,,,,,,,,,1.0,1.0,,,,60650e72f3359295eb889c0f,21:08:24,02/04/2024
,"<div style=""font-size: 10rem; color: #0000FF"">Q</div>",,ospan,letter,Ds8g7g7gCNVimfGUxEngpk7azM33,html-keyboard-response,196,880470,0.0-46.0-6.0-1.0-1.0-7.0,,,,,,,,,,,,,,,60650e72f3359295eb889c0f,21:08:24,02/04/2024
953.0,,,ospan,symmetry,Ds8g7g7gCNVimfGUxEngpk7azM33,symmetry-judgement-task,197,883313,0.0-46.0-6.0-1.0-1.0-8.0,,,,,,,,,,1.0,1.0,,,,60650e72f3359295eb889c0f,21:08:24,02/04/2024
,"<div style=""font-size: 10rem; color: #0000FF"">C</div>",,ospan,letter,Ds8g7g7gCNVimfGUxEngpk7azM33,html-keyboard-response,198,884317,0.0-46.0-6.0-1.0-1.0-9.0,,,,,,,,,,,,,,,60650e72f3359295eb889c0f,21:08:24,02/04/2024
1639.0,,,ospan,symmetry,Ds8g7g7gCNVimfGUxEngpk7azM33,symmetry-judgement-task,199,887844,0.0-46.0-6.0-1.0-1.0-10.0,,,,,,,,,,1.0,1.0,,,,60650e72f3359295eb889c0f,21:08:24,02/04/2024
,"<div style=""font-size: 10rem; color: #0000FF"">P</div>",,ospan,letter,Ds8g7g7gCNVimfGUxEngpk7azM33,html-keyboard-response,200,888845,0.0-46.0-6.0-1.0-1.0-11.0,,,,,,,,,,,,,,,60650e72f3359295eb889c0f,21:08:24,02/04/2024
3282.0,,,ospan,symmetry,Ds8g7g7gCNVimfGUxEngpk7azM33,symmetry-judgement-task,201,894017,0.0-46.0-6.0-1.0-1.0-12.0,,,,,,,,,,1.0,1.0,,,,60650e72f3359295eb889c0f,21:08:24,02/04/2024
,"<div style=""font-size: 10rem; color: #0000FF"">Y</div>",,ospan,letter,Ds8g7g7gCNVimfGUxEngpk7azM33,html-keyboard-response,202,895031,0.0-46.0-6.0-1.0-1.0-13.0,,,,,,,,,,,,,,,60650e72f3359295eb889c0f,21:08:24,02/04/2024
2620.0,,,ospan,symmetry,Ds8g7g7gCNVimfGUxEngpk7azM33,symmetry-judgement-task,203,899561,0.0-46.0-6.0-1.0-1.0-14.0,,,,,,,,,,1.0,1.0,,,,60650e72f3359295eb889c0f,21:08:24,02/04/2024
,"<div style=""font-size: 10rem; color: #0000FF"">J</div>",,ospan,letter,Ds8g7g7gCNVimfGUxEngpk7azM33,html-keyboard-response,204,900574,0.0-46.0-6.0-1.0-1.0-15.0,,,,,,,,,,,,,,,60650e72f3359295eb889c0f,21:08:24,02/04/2024
9717.899999976158,"<div class = numbox><p style=""font-size: 2.4rem"">Please recall the letters you saw to the best of your ability. If you do not remember a particular letter, use the SKIP button.<br><b>(When you are ready to lock in your answer, press ENTER)</b></p><button id = button_1 class = ""square num-button"" onclick = ""recordClick(this)""><div class = content><div class = numbers>C</div></div></button><button id = button_2 class = ""square num-button"" onclick = ""recordClick(this)""><div class = content><div class = numbers>G</div></div></button><button id = button_3 class = ""square num-button"" onclick = ""recordClick(this)""><div class = content><div class = numbers>H</div></div></button><button id = button_4 class = ""square num-button"" onclick = ""recordClick(this)""><div class = content><div class = numbers>J</div></div></button><button id = button_5 class = ""square num-button"" onclick = ""recordClick(this)""><div class = content><div class = numbers>K</div></div></button><button id = button_6 class = ""square num-button"" onclick = ""recordClick(this)""><div class = content><div class = numbers>L</div></div></button><button id = button_7 class = ""square num-button"" onclick = ""recordClick(this)""><div class = content><div class = numbers>N</div></div></button><button id = button_8 class = ""square num-button"" onclick = ""recordClick(this)""><div class = content><div class = numbers>P</div></div></button><button id = button_9 class = ""square num-button"" onclick = ""recordClick(this)""><div class = content><div class = numbers>Q</div></div></button><button id = button_10 class = ""square num-button"" onclick = ""recordClick(this)""><div class = content><div class = numbers>R</div></div></button><button id = button_11 class = ""square num-button"" onclick = ""recordClick(this)""><div class = content><div class = numbers>S</div></div></button><button id = button_12 class = ""square num-button"" onclick = ""recordClick(this)""><div class = content><div class = numbers>Y</div></div></button><button class = clear_button id = ""ClearButton"" onclick = ""clearResponse()"">BACKSPACE</button><button class = blank_button id = ""BlankButton"" onclick = ""blankResponse()"">SKIP</button><p style=""font-size: 2.4rem""><u><b>Current Answer:</b></u></p><br><br><div id=echoed_txt style=""font-size: 5rem; color:blue;""><b></b></div></div>",enter,ospan,retrieval,Ds8g7g7gCNVimfGUxEngpk7azM33,html-keyboard-response,205,911056,0.0-46.0-6.0-1.0-2.0,41,29,20,8.0,"[""H"",""Q"",""C"",""P"",""K"",""L"",""Y""]","[""S"",""K"",""H"",""Q"",""C"",""P"",""Y"",""J""]",0.0,1.0,,,,,,,60650e72f3359295eb889c0f,21:08:24,02/04/2024
1890.0999999642372,[''],0,ospan,feedback,Ds8g7g7gCNVimfGUxEngpk7azM33,html-button-response,206,913464,0.0-46.0-6.0-1.0-3.0,,,,,,,,,,,,100.0,0.0,,60650e72f3359295eb889c0f,21:08:24,02/04/2024
18241.100000023842,,{'Q0': 'was difficult'},ospan,survey_ospan,Ds8g7g7gCNVimfGUxEngpk7azM33,lmdlab-survey-text,207,932466,0.0-46.0-7.0,,,,,,,,,,,,,,Ds8g7g7gCNVimfGUxEngpk7azM33,60650e72f3359295eb889c0f,21:08:24,02/04/2024
989.8000000119209,<p><p style='font-size: 3rem'>Great work!<br><br>This completes the symmetry and memory task.</p><br><br><br>,0,ospan,finish,Ds8g7g7gCNVimfGUxEngpk7azM33,html-button-response,208,933461,0.0-46.0-8.0,41,29,20,,,,,,,,,100.0,,,60650e72f3359295eb889c0f,21:08:24,02/04/2024
