rt,stimulus,response,exp_name,exp_stage,subjectID,trial_type,trial_index,time_elapsed,internal_node_id,ospan_shown,ospan_total,ospan_abs,length,resp_actual,resp_correct,full_correct,num_correct,feedback,accuracy,correct,math_acc,math_warning,databaseID,prolificID,start_time,date
3174.099999964237,<div class = 'left_align' style='font-size: 3.25rem; line-height: 1.3;'><p class = 'center_align'><b>Welcome to the Symmetry and Memory Task</b><br><br><br><br></p>Press 'continue' to show the instructions.<br><br><br><br></div>,0,ospan,instruct,5HhdVCS5QXda6f6aPWNUEySrTgZ2,html-button-response,54,523035,0.0-46.0-0.0-0.0-0.0,,,,,,,,,,,,,,,63468c2501e33edb7ecf1907,12:27:52,03/04/2024
10578.699999988079,"<div class = 'left_align' style='font-size: 3.25rem; line-height: 1.3;'><p class = 'center_align'><b>Symmetry and Memory Task</b><br><br></p>In this task, you will try to memorize letters you see on the screen<br>while you also view black and white grid pictures.<br><br>In the next few minutes, you will have some practice to get you familiar<br>with how the task works.<br><br>It may be difficult sometimes, but please do not worry about making mistakes!<br><br>We will begin by practicing the letter part of the task.<br><br><br><br></div>",0,ospan,instruct,5HhdVCS5QXda6f6aPWNUEySrTgZ2,html-button-response,55,533867,0.0-46.0-0.0-0.0-1.0,,,,,,,,,,,,,,,63468c2501e33edb7ecf1907,12:27:52,03/04/2024
9913.100000023842,"<div class = 'left_align' style='font-size: 3.25rem; line-height: 1.3;'>For this practice part, letters will appear on the screen one at a time.<br><br>Try to remember each letter in the order presented.<br><br>After some letters have been shown, you will see a response screen. Your<br>goal is to report the letters you saw <b>in order</b>. If you do not remember<br>a particular letter, you will have the option to leave it blank.<br><br><br><br></div>",0,ospan,instruct,5HhdVCS5QXda6f6aPWNUEySrTgZ2,html-button-response,56,544034,0.0-46.0-0.0-0.0-2.0,,,,,,,,,,,,,,,63468c2501e33edb7ecf1907,12:27:52,03/04/2024
4014.0,"<div class = 'left_align' style='font-size: 3.25rem; line-height: 1.3;'>Remember, it is very important to get the letters in the same<br>order as you see them.<br><br>When you are ready, you may begin the letter practice.</div><br><br><br><br>",0,ospan,instruct,5HhdVCS5QXda6f6aPWNUEySrTgZ2,html-button-response,57,548301,0.0-46.0-0.0-0.0-3.0,,,,,,,,,,,,,,,63468c2501e33edb7ecf1907,12:27:52,03/04/2024
,"<p style=""font-size:75px;"">...</p>",,ospan,iti,5HhdVCS5QXda6f6aPWNUEySrTgZ2,html-keyboard-response,58,549554,0.0-46.0-0.0-1.0-0.0,,,,,,,,,,,,,,,63468c2501e33edb7ecf1907,12:27:52,03/04/2024
,"<div style=""font-size: 10rem; color: #0000FF"">J</div>",,ospan,letter,5HhdVCS5QXda6f6aPWNUEySrTgZ2,html-keyboard-response,59,550559,0.0-46.0-0.0-1.0-1.0,,,,,,,,,,,,,,,63468c2501e33edb7ecf1907,12:27:52,03/04/2024
,"<div style=""font-size: 10rem; color: #0000FF"">R</div>",,ospan,letter,5HhdVCS5QXda6f6aPWNUEySrTgZ2,html-keyboard-response,60,552319,0.0-46.0-0.0-1.0-2.0,,,,,,,,,,,,,,,63468c2501e33edb7ecf1907,12:27:52,03/04/2024
5421.199999988079,"<div class = numbox><p style=""font-size: 2.4rem"">Please recall the letters you saw to the best of your ability. If you do not remember a particular letter, use the SKIP button.<br><b>(When you are ready to lock in your answer, press ENTER)</b></p><button id = button_1 class = ""square num-button"" onclick = ""recordClick(this)""><div class = content><div class = numbers>C</div></div></button><button id = button_2 class = ""square num-button"" onclick = ""recordClick(this)""><div class = content><div class = numbers>G</div></div></button><button id = button_3 class = ""square num-button"" onclick = ""recordClick(this)""><div class = content><div class = numbers>H</div></div></button><button id = button_4 class = ""square num-button"" onclick = ""recordClick(this)""><div class = content><div class = numbers>J</div></div></button><button id = button_5 class = ""square num-button"" onclick = ""recordClick(this)""><div class = content><div class = numbers>K</div></div></button><button id = button_6 class = ""square num-button"" onclick = ""recordClick(this)""><div class = content><div class = numbers>L</div></div></button><button id = button_7 class = ""square num-button"" onclick = ""recordClick(this)""><div class = content><div class = numbers>N</div></div></button><button id = button_8 class = ""square num-button"" onclick = ""recordClick(this)""><div class = content><div class = numbers>P</div></div></button><button id = button_9 class = ""square num-button"" onclick = ""recordClick(this)""><div class = content><div class = numbers>Q</div></div></button><button id = button_10 class = ""square num-button"" onclick = ""recordClick(this)""><div class = content><div class = numbers>R</div></div></button><button id = button_11 class = ""square num-button"" onclick = ""recordClick(this)""><div class = content><div class = numbers>S</div></div></button><button id = button_12 class = ""square num-button"" onclick = ""recordClick(this)""><div class = content><div class = numbers>Y</div></div></button><button class = clear_button id = ""ClearButton"" onclick = ""clearResponse()"">BACKSPACE</button><button class = blank_button id = ""BlankButton"" onclick = ""blankResponse()"">SKIP</button><p style=""font-size: 2.4rem""><u><b>Current Answer:</b></u></p><br><br><div id=echoed_txt style=""font-size: 5rem; color:blue;""><b></b></div></div>",enter,ospan,retrieval,5HhdVCS5QXda6f6aPWNUEySrTgZ2,html-keyboard-response,61,558494,0.0-46.0-0.0-1.0-3.0,NA,NA,NA,2.0,"[""J"",""R""]","[""J"",""R""]",1.0,2.0,"['<font color=""green"">J</font>', '<font color=""green"">R</font>']",,,,,,63468c2501e33edb7ecf1907,12:27:52,03/04/2024
2134.099999964237,"['<p style=""font-size:44px"">Letters:<br><br><br><font color=""green"">J</font> <font color=""green"">R</font></p><br><br>']",0,ospan,practice_feedback,5HhdVCS5QXda6f6aPWNUEySrTgZ2,html-button-response,62,561134,0.0-46.0-0.0-1.0-4.0,,,,,,,,,,,,,,,63468c2501e33edb7ecf1907,12:27:52,03/04/2024
,"<p style=""font-size:75px;"">...</p>",,ospan,iti,5HhdVCS5QXda6f6aPWNUEySrTgZ2,html-keyboard-response,63,562137,0.0-46.0-0.0-2.0-0.0,,,,,,,,,,,,,,,63468c2501e33edb7ecf1907,12:27:52,03/04/2024
,"<div style=""font-size: 10rem; color: #0000FF"">R</div>",,ospan,letter,5HhdVCS5QXda6f6aPWNUEySrTgZ2,html-keyboard-response,64,563139,0.0-46.0-0.0-2.0-1.0,,,,,,,,,,,,,,,63468c2501e33edb7ecf1907,12:27:52,03/04/2024
,"<div style=""font-size: 10rem; color: #0000FF"">K</div>",,ospan,letter,5HhdVCS5QXda6f6aPWNUEySrTgZ2,html-keyboard-response,65,564896,0.0-46.0-0.0-2.0-2.0,,,,,,,,,,,,,,,63468c2501e33edb7ecf1907,12:27:52,03/04/2024
,"<div style=""font-size: 10rem; color: #0000FF"">C</div>",,ospan,letter,5HhdVCS5QXda6f6aPWNUEySrTgZ2,html-keyboard-response,66,566651,0.0-46.0-0.0-2.0-3.0,,,,,,,,,,,,,,,63468c2501e33edb7ecf1907,12:27:52,03/04/2024
5552.399999976158,"<div class = numbox><p style=""font-size: 2.4rem"">Please recall the letters you saw to the best of your ability. If you do not remember a particular letter, use the SKIP button.<br><b>(When you are ready to lock in your answer, press ENTER)</b></p><button id = button_1 class = ""square num-button"" onclick = ""recordClick(this)""><div class = content><div class = numbers>C</div></div></button><button id = button_2 class = ""square num-button"" onclick = ""recordClick(this)""><div class = content><div class = numbers>G</div></div></button><button id = button_3 class = ""square num-button"" onclick = ""recordClick(this)""><div class = content><div class = numbers>H</div></div></button><button id = button_4 class = ""square num-button"" onclick = ""recordClick(this)""><div class = content><div class = numbers>J</div></div></button><button id = button_5 class = ""square num-button"" onclick = ""recordClick(this)""><div class = content><div class = numbers>K</div></div></button><button id = button_6 class = ""square num-button"" onclick = ""recordClick(this)""><div class = content><div class = numbers>L</div></div></button><button id = button_7 class = ""square num-button"" onclick = ""recordClick(this)""><div class = content><div class = numbers>N</div></div></button><button id = button_8 class = ""square num-button"" onclick = ""recordClick(this)""><div class = content><div class = numbers>P</div></div></button><button id = button_9 class = ""square num-button"" onclick = ""recordClick(this)""><div class = content><div class = numbers>Q</div></div></button><button id = button_10 class = ""square num-button"" onclick = ""recordClick(this)""><div class = content><div class = numbers>R</div></div></button><button id = button_11 class = ""square num-button"" onclick = ""recordClick(this)""><div class = content><div class = numbers>S</div></div></button><button id = button_12 class = ""square num-button"" onclick = ""recordClick(this)""><div class = content><div class = numbers>Y</div></div></button><button class = clear_button id = ""ClearButton"" onclick = ""clearResponse()"">BACKSPACE</button><button class = blank_button id = ""BlankButton"" onclick = ""blankResponse()"">SKIP</button><p style=""font-size: 2.4rem""><u><b>Current Answer:</b></u></p><br><br><div id=echoed_txt style=""font-size: 5rem; color:blue;""><b></b></div></div>",enter,ospan,retrieval,5HhdVCS5QXda6f6aPWNUEySrTgZ2,html-keyboard-response,67,572957,0.0-46.0-0.0-2.0-4.0,NA,NA,NA,3.0,"[""R"",""K"",""C""]","[""R"",""K"",""C""]",1.0,3.0,"['<font color=""green"">R</font>', '<font color=""green"">K</font>', '<font color=""green"">C</font>']",,,,,,63468c2501e33edb7ecf1907,12:27:52,03/04/2024
3040.300000011921,"['<p style=""font-size:44px"">Letters:<br><br><br><font color=""green"">R</font> <font color=""green"">K</font> <font color=""green"">C</font></p><br><br>']",0,ospan,practice_feedback,5HhdVCS5QXda6f6aPWNUEySrTgZ2,html-button-response,68,576501,0.0-46.0-0.0-2.0-5.0,,,,,,,,,,,,,,,63468c2501e33edb7ecf1907,12:27:52,03/04/2024
15242.5,"<div class = 'left_align' style='font-size: 3.25rem; line-height: 1.3;'>Now you will practice doing the <b>symmetry judgment part</b> of the experiment.<br><br>A black and white grid picture will appear on the screen and you have to judge if it is <br>symmetrical or asymetrical.<br><br>A picture is 'mirror' symmetrical if its left half is identical to the right half when flipped.<br>Here are examples of a symmetrical and an asymetrical picture:<br><br><center><img src='Stimuli/img/symm_instructions_extra.png' style='height:420px; width:900'></img></center><br>To judge symmetry, imagine you were to fold each picture down the middle, like a book –<br>would the left half match the right half when folded onto each other?<br><br></div><br>",0,ospan,instruct,5HhdVCS5QXda6f6aPWNUEySrTgZ2,html-button-response,69,591746,0.0-46.0-1.0-0.0-0.0,,,,,,,,,,,,,,,63468c2501e33edb7ecf1907,12:27:52,03/04/2024
4582.199999988079,"<div class = 'left_align' style='font-size: 3.25rem; line-height: 1.3;'>When you have viewed the picture and determined whether it is symmetrical or not,<br>you can <b>click the Yes or No button</b> below to answer.<br><br>If you take longer than 15 seconds, it will continue automatically<br>and record the answer as an error.</div><br>",0,ospan,instruct,5HhdVCS5QXda6f6aPWNUEySrTgZ2,html-button-response,70,596584,0.0-46.0-1.0-0.0-1.0,,,,,,,,,,,,,,,63468c2501e33edb7ecf1907,12:27:52,03/04/2024
3854.699999988079,"<div class = 'left_align' style='font-size: 3.25rem; line-height: 1.3;'>It is <b>very</b> important that you make the symmetry judgment correctly.<br><br>It is also important that you try and judge the picture as quickly as you can.<br><br>When you are ready, click on the button below to try some practice problems.</div><br><br><br><br>",0,ospan,instruct,5HhdVCS5QXda6f6aPWNUEySrTgZ2,html-button-response,71,600693,0.0-46.0-1.0-0.0-2.0,,,,,,,,,,,,,,,63468c2501e33edb7ecf1907,12:27:52,03/04/2024
1307.0,,,ospan,symmetry,5HhdVCS5QXda6f6aPWNUEySrTgZ2,symmetry-judgement-task,72,602803,0.0-46.0-1.0-1.0-0.0,,,,,,,,,,1.0,1.0,,,,63468c2501e33edb7ecf1907,12:27:52,03/04/2024
,"<p style=""color:green; font-size: 35px"">Correct</p>",,ospan,feedback,5HhdVCS5QXda6f6aPWNUEySrTgZ2,html-keyboard-response,73,603555,0.0-46.0-1.0-1.0-1.0,,,,,,,,,,,,,,,63468c2501e33edb7ecf1907,12:27:52,03/04/2024
730.0,,,ospan,symmetry,5HhdVCS5QXda6f6aPWNUEySrTgZ2,symmetry-judgement-task,74,606923,0.0-46.0-1.0-1.0-2.0,,,,,,,,,,1.0,1.0,,,,63468c2501e33edb7ecf1907,12:27:52,03/04/2024
,"<p style=""color:green; font-size: 35px"">Correct</p>",,ospan,feedback,5HhdVCS5QXda6f6aPWNUEySrTgZ2,html-keyboard-response,75,607677,0.0-46.0-1.0-1.0-3.0,,,,,,,,,,,,,,,63468c2501e33edb7ecf1907,12:27:52,03/04/2024
1026.0,,,ospan,symmetry,5HhdVCS5QXda6f6aPWNUEySrTgZ2,symmetry-judgement-task,76,611336,0.0-46.0-1.0-1.0-4.0,,,,,,,,,,1.0,1.0,,,,63468c2501e33edb7ecf1907,12:27:52,03/04/2024
,"<p style=""color:green; font-size: 35px"">Correct</p>",,ospan,feedback,5HhdVCS5QXda6f6aPWNUEySrTgZ2,html-keyboard-response,77,612088,0.0-46.0-1.0-1.0-5.0,,,,,,,,,,,,,,,63468c2501e33edb7ecf1907,12:27:52,03/04/2024
1575.199999988079,"<p style=""font-size: 3rem;"">You responded correctly on 3 of 3 symmetry judgments. Good job!</p><br><br>",0,ospan,practice,5HhdVCS5QXda6f6aPWNUEySrTgZ2,html-button-response,78,615671,0.0-46.0-1.0-2.0,,,,,,,,,,,,,,,63468c2501e33edb7ecf1907,12:27:52,03/04/2024
3331.2000000476837,"<div class = 'left_align' style='font-size: 3.25rem; line-height: 1.3;'>Now you will practice doing both parts of the experiment at the same time.<br><br>In the next practice set, you will be given one grid picture to judge.<br>Then letter will appear on the screen. Try to remember the letter.<br><br>It is <b>very important</b> to make the symmetry judgment as quickly and accurately as possible.<br><br>Just as before, once you have make the symmetry judgment, you can click Yes or No.<br><b>Note that you will no longer see Correct or Incorrect feedback.</div><br><br><br><br>",0,ospan,instruct,5HhdVCS5QXda6f6aPWNUEySrTgZ2,html-button-response,79,619255,0.0-46.0-2.0-0.0-0.0,,,,,,,,,,,,,,,63468c2501e33edb7ecf1907,12:27:52,03/04/2024
6760.0,"<div class = 'left_align' style='font-size: 3.25rem; line-height: 1.3;'>After the letter goes away, another grid picture will appear, and then<br>another letter.<br><br>At the end of each set of letters and grids, you will recall the letters to the best<br>of your ability. Remember, try your best to get the letters in the correct order.<br><br>It is important to <b>quickly</b> and <b>accurately</b> make the symmetry judgments.</div><br><br><br><br>",0,ospan,instruct,5HhdVCS5QXda6f6aPWNUEySrTgZ2,html-button-response,80,626269,0.0-46.0-2.0-0.0-1.0,,,,,,,,,,,,,,,63468c2501e33edb7ecf1907,12:27:52,03/04/2024
4523.600000023842,"<div class = 'left_align' style='font-size: 3.25rem; line-height: 1.3;'>On the feedback screen, if you are not doing well at the symmetry judgments,<br>you will also see a warning in the middle. This indicates your percent <br>correct for the grid pictures for the entire experiment.<br><br>It is <b>very</b> important for you to keep accuracy at least at 85%: <u>We can only use<br>data where the participant was at least 85% accurate on the judgments.</u> Therefore,<br> please try your best to perform well on the symmetry judgments, <b>at the same time</b><br>doing your best to recall as many letters as possible.<br><br>Click the button to try some practice problems.</div><br><br><br><br>",0,ospan,instruct,5HhdVCS5QXda6f6aPWNUEySrTgZ2,html-button-response,81,631045,0.0-46.0-2.0-0.0-2.0,,,,,,,,,,,,,,,63468c2501e33edb7ecf1907,12:27:52,03/04/2024
,"<p style=""font-size:75px;"">...</p>",,ospan,iti,5HhdVCS5QXda6f6aPWNUEySrTgZ2,html-keyboard-response,82,632299,0.0-46.0-2.0-1.0-0.0,,,,,,,,,,,,,,,63468c2501e33edb7ecf1907,12:27:52,03/04/2024
1207.0,,,ospan,symmetry,5HhdVCS5QXda6f6aPWNUEySrTgZ2,symmetry-judgement-task,83,634650,0.0-46.0-2.0-1.0-1.0-0.0,,,,,,,,,,1.0,1.0,,,,63468c2501e33edb7ecf1907,12:27:52,03/04/2024
,"<div style=""font-size: 10rem; color: #0000FF"">P</div>",,ospan,letter,5HhdVCS5QXda6f6aPWNUEySrTgZ2,html-keyboard-response,84,635652,0.0-46.0-2.0-1.0-1.0-1.0,,,,,,,,,,,,,,,63468c2501e33edb7ecf1907,12:27:52,03/04/2024
1285.0,,,ospan,symmetry,5HhdVCS5QXda6f6aPWNUEySrTgZ2,symmetry-judgement-task,85,638832,0.0-46.0-2.0-1.0-1.0-2.0,,,,,,,,,,1.0,1.0,,,,63468c2501e33edb7ecf1907,12:27:52,03/04/2024
,"<div style=""font-size: 10rem; color: #0000FF"">Y</div>",,ospan,letter,5HhdVCS5QXda6f6aPWNUEySrTgZ2,html-keyboard-response,86,639833,0.0-46.0-2.0-1.0-1.0-3.0,,,,,,,,,,,,,,,63468c2501e33edb7ecf1907,12:27:52,03/04/2024
703.0,,,ospan,symmetry,5HhdVCS5QXda6f6aPWNUEySrTgZ2,symmetry-judgement-task,87,642398,0.0-46.0-2.0-1.0-1.0-4.0,,,,,,,,,,1.0,1.0,,,,63468c2501e33edb7ecf1907,12:27:52,03/04/2024
,"<div style=""font-size: 10rem; color: #0000FF"">J</div>",,ospan,letter,5HhdVCS5QXda6f6aPWNUEySrTgZ2,html-keyboard-response,88,643400,0.0-46.0-2.0-1.0-1.0-5.0,,,,,,,,,,,,,,,63468c2501e33edb7ecf1907,12:27:52,03/04/2024
3012.400000035763,"<div class = numbox><p style=""font-size: 2.4rem"">Please recall the letters you saw to the best of your ability. If you do not remember a particular letter, use the SKIP button.<br><b>(When you are ready to lock in your answer, press ENTER)</b></p><button id = button_1 class = ""square num-button"" onclick = ""recordClick(this)""><div class = content><div class = numbers>C</div></div></button><button id = button_2 class = ""square num-button"" onclick = ""recordClick(this)""><div class = content><div class = numbers>G</div></div></button><button id = button_3 class = ""square num-button"" onclick = ""recordClick(this)""><div class = content><div class = numbers>H</div></div></button><button id = button_4 class = ""square num-button"" onclick = ""recordClick(this)""><div class = content><div class = numbers>J</div></div></button><button id = button_5 class = ""square num-button"" onclick = ""recordClick(this)""><div class = content><div class = numbers>K</div></div></button><button id = button_6 class = ""square num-button"" onclick = ""recordClick(this)""><div class = content><div class = numbers>L</div></div></button><button id = button_7 class = ""square num-button"" onclick = ""recordClick(this)""><div class = content><div class = numbers>N</div></div></button><button id = button_8 class = ""square num-button"" onclick = ""recordClick(this)""><div class = content><div class = numbers>P</div></div></button><button id = button_9 class = ""square num-button"" onclick = ""recordClick(this)""><div class = content><div class = numbers>Q</div></div></button><button id = button_10 class = ""square num-button"" onclick = ""recordClick(this)""><div class = content><div class = numbers>R</div></div></button><button id = button_11 class = ""square num-button"" onclick = ""recordClick(this)""><div class = content><div class = numbers>S</div></div></button><button id = button_12 class = ""square num-button"" onclick = ""recordClick(this)""><div class = content><div class = numbers>Y</div></div></button><button class = clear_button id = ""ClearButton"" onclick = ""clearResponse()"">BACKSPACE</button><button class = blank_button id = ""BlankButton"" onclick = ""blankResponse()"">SKIP</button><p style=""font-size: 2.4rem""><u><b>Current Answer:</b></u></p><br><br><div id=echoed_txt style=""font-size: 5rem; color:blue;""><b></b></div></div>",enter,ospan,retrieval,5HhdVCS5QXda6f6aPWNUEySrTgZ2,html-keyboard-response,89,647167,0.0-46.0-2.0-1.0-2.0-0.0,NA,NA,NA,3.0,"[""P"",""Y"",""J""]","[""P"",""Y"",""J""]",1.0,3.0,"['<font color=""green"">P</font>', '<font color=""green"">Y</font>', '<font color=""green"">J</font>']",,,,,,63468c2501e33edb7ecf1907,12:27:52,03/04/2024
1007.1000000238419,"['<p style=""font-size:44px"">Letters:<br><br><br><font color=""green"">P</font> <font color=""green"">Y</font> <font color=""green"">J</font></p><br><br><p style=""font-size:30px"">Symmetry:<br><br><font color=""green"">100%</font></p><br><br>']",0,ospan,practice_feedback,5HhdVCS5QXda6f6aPWNUEySrTgZ2,html-button-response,90,648678,0.0-46.0-2.0-1.0-2.0-1.0,,,,,,,,,,,,,,,63468c2501e33edb7ecf1907,12:27:52,03/04/2024
,"<p style=""font-size:75px;"">...</p>",,ospan,iti,5HhdVCS5QXda6f6aPWNUEySrTgZ2,html-keyboard-response,91,649681,0.0-46.0-2.0-2.0-0.0,,,,,,,,,,,,,,,63468c2501e33edb7ecf1907,12:27:52,03/04/2024
1097.0,,,ospan,symmetry,5HhdVCS5QXda6f6aPWNUEySrTgZ2,symmetry-judgement-task,92,651910,0.0-46.0-2.0-2.0-1.0-0.0,,,,,,,,,,1.0,1.0,,,,63468c2501e33edb7ecf1907,12:27:52,03/04/2024
,"<div style=""font-size: 10rem; color: #0000FF"">H</div>",,ospan,letter,5HhdVCS5QXda6f6aPWNUEySrTgZ2,html-keyboard-response,93,652912,0.0-46.0-2.0-2.0-1.0-1.0,,,,,,,,,,,,,,,63468c2501e33edb7ecf1907,12:27:52,03/04/2024
856.0,,,ospan,symmetry,5HhdVCS5QXda6f6aPWNUEySrTgZ2,symmetry-judgement-task,94,655654,0.0-46.0-2.0-2.0-1.0-2.0,,,,,,,,,,1.0,1.0,,,,63468c2501e33edb7ecf1907,12:27:52,03/04/2024
,"<div style=""font-size: 10rem; color: #0000FF"">R</div>",,ospan,letter,5HhdVCS5QXda6f6aPWNUEySrTgZ2,html-keyboard-response,95,656660,0.0-46.0-2.0-2.0-1.0-3.0,,,,,,,,,,,,,,,63468c2501e33edb7ecf1907,12:27:52,03/04/2024
914.0,,,ospan,symmetry,5HhdVCS5QXda6f6aPWNUEySrTgZ2,symmetry-judgement-task,96,659459,0.0-46.0-2.0-2.0-1.0-4.0,,,,,,,,,,1.0,1.0,,,,63468c2501e33edb7ecf1907,12:27:52,03/04/2024
,"<div style=""font-size: 10rem; color: #0000FF"">P</div>",,ospan,letter,5HhdVCS5QXda6f6aPWNUEySrTgZ2,html-keyboard-response,97,660462,0.0-46.0-2.0-2.0-1.0-5.0,,,,,,,,,,,,,,,63468c2501e33edb7ecf1907,12:27:52,03/04/2024
3283.300000011921,"<div class = numbox><p style=""font-size: 2.4rem"">Please recall the letters you saw to the best of your ability. If you do not remember a particular letter, use the SKIP button.<br><b>(When you are ready to lock in your answer, press ENTER)</b></p><button id = button_1 class = ""square num-button"" onclick = ""recordClick(this)""><div class = content><div class = numbers>C</div></div></button><button id = button_2 class = ""square num-button"" onclick = ""recordClick(this)""><div class = content><div class = numbers>G</div></div></button><button id = button_3 class = ""square num-button"" onclick = ""recordClick(this)""><div class = content><div class = numbers>H</div></div></button><button id = button_4 class = ""square num-button"" onclick = ""recordClick(this)""><div class = content><div class = numbers>J</div></div></button><button id = button_5 class = ""square num-button"" onclick = ""recordClick(this)""><div class = content><div class = numbers>K</div></div></button><button id = button_6 class = ""square num-button"" onclick = ""recordClick(this)""><div class = content><div class = numbers>L</div></div></button><button id = button_7 class = ""square num-button"" onclick = ""recordClick(this)""><div class = content><div class = numbers>N</div></div></button><button id = button_8 class = ""square num-button"" onclick = ""recordClick(this)""><div class = content><div class = numbers>P</div></div></button><button id = button_9 class = ""square num-button"" onclick = ""recordClick(this)""><div class = content><div class = numbers>Q</div></div></button><button id = button_10 class = ""square num-button"" onclick = ""recordClick(this)""><div class = content><div class = numbers>R</div></div></button><button id = button_11 class = ""square num-button"" onclick = ""recordClick(this)""><div class = content><div class = numbers>S</div></div></button><button id = button_12 class = ""square num-button"" onclick = ""recordClick(this)""><div class = content><div class = numbers>Y</div></div></button><button class = clear_button id = ""ClearButton"" onclick = ""clearResponse()"">BACKSPACE</button><button class = blank_button id = ""BlankButton"" onclick = ""blankResponse()"">SKIP</button><p style=""font-size: 2.4rem""><u><b>Current Answer:</b></u></p><br><br><div id=echoed_txt style=""font-size: 5rem; color:blue;""><b></b></div></div>",enter,ospan,retrieval,5HhdVCS5QXda6f6aPWNUEySrTgZ2,html-keyboard-response,98,664497,0.0-46.0-2.0-2.0-2.0-0.0,NA,NA,NA,3.0,"[""H"",""R"",""P""]","[""H"",""R"",""P""]",1.0,3.0,"['<font color=""green"">H</font>', '<font color=""green"">R</font>', '<font color=""green"">P</font>']",,,,,,63468c2501e33edb7ecf1907,12:27:52,03/04/2024
1074.9000000357628,"['<p style=""font-size:44px"">Letters:<br><br><br><font color=""green"">H</font> <font color=""green"">R</font> <font color=""green"">P</font></p><br><br><p style=""font-size:30px"">Symmetry:<br><br><font color=""green"">100%</font></p><br><br>']",0,ospan,practice_feedback,5HhdVCS5QXda6f6aPWNUEySrTgZ2,html-button-response,99,666078,0.0-46.0-2.0-2.0-2.0-1.0,,,,,,,,,,,,,,,63468c2501e33edb7ecf1907,12:27:52,03/04/2024
7452.800000011921,"<div class = 'left_align' style='font-size: 3rem; line-height: 1.3;'><b>Great work! That is the end of practice.</b><br><br>The real trials will look just like the practice trials you just completed.<br><br><u>Here, you will not see feedback</u>. First, you will see an grid picture to judge,<br>then a letter to remember. When the recall screen appears, report the letters in the<br>order presented. If you forget a letter, remember to use the <b>blank</b> button to move to the<br>next letter. Some of the sets will have more symmetry grids and letters than others.<br><br>It is important that you do your best on both the symmetry judgments and the letter recall<br>parts of the experiment. For for the symmetry judgments, try to work as <b>quickly</b> and <br>as <b>accurately</b> as possible. Remember to keep your symmetry accuracy at 85% or above.<br><br><b>For the letters, do NOT use any external aid (e.g., writing on paper, electronic device).</b><br><br>It is <u>very important</u> to our experiment to have a <b>true</b> view of your real performance.<br><br>Do not worry if you miss some when it gets hard! This task is meant to be very challenging!<br><br>Click the button to begin.</div><br><br><br><br>",0,ospan,starting_real_here,5HhdVCS5QXda6f6aPWNUEySrTgZ2,html-button-response,100,673533,0.0-46.0-2.0-3.0,,,,,,,,,,,,,,,63468c2501e33edb7ecf1907,12:27:52,03/04/2024
,"<p style=""font-size:75px;"">...</p>",,ospan,iti,5HhdVCS5QXda6f6aPWNUEySrTgZ2,html-keyboard-response,101,674788,0.0-46.0-3.0-0.0-0.0,,,,,,,,,,,,,,,63468c2501e33edb7ecf1907,12:27:52,03/04/2024
997.0,,,ospan,symmetry,5HhdVCS5QXda6f6aPWNUEySrTgZ2,symmetry-judgement-task,102,676920,0.0-46.0-3.0-0.0-1.0-0.0,,,,,,,,,,1.0,1.0,,,,63468c2501e33edb7ecf1907,12:27:52,03/04/2024
,"<div style=""font-size: 10rem; color: #0000FF"">G</div>",,ospan,letter,5HhdVCS5QXda6f6aPWNUEySrTgZ2,html-keyboard-response,103,677923,0.0-46.0-3.0-0.0-1.0-1.0,,,,,,,,,,,,,,,63468c2501e33edb7ecf1907,12:27:52,03/04/2024
900.0,,,ospan,symmetry,5HhdVCS5QXda6f6aPWNUEySrTgZ2,symmetry-judgement-task,104,680719,0.0-46.0-3.0-0.0-1.0-2.0,,,,,,,,,,1.0,1.0,,,,63468c2501e33edb7ecf1907,12:27:52,03/04/2024
,"<div style=""font-size: 10rem; color: #0000FF"">P</div>",,ospan,letter,5HhdVCS5QXda6f6aPWNUEySrTgZ2,html-keyboard-response,105,681721,0.0-46.0-3.0-0.0-1.0-3.0,,,,,,,,,,,,,,,63468c2501e33edb7ecf1907,12:27:52,03/04/2024
1204.0,,,ospan,symmetry,5HhdVCS5QXda6f6aPWNUEySrTgZ2,symmetry-judgement-task,106,684804,0.0-46.0-3.0-0.0-1.0-4.0,,,,,,,,,,1.0,1.0,,,,63468c2501e33edb7ecf1907,12:27:52,03/04/2024
,"<div style=""font-size: 10rem; color: #0000FF"">K</div>",,ospan,letter,5HhdVCS5QXda6f6aPWNUEySrTgZ2,html-keyboard-response,107,685807,0.0-46.0-3.0-0.0-1.0-5.0,,,,,,,,,,,,,,,63468c2501e33edb7ecf1907,12:27:52,03/04/2024
4436.299999952316,"<div class = numbox><p style=""font-size: 2.4rem"">Please recall the letters you saw to the best of your ability. If you do not remember a particular letter, use the SKIP button.<br><b>(When you are ready to lock in your answer, press ENTER)</b></p><button id = button_1 class = ""square num-button"" onclick = ""recordClick(this)""><div class = content><div class = numbers>C</div></div></button><button id = button_2 class = ""square num-button"" onclick = ""recordClick(this)""><div class = content><div class = numbers>G</div></div></button><button id = button_3 class = ""square num-button"" onclick = ""recordClick(this)""><div class = content><div class = numbers>H</div></div></button><button id = button_4 class = ""square num-button"" onclick = ""recordClick(this)""><div class = content><div class = numbers>J</div></div></button><button id = button_5 class = ""square num-button"" onclick = ""recordClick(this)""><div class = content><div class = numbers>K</div></div></button><button id = button_6 class = ""square num-button"" onclick = ""recordClick(this)""><div class = content><div class = numbers>L</div></div></button><button id = button_7 class = ""square num-button"" onclick = ""recordClick(this)""><div class = content><div class = numbers>N</div></div></button><button id = button_8 class = ""square num-button"" onclick = ""recordClick(this)""><div class = content><div class = numbers>P</div></div></button><button id = button_9 class = ""square num-button"" onclick = ""recordClick(this)""><div class = content><div class = numbers>Q</div></div></button><button id = button_10 class = ""square num-button"" onclick = ""recordClick(this)""><div class = content><div class = numbers>R</div></div></button><button id = button_11 class = ""square num-button"" onclick = ""recordClick(this)""><div class = content><div class = numbers>S</div></div></button><button id = button_12 class = ""square num-button"" onclick = ""recordClick(this)""><div class = content><div class = numbers>Y</div></div></button><button class = clear_button id = ""ClearButton"" onclick = ""clearResponse()"">BACKSPACE</button><button class = blank_button id = ""BlankButton"" onclick = ""blankResponse()"">SKIP</button><p style=""font-size: 2.4rem""><u><b>Current Answer:</b></u></p><br><br><div id=echoed_txt style=""font-size: 5rem; color:blue;""><b></b></div></div>",enter,ospan,retrieval,5HhdVCS5QXda6f6aPWNUEySrTgZ2,html-keyboard-response,108,690997,0.0-46.0-3.0-0.0-2.0,3,3,3,3.0,"[""G"",""P"",""K""]","[""G"",""P"",""K""]",1.0,3.0,,,,,,,63468c2501e33edb7ecf1907,12:27:52,03/04/2024
876.3000000119209,[''],0,ospan,feedback,5HhdVCS5QXda6f6aPWNUEySrTgZ2,html-button-response,109,692380,0.0-46.0-3.0-0.0-3.0,,,,,,,,,,,,100.0,0.0,,63468c2501e33edb7ecf1907,12:27:52,03/04/2024
,"<p style=""font-size:75px;"">...</p>",,ospan,iti,5HhdVCS5QXda6f6aPWNUEySrTgZ2,html-keyboard-response,110,693384,0.0-46.0-4.0-0.0-0.0,,,,,,,,,,,,,,,63468c2501e33edb7ecf1907,12:27:52,03/04/2024
1168.0,,,ospan,symmetry,5HhdVCS5QXda6f6aPWNUEySrTgZ2,symmetry-judgement-task,111,695694,0.0-46.0-4.0-0.0-1.0-0.0,,,,,,,,,,1.0,1.0,,,,63468c2501e33edb7ecf1907,12:27:52,03/04/2024
,"<div style=""font-size: 10rem; color: #0000FF"">J</div>",,ospan,letter,5HhdVCS5QXda6f6aPWNUEySrTgZ2,html-keyboard-response,112,696700,0.0-46.0-4.0-0.0-1.0-1.0,,,,,,,,,,,,,,,63468c2501e33edb7ecf1907,12:27:52,03/04/2024
963.0,,,ospan,symmetry,5HhdVCS5QXda6f6aPWNUEySrTgZ2,symmetry-judgement-task,113,699549,0.0-46.0-4.0-0.0-1.0-2.0,,,,,,,,,,1.0,1.0,,,,63468c2501e33edb7ecf1907,12:27:52,03/04/2024
,"<div style=""font-size: 10rem; color: #0000FF"">G</div>",,ospan,letter,5HhdVCS5QXda6f6aPWNUEySrTgZ2,html-keyboard-response,114,700556,0.0-46.0-4.0-0.0-1.0-3.0,,,,,,,,,,,,,,,63468c2501e33edb7ecf1907,12:27:52,03/04/2024
969.0,,,ospan,symmetry,5HhdVCS5QXda6f6aPWNUEySrTgZ2,symmetry-judgement-task,115,703401,0.0-46.0-4.0-0.0-1.0-4.0,,,,,,,,,,1.0,1.0,,,,63468c2501e33edb7ecf1907,12:27:52,03/04/2024
,"<div style=""font-size: 10rem; color: #0000FF"">Y</div>",,ospan,letter,5HhdVCS5QXda6f6aPWNUEySrTgZ2,html-keyboard-response,116,704403,0.0-46.0-4.0-0.0-1.0-5.0,,,,,,,,,,,,,,,63468c2501e33edb7ecf1907,12:27:52,03/04/2024
1076.0,,,ospan,symmetry,5HhdVCS5QXda6f6aPWNUEySrTgZ2,symmetry-judgement-task,117,707369,0.0-46.0-4.0-0.0-1.0-6.0,,,,,,,,,,1.0,1.0,,,,63468c2501e33edb7ecf1907,12:27:52,03/04/2024
,"<div style=""font-size: 10rem; color: #0000FF"">P</div>",,ospan,letter,5HhdVCS5QXda6f6aPWNUEySrTgZ2,html-keyboard-response,118,708375,0.0-46.0-4.0-0.0-1.0-7.0,,,,,,,,,,,,,,,63468c2501e33edb7ecf1907,12:27:52,03/04/2024
4812.5,"<div class = numbox><p style=""font-size: 2.4rem"">Please recall the letters you saw to the best of your ability. If you do not remember a particular letter, use the SKIP button.<br><b>(When you are ready to lock in your answer, press ENTER)</b></p><button id = button_1 class = ""square num-button"" onclick = ""recordClick(this)""><div class = content><div class = numbers>C</div></div></button><button id = button_2 class = ""square num-button"" onclick = ""recordClick(this)""><div class = content><div class = numbers>G</div></div></button><button id = button_3 class = ""square num-button"" onclick = ""recordClick(this)""><div class = content><div class = numbers>H</div></div></button><button id = button_4 class = ""square num-button"" onclick = ""recordClick(this)""><div class = content><div class = numbers>J</div></div></button><button id = button_5 class = ""square num-button"" onclick = ""recordClick(this)""><div class = content><div class = numbers>K</div></div></button><button id = button_6 class = ""square num-button"" onclick = ""recordClick(this)""><div class = content><div class = numbers>L</div></div></button><button id = button_7 class = ""square num-button"" onclick = ""recordClick(this)""><div class = content><div class = numbers>N</div></div></button><button id = button_8 class = ""square num-button"" onclick = ""recordClick(this)""><div class = content><div class = numbers>P</div></div></button><button id = button_9 class = ""square num-button"" onclick = ""recordClick(this)""><div class = content><div class = numbers>Q</div></div></button><button id = button_10 class = ""square num-button"" onclick = ""recordClick(this)""><div class = content><div class = numbers>R</div></div></button><button id = button_11 class = ""square num-button"" onclick = ""recordClick(this)""><div class = content><div class = numbers>S</div></div></button><button id = button_12 class = ""square num-button"" onclick = ""recordClick(this)""><div class = content><div class = numbers>Y</div></div></button><button class = clear_button id = ""ClearButton"" onclick = ""clearResponse()"">BACKSPACE</button><button class = blank_button id = ""BlankButton"" onclick = ""blankResponse()"">SKIP</button><p style=""font-size: 2.4rem""><u><b>Current Answer:</b></u></p><br><br><div id=echoed_txt style=""font-size: 5rem; color:blue;""><b></b></div></div>",enter,ospan,retrieval,5HhdVCS5QXda6f6aPWNUEySrTgZ2,html-keyboard-response,119,713941,0.0-46.0-4.0-0.0-2.0,7,7,7,4.0,"[""J"",""G"",""Y"",""P""]","[""J"",""G"",""Y"",""P""]",1.0,4.0,,,,,,,63468c2501e33edb7ecf1907,12:27:52,03/04/2024
1913.3999999761581,[''],0,ospan,feedback,5HhdVCS5QXda6f6aPWNUEySrTgZ2,html-button-response,120,716358,0.0-46.0-4.0-0.0-3.0,,,,,,,,,,,,100.0,0.0,,63468c2501e33edb7ecf1907,12:27:52,03/04/2024
,"<p style=""font-size:75px;"">...</p>",,ospan,iti,5HhdVCS5QXda6f6aPWNUEySrTgZ2,html-keyboard-response,121,717364,0.0-46.0-4.0-1.0-0.0,,,,,,,,,,,,,,,63468c2501e33edb7ecf1907,12:27:52,03/04/2024
1091.0,,,ospan,symmetry,5HhdVCS5QXda6f6aPWNUEySrTgZ2,symmetry-judgement-task,122,719610,0.0-46.0-4.0-1.0-1.0-0.0,,,,,,,,,,1.0,1.0,,,,63468c2501e33edb7ecf1907,12:27:52,03/04/2024
,"<div style=""font-size: 10rem; color: #0000FF"">K</div>",,ospan,letter,5HhdVCS5QXda6f6aPWNUEySrTgZ2,html-keyboard-response,123,720616,0.0-46.0-4.0-1.0-1.0-1.0,,,,,,,,,,,,,,,63468c2501e33edb7ecf1907,12:27:52,03/04/2024
1132.0,,,ospan,symmetry,5HhdVCS5QXda6f6aPWNUEySrTgZ2,symmetry-judgement-task,124,723637,0.0-46.0-4.0-1.0-1.0-2.0,,,,,,,,,,1.0,1.0,,,,63468c2501e33edb7ecf1907,12:27:52,03/04/2024
,"<div style=""font-size: 10rem; color: #0000FF"">S</div>",,ospan,letter,5HhdVCS5QXda6f6aPWNUEySrTgZ2,html-keyboard-response,125,724640,0.0-46.0-4.0-1.0-1.0-3.0,,,,,,,,,,,,,,,63468c2501e33edb7ecf1907,12:27:52,03/04/2024
1065.0,,,ospan,symmetry,5HhdVCS5QXda6f6aPWNUEySrTgZ2,symmetry-judgement-task,126,727595,0.0-46.0-4.0-1.0-1.0-4.0,,,,,,,,,,1.0,1.0,,,,63468c2501e33edb7ecf1907,12:27:52,03/04/2024
,"<div style=""font-size: 10rem; color: #0000FF"">L</div>",,ospan,letter,5HhdVCS5QXda6f6aPWNUEySrTgZ2,html-keyboard-response,127,728597,0.0-46.0-4.0-1.0-1.0-5.0,,,,,,,,,,,,,,,63468c2501e33edb7ecf1907,12:27:52,03/04/2024
905.0,,,ospan,symmetry,5HhdVCS5QXda6f6aPWNUEySrTgZ2,symmetry-judgement-task,128,731392,0.0-46.0-4.0-1.0-1.0-6.0,,,,,,,,,,1.0,1.0,,,,63468c2501e33edb7ecf1907,12:27:52,03/04/2024
,"<div style=""font-size: 10rem; color: #0000FF"">Y</div>",,ospan,letter,5HhdVCS5QXda6f6aPWNUEySrTgZ2,html-keyboard-response,129,732394,0.0-46.0-4.0-1.0-1.0-7.0,,,,,,,,,,,,,,,63468c2501e33edb7ecf1907,12:27:52,03/04/2024
970.0,,,ospan,symmetry,5HhdVCS5QXda6f6aPWNUEySrTgZ2,symmetry-judgement-task,130,735247,0.0-46.0-4.0-1.0-1.0-8.0,,,,,,,,,,1.0,1.0,,,,63468c2501e33edb7ecf1907,12:27:52,03/04/2024
,"<div style=""font-size: 10rem; color: #0000FF"">R</div>",,ospan,letter,5HhdVCS5QXda6f6aPWNUEySrTgZ2,html-keyboard-response,131,736253,0.0-46.0-4.0-1.0-1.0-9.0,,,,,,,,,,,,,,,63468c2501e33edb7ecf1907,12:27:52,03/04/2024
5412.600000023842,"<div class = numbox><p style=""font-size: 2.4rem"">Please recall the letters you saw to the best of your ability. If you do not remember a particular letter, use the SKIP button.<br><b>(When you are ready to lock in your answer, press ENTER)</b></p><button id = button_1 class = ""square num-button"" onclick = ""recordClick(this)""><div class = content><div class = numbers>C</div></div></button><button id = button_2 class = ""square num-button"" onclick = ""recordClick(this)""><div class = content><div class = numbers>G</div></div></button><button id = button_3 class = ""square num-button"" onclick = ""recordClick(this)""><div class = content><div class = numbers>H</div></div></button><button id = button_4 class = ""square num-button"" onclick = ""recordClick(this)""><div class = content><div class = numbers>J</div></div></button><button id = button_5 class = ""square num-button"" onclick = ""recordClick(this)""><div class = content><div class = numbers>K</div></div></button><button id = button_6 class = ""square num-button"" onclick = ""recordClick(this)""><div class = content><div class = numbers>L</div></div></button><button id = button_7 class = ""square num-button"" onclick = ""recordClick(this)""><div class = content><div class = numbers>N</div></div></button><button id = button_8 class = ""square num-button"" onclick = ""recordClick(this)""><div class = content><div class = numbers>P</div></div></button><button id = button_9 class = ""square num-button"" onclick = ""recordClick(this)""><div class = content><div class = numbers>Q</div></div></button><button id = button_10 class = ""square num-button"" onclick = ""recordClick(this)""><div class = content><div class = numbers>R</div></div></button><button id = button_11 class = ""square num-button"" onclick = ""recordClick(this)""><div class = content><div class = numbers>S</div></div></button><button id = button_12 class = ""square num-button"" onclick = ""recordClick(this)""><div class = content><div class = numbers>Y</div></div></button><button class = clear_button id = ""ClearButton"" onclick = ""clearResponse()"">BACKSPACE</button><button class = blank_button id = ""BlankButton"" onclick = ""blankResponse()"">SKIP</button><p style=""font-size: 2.4rem""><u><b>Current Answer:</b></u></p><br><br><div id=echoed_txt style=""font-size: 5rem; color:blue;""><b></b></div></div>",enter,ospan,retrieval,5HhdVCS5QXda6f6aPWNUEySrTgZ2,html-keyboard-response,132,742418,0.0-46.0-4.0-1.0-2.0,12,12,12,5.0,"[""K"",""S"",""L"",""Y"",""R""]","[""K"",""S"",""L"",""Y"",""R""]",1.0,5.0,,,,,,,63468c2501e33edb7ecf1907,12:27:52,03/04/2024
944.4000000357628,[''],0,ospan,feedback,5HhdVCS5QXda6f6aPWNUEySrTgZ2,html-button-response,133,743868,0.0-46.0-4.0-1.0-3.0,,,,,,,,,,,,100.0,0.0,,63468c2501e33edb7ecf1907,12:27:52,03/04/2024
,"<p style=""font-size:75px;"">...</p>",,ospan,iti,5HhdVCS5QXda6f6aPWNUEySrTgZ2,html-keyboard-response,134,744873,0.0-46.0-4.0-2.0-0.0,,,,,,,,,,,,,,,63468c2501e33edb7ecf1907,12:27:52,03/04/2024
1447.0,,,ospan,symmetry,5HhdVCS5QXda6f6aPWNUEySrTgZ2,symmetry-judgement-task,135,747449,0.0-46.0-4.0-2.0-1.0-0.0,,,,,,,,,,1.0,1.0,,,,63468c2501e33edb7ecf1907,12:27:52,03/04/2024
,"<div style=""font-size: 10rem; color: #0000FF"">J</div>",,ospan,letter,5HhdVCS5QXda6f6aPWNUEySrTgZ2,html-keyboard-response,136,748451,0.0-46.0-4.0-2.0-1.0-1.0,,,,,,,,,,,,,,,63468c2501e33edb7ecf1907,12:27:52,03/04/2024
917.0,,,ospan,symmetry,5HhdVCS5QXda6f6aPWNUEySrTgZ2,symmetry-judgement-task,137,751238,0.0-46.0-4.0-2.0-1.0-2.0,,,,,,,,,,1.0,1.0,,,,63468c2501e33edb7ecf1907,12:27:52,03/04/2024
,"<div style=""font-size: 10rem; color: #0000FF"">R</div>",,ospan,letter,5HhdVCS5QXda6f6aPWNUEySrTgZ2,html-keyboard-response,138,752240,0.0-46.0-4.0-2.0-1.0-3.0,,,,,,,,,,,,,,,63468c2501e33edb7ecf1907,12:27:52,03/04/2024
919.0,,,ospan,symmetry,5HhdVCS5QXda6f6aPWNUEySrTgZ2,symmetry-judgement-task,139,755048,0.0-46.0-4.0-2.0-1.0-4.0,,,,,,,,,,1.0,1.0,,,,63468c2501e33edb7ecf1907,12:27:52,03/04/2024
,"<div style=""font-size: 10rem; color: #0000FF"">P</div>",,ospan,letter,5HhdVCS5QXda6f6aPWNUEySrTgZ2,html-keyboard-response,140,756051,0.0-46.0-4.0-2.0-1.0-5.0,,,,,,,,,,,,,,,63468c2501e33edb7ecf1907,12:27:52,03/04/2024
4537.5,"<div class = numbox><p style=""font-size: 2.4rem"">Please recall the letters you saw to the best of your ability. If you do not remember a particular letter, use the SKIP button.<br><b>(When you are ready to lock in your answer, press ENTER)</b></p><button id = button_1 class = ""square num-button"" onclick = ""recordClick(this)""><div class = content><div class = numbers>C</div></div></button><button id = button_2 class = ""square num-button"" onclick = ""recordClick(this)""><div class = content><div class = numbers>G</div></div></button><button id = button_3 class = ""square num-button"" onclick = ""recordClick(this)""><div class = content><div class = numbers>H</div></div></button><button id = button_4 class = ""square num-button"" onclick = ""recordClick(this)""><div class = content><div class = numbers>J</div></div></button><button id = button_5 class = ""square num-button"" onclick = ""recordClick(this)""><div class = content><div class = numbers>K</div></div></button><button id = button_6 class = ""square num-button"" onclick = ""recordClick(this)""><div class = content><div class = numbers>L</div></div></button><button id = button_7 class = ""square num-button"" onclick = ""recordClick(this)""><div class = content><div class = numbers>N</div></div></button><button id = button_8 class = ""square num-button"" onclick = ""recordClick(this)""><div class = content><div class = numbers>P</div></div></button><button id = button_9 class = ""square num-button"" onclick = ""recordClick(this)""><div class = content><div class = numbers>Q</div></div></button><button id = button_10 class = ""square num-button"" onclick = ""recordClick(this)""><div class = content><div class = numbers>R</div></div></button><button id = button_11 class = ""square num-button"" onclick = ""recordClick(this)""><div class = content><div class = numbers>S</div></div></button><button id = button_12 class = ""square num-button"" onclick = ""recordClick(this)""><div class = content><div class = numbers>Y</div></div></button><button class = clear_button id = ""ClearButton"" onclick = ""clearResponse()"">BACKSPACE</button><button class = blank_button id = ""BlankButton"" onclick = ""blankResponse()"">SKIP</button><p style=""font-size: 2.4rem""><u><b>Current Answer:</b></u></p><br><br><div id=echoed_txt style=""font-size: 5rem; color:blue;""><b></b></div></div>",enter,ospan,retrieval,5HhdVCS5QXda6f6aPWNUEySrTgZ2,html-keyboard-response,141,761342,0.0-46.0-4.0-2.0-2.0,15,15,15,3.0,"[""J"",""R"",""P""]","[""J"",""R"",""P""]",1.0,3.0,,,,,,,63468c2501e33edb7ecf1907,12:27:52,03/04/2024
757.3999999761581,[''],0,ospan,feedback,5HhdVCS5QXda6f6aPWNUEySrTgZ2,html-button-response,142,762602,0.0-46.0-4.0-2.0-3.0,,,,,,,,,,,,100.0,0.0,,63468c2501e33edb7ecf1907,12:27:52,03/04/2024
,"<p style=""font-size:75px;"">...</p>",,ospan,iti,5HhdVCS5QXda6f6aPWNUEySrTgZ2,html-keyboard-response,143,763608,0.0-46.0-5.0-0.0-0.0,,,,,,,,,,,,,,,63468c2501e33edb7ecf1907,12:27:52,03/04/2024
1084.0,,,ospan,symmetry,5HhdVCS5QXda6f6aPWNUEySrTgZ2,symmetry-judgement-task,144,765824,0.0-46.0-5.0-0.0-1.0-0.0,,,,,,,,,,1.0,1.0,,,,63468c2501e33edb7ecf1907,12:27:52,03/04/2024
,"<div style=""font-size: 10rem; color: #0000FF"">N</div>",,ospan,letter,5HhdVCS5QXda6f6aPWNUEySrTgZ2,html-keyboard-response,145,766826,0.0-46.0-5.0-0.0-1.0-1.0,,,,,,,,,,,,,,,63468c2501e33edb7ecf1907,12:27:52,03/04/2024
949.0,,,ospan,symmetry,5HhdVCS5QXda6f6aPWNUEySrTgZ2,symmetry-judgement-task,146,769657,0.0-46.0-5.0-0.0-1.0-2.0,,,,,,,,,,1.0,1.0,,,,63468c2501e33edb7ecf1907,12:27:52,03/04/2024
,"<div style=""font-size: 10rem; color: #0000FF"">Y</div>",,ospan,letter,5HhdVCS5QXda6f6aPWNUEySrTgZ2,html-keyboard-response,147,770659,0.0-46.0-5.0-0.0-1.0-3.0,,,,,,,,,,,,,,,63468c2501e33edb7ecf1907,12:27:52,03/04/2024
748.0,,,ospan,symmetry,5HhdVCS5QXda6f6aPWNUEySrTgZ2,symmetry-judgement-task,148,773288,0.0-46.0-5.0-0.0-1.0-4.0,,,,,,,,,,1.0,1.0,,,,63468c2501e33edb7ecf1907,12:27:52,03/04/2024
,"<div style=""font-size: 10rem; color: #0000FF"">K</div>",,ospan,letter,5HhdVCS5QXda6f6aPWNUEySrTgZ2,html-keyboard-response,149,774291,0.0-46.0-5.0-0.0-1.0-5.0,,,,,,,,,,,,,,,63468c2501e33edb7ecf1907,12:27:52,03/04/2024
783.0,,,ospan,symmetry,5HhdVCS5QXda6f6aPWNUEySrTgZ2,symmetry-judgement-task,150,776953,0.0-46.0-5.0-0.0-1.0-6.0,,,,,,,,,,1.0,1.0,,,,63468c2501e33edb7ecf1907,12:27:52,03/04/2024
,"<div style=""font-size: 10rem; color: #0000FF"">J</div>",,ospan,letter,5HhdVCS5QXda6f6aPWNUEySrTgZ2,html-keyboard-response,151,777955,0.0-46.0-5.0-0.0-1.0-7.0,,,,,,,,,,,,,,,63468c2501e33edb7ecf1907,12:27:52,03/04/2024
780.0,,,ospan,symmetry,5HhdVCS5QXda6f6aPWNUEySrTgZ2,symmetry-judgement-task,152,780632,0.0-46.0-5.0-0.0-1.0-8.0,,,,,,,,,,1.0,1.0,,,,63468c2501e33edb7ecf1907,12:27:52,03/04/2024
,"<div style=""font-size: 10rem; color: #0000FF"">C</div>",,ospan,letter,5HhdVCS5QXda6f6aPWNUEySrTgZ2,html-keyboard-response,153,781636,0.0-46.0-5.0-0.0-1.0-9.0,,,,,,,,,,,,,,,63468c2501e33edb7ecf1907,12:27:52,03/04/2024
992.0,,,ospan,symmetry,5HhdVCS5QXda6f6aPWNUEySrTgZ2,symmetry-judgement-task,154,784514,0.0-46.0-5.0-0.0-1.0-10.0,,,,,,,,,,1.0,1.0,,,,63468c2501e33edb7ecf1907,12:27:52,03/04/2024
,"<div style=""font-size: 10rem; color: #0000FF"">H</div>",,ospan,letter,5HhdVCS5QXda6f6aPWNUEySrTgZ2,html-keyboard-response,155,785519,0.0-46.0-5.0-0.0-1.0-11.0,,,,,,,,,,,,,,,63468c2501e33edb7ecf1907,12:27:52,03/04/2024
7068.099999964237,"<div class = numbox><p style=""font-size: 2.4rem"">Please recall the letters you saw to the best of your ability. If you do not remember a particular letter, use the SKIP button.<br><b>(When you are ready to lock in your answer, press ENTER)</b></p><button id = button_1 class = ""square num-button"" onclick = ""recordClick(this)""><div class = content><div class = numbers>C</div></div></button><button id = button_2 class = ""square num-button"" onclick = ""recordClick(this)""><div class = content><div class = numbers>G</div></div></button><button id = button_3 class = ""square num-button"" onclick = ""recordClick(this)""><div class = content><div class = numbers>H</div></div></button><button id = button_4 class = ""square num-button"" onclick = ""recordClick(this)""><div class = content><div class = numbers>J</div></div></button><button id = button_5 class = ""square num-button"" onclick = ""recordClick(this)""><div class = content><div class = numbers>K</div></div></button><button id = button_6 class = ""square num-button"" onclick = ""recordClick(this)""><div class = content><div class = numbers>L</div></div></button><button id = button_7 class = ""square num-button"" onclick = ""recordClick(this)""><div class = content><div class = numbers>N</div></div></button><button id = button_8 class = ""square num-button"" onclick = ""recordClick(this)""><div class = content><div class = numbers>P</div></div></button><button id = button_9 class = ""square num-button"" onclick = ""recordClick(this)""><div class = content><div class = numbers>Q</div></div></button><button id = button_10 class = ""square num-button"" onclick = ""recordClick(this)""><div class = content><div class = numbers>R</div></div></button><button id = button_11 class = ""square num-button"" onclick = ""recordClick(this)""><div class = content><div class = numbers>S</div></div></button><button id = button_12 class = ""square num-button"" onclick = ""recordClick(this)""><div class = content><div class = numbers>Y</div></div></button><button class = clear_button id = ""ClearButton"" onclick = ""clearResponse()"">BACKSPACE</button><button class = blank_button id = ""BlankButton"" onclick = ""blankResponse()"">SKIP</button><p style=""font-size: 2.4rem""><u><b>Current Answer:</b></u></p><br><br><div id=echoed_txt style=""font-size: 5rem; color:blue;""><b></b></div></div>",enter,ospan,retrieval,5HhdVCS5QXda6f6aPWNUEySrTgZ2,html-keyboard-response,156,793342,0.0-46.0-5.0-0.0-2.0,21,21,21,6.0,"[""N"",""Y"",""K"",""J"",""C"",""H""]","[""N"",""Y"",""K"",""J"",""C"",""H""]",1.0,6.0,,,,,,,63468c2501e33edb7ecf1907,12:27:52,03/04/2024
705.9000000357628,[''],0,ospan,feedback,5HhdVCS5QXda6f6aPWNUEySrTgZ2,html-button-response,157,794552,0.0-46.0-5.0-0.0-3.0,,,,,,,,,,,,100.0,0.0,,63468c2501e33edb7ecf1907,12:27:52,03/04/2024
,"<p style=""font-size:75px;"">...</p>",,ospan,iti,5HhdVCS5QXda6f6aPWNUEySrTgZ2,html-keyboard-response,158,795558,0.0-46.0-5.0-1.0-0.0,,,,,,,,,,,,,,,63468c2501e33edb7ecf1907,12:27:52,03/04/2024
990.0,,,ospan,symmetry,5HhdVCS5QXda6f6aPWNUEySrTgZ2,symmetry-judgement-task,159,797684,0.0-46.0-5.0-1.0-1.0-0.0,,,,,,,,,,1.0,1.0,,,,63468c2501e33edb7ecf1907,12:27:52,03/04/2024
,"<div style=""font-size: 10rem; color: #0000FF"">L</div>",,ospan,letter,5HhdVCS5QXda6f6aPWNUEySrTgZ2,html-keyboard-response,160,798687,0.0-46.0-5.0-1.0-1.0-1.0,,,,,,,,,,,,,,,63468c2501e33edb7ecf1907,12:27:52,03/04/2024
868.0,,,ospan,symmetry,5HhdVCS5QXda6f6aPWNUEySrTgZ2,symmetry-judgement-task,161,801443,0.0-46.0-5.0-1.0-1.0-2.0,,,,,,,,,,1.0,1.0,,,,63468c2501e33edb7ecf1907,12:27:52,03/04/2024
,"<div style=""font-size: 10rem; color: #0000FF"">H</div>",,ospan,letter,5HhdVCS5QXda6f6aPWNUEySrTgZ2,html-keyboard-response,162,802445,0.0-46.0-5.0-1.0-1.0-3.0,,,,,,,,,,,,,,,63468c2501e33edb7ecf1907,12:27:52,03/04/2024
864.0,,,ospan,symmetry,5HhdVCS5QXda6f6aPWNUEySrTgZ2,symmetry-judgement-task,163,805191,0.0-46.0-5.0-1.0-1.0-4.0,,,,,,,,,,1.0,1.0,,,,63468c2501e33edb7ecf1907,12:27:52,03/04/2024
,"<div style=""font-size: 10rem; color: #0000FF"">C</div>",,ospan,letter,5HhdVCS5QXda6f6aPWNUEySrTgZ2,html-keyboard-response,164,806198,0.0-46.0-5.0-1.0-1.0-5.0,,,,,,,,,,,,,,,63468c2501e33edb7ecf1907,12:27:52,03/04/2024
832.0,,,ospan,symmetry,5HhdVCS5QXda6f6aPWNUEySrTgZ2,symmetry-judgement-task,165,808826,0.0-46.0-5.0-1.0-1.0-6.0,,,,,,,,,,1.0,1.0,,,,63468c2501e33edb7ecf1907,12:27:52,03/04/2024
,"<div style=""font-size: 10rem; color: #0000FF"">Y</div>",,ospan,letter,5HhdVCS5QXda6f6aPWNUEySrTgZ2,html-keyboard-response,166,809828,0.0-46.0-5.0-1.0-1.0-7.0,,,,,,,,,,,,,,,63468c2501e33edb7ecf1907,12:27:52,03/04/2024
791.0,,,ospan,symmetry,5HhdVCS5QXda6f6aPWNUEySrTgZ2,symmetry-judgement-task,167,812505,0.0-46.0-5.0-1.0-1.0-8.0,,,,,,,,,,1.0,1.0,,,,63468c2501e33edb7ecf1907,12:27:52,03/04/2024
,"<div style=""font-size: 10rem; color: #0000FF"">N</div>",,ospan,letter,5HhdVCS5QXda6f6aPWNUEySrTgZ2,html-keyboard-response,168,813508,0.0-46.0-5.0-1.0-1.0-9.0,,,,,,,,,,,,,,,63468c2501e33edb7ecf1907,12:27:52,03/04/2024
1026.0,,,ospan,symmetry,5HhdVCS5QXda6f6aPWNUEySrTgZ2,symmetry-judgement-task,169,816426,0.0-46.0-5.0-1.0-1.0-10.0,,,,,,,,,,1.0,1.0,,,,63468c2501e33edb7ecf1907,12:27:52,03/04/2024
,"<div style=""font-size: 10rem; color: #0000FF"">P</div>",,ospan,letter,5HhdVCS5QXda6f6aPWNUEySrTgZ2,html-keyboard-response,170,817427,0.0-46.0-5.0-1.0-1.0-11.0,,,,,,,,,,,,,,,63468c2501e33edb7ecf1907,12:27:52,03/04/2024
791.0,,,ospan,symmetry,5HhdVCS5QXda6f6aPWNUEySrTgZ2,symmetry-judgement-task,171,820097,0.0-46.0-5.0-1.0-1.0-12.0,,,,,,,,,,1.0,1.0,,,,63468c2501e33edb7ecf1907,12:27:52,03/04/2024
,"<div style=""font-size: 10rem; color: #0000FF"">K</div>",,ospan,letter,5HhdVCS5QXda6f6aPWNUEySrTgZ2,html-keyboard-response,172,821104,0.0-46.0-5.0-1.0-1.0-13.0,,,,,,,,,,,,,,,63468c2501e33edb7ecf1907,12:27:52,03/04/2024
6812.600000023842,"<div class = numbox><p style=""font-size: 2.4rem"">Please recall the letters you saw to the best of your ability. If you do not remember a particular letter, use the SKIP button.<br><b>(When you are ready to lock in your answer, press ENTER)</b></p><button id = button_1 class = ""square num-button"" onclick = ""recordClick(this)""><div class = content><div class = numbers>C</div></div></button><button id = button_2 class = ""square num-button"" onclick = ""recordClick(this)""><div class = content><div class = numbers>G</div></div></button><button id = button_3 class = ""square num-button"" onclick = ""recordClick(this)""><div class = content><div class = numbers>H</div></div></button><button id = button_4 class = ""square num-button"" onclick = ""recordClick(this)""><div class = content><div class = numbers>J</div></div></button><button id = button_5 class = ""square num-button"" onclick = ""recordClick(this)""><div class = content><div class = numbers>K</div></div></button><button id = button_6 class = ""square num-button"" onclick = ""recordClick(this)""><div class = content><div class = numbers>L</div></div></button><button id = button_7 class = ""square num-button"" onclick = ""recordClick(this)""><div class = content><div class = numbers>N</div></div></button><button id = button_8 class = ""square num-button"" onclick = ""recordClick(this)""><div class = content><div class = numbers>P</div></div></button><button id = button_9 class = ""square num-button"" onclick = ""recordClick(this)""><div class = content><div class = numbers>Q</div></div></button><button id = button_10 class = ""square num-button"" onclick = ""recordClick(this)""><div class = content><div class = numbers>R</div></div></button><button id = button_11 class = ""square num-button"" onclick = ""recordClick(this)""><div class = content><div class = numbers>S</div></div></button><button id = button_12 class = ""square num-button"" onclick = ""recordClick(this)""><div class = content><div class = numbers>Y</div></div></button><button class = clear_button id = ""ClearButton"" onclick = ""clearResponse()"">BACKSPACE</button><button class = blank_button id = ""BlankButton"" onclick = ""blankResponse()"">SKIP</button><p style=""font-size: 2.4rem""><u><b>Current Answer:</b></u></p><br><br><div id=echoed_txt style=""font-size: 5rem; color:blue;""><b></b></div></div>",enter,ospan,retrieval,5HhdVCS5QXda6f6aPWNUEySrTgZ2,html-keyboard-response,173,828672,0.0-46.0-5.0-1.0-2.0,28,28,28,7.0,"[""L"",""H"",""C"",""Y"",""N"",""P"",""K""]","[""L"",""H"",""C"",""Y"",""N"",""P"",""K""]",1.0,7.0,,,,,,,63468c2501e33edb7ecf1907,12:27:52,03/04/2024
834.8000000119209,[''],0,ospan,feedback,5HhdVCS5QXda6f6aPWNUEySrTgZ2,html-button-response,174,830012,0.0-46.0-5.0-1.0-3.0,,,,,,,,,,,,100.0,0.0,,63468c2501e33edb7ecf1907,12:27:52,03/04/2024
,"<p style=""font-size:75px;"">...</p>",,ospan,iti,5HhdVCS5QXda6f6aPWNUEySrTgZ2,html-keyboard-response,175,831018,0.0-46.0-6.0-0.0-0.0,,,,,,,,,,,,,,,63468c2501e33edb7ecf1907,12:27:52,03/04/2024
828.0,,,ospan,symmetry,5HhdVCS5QXda6f6aPWNUEySrTgZ2,symmetry-judgement-task,176,832981,0.0-46.0-6.0-0.0-1.0-0.0,,,,,,,,,,1.0,1.0,,,,63468c2501e33edb7ecf1907,12:27:52,03/04/2024
,"<div style=""font-size: 10rem; color: #0000FF"">G</div>",,ospan,letter,5HhdVCS5QXda6f6aPWNUEySrTgZ2,html-keyboard-response,177,833985,0.0-46.0-6.0-0.0-1.0-1.0,,,,,,,,,,,,,,,63468c2501e33edb7ecf1907,12:27:52,03/04/2024
1490.0,,,ospan,symmetry,5HhdVCS5QXda6f6aPWNUEySrTgZ2,symmetry-judgement-task,178,837367,0.0-46.0-6.0-0.0-1.0-2.0,,,,,,,,,,1.0,1.0,,,,63468c2501e33edb7ecf1907,12:27:52,03/04/2024
,"<div style=""font-size: 10rem; color: #0000FF"">N</div>",,ospan,letter,5HhdVCS5QXda6f6aPWNUEySrTgZ2,html-keyboard-response,179,838369,0.0-46.0-6.0-0.0-1.0-3.0,,,,,,,,,,,,,,,63468c2501e33edb7ecf1907,12:27:52,03/04/2024
902.0,,,ospan,symmetry,5HhdVCS5QXda6f6aPWNUEySrTgZ2,symmetry-judgement-task,180,841131,0.0-46.0-6.0-0.0-1.0-4.0,,,,,,,,,,1.0,1.0,,,,63468c2501e33edb7ecf1907,12:27:52,03/04/2024
,"<div style=""font-size: 10rem; color: #0000FF"">P</div>",,ospan,letter,5HhdVCS5QXda6f6aPWNUEySrTgZ2,html-keyboard-response,181,842134,0.0-46.0-6.0-0.0-1.0-5.0,,,,,,,,,,,,,,,63468c2501e33edb7ecf1907,12:27:52,03/04/2024
781.0,,,ospan,symmetry,5HhdVCS5QXda6f6aPWNUEySrTgZ2,symmetry-judgement-task,182,844801,0.0-46.0-6.0-0.0-1.0-6.0,,,,,,,,,,1.0,1.0,,,,63468c2501e33edb7ecf1907,12:27:52,03/04/2024
,"<div style=""font-size: 10rem; color: #0000FF"">Q</div>",,ospan,letter,5HhdVCS5QXda6f6aPWNUEySrTgZ2,html-keyboard-response,183,845802,0.0-46.0-6.0-0.0-1.0-7.0,,,,,,,,,,,,,,,63468c2501e33edb7ecf1907,12:27:52,03/04/2024
818.0,,,ospan,symmetry,5HhdVCS5QXda6f6aPWNUEySrTgZ2,symmetry-judgement-task,184,848504,0.0-46.0-6.0-0.0-1.0-8.0,,,,,,,,,,1.0,1.0,,,,63468c2501e33edb7ecf1907,12:27:52,03/04/2024
,"<div style=""font-size: 10rem; color: #0000FF"">K</div>",,ospan,letter,5HhdVCS5QXda6f6aPWNUEySrTgZ2,html-keyboard-response,185,849506,0.0-46.0-6.0-0.0-1.0-9.0,,,,,,,,,,,,,,,63468c2501e33edb7ecf1907,12:27:52,03/04/2024
6823.199999988079,"<div class = numbox><p style=""font-size: 2.4rem"">Please recall the letters you saw to the best of your ability. If you do not remember a particular letter, use the SKIP button.<br><b>(When you are ready to lock in your answer, press ENTER)</b></p><button id = button_1 class = ""square num-button"" onclick = ""recordClick(this)""><div class = content><div class = numbers>C</div></div></button><button id = button_2 class = ""square num-button"" onclick = ""recordClick(this)""><div class = content><div class = numbers>G</div></div></button><button id = button_3 class = ""square num-button"" onclick = ""recordClick(this)""><div class = content><div class = numbers>H</div></div></button><button id = button_4 class = ""square num-button"" onclick = ""recordClick(this)""><div class = content><div class = numbers>J</div></div></button><button id = button_5 class = ""square num-button"" onclick = ""recordClick(this)""><div class = content><div class = numbers>K</div></div></button><button id = button_6 class = ""square num-button"" onclick = ""recordClick(this)""><div class = content><div class = numbers>L</div></div></button><button id = button_7 class = ""square num-button"" onclick = ""recordClick(this)""><div class = content><div class = numbers>N</div></div></button><button id = button_8 class = ""square num-button"" onclick = ""recordClick(this)""><div class = content><div class = numbers>P</div></div></button><button id = button_9 class = ""square num-button"" onclick = ""recordClick(this)""><div class = content><div class = numbers>Q</div></div></button><button id = button_10 class = ""square num-button"" onclick = ""recordClick(this)""><div class = content><div class = numbers>R</div></div></button><button id = button_11 class = ""square num-button"" onclick = ""recordClick(this)""><div class = content><div class = numbers>S</div></div></button><button id = button_12 class = ""square num-button"" onclick = ""recordClick(this)""><div class = content><div class = numbers>Y</div></div></button><button class = clear_button id = ""ClearButton"" onclick = ""clearResponse()"">BACKSPACE</button><button class = blank_button id = ""BlankButton"" onclick = ""blankResponse()"">SKIP</button><p style=""font-size: 2.4rem""><u><b>Current Answer:</b></u></p><br><br><div id=echoed_txt style=""font-size: 5rem; color:blue;""><b></b></div></div>",enter,ospan,retrieval,5HhdVCS5QXda6f6aPWNUEySrTgZ2,html-keyboard-response,186,857086,0.0-46.0-6.0-0.0-2.0,33,33,33,5.0,"[""G"",""N"",""P"",""Q"",""K""]","[""G"",""N"",""P"",""Q"",""K""]",1.0,5.0,,,,,,,63468c2501e33edb7ecf1907,12:27:52,03/04/2024
1037.699999988079,[''],0,ospan,feedback,5HhdVCS5QXda6f6aPWNUEySrTgZ2,html-button-response,187,858630,0.0-46.0-6.0-0.0-3.0,,,,,,,,,,,,100.0,0.0,,63468c2501e33edb7ecf1907,12:27:52,03/04/2024
,"<p style=""font-size:75px;"">...</p>",,ospan,iti,5HhdVCS5QXda6f6aPWNUEySrTgZ2,html-keyboard-response,188,859635,0.0-46.0-6.0-1.0-0.0,,,,,,,,,,,,,,,63468c2501e33edb7ecf1907,12:27:52,03/04/2024
903.0,,,ospan,symmetry,5HhdVCS5QXda6f6aPWNUEySrTgZ2,symmetry-judgement-task,189,861669,0.0-46.0-6.0-1.0-1.0-0.0,,,,,,,,,,1.0,1.0,,,,63468c2501e33edb7ecf1907,12:27:52,03/04/2024
,"<div style=""font-size: 10rem; color: #0000FF"">P</div>",,ospan,letter,5HhdVCS5QXda6f6aPWNUEySrTgZ2,html-keyboard-response,190,862672,0.0-46.0-6.0-1.0-1.0-1.0,,,,,,,,,,,,,,,63468c2501e33edb7ecf1907,12:27:52,03/04/2024
948.0,,,ospan,symmetry,5HhdVCS5QXda6f6aPWNUEySrTgZ2,symmetry-judgement-task,191,865504,0.0-46.0-6.0-1.0-1.0-2.0,,,,,,,,,,1.0,1.0,,,,63468c2501e33edb7ecf1907,12:27:52,03/04/2024
,"<div style=""font-size: 10rem; color: #0000FF"">G</div>",,ospan,letter,5HhdVCS5QXda6f6aPWNUEySrTgZ2,html-keyboard-response,192,866505,0.0-46.0-6.0-1.0-1.0-3.0,,,,,,,,,,,,,,,63468c2501e33edb7ecf1907,12:27:52,03/04/2024
984.0,,,ospan,symmetry,5HhdVCS5QXda6f6aPWNUEySrTgZ2,symmetry-judgement-task,193,869369,0.0-46.0-6.0-1.0-1.0-4.0,,,,,,,,,,1.0,1.0,,,,63468c2501e33edb7ecf1907,12:27:52,03/04/2024
,"<div style=""font-size: 10rem; color: #0000FF"">H</div>",,ospan,letter,5HhdVCS5QXda6f6aPWNUEySrTgZ2,html-keyboard-response,194,870371,0.0-46.0-6.0-1.0-1.0-5.0,,,,,,,,,,,,,,,63468c2501e33edb7ecf1907,12:27:52,03/04/2024
851.0,,,ospan,symmetry,5HhdVCS5QXda6f6aPWNUEySrTgZ2,symmetry-judgement-task,195,873103,0.0-46.0-6.0-1.0-1.0-6.0,,,,,,,,,,1.0,1.0,,,,63468c2501e33edb7ecf1907,12:27:52,03/04/2024
,"<div style=""font-size: 10rem; color: #0000FF"">K</div>",,ospan,letter,5HhdVCS5QXda6f6aPWNUEySrTgZ2,html-keyboard-response,196,874110,0.0-46.0-6.0-1.0-1.0-7.0,,,,,,,,,,,,,,,63468c2501e33edb7ecf1907,12:27:52,03/04/2024
1156.0,,,ospan,symmetry,5HhdVCS5QXda6f6aPWNUEySrTgZ2,symmetry-judgement-task,197,877154,0.0-46.0-6.0-1.0-1.0-8.0,,,,,,,,,,1.0,1.0,,,,63468c2501e33edb7ecf1907,12:27:52,03/04/2024
,"<div style=""font-size: 10rem; color: #0000FF"">R</div>",,ospan,letter,5HhdVCS5QXda6f6aPWNUEySrTgZ2,html-keyboard-response,198,878156,0.0-46.0-6.0-1.0-1.0-9.0,,,,,,,,,,,,,,,63468c2501e33edb7ecf1907,12:27:52,03/04/2024
733.0,,,ospan,symmetry,5HhdVCS5QXda6f6aPWNUEySrTgZ2,symmetry-judgement-task,199,880775,0.0-46.0-6.0-1.0-1.0-10.0,,,,,,,,,,1.0,1.0,,,,63468c2501e33edb7ecf1907,12:27:52,03/04/2024
,"<div style=""font-size: 10rem; color: #0000FF"">S</div>",,ospan,letter,5HhdVCS5QXda6f6aPWNUEySrTgZ2,html-keyboard-response,200,881779,0.0-46.0-6.0-1.0-1.0-11.0,,,,,,,,,,,,,,,63468c2501e33edb7ecf1907,12:27:52,03/04/2024
852.0,,,ospan,symmetry,5HhdVCS5QXda6f6aPWNUEySrTgZ2,symmetry-judgement-task,201,884520,0.0-46.0-6.0-1.0-1.0-12.0,,,,,,,,,,1.0,1.0,,,,63468c2501e33edb7ecf1907,12:27:52,03/04/2024
,"<div style=""font-size: 10rem; color: #0000FF"">N</div>",,ospan,letter,5HhdVCS5QXda6f6aPWNUEySrTgZ2,html-keyboard-response,202,885526,0.0-46.0-6.0-1.0-1.0-13.0,,,,,,,,,,,,,,,63468c2501e33edb7ecf1907,12:27:52,03/04/2024
1059.0,,,ospan,symmetry,5HhdVCS5QXda6f6aPWNUEySrTgZ2,symmetry-judgement-task,203,888466,0.0-46.0-6.0-1.0-1.0-14.0,,,,,,,,,,1.0,1.0,,,,63468c2501e33edb7ecf1907,12:27:52,03/04/2024
,"<div style=""font-size: 10rem; color: #0000FF"">Y</div>",,ospan,letter,5HhdVCS5QXda6f6aPWNUEySrTgZ2,html-keyboard-response,204,889471,0.0-46.0-6.0-1.0-1.0-15.0,,,,,,,,,,,,,,,63468c2501e33edb7ecf1907,12:27:52,03/04/2024
8219.300000011921,"<div class = numbox><p style=""font-size: 2.4rem"">Please recall the letters you saw to the best of your ability. If you do not remember a particular letter, use the SKIP button.<br><b>(When you are ready to lock in your answer, press ENTER)</b></p><button id = button_1 class = ""square num-button"" onclick = ""recordClick(this)""><div class = content><div class = numbers>C</div></div></button><button id = button_2 class = ""square num-button"" onclick = ""recordClick(this)""><div class = content><div class = numbers>G</div></div></button><button id = button_3 class = ""square num-button"" onclick = ""recordClick(this)""><div class = content><div class = numbers>H</div></div></button><button id = button_4 class = ""square num-button"" onclick = ""recordClick(this)""><div class = content><div class = numbers>J</div></div></button><button id = button_5 class = ""square num-button"" onclick = ""recordClick(this)""><div class = content><div class = numbers>K</div></div></button><button id = button_6 class = ""square num-button"" onclick = ""recordClick(this)""><div class = content><div class = numbers>L</div></div></button><button id = button_7 class = ""square num-button"" onclick = ""recordClick(this)""><div class = content><div class = numbers>N</div></div></button><button id = button_8 class = ""square num-button"" onclick = ""recordClick(this)""><div class = content><div class = numbers>P</div></div></button><button id = button_9 class = ""square num-button"" onclick = ""recordClick(this)""><div class = content><div class = numbers>Q</div></div></button><button id = button_10 class = ""square num-button"" onclick = ""recordClick(this)""><div class = content><div class = numbers>R</div></div></button><button id = button_11 class = ""square num-button"" onclick = ""recordClick(this)""><div class = content><div class = numbers>S</div></div></button><button id = button_12 class = ""square num-button"" onclick = ""recordClick(this)""><div class = content><div class = numbers>Y</div></div></button><button class = clear_button id = ""ClearButton"" onclick = ""clearResponse()"">BACKSPACE</button><button class = blank_button id = ""BlankButton"" onclick = ""blankResponse()"">SKIP</button><p style=""font-size: 2.4rem""><u><b>Current Answer:</b></u></p><br><br><div id=echoed_txt style=""font-size: 5rem; color:blue;""><b></b></div></div>",enter,ospan,retrieval,5HhdVCS5QXda6f6aPWNUEySrTgZ2,html-keyboard-response,205,898446,0.0-46.0-6.0-1.0-2.0,41,41,41,8.0,"[""P"",""G"",""H"",""K"",""R"",""S"",""N"",""Y""]","[""P"",""G"",""H"",""K"",""R"",""S"",""N"",""Y""]",1.0,8.0,,,,,,,63468c2501e33edb7ecf1907,12:27:52,03/04/2024
2251.199999988079,[''],0,ospan,feedback,5HhdVCS5QXda6f6aPWNUEySrTgZ2,html-button-response,206,901201,0.0-46.0-6.0-1.0-3.0,,,,,,,,,,,,100.0,0.0,,63468c2501e33edb7ecf1907,12:27:52,03/04/2024
8406.0,,{'Q0': 'no comments'},ospan,survey_ospan,5HhdVCS5QXda6f6aPWNUEySrTgZ2,lmdlab-survey-text,207,910364,0.0-46.0-7.0,,,,,,,,,,,,,,5HhdVCS5QXda6f6aPWNUEySrTgZ2,63468c2501e33edb7ecf1907,12:27:52,03/04/2024
1482.800000011921,<p><p style='font-size: 3rem'>Great work!<br><br>This completes the symmetry and memory task.</p><br><br><br>,0,ospan,finish,5HhdVCS5QXda6f6aPWNUEySrTgZ2,html-button-response,208,911850,0.0-46.0-8.0,41,41,41,,,,,,,,,100.0,,,63468c2501e33edb7ecf1907,12:27:52,03/04/2024
