rt,stimulus,response,exp_name,exp_stage,subjectID,trial_type,trial_index,time_elapsed,internal_node_id,ospan_shown,ospan_total,ospan_abs,length,resp_actual,resp_correct,full_correct,num_correct,feedback,accuracy,correct,math_acc,math_warning,databaseID,prolificID,start_time,date
5687.199999928474,<div class = 'left_align' style='font-size: 3.25rem; line-height: 1.3;'><p class = 'center_align'><b>Welcome to the Symmetry and Memory Task</b><br><br><br><br></p>Press 'continue' to show the instructions.<br><br><br><br></div>,0,ospan,instruct,W9cDxjj5GrSdF5s7i2ifDUF95cF2,html-button-response,51,575957,0.0-43.0-0.0-0.0-0.0,,,,,,,,,,,,,,,65b8200c6718c6362f486a45,13:43:59,06/03/2024
1630.7000000476837,"<div class = 'left_align' style='font-size: 3.25rem; line-height: 1.3;'><p class = 'center_align'><b>Symmetry and Memory Task</b><br><br></p>In this task, you will try to memorize letters you see on the screen<br>while you also view black and white grid pictures.<br><br>In the next few minutes, you will have some practice to get you familiar<br>with how the task works.<br><br>It may be difficult sometimes, but please do not worry about making mistakes!<br><br>We will begin by practicing the letter part of the task.<br><br><br><br></div>",0,ospan,instruct,W9cDxjj5GrSdF5s7i2ifDUF95cF2,html-button-response,52,577853,0.0-43.0-0.0-0.0-1.0,,,,,,,,,,,,,,,65b8200c6718c6362f486a45,13:43:59,06/03/2024
1264.8000000715256,"<div class = 'left_align' style='font-size: 3.25rem; line-height: 1.3;'>For this practice part, letters will appear on the screen one at a time.<br><br>Try to remember each letter in the order presented.<br><br>After some letters have been shown, you will see a response screen. Your<br>goal is to report the letters you saw <b>in order</b>. If you do not remember<br>a particular letter, you will have the option to leave it blank.<br><br><br><br></div>",0,ospan,instruct,W9cDxjj5GrSdF5s7i2ifDUF95cF2,html-button-response,53,579381,0.0-43.0-0.0-0.0-2.0,,,,,,,,,,,,,,,65b8200c6718c6362f486a45,13:43:59,06/03/2024
1552.6000000238419,"<div class = 'left_align' style='font-size: 3.25rem; line-height: 1.3;'>Remember, it is very important to get the letters in the same<br>order as you see them.<br><br>When you are ready, you may begin the letter practice.</div><br><br><br><br>",0,ospan,instruct,W9cDxjj5GrSdF5s7i2ifDUF95cF2,html-button-response,54,581189,0.0-43.0-0.0-0.0-3.0,,,,,,,,,,,,,,,65b8200c6718c6362f486a45,13:43:59,06/03/2024
,"<p style=""font-size:75px;"">...</p>",,ospan,iti,W9cDxjj5GrSdF5s7i2ifDUF95cF2,html-keyboard-response,55,582456,0.0-43.0-0.0-1.0-0.0,,,,,,,,,,,,,,,65b8200c6718c6362f486a45,13:43:59,06/03/2024
,"<div style=""font-size: 10rem; color: #0000FF"">H</div>",,ospan,letter,W9cDxjj5GrSdF5s7i2ifDUF95cF2,html-keyboard-response,56,583459,0.0-43.0-0.0-1.0-1.0,,,,,,,,,,,,,,,65b8200c6718c6362f486a45,13:43:59,06/03/2024
,"<div style=""font-size: 10rem; color: #0000FF"">J</div>",,ospan,letter,W9cDxjj5GrSdF5s7i2ifDUF95cF2,html-keyboard-response,57,585218,0.0-43.0-0.0-1.0-2.0,,,,,,,,,,,,,,,65b8200c6718c6362f486a45,13:43:59,06/03/2024
14213.799999952316,"<div class = numbox><p style=""font-size: 2.4rem"">Please recall the letters you saw to the best of your ability. If you do not remember a particular letter, use the SKIP button.<br><b>(When you are ready to lock in your answer, press ENTER)</b></p><button id = button_1 class = ""square num-button"" onclick = ""recordClick(this)""><div class = content><div class = numbers>C</div></div></button><button id = button_2 class = ""square num-button"" onclick = ""recordClick(this)""><div class = content><div class = numbers>G</div></div></button><button id = button_3 class = ""square num-button"" onclick = ""recordClick(this)""><div class = content><div class = numbers>H</div></div></button><button id = button_4 class = ""square num-button"" onclick = ""recordClick(this)""><div class = content><div class = numbers>J</div></div></button><button id = button_5 class = ""square num-button"" onclick = ""recordClick(this)""><div class = content><div class = numbers>K</div></div></button><button id = button_6 class = ""square num-button"" onclick = ""recordClick(this)""><div class = content><div class = numbers>L</div></div></button><button id = button_7 class = ""square num-button"" onclick = ""recordClick(this)""><div class = content><div class = numbers>N</div></div></button><button id = button_8 class = ""square num-button"" onclick = ""recordClick(this)""><div class = content><div class = numbers>P</div></div></button><button id = button_9 class = ""square num-button"" onclick = ""recordClick(this)""><div class = content><div class = numbers>Q</div></div></button><button id = button_10 class = ""square num-button"" onclick = ""recordClick(this)""><div class = content><div class = numbers>R</div></div></button><button id = button_11 class = ""square num-button"" onclick = ""recordClick(this)""><div class = content><div class = numbers>S</div></div></button><button id = button_12 class = ""square num-button"" onclick = ""recordClick(this)""><div class = content><div class = numbers>Y</div></div></button><button class = clear_button id = ""ClearButton"" onclick = ""clearResponse()"">BACKSPACE</button><button class = blank_button id = ""BlankButton"" onclick = ""blankResponse()"">SKIP</button><p style=""font-size: 2.4rem""><u><b>Current Answer:</b></u></p><br><br><div id=echoed_txt style=""font-size: 5rem; color:blue;""><b></b></div></div>",enter,ospan,retrieval,W9cDxjj5GrSdF5s7i2ifDUF95cF2,html-keyboard-response,58,600185,0.0-43.0-0.0-1.0-3.0,NA,NA,NA,2.0,"[""H"",""J""]","[""H"",""J""]",1.0,2.0,"['<font color=""green"">H</font>', '<font color=""green"">J</font>']",,,,,,65b8200c6718c6362f486a45,13:43:59,06/03/2024
3239.5,"['<p style=""font-size:44px"">Letters:<br><br><br><font color=""green"">H</font> <font color=""green"">J</font></p><br><br>']",0,ospan,practice_feedback,W9cDxjj5GrSdF5s7i2ifDUF95cF2,html-button-response,59,603933,0.0-43.0-0.0-1.0-4.0,,,,,,,,,,,,,,,65b8200c6718c6362f486a45,13:43:59,06/03/2024
,"<p style=""font-size:75px;"">...</p>",,ospan,iti,W9cDxjj5GrSdF5s7i2ifDUF95cF2,html-keyboard-response,60,604935,0.0-43.0-0.0-2.0-0.0,,,,,,,,,,,,,,,65b8200c6718c6362f486a45,13:43:59,06/03/2024
,"<div style=""font-size: 10rem; color: #0000FF"">L</div>",,ospan,letter,W9cDxjj5GrSdF5s7i2ifDUF95cF2,html-keyboard-response,61,605937,0.0-43.0-0.0-2.0-1.0,,,,,,,,,,,,,,,65b8200c6718c6362f486a45,13:43:59,06/03/2024
,"<div style=""font-size: 10rem; color: #0000FF"">P</div>",,ospan,letter,W9cDxjj5GrSdF5s7i2ifDUF95cF2,html-keyboard-response,62,607693,0.0-43.0-0.0-2.0-2.0,,,,,,,,,,,,,,,65b8200c6718c6362f486a45,13:43:59,06/03/2024
,"<div style=""font-size: 10rem; color: #0000FF"">J</div>",,ospan,letter,W9cDxjj5GrSdF5s7i2ifDUF95cF2,html-keyboard-response,63,609450,0.0-43.0-0.0-2.0-3.0,,,,,,,,,,,,,,,65b8200c6718c6362f486a45,13:43:59,06/03/2024
25074.300000071526,"<div class = numbox><p style=""font-size: 2.4rem"">Please recall the letters you saw to the best of your ability. If you do not remember a particular letter, use the SKIP button.<br><b>(When you are ready to lock in your answer, press ENTER)</b></p><button id = button_1 class = ""square num-button"" onclick = ""recordClick(this)""><div class = content><div class = numbers>C</div></div></button><button id = button_2 class = ""square num-button"" onclick = ""recordClick(this)""><div class = content><div class = numbers>G</div></div></button><button id = button_3 class = ""square num-button"" onclick = ""recordClick(this)""><div class = content><div class = numbers>H</div></div></button><button id = button_4 class = ""square num-button"" onclick = ""recordClick(this)""><div class = content><div class = numbers>J</div></div></button><button id = button_5 class = ""square num-button"" onclick = ""recordClick(this)""><div class = content><div class = numbers>K</div></div></button><button id = button_6 class = ""square num-button"" onclick = ""recordClick(this)""><div class = content><div class = numbers>L</div></div></button><button id = button_7 class = ""square num-button"" onclick = ""recordClick(this)""><div class = content><div class = numbers>N</div></div></button><button id = button_8 class = ""square num-button"" onclick = ""recordClick(this)""><div class = content><div class = numbers>P</div></div></button><button id = button_9 class = ""square num-button"" onclick = ""recordClick(this)""><div class = content><div class = numbers>Q</div></div></button><button id = button_10 class = ""square num-button"" onclick = ""recordClick(this)""><div class = content><div class = numbers>R</div></div></button><button id = button_11 class = ""square num-button"" onclick = ""recordClick(this)""><div class = content><div class = numbers>S</div></div></button><button id = button_12 class = ""square num-button"" onclick = ""recordClick(this)""><div class = content><div class = numbers>Y</div></div></button><button class = clear_button id = ""ClearButton"" onclick = ""clearResponse()"">BACKSPACE</button><button class = blank_button id = ""BlankButton"" onclick = ""blankResponse()"">SKIP</button><p style=""font-size: 2.4rem""><u><b>Current Answer:</b></u></p><br><br><div id=echoed_txt style=""font-size: 5rem; color:blue;""><b></b></div></div>",enter,ospan,retrieval,W9cDxjj5GrSdF5s7i2ifDUF95cF2,html-keyboard-response,64,635286,0.0-43.0-0.0-2.0-4.0,NA,NA,NA,3.0,"[""L"",""P"",""J""]","[""L"",""P"",""J""]",1.0,3.0,"['<font color=""green"">L</font>', '<font color=""green"">P</font>', '<font color=""green"">J</font>']",,,,,,65b8200c6718c6362f486a45,13:43:59,06/03/2024
8967.699999928474,"['<p style=""font-size:44px"">Letters:<br><br><br><font color=""green"">L</font> <font color=""green"">P</font> <font color=""green"">J</font></p><br><br>']",0,ospan,practice_feedback,W9cDxjj5GrSdF5s7i2ifDUF95cF2,html-button-response,65,644765,0.0-43.0-0.0-2.0-5.0,,,,,,,,,,,,,,,65b8200c6718c6362f486a45,13:43:59,06/03/2024
3542.0,"<div class = 'left_align' style='font-size: 3.25rem; line-height: 1.3;'>Now you will practice doing the <b>symmetry judgment part</b> of the experiment.<br><br>A black and white grid picture will appear on the screen and you have to judge if it is <br>symmetrical or asymetrical.<br><br>A picture is 'mirror' symmetrical if its left half is identical to the right half when flipped.<br>Here are examples of a symmetrical and an asymetrical picture:<br><br><center><img src='Stimuli/img/symm_instructions_extra.png' style='height:420px; width:900'></img></center><br>To judge symmetry, imagine you were to fold each picture down the middle, like a book –<br>would the left half match the right half when folded onto each other?<br><br></div><br>",0,ospan,instruct,W9cDxjj5GrSdF5s7i2ifDUF95cF2,html-button-response,66,648309,0.0-43.0-1.0-0.0-0.0,,,,,,,,,,,,,,,65b8200c6718c6362f486a45,13:43:59,06/03/2024
5719.800000071526,"<div class = 'left_align' style='font-size: 3.25rem; line-height: 1.3;'>When you have viewed the picture and determined whether it is symmetrical or not,<br>you can <b>click the Yes or No button</b> below to answer.<br><br>If you take longer than 15 seconds, it will continue automatically<br>and record the answer as an error.</div><br>",0,ospan,instruct,W9cDxjj5GrSdF5s7i2ifDUF95cF2,html-button-response,67,654285,0.0-43.0-1.0-0.0-1.0,,,,,,,,,,,,,,,65b8200c6718c6362f486a45,13:43:59,06/03/2024
7022.699999928474,"<div class = 'left_align' style='font-size: 3.25rem; line-height: 1.3;'>It is <b>very</b> important that you make the symmetry judgment correctly.<br><br>It is also important that you try and judge the picture as quickly as you can.<br><br>When you are ready, click on the button below to try some practice problems.</div><br><br><br><br>",0,ospan,instruct,W9cDxjj5GrSdF5s7i2ifDUF95cF2,html-button-response,68,661573,0.0-43.0-1.0-0.0-2.0,,,,,,,,,,,,,,,65b8200c6718c6362f486a45,13:43:59,06/03/2024
2881.0,,,ospan,symmetry,W9cDxjj5GrSdF5s7i2ifDUF95cF2,symmetry-judgement-task,69,665283,0.0-43.0-1.0-1.0-0.0,,,,,,,,,,1.0,1.0,,,,65b8200c6718c6362f486a45,13:43:59,06/03/2024
,"<p style=""color:green; font-size: 35px"">Correct</p>",,ospan,feedback,W9cDxjj5GrSdF5s7i2ifDUF95cF2,html-keyboard-response,70,666040,0.0-43.0-1.0-1.0-1.0,,,,,,,,,,,,,,,65b8200c6718c6362f486a45,13:43:59,06/03/2024
2260.0,,,ospan,symmetry,W9cDxjj5GrSdF5s7i2ifDUF95cF2,symmetry-judgement-task,71,671168,0.0-43.0-1.0-1.0-2.0,,,,,,,,,,1.0,1.0,,,,65b8200c6718c6362f486a45,13:43:59,06/03/2024
,"<p style=""color:green; font-size: 35px"">Correct</p>",,ospan,feedback,W9cDxjj5GrSdF5s7i2ifDUF95cF2,html-keyboard-response,72,671922,0.0-43.0-1.0-1.0-3.0,,,,,,,,,,,,,,,65b8200c6718c6362f486a45,13:43:59,06/03/2024
1658.0,,,ospan,symmetry,W9cDxjj5GrSdF5s7i2ifDUF95cF2,symmetry-judgement-task,73,676510,0.0-43.0-1.0-1.0-4.0,,,,,,,,,,1.0,1.0,,,,65b8200c6718c6362f486a45,13:43:59,06/03/2024
,"<p style=""color:green; font-size: 35px"">Correct</p>",,ospan,feedback,W9cDxjj5GrSdF5s7i2ifDUF95cF2,html-keyboard-response,74,677268,0.0-43.0-1.0-1.0-5.0,,,,,,,,,,,,,,,65b8200c6718c6362f486a45,13:43:59,06/03/2024
4724.5,"<p style=""font-size: 3rem;"">You responded correctly on 3 of 3 symmetry judgments. Good job!</p><br><br>",0,ospan,practice,W9cDxjj5GrSdF5s7i2ifDUF95cF2,html-button-response,75,683997,0.0-43.0-1.0-2.0,,,,,,,,,,,,,,,65b8200c6718c6362f486a45,13:43:59,06/03/2024
1181.0,"<div class = 'left_align' style='font-size: 3.25rem; line-height: 1.3;'>Now you will practice doing both parts of the experiment at the same time.<br><br>In the next practice set, you will be given one grid picture to judge.<br>Then letter will appear on the screen. Try to remember the letter.<br><br>It is <b>very important</b> to make the symmetry judgment as quickly and accurately as possible.<br><br>Just as before, once you have make the symmetry judgment, you can click Yes or No.<br><b>Note that you will no longer see Correct or Incorrect feedback.</div><br><br><br><br>",0,ospan,instruct,W9cDxjj5GrSdF5s7i2ifDUF95cF2,html-button-response,76,685438,0.0-43.0-2.0-0.0-0.0,,,,,,,,,,,,,,,65b8200c6718c6362f486a45,13:43:59,06/03/2024
3055.399999976158,"<div class = 'left_align' style='font-size: 3.25rem; line-height: 1.3;'>After the letter goes away, another grid picture will appear, and then<br>another letter.<br><br>At the end of each set of letters and grids, you will recall the letters to the best<br>of your ability. Remember, try your best to get the letters in the correct order.<br><br>It is important to <b>quickly</b> and <b>accurately</b> make the symmetry judgments.</div><br><br><br><br>",0,ospan,instruct,W9cDxjj5GrSdF5s7i2ifDUF95cF2,html-button-response,77,688749,0.0-43.0-2.0-0.0-1.0,,,,,,,,,,,,,,,65b8200c6718c6362f486a45,13:43:59,06/03/2024
2078.7999999523163,"<div class = 'left_align' style='font-size: 3.25rem; line-height: 1.3;'>On the feedback screen, if you are not doing well at the symmetry judgments,<br>you will also see a warning in the middle. This indicates your percent <br>correct for the grid pictures for the entire experiment.<br><br>It is <b>very</b> important for you to keep accuracy at least at 85%: <u>We can only use<br>data where the participant was at least 85% accurate on the judgments.</u> Therefore,<br> please try your best to perform well on the symmetry judgments, <b>at the same time</b><br>doing your best to recall as many letters as possible.<br><br>Click the button to try some practice problems.</div><br><br><br><br>",0,ospan,instruct,W9cDxjj5GrSdF5s7i2ifDUF95cF2,html-button-response,78,691085,0.0-43.0-2.0-0.0-2.0,,,,,,,,,,,,,,,65b8200c6718c6362f486a45,13:43:59,06/03/2024
,"<p style=""font-size:75px;"">...</p>",,ospan,iti,W9cDxjj5GrSdF5s7i2ifDUF95cF2,html-keyboard-response,79,692348,0.0-43.0-2.0-1.0-0.0,,,,,,,,,,,,,,,65b8200c6718c6362f486a45,13:43:59,06/03/2024
1671.0,,,ospan,symmetry,W9cDxjj5GrSdF5s7i2ifDUF95cF2,symmetry-judgement-task,80,695438,0.0-43.0-2.0-1.0-1.0-0.0,,,,,,,,,,1.0,1.0,,,,65b8200c6718c6362f486a45,13:43:59,06/03/2024
,"<div style=""font-size: 10rem; color: #0000FF"">S</div>",,ospan,letter,W9cDxjj5GrSdF5s7i2ifDUF95cF2,html-keyboard-response,81,696447,0.0-43.0-2.0-1.0-1.0-1.0,,,,,,,,,,,,,,,65b8200c6718c6362f486a45,13:43:59,06/03/2024
2411.0,,,ospan,symmetry,W9cDxjj5GrSdF5s7i2ifDUF95cF2,symmetry-judgement-task,82,701114,0.0-43.0-2.0-1.0-1.0-2.0,,,,,,,,,,1.0,1.0,,,,65b8200c6718c6362f486a45,13:43:59,06/03/2024
,"<div style=""font-size: 10rem; color: #0000FF"">N</div>",,ospan,letter,W9cDxjj5GrSdF5s7i2ifDUF95cF2,html-keyboard-response,83,702117,0.0-43.0-2.0-1.0-1.0-3.0,,,,,,,,,,,,,,,65b8200c6718c6362f486a45,13:43:59,06/03/2024
5426.0,,,ospan,symmetry,W9cDxjj5GrSdF5s7i2ifDUF95cF2,symmetry-judgement-task,84,709709,0.0-43.0-2.0-1.0-1.0-4.0,,,,,,,,,,1.0,1.0,,,,65b8200c6718c6362f486a45,13:43:59,06/03/2024
,"<div style=""font-size: 10rem; color: #0000FF"">H</div>",,ospan,letter,W9cDxjj5GrSdF5s7i2ifDUF95cF2,html-keyboard-response,85,710718,0.0-43.0-2.0-1.0-1.0-5.0,,,,,,,,,,,,,,,65b8200c6718c6362f486a45,13:43:59,06/03/2024
5983.199999928474,"<div class = numbox><p style=""font-size: 2.4rem"">Please recall the letters you saw to the best of your ability. If you do not remember a particular letter, use the SKIP button.<br><b>(When you are ready to lock in your answer, press ENTER)</b></p><button id = button_1 class = ""square num-button"" onclick = ""recordClick(this)""><div class = content><div class = numbers>C</div></div></button><button id = button_2 class = ""square num-button"" onclick = ""recordClick(this)""><div class = content><div class = numbers>G</div></div></button><button id = button_3 class = ""square num-button"" onclick = ""recordClick(this)""><div class = content><div class = numbers>H</div></div></button><button id = button_4 class = ""square num-button"" onclick = ""recordClick(this)""><div class = content><div class = numbers>J</div></div></button><button id = button_5 class = ""square num-button"" onclick = ""recordClick(this)""><div class = content><div class = numbers>K</div></div></button><button id = button_6 class = ""square num-button"" onclick = ""recordClick(this)""><div class = content><div class = numbers>L</div></div></button><button id = button_7 class = ""square num-button"" onclick = ""recordClick(this)""><div class = content><div class = numbers>N</div></div></button><button id = button_8 class = ""square num-button"" onclick = ""recordClick(this)""><div class = content><div class = numbers>P</div></div></button><button id = button_9 class = ""square num-button"" onclick = ""recordClick(this)""><div class = content><div class = numbers>Q</div></div></button><button id = button_10 class = ""square num-button"" onclick = ""recordClick(this)""><div class = content><div class = numbers>R</div></div></button><button id = button_11 class = ""square num-button"" onclick = ""recordClick(this)""><div class = content><div class = numbers>S</div></div></button><button id = button_12 class = ""square num-button"" onclick = ""recordClick(this)""><div class = content><div class = numbers>Y</div></div></button><button class = clear_button id = ""ClearButton"" onclick = ""clearResponse()"">BACKSPACE</button><button class = blank_button id = ""BlankButton"" onclick = ""blankResponse()"">SKIP</button><p style=""font-size: 2.4rem""><u><b>Current Answer:</b></u></p><br><br><div id=echoed_txt style=""font-size: 5rem; color:blue;""><b></b></div></div>",enter,ospan,retrieval,W9cDxjj5GrSdF5s7i2ifDUF95cF2,html-keyboard-response,86,717458,0.0-43.0-2.0-1.0-2.0-0.0,NA,NA,NA,3.0,"[""S"",""N"",""H""]","[""S"",""N"",""H""]",1.0,3.0,"['<font color=""green"">S</font>', '<font color=""green"">N</font>', '<font color=""green"">H</font>']",,,,,,65b8200c6718c6362f486a45,13:43:59,06/03/2024
11442.799999952316,"['<p style=""font-size:44px"">Letters:<br><br><br><font color=""green"">S</font> <font color=""green"">N</font> <font color=""green"">H</font></p><br><br><p style=""font-size:30px"">Symmetry:<br><br><font color=""green"">100%</font></p><br><br>']",0,ospan,practice_feedback,W9cDxjj5GrSdF5s7i2ifDUF95cF2,html-button-response,87,729413,0.0-43.0-2.0-1.0-2.0-1.0,,,,,,,,,,,,,,,65b8200c6718c6362f486a45,13:43:59,06/03/2024
,"<p style=""font-size:75px;"">...</p>",,ospan,iti,W9cDxjj5GrSdF5s7i2ifDUF95cF2,html-keyboard-response,88,730422,0.0-43.0-2.0-2.0-0.0,,,,,,,,,,,,,,,65b8200c6718c6362f486a45,13:43:59,06/03/2024
1821.0,,,ospan,symmetry,W9cDxjj5GrSdF5s7i2ifDUF95cF2,symmetry-judgement-task,89,733632,0.0-43.0-2.0-2.0-1.0-0.0,,,,,,,,,,1.0,1.0,,,,65b8200c6718c6362f486a45,13:43:59,06/03/2024
,"<div style=""font-size: 10rem; color: #0000FF"">Q</div>",,ospan,letter,W9cDxjj5GrSdF5s7i2ifDUF95cF2,html-keyboard-response,90,734639,0.0-43.0-2.0-2.0-1.0-1.0,,,,,,,,,,,,,,,65b8200c6718c6362f486a45,13:43:59,06/03/2024
3543.0,,,ospan,symmetry,W9cDxjj5GrSdF5s7i2ifDUF95cF2,symmetry-judgement-task,91,740316,0.0-43.0-2.0-2.0-1.0-2.0,,,,,,,,,,1.0,1.0,,,,65b8200c6718c6362f486a45,13:43:59,06/03/2024
,"<div style=""font-size: 10rem; color: #0000FF"">P</div>",,ospan,letter,W9cDxjj5GrSdF5s7i2ifDUF95cF2,html-keyboard-response,92,741324,0.0-43.0-2.0-2.0-1.0-3.0,,,,,,,,,,,,,,,65b8200c6718c6362f486a45,13:43:59,06/03/2024
2565.0,,,ospan,symmetry,W9cDxjj5GrSdF5s7i2ifDUF95cF2,symmetry-judgement-task,93,746029,0.0-43.0-2.0-2.0-1.0-4.0,,,,,,,,,,1.0,1.0,,,,65b8200c6718c6362f486a45,13:43:59,06/03/2024
,"<div style=""font-size: 10rem; color: #0000FF"">S</div>",,ospan,letter,W9cDxjj5GrSdF5s7i2ifDUF95cF2,html-keyboard-response,94,747033,0.0-43.0-2.0-2.0-1.0-5.0,,,,,,,,,,,,,,,65b8200c6718c6362f486a45,13:43:59,06/03/2024
9107.699999928474,"<div class = numbox><p style=""font-size: 2.4rem"">Please recall the letters you saw to the best of your ability. If you do not remember a particular letter, use the SKIP button.<br><b>(When you are ready to lock in your answer, press ENTER)</b></p><button id = button_1 class = ""square num-button"" onclick = ""recordClick(this)""><div class = content><div class = numbers>C</div></div></button><button id = button_2 class = ""square num-button"" onclick = ""recordClick(this)""><div class = content><div class = numbers>G</div></div></button><button id = button_3 class = ""square num-button"" onclick = ""recordClick(this)""><div class = content><div class = numbers>H</div></div></button><button id = button_4 class = ""square num-button"" onclick = ""recordClick(this)""><div class = content><div class = numbers>J</div></div></button><button id = button_5 class = ""square num-button"" onclick = ""recordClick(this)""><div class = content><div class = numbers>K</div></div></button><button id = button_6 class = ""square num-button"" onclick = ""recordClick(this)""><div class = content><div class = numbers>L</div></div></button><button id = button_7 class = ""square num-button"" onclick = ""recordClick(this)""><div class = content><div class = numbers>N</div></div></button><button id = button_8 class = ""square num-button"" onclick = ""recordClick(this)""><div class = content><div class = numbers>P</div></div></button><button id = button_9 class = ""square num-button"" onclick = ""recordClick(this)""><div class = content><div class = numbers>Q</div></div></button><button id = button_10 class = ""square num-button"" onclick = ""recordClick(this)""><div class = content><div class = numbers>R</div></div></button><button id = button_11 class = ""square num-button"" onclick = ""recordClick(this)""><div class = content><div class = numbers>S</div></div></button><button id = button_12 class = ""square num-button"" onclick = ""recordClick(this)""><div class = content><div class = numbers>Y</div></div></button><button class = clear_button id = ""ClearButton"" onclick = ""clearResponse()"">BACKSPACE</button><button class = blank_button id = ""BlankButton"" onclick = ""blankResponse()"">SKIP</button><p style=""font-size: 2.4rem""><u><b>Current Answer:</b></u></p><br><br><div id=echoed_txt style=""font-size: 5rem; color:blue;""><b></b></div></div>",enter,ospan,retrieval,W9cDxjj5GrSdF5s7i2ifDUF95cF2,html-keyboard-response,95,756903,0.0-43.0-2.0-2.0-2.0-0.0,NA,NA,NA,3.0,"[""Q"",""P"",""S""]","[""Q"",""P"",""S""]",1.0,3.0,"['<font color=""green"">Q</font>', '<font color=""green"">P</font>', '<font color=""green"">S</font>']",,,,,,65b8200c6718c6362f486a45,13:43:59,06/03/2024
4125.200000047684,"['<p style=""font-size:44px"">Letters:<br><br><br><font color=""green"">Q</font> <font color=""green"">P</font> <font color=""green"">S</font></p><br><br><p style=""font-size:30px"">Symmetry:<br><br><font color=""green"">100%</font></p><br><br>']",0,ospan,practice_feedback,W9cDxjj5GrSdF5s7i2ifDUF95cF2,html-button-response,96,761544,0.0-43.0-2.0-2.0-2.0-1.0,,,,,,,,,,,,,,,65b8200c6718c6362f486a45,13:43:59,06/03/2024
2370.2999999523163,"<div class = 'left_align' style='font-size: 3rem; line-height: 1.3;'><b>Great work! That is the end of practice.</b><br><br>The real trials will look just like the practice trials you just completed.<br><br><u>Here, you will not see feedback</u>. First, you will see an grid picture to judge,<br>then a letter to remember. When the recall screen appears, report the letters in the<br>order presented. If you forget a letter, remember to use the <b>blank</b> button to move to the<br>next letter. Some of the sets will have more symmetry grids and letters than others.<br><br>It is important that you do your best on both the symmetry judgments and the letter recall<br>parts of the experiment. For for the symmetry judgments, try to work as <b>quickly</b> and <br>as <b>accurately</b> as possible. Remember to keep your symmetry accuracy at 85% or above.<br><br><b>For the letters, do NOT use any external aid (e.g., writing on paper, electronic device).</b><br><br>It is <u>very important</u> to our experiment to have a <b>true</b> view of your real performance.<br><br>Do not worry if you miss some when it gets hard! This task is meant to be very challenging!<br><br>Click the button to begin.</div><br><br><br><br>",0,ospan,starting_real_here,W9cDxjj5GrSdF5s7i2ifDUF95cF2,html-button-response,97,763917,0.0-43.0-2.0-3.0,,,,,,,,,,,,,,,65b8200c6718c6362f486a45,13:43:59,06/03/2024
,"<p style=""font-size:75px;"">...</p>",,ospan,iti,W9cDxjj5GrSdF5s7i2ifDUF95cF2,html-keyboard-response,98,765186,0.0-43.0-3.0-0.0-0.0,,,,,,,,,,,,,,,65b8200c6718c6362f486a45,13:43:59,06/03/2024
,,,ospan,symmetry,W9cDxjj5GrSdF5s7i2ifDUF95cF2,symmetry-judgement-task,99,780536,0.0-43.0-3.0-0.0-1.0-0.0,,,,,,,,,,,0.0,,,,65b8200c6718c6362f486a45,13:43:59,06/03/2024
,"<div style=""font-size: 10rem; color: #0000FF"">S</div>",,ospan,letter,W9cDxjj5GrSdF5s7i2ifDUF95cF2,html-keyboard-response,100,781540,0.0-43.0-3.0-0.0-1.0-1.0,,,,,,,,,,,,,,,65b8200c6718c6362f486a45,13:43:59,06/03/2024
4880.0,,,ospan,symmetry,W9cDxjj5GrSdF5s7i2ifDUF95cF2,symmetry-judgement-task,101,788563,0.0-43.0-3.0-0.0-1.0-2.0,,,,,,,,,,1.0,1.0,,,,65b8200c6718c6362f486a45,13:43:59,06/03/2024
,"<div style=""font-size: 10rem; color: #0000FF"">N</div>",,ospan,letter,W9cDxjj5GrSdF5s7i2ifDUF95cF2,html-keyboard-response,102,789576,0.0-43.0-3.0-0.0-1.0-3.0,,,,,,,,,,,,,,,65b8200c6718c6362f486a45,13:43:59,06/03/2024
1544.0,,,ospan,symmetry,W9cDxjj5GrSdF5s7i2ifDUF95cF2,symmetry-judgement-task,103,793297,0.0-43.0-3.0-0.0-1.0-4.0,,,,,,,,,,1.0,1.0,,,,65b8200c6718c6362f486a45,13:43:59,06/03/2024
,"<div style=""font-size: 10rem; color: #0000FF"">G</div>",,ospan,letter,W9cDxjj5GrSdF5s7i2ifDUF95cF2,html-keyboard-response,104,794299,0.0-43.0-3.0-0.0-1.0-5.0,,,,,,,,,,,,,,,65b8200c6718c6362f486a45,13:43:59,06/03/2024
16712.5,"<div class = numbox><p style=""font-size: 2.4rem"">Please recall the letters you saw to the best of your ability. If you do not remember a particular letter, use the SKIP button.<br><b>(When you are ready to lock in your answer, press ENTER)</b></p><button id = button_1 class = ""square num-button"" onclick = ""recordClick(this)""><div class = content><div class = numbers>C</div></div></button><button id = button_2 class = ""square num-button"" onclick = ""recordClick(this)""><div class = content><div class = numbers>G</div></div></button><button id = button_3 class = ""square num-button"" onclick = ""recordClick(this)""><div class = content><div class = numbers>H</div></div></button><button id = button_4 class = ""square num-button"" onclick = ""recordClick(this)""><div class = content><div class = numbers>J</div></div></button><button id = button_5 class = ""square num-button"" onclick = ""recordClick(this)""><div class = content><div class = numbers>K</div></div></button><button id = button_6 class = ""square num-button"" onclick = ""recordClick(this)""><div class = content><div class = numbers>L</div></div></button><button id = button_7 class = ""square num-button"" onclick = ""recordClick(this)""><div class = content><div class = numbers>N</div></div></button><button id = button_8 class = ""square num-button"" onclick = ""recordClick(this)""><div class = content><div class = numbers>P</div></div></button><button id = button_9 class = ""square num-button"" onclick = ""recordClick(this)""><div class = content><div class = numbers>Q</div></div></button><button id = button_10 class = ""square num-button"" onclick = ""recordClick(this)""><div class = content><div class = numbers>R</div></div></button><button id = button_11 class = ""square num-button"" onclick = ""recordClick(this)""><div class = content><div class = numbers>S</div></div></button><button id = button_12 class = ""square num-button"" onclick = ""recordClick(this)""><div class = content><div class = numbers>Y</div></div></button><button class = clear_button id = ""ClearButton"" onclick = ""clearResponse()"">BACKSPACE</button><button class = blank_button id = ""BlankButton"" onclick = ""blankResponse()"">SKIP</button><p style=""font-size: 2.4rem""><u><b>Current Answer:</b></u></p><br><br><div id=echoed_txt style=""font-size: 5rem; color:blue;""><b></b></div></div>",enter,ospan,retrieval,W9cDxjj5GrSdF5s7i2ifDUF95cF2,html-keyboard-response,105,811773,0.0-43.0-3.0-0.0-2.0,3,0,0,3.0,"[""_"",""S"",""N"",""G""]","[""S"",""N"",""G""]",0.0,0.0,,,,,,,65b8200c6718c6362f486a45,13:43:59,06/03/2024
1329.2999999523163,"['<p style=""font-size: 3.75rem"">Low symmetry accuracy!<br><br><br><font color=""red"">67%</font><br><br></p>']",0,ospan,feedback,W9cDxjj5GrSdF5s7i2ifDUF95cF2,html-button-response,106,813612,0.0-43.0-3.0-0.0-3.0,,,,,,,,,,,,67.0,1.0,,65b8200c6718c6362f486a45,13:43:59,06/03/2024
,"<p style=""font-size:75px;"">...</p>",,ospan,iti,W9cDxjj5GrSdF5s7i2ifDUF95cF2,html-keyboard-response,107,814626,0.0-43.0-4.0-0.0-0.0,,,,,,,,,,,,,,,65b8200c6718c6362f486a45,13:43:59,06/03/2024
2961.0,,,ospan,symmetry,W9cDxjj5GrSdF5s7i2ifDUF95cF2,symmetry-judgement-task,108,819023,0.0-43.0-4.0-0.0-1.0-0.0,,,,,,,,,,1.0,1.0,,,,65b8200c6718c6362f486a45,13:43:59,06/03/2024
,"<div style=""font-size: 10rem; color: #0000FF"">K</div>",,ospan,letter,W9cDxjj5GrSdF5s7i2ifDUF95cF2,html-keyboard-response,109,820039,0.0-43.0-4.0-0.0-1.0-1.0,,,,,,,,,,,,,,,65b8200c6718c6362f486a45,13:43:59,06/03/2024
2116.0,,,ospan,symmetry,W9cDxjj5GrSdF5s7i2ifDUF95cF2,symmetry-judgement-task,110,824305,0.0-43.0-4.0-0.0-1.0-2.0,,,,,,,,,,1.0,1.0,,,,65b8200c6718c6362f486a45,13:43:59,06/03/2024
,"<div style=""font-size: 10rem; color: #0000FF"">R</div>",,ospan,letter,W9cDxjj5GrSdF5s7i2ifDUF95cF2,html-keyboard-response,111,825319,0.0-43.0-4.0-0.0-1.0-3.0,,,,,,,,,,,,,,,65b8200c6718c6362f486a45,13:43:59,06/03/2024
3244.0,,,ospan,symmetry,W9cDxjj5GrSdF5s7i2ifDUF95cF2,symmetry-judgement-task,112,830799,0.0-43.0-4.0-0.0-1.0-4.0,,,,,,,,,,1.0,1.0,,,,65b8200c6718c6362f486a45,13:43:59,06/03/2024
,"<div style=""font-size: 10rem; color: #0000FF"">N</div>",,ospan,letter,W9cDxjj5GrSdF5s7i2ifDUF95cF2,html-keyboard-response,113,831804,0.0-43.0-4.0-0.0-1.0-5.0,,,,,,,,,,,,,,,65b8200c6718c6362f486a45,13:43:59,06/03/2024
1650.0,,,ospan,symmetry,W9cDxjj5GrSdF5s7i2ifDUF95cF2,symmetry-judgement-task,114,835628,0.0-43.0-4.0-0.0-1.0-6.0,,,,,,,,,,1.0,1.0,,,,65b8200c6718c6362f486a45,13:43:59,06/03/2024
,"<div style=""font-size: 10rem; color: #0000FF"">G</div>",,ospan,letter,W9cDxjj5GrSdF5s7i2ifDUF95cF2,html-keyboard-response,115,836638,0.0-43.0-4.0-0.0-1.0-7.0,,,,,,,,,,,,,,,65b8200c6718c6362f486a45,13:43:59,06/03/2024
10164.300000071526,"<div class = numbox><p style=""font-size: 2.4rem"">Please recall the letters you saw to the best of your ability. If you do not remember a particular letter, use the SKIP button.<br><b>(When you are ready to lock in your answer, press ENTER)</b></p><button id = button_1 class = ""square num-button"" onclick = ""recordClick(this)""><div class = content><div class = numbers>C</div></div></button><button id = button_2 class = ""square num-button"" onclick = ""recordClick(this)""><div class = content><div class = numbers>G</div></div></button><button id = button_3 class = ""square num-button"" onclick = ""recordClick(this)""><div class = content><div class = numbers>H</div></div></button><button id = button_4 class = ""square num-button"" onclick = ""recordClick(this)""><div class = content><div class = numbers>J</div></div></button><button id = button_5 class = ""square num-button"" onclick = ""recordClick(this)""><div class = content><div class = numbers>K</div></div></button><button id = button_6 class = ""square num-button"" onclick = ""recordClick(this)""><div class = content><div class = numbers>L</div></div></button><button id = button_7 class = ""square num-button"" onclick = ""recordClick(this)""><div class = content><div class = numbers>N</div></div></button><button id = button_8 class = ""square num-button"" onclick = ""recordClick(this)""><div class = content><div class = numbers>P</div></div></button><button id = button_9 class = ""square num-button"" onclick = ""recordClick(this)""><div class = content><div class = numbers>Q</div></div></button><button id = button_10 class = ""square num-button"" onclick = ""recordClick(this)""><div class = content><div class = numbers>R</div></div></button><button id = button_11 class = ""square num-button"" onclick = ""recordClick(this)""><div class = content><div class = numbers>S</div></div></button><button id = button_12 class = ""square num-button"" onclick = ""recordClick(this)""><div class = content><div class = numbers>Y</div></div></button><button class = clear_button id = ""ClearButton"" onclick = ""clearResponse()"">BACKSPACE</button><button class = blank_button id = ""BlankButton"" onclick = ""blankResponse()"">SKIP</button><p style=""font-size: 2.4rem""><u><b>Current Answer:</b></u></p><br><br><div id=echoed_txt style=""font-size: 5rem; color:blue;""><b></b></div></div>",enter,ospan,retrieval,W9cDxjj5GrSdF5s7i2ifDUF95cF2,html-keyboard-response,116,847565,0.0-43.0-4.0-0.0-2.0,7,4,4,4.0,"[""K"",""R"",""N"",""G""]","[""K"",""R"",""N"",""G""]",1.0,4.0,,,,,,,65b8200c6718c6362f486a45,13:43:59,06/03/2024
1805.2999999523163,[''],0,ospan,feedback,W9cDxjj5GrSdF5s7i2ifDUF95cF2,html-button-response,117,849876,0.0-43.0-4.0-0.0-3.0,,,,,,,,,,,,86.0,0.0,,65b8200c6718c6362f486a45,13:43:59,06/03/2024
,"<p style=""font-size:75px;"">...</p>",,ospan,iti,W9cDxjj5GrSdF5s7i2ifDUF95cF2,html-keyboard-response,118,850882,0.0-43.0-4.0-1.0-0.0,,,,,,,,,,,,,,,65b8200c6718c6362f486a45,13:43:59,06/03/2024
1836.0,,,ospan,symmetry,W9cDxjj5GrSdF5s7i2ifDUF95cF2,symmetry-judgement-task,119,853796,0.0-43.0-4.0-1.0-1.0-0.0,,,,,,,,,,1.0,1.0,,,,65b8200c6718c6362f486a45,13:43:59,06/03/2024
,"<div style=""font-size: 10rem; color: #0000FF"">R</div>",,ospan,letter,W9cDxjj5GrSdF5s7i2ifDUF95cF2,html-keyboard-response,120,854810,0.0-43.0-4.0-1.0-1.0-1.0,,,,,,,,,,,,,,,65b8200c6718c6362f486a45,13:43:59,06/03/2024
1299.0,,,ospan,symmetry,W9cDxjj5GrSdF5s7i2ifDUF95cF2,symmetry-judgement-task,121,858231,0.0-43.0-4.0-1.0-1.0-2.0,,,,,,,,,,1.0,1.0,,,,65b8200c6718c6362f486a45,13:43:59,06/03/2024
,"<div style=""font-size: 10rem; color: #0000FF"">Y</div>",,ospan,letter,W9cDxjj5GrSdF5s7i2ifDUF95cF2,html-keyboard-response,122,859236,0.0-43.0-4.0-1.0-1.0-3.0,,,,,,,,,,,,,,,65b8200c6718c6362f486a45,13:43:59,06/03/2024
4416.0,,,ospan,symmetry,W9cDxjj5GrSdF5s7i2ifDUF95cF2,symmetry-judgement-task,123,865780,0.0-43.0-4.0-1.0-1.0-4.0,,,,,,,,,,1.0,1.0,,,,65b8200c6718c6362f486a45,13:43:59,06/03/2024
,"<div style=""font-size: 10rem; color: #0000FF"">N</div>",,ospan,letter,W9cDxjj5GrSdF5s7i2ifDUF95cF2,html-keyboard-response,124,866786,0.0-43.0-4.0-1.0-1.0-5.0,,,,,,,,,,,,,,,65b8200c6718c6362f486a45,13:43:59,06/03/2024
2713.0,,,ospan,symmetry,W9cDxjj5GrSdF5s7i2ifDUF95cF2,symmetry-judgement-task,125,871622,0.0-43.0-4.0-1.0-1.0-6.0,,,,,,,,,,1.0,1.0,,,,65b8200c6718c6362f486a45,13:43:59,06/03/2024
,"<div style=""font-size: 10rem; color: #0000FF"">S</div>",,ospan,letter,W9cDxjj5GrSdF5s7i2ifDUF95cF2,html-keyboard-response,126,872638,0.0-43.0-4.0-1.0-1.0-7.0,,,,,,,,,,,,,,,65b8200c6718c6362f486a45,13:43:59,06/03/2024
1406.0,,,ospan,symmetry,W9cDxjj5GrSdF5s7i2ifDUF95cF2,symmetry-judgement-task,127,876189,0.0-43.0-4.0-1.0-1.0-8.0,,,,,,,,,,1.0,1.0,,,,65b8200c6718c6362f486a45,13:43:59,06/03/2024
,"<div style=""font-size: 10rem; color: #0000FF"">Q</div>",,ospan,letter,W9cDxjj5GrSdF5s7i2ifDUF95cF2,html-keyboard-response,128,877203,0.0-43.0-4.0-1.0-1.0-9.0,,,,,,,,,,,,,,,65b8200c6718c6362f486a45,13:43:59,06/03/2024
34626.39999997616,"<div class = numbox><p style=""font-size: 2.4rem"">Please recall the letters you saw to the best of your ability. If you do not remember a particular letter, use the SKIP button.<br><b>(When you are ready to lock in your answer, press ENTER)</b></p><button id = button_1 class = ""square num-button"" onclick = ""recordClick(this)""><div class = content><div class = numbers>C</div></div></button><button id = button_2 class = ""square num-button"" onclick = ""recordClick(this)""><div class = content><div class = numbers>G</div></div></button><button id = button_3 class = ""square num-button"" onclick = ""recordClick(this)""><div class = content><div class = numbers>H</div></div></button><button id = button_4 class = ""square num-button"" onclick = ""recordClick(this)""><div class = content><div class = numbers>J</div></div></button><button id = button_5 class = ""square num-button"" onclick = ""recordClick(this)""><div class = content><div class = numbers>K</div></div></button><button id = button_6 class = ""square num-button"" onclick = ""recordClick(this)""><div class = content><div class = numbers>L</div></div></button><button id = button_7 class = ""square num-button"" onclick = ""recordClick(this)""><div class = content><div class = numbers>N</div></div></button><button id = button_8 class = ""square num-button"" onclick = ""recordClick(this)""><div class = content><div class = numbers>P</div></div></button><button id = button_9 class = ""square num-button"" onclick = ""recordClick(this)""><div class = content><div class = numbers>Q</div></div></button><button id = button_10 class = ""square num-button"" onclick = ""recordClick(this)""><div class = content><div class = numbers>R</div></div></button><button id = button_11 class = ""square num-button"" onclick = ""recordClick(this)""><div class = content><div class = numbers>S</div></div></button><button id = button_12 class = ""square num-button"" onclick = ""recordClick(this)""><div class = content><div class = numbers>Y</div></div></button><button class = clear_button id = ""ClearButton"" onclick = ""clearResponse()"">BACKSPACE</button><button class = blank_button id = ""BlankButton"" onclick = ""blankResponse()"">SKIP</button><p style=""font-size: 2.4rem""><u><b>Current Answer:</b></u></p><br><br><div id=echoed_txt style=""font-size: 5rem; color:blue;""><b></b></div></div>",enter,ospan,retrieval,W9cDxjj5GrSdF5s7i2ifDUF95cF2,html-keyboard-response,129,912589,0.0-43.0-4.0-1.0-2.0,12,9,9,5.0,"[""R"",""Y"",""N"",""S"",""Q""]","[""R"",""Y"",""N"",""S"",""Q""]",1.0,5.0,,,,,,,65b8200c6718c6362f486a45,13:43:59,06/03/2024
2573.4000000953674,[''],0,ospan,feedback,W9cDxjj5GrSdF5s7i2ifDUF95cF2,html-button-response,130,915668,0.0-43.0-4.0-1.0-3.0,,,,,,,,,,,,92.0,0.0,,65b8200c6718c6362f486a45,13:43:59,06/03/2024
,"<p style=""font-size:75px;"">...</p>",,ospan,iti,W9cDxjj5GrSdF5s7i2ifDUF95cF2,html-keyboard-response,131,916676,0.0-43.0-4.0-2.0-0.0,,,,,,,,,,,,,,,65b8200c6718c6362f486a45,13:43:59,06/03/2024
11588.0,,,ospan,symmetry,W9cDxjj5GrSdF5s7i2ifDUF95cF2,symmetry-judgement-task,132,929671,0.0-43.0-4.0-2.0-1.0-0.0,,,,,,,,,,1.0,1.0,,,,65b8200c6718c6362f486a45,13:43:59,06/03/2024
,"<div style=""font-size: 10rem; color: #0000FF"">Y</div>",,ospan,letter,W9cDxjj5GrSdF5s7i2ifDUF95cF2,html-keyboard-response,133,930688,0.0-43.0-4.0-2.0-1.0-1.0,,,,,,,,,,,,,,,65b8200c6718c6362f486a45,13:43:59,06/03/2024
1348.0,,,ospan,symmetry,W9cDxjj5GrSdF5s7i2ifDUF95cF2,symmetry-judgement-task,134,934171,0.0-43.0-4.0-2.0-1.0-2.0,,,,,,,,,,1.0,1.0,,,,65b8200c6718c6362f486a45,13:43:59,06/03/2024
,"<div style=""font-size: 10rem; color: #0000FF"">N</div>",,ospan,letter,W9cDxjj5GrSdF5s7i2ifDUF95cF2,html-keyboard-response,135,935176,0.0-43.0-4.0-2.0-1.0-3.0,,,,,,,,,,,,,,,65b8200c6718c6362f486a45,13:43:59,06/03/2024
1529.0,,,ospan,symmetry,W9cDxjj5GrSdF5s7i2ifDUF95cF2,symmetry-judgement-task,136,938896,0.0-43.0-4.0-2.0-1.0-4.0,,,,,,,,,,1.0,1.0,,,,65b8200c6718c6362f486a45,13:43:59,06/03/2024
,"<div style=""font-size: 10rem; color: #0000FF"">R</div>",,ospan,letter,W9cDxjj5GrSdF5s7i2ifDUF95cF2,html-keyboard-response,137,939902,0.0-43.0-4.0-2.0-1.0-5.0,,,,,,,,,,,,,,,65b8200c6718c6362f486a45,13:43:59,06/03/2024
14207.100000023842,"<div class = numbox><p style=""font-size: 2.4rem"">Please recall the letters you saw to the best of your ability. If you do not remember a particular letter, use the SKIP button.<br><b>(When you are ready to lock in your answer, press ENTER)</b></p><button id = button_1 class = ""square num-button"" onclick = ""recordClick(this)""><div class = content><div class = numbers>C</div></div></button><button id = button_2 class = ""square num-button"" onclick = ""recordClick(this)""><div class = content><div class = numbers>G</div></div></button><button id = button_3 class = ""square num-button"" onclick = ""recordClick(this)""><div class = content><div class = numbers>H</div></div></button><button id = button_4 class = ""square num-button"" onclick = ""recordClick(this)""><div class = content><div class = numbers>J</div></div></button><button id = button_5 class = ""square num-button"" onclick = ""recordClick(this)""><div class = content><div class = numbers>K</div></div></button><button id = button_6 class = ""square num-button"" onclick = ""recordClick(this)""><div class = content><div class = numbers>L</div></div></button><button id = button_7 class = ""square num-button"" onclick = ""recordClick(this)""><div class = content><div class = numbers>N</div></div></button><button id = button_8 class = ""square num-button"" onclick = ""recordClick(this)""><div class = content><div class = numbers>P</div></div></button><button id = button_9 class = ""square num-button"" onclick = ""recordClick(this)""><div class = content><div class = numbers>Q</div></div></button><button id = button_10 class = ""square num-button"" onclick = ""recordClick(this)""><div class = content><div class = numbers>R</div></div></button><button id = button_11 class = ""square num-button"" onclick = ""recordClick(this)""><div class = content><div class = numbers>S</div></div></button><button id = button_12 class = ""square num-button"" onclick = ""recordClick(this)""><div class = content><div class = numbers>Y</div></div></button><button class = clear_button id = ""ClearButton"" onclick = ""clearResponse()"">BACKSPACE</button><button class = blank_button id = ""BlankButton"" onclick = ""blankResponse()"">SKIP</button><p style=""font-size: 2.4rem""><u><b>Current Answer:</b></u></p><br><br><div id=echoed_txt style=""font-size: 5rem; color:blue;""><b></b></div></div>",enter,ospan,retrieval,W9cDxjj5GrSdF5s7i2ifDUF95cF2,html-keyboard-response,138,954868,0.0-43.0-4.0-2.0-2.0,15,12,12,3.0,"[""Y"",""N"",""R""]","[""Y"",""N"",""R""]",1.0,3.0,,,,,,,65b8200c6718c6362f486a45,13:43:59,06/03/2024
2853.100000023842,[''],0,ospan,feedback,W9cDxjj5GrSdF5s7i2ifDUF95cF2,html-button-response,139,958236,0.0-43.0-4.0-2.0-3.0,,,,,,,,,,,,93.0,0.0,,65b8200c6718c6362f486a45,13:43:59,06/03/2024
,"<p style=""font-size:75px;"">...</p>",,ospan,iti,W9cDxjj5GrSdF5s7i2ifDUF95cF2,html-keyboard-response,140,959251,0.0-43.0-5.0-0.0-0.0,,,,,,,,,,,,,,,65b8200c6718c6362f486a45,13:43:59,06/03/2024
3077.0,,,ospan,symmetry,W9cDxjj5GrSdF5s7i2ifDUF95cF2,symmetry-judgement-task,141,963737,0.0-43.0-5.0-0.0-1.0-0.0,,,,,,,,,,1.0,1.0,,,,65b8200c6718c6362f486a45,13:43:59,06/03/2024
,"<div style=""font-size: 10rem; color: #0000FF"">S</div>",,ospan,letter,W9cDxjj5GrSdF5s7i2ifDUF95cF2,html-keyboard-response,142,964750,0.0-43.0-5.0-0.0-1.0-1.0,,,,,,,,,,,,,,,65b8200c6718c6362f486a45,13:43:59,06/03/2024
1915.0,,,ospan,symmetry,W9cDxjj5GrSdF5s7i2ifDUF95cF2,symmetry-judgement-task,143,968803,0.0-43.0-5.0-0.0-1.0-2.0,,,,,,,,,,1.0,1.0,,,,65b8200c6718c6362f486a45,13:43:59,06/03/2024
,"<div style=""font-size: 10rem; color: #0000FF"">Y</div>",,ospan,letter,W9cDxjj5GrSdF5s7i2ifDUF95cF2,html-keyboard-response,144,969806,0.0-43.0-5.0-0.0-1.0-3.0,,,,,,,,,,,,,,,65b8200c6718c6362f486a45,13:43:59,06/03/2024
3160.0,,,ospan,symmetry,W9cDxjj5GrSdF5s7i2ifDUF95cF2,symmetry-judgement-task,145,975131,0.0-43.0-5.0-0.0-1.0-4.0,,,,,,,,,,1.0,1.0,,,,65b8200c6718c6362f486a45,13:43:59,06/03/2024
,"<div style=""font-size: 10rem; color: #0000FF"">L</div>",,ospan,letter,W9cDxjj5GrSdF5s7i2ifDUF95cF2,html-keyboard-response,146,976139,0.0-43.0-5.0-0.0-1.0-5.0,,,,,,,,,,,,,,,65b8200c6718c6362f486a45,13:43:59,06/03/2024
2220.0,,,ospan,symmetry,W9cDxjj5GrSdF5s7i2ifDUF95cF2,symmetry-judgement-task,147,980493,0.0-43.0-5.0-0.0-1.0-6.0,,,,,,,,,,1.0,1.0,,,,65b8200c6718c6362f486a45,13:43:59,06/03/2024
,"<div style=""font-size: 10rem; color: #0000FF"">H</div>",,ospan,letter,W9cDxjj5GrSdF5s7i2ifDUF95cF2,html-keyboard-response,148,981500,0.0-43.0-5.0-0.0-1.0-7.0,,,,,,,,,,,,,,,65b8200c6718c6362f486a45,13:43:59,06/03/2024
2176.0,,,ospan,symmetry,W9cDxjj5GrSdF5s7i2ifDUF95cF2,symmetry-judgement-task,149,985823,0.0-43.0-5.0-0.0-1.0-8.0,,,,,,,,,,1.0,1.0,,,,65b8200c6718c6362f486a45,13:43:59,06/03/2024
,"<div style=""font-size: 10rem; color: #0000FF"">P</div>",,ospan,letter,W9cDxjj5GrSdF5s7i2ifDUF95cF2,html-keyboard-response,150,986829,0.0-43.0-5.0-0.0-1.0-9.0,,,,,,,,,,,,,,,65b8200c6718c6362f486a45,13:43:59,06/03/2024
1076.0,,,ospan,symmetry,W9cDxjj5GrSdF5s7i2ifDUF95cF2,symmetry-judgement-task,151,990055,0.0-43.0-5.0-0.0-1.0-10.0,,,,,,,,,,1.0,1.0,,,,65b8200c6718c6362f486a45,13:43:59,06/03/2024
,"<div style=""font-size: 10rem; color: #0000FF"">N</div>",,ospan,letter,W9cDxjj5GrSdF5s7i2ifDUF95cF2,html-keyboard-response,152,991068,0.0-43.0-5.0-0.0-1.0-11.0,,,,,,,,,,,,,,,65b8200c6718c6362f486a45,13:43:59,06/03/2024
38879.700000047684,"<div class = numbox><p style=""font-size: 2.4rem"">Please recall the letters you saw to the best of your ability. If you do not remember a particular letter, use the SKIP button.<br><b>(When you are ready to lock in your answer, press ENTER)</b></p><button id = button_1 class = ""square num-button"" onclick = ""recordClick(this)""><div class = content><div class = numbers>C</div></div></button><button id = button_2 class = ""square num-button"" onclick = ""recordClick(this)""><div class = content><div class = numbers>G</div></div></button><button id = button_3 class = ""square num-button"" onclick = ""recordClick(this)""><div class = content><div class = numbers>H</div></div></button><button id = button_4 class = ""square num-button"" onclick = ""recordClick(this)""><div class = content><div class = numbers>J</div></div></button><button id = button_5 class = ""square num-button"" onclick = ""recordClick(this)""><div class = content><div class = numbers>K</div></div></button><button id = button_6 class = ""square num-button"" onclick = ""recordClick(this)""><div class = content><div class = numbers>L</div></div></button><button id = button_7 class = ""square num-button"" onclick = ""recordClick(this)""><div class = content><div class = numbers>N</div></div></button><button id = button_8 class = ""square num-button"" onclick = ""recordClick(this)""><div class = content><div class = numbers>P</div></div></button><button id = button_9 class = ""square num-button"" onclick = ""recordClick(this)""><div class = content><div class = numbers>Q</div></div></button><button id = button_10 class = ""square num-button"" onclick = ""recordClick(this)""><div class = content><div class = numbers>R</div></div></button><button id = button_11 class = ""square num-button"" onclick = ""recordClick(this)""><div class = content><div class = numbers>S</div></div></button><button id = button_12 class = ""square num-button"" onclick = ""recordClick(this)""><div class = content><div class = numbers>Y</div></div></button><button class = clear_button id = ""ClearButton"" onclick = ""clearResponse()"">BACKSPACE</button><button class = blank_button id = ""BlankButton"" onclick = ""blankResponse()"">SKIP</button><p style=""font-size: 2.4rem""><u><b>Current Answer:</b></u></p><br><br><div id=echoed_txt style=""font-size: 5rem; color:blue;""><b></b></div></div>",enter,ospan,retrieval,W9cDxjj5GrSdF5s7i2ifDUF95cF2,html-keyboard-response,153,1030707,0.0-43.0-5.0-0.0-2.0,21,18,18,6.0,"[""S"",""Y"",""L"",""H"",""P"",""N""]","[""S"",""Y"",""L"",""H"",""P"",""N""]",1.0,6.0,,,,,,,65b8200c6718c6362f486a45,13:43:59,06/03/2024
7215.699999928474,[''],0,ospan,feedback,W9cDxjj5GrSdF5s7i2ifDUF95cF2,html-button-response,154,1038427,0.0-43.0-5.0-0.0-3.0,,,,,,,,,,,,95.0,0.0,,65b8200c6718c6362f486a45,13:43:59,06/03/2024
,"<p style=""font-size:75px;"">...</p>",,ospan,iti,W9cDxjj5GrSdF5s7i2ifDUF95cF2,html-keyboard-response,155,1039430,0.0-43.0-5.0-1.0-0.0,,,,,,,,,,,,,,,65b8200c6718c6362f486a45,13:43:59,06/03/2024
3340.0,,,ospan,symmetry,W9cDxjj5GrSdF5s7i2ifDUF95cF2,symmetry-judgement-task,156,1044146,0.0-43.0-5.0-1.0-1.0-0.0,,,,,,,,,,1.0,1.0,,,,65b8200c6718c6362f486a45,13:43:59,06/03/2024
,"<div style=""font-size: 10rem; color: #0000FF"">L</div>",,ospan,letter,W9cDxjj5GrSdF5s7i2ifDUF95cF2,html-keyboard-response,157,1045152,0.0-43.0-5.0-1.0-1.0-1.0,,,,,,,,,,,,,,,65b8200c6718c6362f486a45,13:43:59,06/03/2024
4948.0,,,ospan,symmetry,W9cDxjj5GrSdF5s7i2ifDUF95cF2,symmetry-judgement-task,158,1052230,0.0-43.0-5.0-1.0-1.0-2.0,,,,,,,,,,1.0,1.0,,,,65b8200c6718c6362f486a45,13:43:59,06/03/2024
,"<div style=""font-size: 10rem; color: #0000FF"">P</div>",,ospan,letter,W9cDxjj5GrSdF5s7i2ifDUF95cF2,html-keyboard-response,159,1053236,0.0-43.0-5.0-1.0-1.0-3.0,,,,,,,,,,,,,,,65b8200c6718c6362f486a45,13:43:59,06/03/2024
1776.0,,,ospan,symmetry,W9cDxjj5GrSdF5s7i2ifDUF95cF2,symmetry-judgement-task,160,1057163,0.0-43.0-5.0-1.0-1.0-4.0,,,,,,,,,,1.0,1.0,,,,65b8200c6718c6362f486a45,13:43:59,06/03/2024
,"<div style=""font-size: 10rem; color: #0000FF"">H</div>",,ospan,letter,W9cDxjj5GrSdF5s7i2ifDUF95cF2,html-keyboard-response,161,1058165,0.0-43.0-5.0-1.0-1.0-5.0,,,,,,,,,,,,,,,65b8200c6718c6362f486a45,13:43:59,06/03/2024
1659.0,,,ospan,symmetry,W9cDxjj5GrSdF5s7i2ifDUF95cF2,symmetry-judgement-task,162,1061940,0.0-43.0-5.0-1.0-1.0-6.0,,,,,,,,,,1.0,1.0,,,,65b8200c6718c6362f486a45,13:43:59,06/03/2024
,"<div style=""font-size: 10rem; color: #0000FF"">G</div>",,ospan,letter,W9cDxjj5GrSdF5s7i2ifDUF95cF2,html-keyboard-response,163,1062948,0.0-43.0-5.0-1.0-1.0-7.0,,,,,,,,,,,,,,,65b8200c6718c6362f486a45,13:43:59,06/03/2024
2785.0,,,ospan,symmetry,W9cDxjj5GrSdF5s7i2ifDUF95cF2,symmetry-judgement-task,164,1067913,0.0-43.0-5.0-1.0-1.0-8.0,,,,,,,,,,1.0,1.0,,,,65b8200c6718c6362f486a45,13:43:59,06/03/2024
,"<div style=""font-size: 10rem; color: #0000FF"">N</div>",,ospan,letter,W9cDxjj5GrSdF5s7i2ifDUF95cF2,html-keyboard-response,165,1068916,0.0-43.0-5.0-1.0-1.0-9.0,,,,,,,,,,,,,,,65b8200c6718c6362f486a45,13:43:59,06/03/2024
1452.0,,,ospan,symmetry,W9cDxjj5GrSdF5s7i2ifDUF95cF2,symmetry-judgement-task,166,1072665,0.0-43.0-5.0-1.0-1.0-10.0,,,,,,,,,,1.0,1.0,,,,65b8200c6718c6362f486a45,13:43:59,06/03/2024
,"<div style=""font-size: 10rem; color: #0000FF"">Q</div>",,ospan,letter,W9cDxjj5GrSdF5s7i2ifDUF95cF2,html-keyboard-response,167,1073675,0.0-43.0-5.0-1.0-1.0-11.0,,,,,,,,,,,,,,,65b8200c6718c6362f486a45,13:43:59,06/03/2024
1148.0,,,ospan,symmetry,W9cDxjj5GrSdF5s7i2ifDUF95cF2,symmetry-judgement-task,168,1076988,0.0-43.0-5.0-1.0-1.0-12.0,,,,,,,,,,1.0,1.0,,,,65b8200c6718c6362f486a45,13:43:59,06/03/2024
,"<div style=""font-size: 10rem; color: #0000FF"">Y</div>",,ospan,letter,W9cDxjj5GrSdF5s7i2ifDUF95cF2,html-keyboard-response,169,1077997,0.0-43.0-5.0-1.0-1.0-13.0,,,,,,,,,,,,,,,65b8200c6718c6362f486a45,13:43:59,06/03/2024
11841.0,"<div class = numbox><p style=""font-size: 2.4rem"">Please recall the letters you saw to the best of your ability. If you do not remember a particular letter, use the SKIP button.<br><b>(When you are ready to lock in your answer, press ENTER)</b></p><button id = button_1 class = ""square num-button"" onclick = ""recordClick(this)""><div class = content><div class = numbers>C</div></div></button><button id = button_2 class = ""square num-button"" onclick = ""recordClick(this)""><div class = content><div class = numbers>G</div></div></button><button id = button_3 class = ""square num-button"" onclick = ""recordClick(this)""><div class = content><div class = numbers>H</div></div></button><button id = button_4 class = ""square num-button"" onclick = ""recordClick(this)""><div class = content><div class = numbers>J</div></div></button><button id = button_5 class = ""square num-button"" onclick = ""recordClick(this)""><div class = content><div class = numbers>K</div></div></button><button id = button_6 class = ""square num-button"" onclick = ""recordClick(this)""><div class = content><div class = numbers>L</div></div></button><button id = button_7 class = ""square num-button"" onclick = ""recordClick(this)""><div class = content><div class = numbers>N</div></div></button><button id = button_8 class = ""square num-button"" onclick = ""recordClick(this)""><div class = content><div class = numbers>P</div></div></button><button id = button_9 class = ""square num-button"" onclick = ""recordClick(this)""><div class = content><div class = numbers>Q</div></div></button><button id = button_10 class = ""square num-button"" onclick = ""recordClick(this)""><div class = content><div class = numbers>R</div></div></button><button id = button_11 class = ""square num-button"" onclick = ""recordClick(this)""><div class = content><div class = numbers>S</div></div></button><button id = button_12 class = ""square num-button"" onclick = ""recordClick(this)""><div class = content><div class = numbers>Y</div></div></button><button class = clear_button id = ""ClearButton"" onclick = ""clearResponse()"">BACKSPACE</button><button class = blank_button id = ""BlankButton"" onclick = ""blankResponse()"">SKIP</button><p style=""font-size: 2.4rem""><u><b>Current Answer:</b></u></p><br><br><div id=echoed_txt style=""font-size: 5rem; color:blue;""><b></b></div></div>",enter,ospan,retrieval,W9cDxjj5GrSdF5s7i2ifDUF95cF2,html-keyboard-response,170,1090593,0.0-43.0-5.0-1.0-2.0,28,18,18,7.0,"[""P"",""H"",""G"",""N"",""Q"",""Y""]","[""L"",""P"",""H"",""G"",""N"",""Q"",""Y""]",0.0,0.0,,,,,,,65b8200c6718c6362f486a45,13:43:59,06/03/2024
2439.7000000476837,[''],0,ospan,feedback,W9cDxjj5GrSdF5s7i2ifDUF95cF2,html-button-response,171,1093539,0.0-43.0-5.0-1.0-3.0,,,,,,,,,,,,96.0,0.0,,65b8200c6718c6362f486a45,13:43:59,06/03/2024
,"<p style=""font-size:75px;"">...</p>",,ospan,iti,W9cDxjj5GrSdF5s7i2ifDUF95cF2,html-keyboard-response,172,1094545,0.0-43.0-6.0-0.0-0.0,,,,,,,,,,,,,,,65b8200c6718c6362f486a45,13:43:59,06/03/2024
4102.0,,,ospan,symmetry,W9cDxjj5GrSdF5s7i2ifDUF95cF2,symmetry-judgement-task,173,1100011,0.0-43.0-6.0-0.0-1.0-0.0,,,,,,,,,,1.0,1.0,,,,65b8200c6718c6362f486a45,13:43:59,06/03/2024
,"<div style=""font-size: 10rem; color: #0000FF"">S</div>",,ospan,letter,W9cDxjj5GrSdF5s7i2ifDUF95cF2,html-keyboard-response,174,1101018,0.0-43.0-6.0-0.0-1.0-1.0,,,,,,,,,,,,,,,65b8200c6718c6362f486a45,13:43:59,06/03/2024
1309.0,,,ospan,symmetry,W9cDxjj5GrSdF5s7i2ifDUF95cF2,symmetry-judgement-task,175,1104458,0.0-43.0-6.0-0.0-1.0-2.0,,,,,,,,,,1.0,1.0,,,,65b8200c6718c6362f486a45,13:43:59,06/03/2024
,"<div style=""font-size: 10rem; color: #0000FF"">R</div>",,ospan,letter,W9cDxjj5GrSdF5s7i2ifDUF95cF2,html-keyboard-response,176,1105471,0.0-43.0-6.0-0.0-1.0-3.0,,,,,,,,,,,,,,,65b8200c6718c6362f486a45,13:43:59,06/03/2024
1059.0,,,ospan,symmetry,W9cDxjj5GrSdF5s7i2ifDUF95cF2,symmetry-judgement-task,177,1108670,0.0-43.0-6.0-0.0-1.0-4.0,,,,,,,,,,1.0,1.0,,,,65b8200c6718c6362f486a45,13:43:59,06/03/2024
,"<div style=""font-size: 10rem; color: #0000FF"">Q</div>",,ospan,letter,W9cDxjj5GrSdF5s7i2ifDUF95cF2,html-keyboard-response,178,1109673,0.0-43.0-6.0-0.0-1.0-5.0,,,,,,,,,,,,,,,65b8200c6718c6362f486a45,13:43:59,06/03/2024
2160.0,,,ospan,symmetry,W9cDxjj5GrSdF5s7i2ifDUF95cF2,symmetry-judgement-task,179,1113957,0.0-43.0-6.0-0.0-1.0-6.0,,,,,,,,,,1.0,1.0,,,,65b8200c6718c6362f486a45,13:43:59,06/03/2024
,"<div style=""font-size: 10rem; color: #0000FF"">K</div>",,ospan,letter,W9cDxjj5GrSdF5s7i2ifDUF95cF2,html-keyboard-response,180,1114959,0.0-43.0-6.0-0.0-1.0-7.0,,,,,,,,,,,,,,,65b8200c6718c6362f486a45,13:43:59,06/03/2024
1605.0,,,ospan,symmetry,W9cDxjj5GrSdF5s7i2ifDUF95cF2,symmetry-judgement-task,181,1118714,0.0-43.0-6.0-0.0-1.0-8.0,,,,,,,,,,1.0,1.0,,,,65b8200c6718c6362f486a45,13:43:59,06/03/2024
,"<div style=""font-size: 10rem; color: #0000FF"">P</div>",,ospan,letter,W9cDxjj5GrSdF5s7i2ifDUF95cF2,html-keyboard-response,182,1119715,0.0-43.0-6.0-0.0-1.0-9.0,,,,,,,,,,,,,,,65b8200c6718c6362f486a45,13:43:59,06/03/2024
12507.0,"<div class = numbox><p style=""font-size: 2.4rem"">Please recall the letters you saw to the best of your ability. If you do not remember a particular letter, use the SKIP button.<br><b>(When you are ready to lock in your answer, press ENTER)</b></p><button id = button_1 class = ""square num-button"" onclick = ""recordClick(this)""><div class = content><div class = numbers>C</div></div></button><button id = button_2 class = ""square num-button"" onclick = ""recordClick(this)""><div class = content><div class = numbers>G</div></div></button><button id = button_3 class = ""square num-button"" onclick = ""recordClick(this)""><div class = content><div class = numbers>H</div></div></button><button id = button_4 class = ""square num-button"" onclick = ""recordClick(this)""><div class = content><div class = numbers>J</div></div></button><button id = button_5 class = ""square num-button"" onclick = ""recordClick(this)""><div class = content><div class = numbers>K</div></div></button><button id = button_6 class = ""square num-button"" onclick = ""recordClick(this)""><div class = content><div class = numbers>L</div></div></button><button id = button_7 class = ""square num-button"" onclick = ""recordClick(this)""><div class = content><div class = numbers>N</div></div></button><button id = button_8 class = ""square num-button"" onclick = ""recordClick(this)""><div class = content><div class = numbers>P</div></div></button><button id = button_9 class = ""square num-button"" onclick = ""recordClick(this)""><div class = content><div class = numbers>Q</div></div></button><button id = button_10 class = ""square num-button"" onclick = ""recordClick(this)""><div class = content><div class = numbers>R</div></div></button><button id = button_11 class = ""square num-button"" onclick = ""recordClick(this)""><div class = content><div class = numbers>S</div></div></button><button id = button_12 class = ""square num-button"" onclick = ""recordClick(this)""><div class = content><div class = numbers>Y</div></div></button><button class = clear_button id = ""ClearButton"" onclick = ""clearResponse()"">BACKSPACE</button><button class = blank_button id = ""BlankButton"" onclick = ""blankResponse()"">SKIP</button><p style=""font-size: 2.4rem""><u><b>Current Answer:</b></u></p><br><br><div id=echoed_txt style=""font-size: 5rem; color:blue;""><b></b></div></div>",enter,ospan,retrieval,W9cDxjj5GrSdF5s7i2ifDUF95cF2,html-keyboard-response,183,1132983,0.0-43.0-6.0-0.0-2.0,33,23,23,5.0,"[""S"",""R"",""Q"",""K"",""P""]","[""S"",""R"",""Q"",""K"",""P""]",1.0,5.0,,,,,,,65b8200c6718c6362f486a45,13:43:59,06/03/2024
2084.899999976158,[''],0,ospan,feedback,W9cDxjj5GrSdF5s7i2ifDUF95cF2,html-button-response,184,1135579,0.0-43.0-6.0-0.0-3.0,,,,,,,,,,,,97.0,0.0,,65b8200c6718c6362f486a45,13:43:59,06/03/2024
,"<p style=""font-size:75px;"">...</p>",,ospan,iti,W9cDxjj5GrSdF5s7i2ifDUF95cF2,html-keyboard-response,185,1136584,0.0-43.0-6.0-1.0-0.0,,,,,,,,,,,,,,,65b8200c6718c6362f486a45,13:43:59,06/03/2024
4593.0,,,ospan,symmetry,W9cDxjj5GrSdF5s7i2ifDUF95cF2,symmetry-judgement-task,186,1142633,0.0-43.0-6.0-1.0-1.0-0.0,,,,,,,,,,1.0,1.0,,,,65b8200c6718c6362f486a45,13:43:59,06/03/2024
,"<div style=""font-size: 10rem; color: #0000FF"">H</div>",,ospan,letter,W9cDxjj5GrSdF5s7i2ifDUF95cF2,html-keyboard-response,187,1143644,0.0-43.0-6.0-1.0-1.0-1.0,,,,,,,,,,,,,,,65b8200c6718c6362f486a45,13:43:59,06/03/2024
5629.0,,,ospan,symmetry,W9cDxjj5GrSdF5s7i2ifDUF95cF2,symmetry-judgement-task,188,1151487,0.0-43.0-6.0-1.0-1.0-2.0,,,,,,,,,,1.0,1.0,,,,65b8200c6718c6362f486a45,13:43:59,06/03/2024
,"<div style=""font-size: 10rem; color: #0000FF"">P</div>",,ospan,letter,W9cDxjj5GrSdF5s7i2ifDUF95cF2,html-keyboard-response,189,1152491,0.0-43.0-6.0-1.0-1.0-3.0,,,,,,,,,,,,,,,65b8200c6718c6362f486a45,13:43:59,06/03/2024
2554.0,,,ospan,symmetry,W9cDxjj5GrSdF5s7i2ifDUF95cF2,symmetry-judgement-task,190,1157353,0.0-43.0-6.0-1.0-1.0-4.0,,,,,,,,,,1.0,1.0,,,,65b8200c6718c6362f486a45,13:43:59,06/03/2024
,"<div style=""font-size: 10rem; color: #0000FF"">Y</div>",,ospan,letter,W9cDxjj5GrSdF5s7i2ifDUF95cF2,html-keyboard-response,191,1158367,0.0-43.0-6.0-1.0-1.0-5.0,,,,,,,,,,,,,,,65b8200c6718c6362f486a45,13:43:59,06/03/2024
1479.0,,,ospan,symmetry,W9cDxjj5GrSdF5s7i2ifDUF95cF2,symmetry-judgement-task,192,1162101,0.0-43.0-6.0-1.0-1.0-6.0,,,,,,,,,,1.0,1.0,,,,65b8200c6718c6362f486a45,13:43:59,06/03/2024
,"<div style=""font-size: 10rem; color: #0000FF"">C</div>",,ospan,letter,W9cDxjj5GrSdF5s7i2ifDUF95cF2,html-keyboard-response,193,1163118,0.0-43.0-6.0-1.0-1.0-7.0,,,,,,,,,,,,,,,65b8200c6718c6362f486a45,13:43:59,06/03/2024
1691.0,,,ospan,symmetry,W9cDxjj5GrSdF5s7i2ifDUF95cF2,symmetry-judgement-task,194,1167006,0.0-43.0-6.0-1.0-1.0-8.0,,,,,,,,,,1.0,1.0,,,,65b8200c6718c6362f486a45,13:43:59,06/03/2024
,"<div style=""font-size: 10rem; color: #0000FF"">R</div>",,ospan,letter,W9cDxjj5GrSdF5s7i2ifDUF95cF2,html-keyboard-response,195,1168008,0.0-43.0-6.0-1.0-1.0-9.0,,,,,,,,,,,,,,,65b8200c6718c6362f486a45,13:43:59,06/03/2024
8338.0,,,ospan,symmetry,W9cDxjj5GrSdF5s7i2ifDUF95cF2,symmetry-judgement-task,196,1178559,0.0-43.0-6.0-1.0-1.0-10.0,,,,,,,,,,1.0,1.0,,,,65b8200c6718c6362f486a45,13:43:59,06/03/2024
,"<div style=""font-size: 10rem; color: #0000FF"">Q</div>",,ospan,letter,W9cDxjj5GrSdF5s7i2ifDUF95cF2,html-keyboard-response,197,1179571,0.0-43.0-6.0-1.0-1.0-11.0,,,,,,,,,,,,,,,65b8200c6718c6362f486a45,13:43:59,06/03/2024
2788.0,,,ospan,symmetry,W9cDxjj5GrSdF5s7i2ifDUF95cF2,symmetry-judgement-task,198,1184582,0.0-43.0-6.0-1.0-1.0-12.0,,,,,,,,,,1.0,1.0,,,,65b8200c6718c6362f486a45,13:43:59,06/03/2024
,"<div style=""font-size: 10rem; color: #0000FF"">N</div>",,ospan,letter,W9cDxjj5GrSdF5s7i2ifDUF95cF2,html-keyboard-response,199,1185593,0.0-43.0-6.0-1.0-1.0-13.0,,,,,,,,,,,,,,,65b8200c6718c6362f486a45,13:43:59,06/03/2024
2116.0,,,ospan,symmetry,W9cDxjj5GrSdF5s7i2ifDUF95cF2,symmetry-judgement-task,200,1189917,0.0-43.0-6.0-1.0-1.0-14.0,,,,,,,,,,1.0,1.0,,,,65b8200c6718c6362f486a45,13:43:59,06/03/2024
,"<div style=""font-size: 10rem; color: #0000FF"">J</div>",,ospan,letter,W9cDxjj5GrSdF5s7i2ifDUF95cF2,html-keyboard-response,201,1190928,0.0-43.0-6.0-1.0-1.0-15.0,,,,,,,,,,,,,,,65b8200c6718c6362f486a45,13:43:59,06/03/2024
28352.600000023842,"<div class = numbox><p style=""font-size: 2.4rem"">Please recall the letters you saw to the best of your ability. If you do not remember a particular letter, use the SKIP button.<br><b>(When you are ready to lock in your answer, press ENTER)</b></p><button id = button_1 class = ""square num-button"" onclick = ""recordClick(this)""><div class = content><div class = numbers>C</div></div></button><button id = button_2 class = ""square num-button"" onclick = ""recordClick(this)""><div class = content><div class = numbers>G</div></div></button><button id = button_3 class = ""square num-button"" onclick = ""recordClick(this)""><div class = content><div class = numbers>H</div></div></button><button id = button_4 class = ""square num-button"" onclick = ""recordClick(this)""><div class = content><div class = numbers>J</div></div></button><button id = button_5 class = ""square num-button"" onclick = ""recordClick(this)""><div class = content><div class = numbers>K</div></div></button><button id = button_6 class = ""square num-button"" onclick = ""recordClick(this)""><div class = content><div class = numbers>L</div></div></button><button id = button_7 class = ""square num-button"" onclick = ""recordClick(this)""><div class = content><div class = numbers>N</div></div></button><button id = button_8 class = ""square num-button"" onclick = ""recordClick(this)""><div class = content><div class = numbers>P</div></div></button><button id = button_9 class = ""square num-button"" onclick = ""recordClick(this)""><div class = content><div class = numbers>Q</div></div></button><button id = button_10 class = ""square num-button"" onclick = ""recordClick(this)""><div class = content><div class = numbers>R</div></div></button><button id = button_11 class = ""square num-button"" onclick = ""recordClick(this)""><div class = content><div class = numbers>S</div></div></button><button id = button_12 class = ""square num-button"" onclick = ""recordClick(this)""><div class = content><div class = numbers>Y</div></div></button><button class = clear_button id = ""ClearButton"" onclick = ""clearResponse()"">BACKSPACE</button><button class = blank_button id = ""BlankButton"" onclick = ""blankResponse()"">SKIP</button><p style=""font-size: 2.4rem""><u><b>Current Answer:</b></u></p><br><br><div id=echoed_txt style=""font-size: 5rem; color:blue;""><b></b></div></div>",enter,ospan,retrieval,W9cDxjj5GrSdF5s7i2ifDUF95cF2,html-keyboard-response,202,1220039,0.0-43.0-6.0-1.0-2.0,41,31,31,8.0,"[""H"",""P"",""Y"",""C"",""R"",""Q"",""N"",""J""]","[""H"",""P"",""Y"",""C"",""R"",""Q"",""N"",""J""]",1.0,8.0,,,,,,,65b8200c6718c6362f486a45,13:43:59,06/03/2024
4705.399999976158,[''],0,ospan,feedback,W9cDxjj5GrSdF5s7i2ifDUF95cF2,html-button-response,203,1225251,0.0-43.0-6.0-1.0-3.0,,,,,,,,,,,,98.0,0.0,,65b8200c6718c6362f486a45,13:43:59,06/03/2024
15307.699999928474,,{'Q0': 'No comment\n'},ospan,survey_ospan,W9cDxjj5GrSdF5s7i2ifDUF95cF2,lmdlab-survey-text,204,1241323,0.0-43.0-7.0,,,,,,,,,,,,,,W9cDxjj5GrSdF5s7i2ifDUF95cF2,65b8200c6718c6362f486a45,13:43:59,06/03/2024
2788.0999999046326,<p><p style='font-size: 3rem'>Great work!<br><br>This completes the symmetry and memory task.</p><br><br><br>,0,ospan,finish,W9cDxjj5GrSdF5s7i2ifDUF95cF2,html-button-response,205,1244115,0.0-43.0-8.0,41,31,31,,,,,,,,,98.0,,,65b8200c6718c6362f486a45,13:43:59,06/03/2024
