rt,stimulus,response,exp_name,exp_stage,subjectID,trial_type,trial_index,time_elapsed,internal_node_id,ospan_shown,ospan_total,ospan_abs,length,resp_actual,resp_correct,full_correct,num_correct,feedback,accuracy,correct,math_acc,math_warning,databaseID,prolificID,start_time,date
6477.600000143051,<div class = 'left_align' style='font-size: 3.25rem; line-height: 1.3;'><p class = 'center_align'><b>Welcome to the Symmetry and Memory Task</b><br><br><br><br></p>Press 'continue' to show the instructions.<br><br><br><br></div>,0,ospan,instruct,ee0iqTzzboZsvN4QJE6YDWmcv0V2,html-button-response,54,625166,0.0-46.0-0.0-0.0-0.0,,,,,,,,,,,,,,,5e7c55274f63942a04b08c29,17:52:37,04/04/2024
148248.20000004768,"<div class = 'left_align' style='font-size: 3.25rem; line-height: 1.3;'><p class = 'center_align'><b>Symmetry and Memory Task</b><br><br></p>In this task, you will try to memorize letters you see on the screen<br>while you also view black and white grid pictures.<br><br>In the next few minutes, you will have some practice to get you familiar<br>with how the task works.<br><br>It may be difficult sometimes, but please do not worry about making mistakes!<br><br>We will begin by practicing the letter part of the task.<br><br><br><br></div>",0,ospan,instruct,ee0iqTzzboZsvN4QJE6YDWmcv0V2,html-button-response,55,773688,0.0-46.0-0.0-0.0-1.0,,,,,,,,,,,,,,,5e7c55274f63942a04b08c29,17:52:37,04/04/2024
31605.400000095367,"<div class = 'left_align' style='font-size: 3.25rem; line-height: 1.3;'>For this practice part, letters will appear on the screen one at a time.<br><br>Try to remember each letter in the order presented.<br><br>After some letters have been shown, you will see a response screen. Your<br>goal is to report the letters you saw <b>in order</b>. If you do not remember<br>a particular letter, you will have the option to leave it blank.<br><br><br><br></div>",0,ospan,instruct,ee0iqTzzboZsvN4QJE6YDWmcv0V2,html-button-response,56,805555,0.0-46.0-0.0-0.0-2.0,,,,,,,,,,,,,,,5e7c55274f63942a04b08c29,17:52:37,04/04/2024
2976.7000000476837,"<div class = 'left_align' style='font-size: 3.25rem; line-height: 1.3;'>Remember, it is very important to get the letters in the same<br>order as you see them.<br><br>When you are ready, you may begin the letter practice.</div><br><br><br><br>",0,ospan,instruct,ee0iqTzzboZsvN4QJE6YDWmcv0V2,html-button-response,57,808797,0.0-46.0-0.0-0.0-3.0,,,,,,,,,,,,,,,5e7c55274f63942a04b08c29,17:52:37,04/04/2024
,"<p style=""font-size:75px;"">...</p>",,ospan,iti,ee0iqTzzboZsvN4QJE6YDWmcv0V2,html-keyboard-response,58,810071,0.0-46.0-0.0-1.0-0.0,,,,,,,,,,,,,,,5e7c55274f63942a04b08c29,17:52:37,04/04/2024
,"<div style=""font-size: 10rem; color: #0000FF"">Y</div>",,ospan,letter,ee0iqTzzboZsvN4QJE6YDWmcv0V2,html-keyboard-response,59,811088,0.0-46.0-0.0-1.0-1.0,,,,,,,,,,,,,,,5e7c55274f63942a04b08c29,17:52:37,04/04/2024
,"<div style=""font-size: 10rem; color: #0000FF"">R</div>",,ospan,letter,ee0iqTzzboZsvN4QJE6YDWmcv0V2,html-keyboard-response,60,812854,0.0-46.0-0.0-1.0-2.0,,,,,,,,,,,,,,,5e7c55274f63942a04b08c29,17:52:37,04/04/2024
11455.600000143051,"<div class = numbox><p style=""font-size: 2.4rem"">Please recall the letters you saw to the best of your ability. If you do not remember a particular letter, use the SKIP button.<br><b>(When you are ready to lock in your answer, press ENTER)</b></p><button id = button_1 class = ""square num-button"" onclick = ""recordClick(this)""><div class = content><div class = numbers>C</div></div></button><button id = button_2 class = ""square num-button"" onclick = ""recordClick(this)""><div class = content><div class = numbers>G</div></div></button><button id = button_3 class = ""square num-button"" onclick = ""recordClick(this)""><div class = content><div class = numbers>H</div></div></button><button id = button_4 class = ""square num-button"" onclick = ""recordClick(this)""><div class = content><div class = numbers>J</div></div></button><button id = button_5 class = ""square num-button"" onclick = ""recordClick(this)""><div class = content><div class = numbers>K</div></div></button><button id = button_6 class = ""square num-button"" onclick = ""recordClick(this)""><div class = content><div class = numbers>L</div></div></button><button id = button_7 class = ""square num-button"" onclick = ""recordClick(this)""><div class = content><div class = numbers>N</div></div></button><button id = button_8 class = ""square num-button"" onclick = ""recordClick(this)""><div class = content><div class = numbers>P</div></div></button><button id = button_9 class = ""square num-button"" onclick = ""recordClick(this)""><div class = content><div class = numbers>Q</div></div></button><button id = button_10 class = ""square num-button"" onclick = ""recordClick(this)""><div class = content><div class = numbers>R</div></div></button><button id = button_11 class = ""square num-button"" onclick = ""recordClick(this)""><div class = content><div class = numbers>S</div></div></button><button id = button_12 class = ""square num-button"" onclick = ""recordClick(this)""><div class = content><div class = numbers>Y</div></div></button><button class = clear_button id = ""ClearButton"" onclick = ""clearResponse()"">BACKSPACE</button><button class = blank_button id = ""BlankButton"" onclick = ""blankResponse()"">SKIP</button><p style=""font-size: 2.4rem""><u><b>Current Answer:</b></u></p><br><br><div id=echoed_txt style=""font-size: 5rem; color:blue;""><b></b></div></div>",enter,ospan,retrieval,ee0iqTzzboZsvN4QJE6YDWmcv0V2,html-keyboard-response,61,825075,0.0-46.0-0.0-1.0-3.0,NA,NA,NA,2.0,"[""Y"",""R""]","[""Y"",""R""]",1.0,2.0,"['<font color=""green"">Y</font>', '<font color=""green"">R</font>']",,,,,,5e7c55274f63942a04b08c29,17:52:37,04/04/2024
2259.899999856949,"['<p style=""font-size:44px"">Letters:<br><br><br><font color=""green"">Y</font> <font color=""green"">R</font></p><br><br>']",0,ospan,practice_feedback,ee0iqTzzboZsvN4QJE6YDWmcv0V2,html-button-response,62,827845,0.0-46.0-0.0-1.0-4.0,,,,,,,,,,,,,,,5e7c55274f63942a04b08c29,17:52:37,04/04/2024
,"<p style=""font-size:75px;"">...</p>",,ospan,iti,ee0iqTzzboZsvN4QJE6YDWmcv0V2,html-keyboard-response,63,828848,0.0-46.0-0.0-2.0-0.0,,,,,,,,,,,,,,,5e7c55274f63942a04b08c29,17:52:37,04/04/2024
,"<div style=""font-size: 10rem; color: #0000FF"">Q</div>",,ospan,letter,ee0iqTzzboZsvN4QJE6YDWmcv0V2,html-keyboard-response,64,829870,0.0-46.0-0.0-2.0-1.0,,,,,,,,,,,,,,,5e7c55274f63942a04b08c29,17:52:37,04/04/2024
,"<div style=""font-size: 10rem; color: #0000FF"">J</div>",,ospan,letter,ee0iqTzzboZsvN4QJE6YDWmcv0V2,html-keyboard-response,65,831636,0.0-46.0-0.0-2.0-2.0,,,,,,,,,,,,,,,5e7c55274f63942a04b08c29,17:52:37,04/04/2024
,"<div style=""font-size: 10rem; color: #0000FF"">R</div>",,ospan,letter,ee0iqTzzboZsvN4QJE6YDWmcv0V2,html-keyboard-response,66,833416,0.0-46.0-0.0-2.0-3.0,,,,,,,,,,,,,,,5e7c55274f63942a04b08c29,17:52:37,04/04/2024
7071.700000047684,"<div class = numbox><p style=""font-size: 2.4rem"">Please recall the letters you saw to the best of your ability. If you do not remember a particular letter, use the SKIP button.<br><b>(When you are ready to lock in your answer, press ENTER)</b></p><button id = button_1 class = ""square num-button"" onclick = ""recordClick(this)""><div class = content><div class = numbers>C</div></div></button><button id = button_2 class = ""square num-button"" onclick = ""recordClick(this)""><div class = content><div class = numbers>G</div></div></button><button id = button_3 class = ""square num-button"" onclick = ""recordClick(this)""><div class = content><div class = numbers>H</div></div></button><button id = button_4 class = ""square num-button"" onclick = ""recordClick(this)""><div class = content><div class = numbers>J</div></div></button><button id = button_5 class = ""square num-button"" onclick = ""recordClick(this)""><div class = content><div class = numbers>K</div></div></button><button id = button_6 class = ""square num-button"" onclick = ""recordClick(this)""><div class = content><div class = numbers>L</div></div></button><button id = button_7 class = ""square num-button"" onclick = ""recordClick(this)""><div class = content><div class = numbers>N</div></div></button><button id = button_8 class = ""square num-button"" onclick = ""recordClick(this)""><div class = content><div class = numbers>P</div></div></button><button id = button_9 class = ""square num-button"" onclick = ""recordClick(this)""><div class = content><div class = numbers>Q</div></div></button><button id = button_10 class = ""square num-button"" onclick = ""recordClick(this)""><div class = content><div class = numbers>R</div></div></button><button id = button_11 class = ""square num-button"" onclick = ""recordClick(this)""><div class = content><div class = numbers>S</div></div></button><button id = button_12 class = ""square num-button"" onclick = ""recordClick(this)""><div class = content><div class = numbers>Y</div></div></button><button class = clear_button id = ""ClearButton"" onclick = ""clearResponse()"">BACKSPACE</button><button class = blank_button id = ""BlankButton"" onclick = ""blankResponse()"">SKIP</button><p style=""font-size: 2.4rem""><u><b>Current Answer:</b></u></p><br><br><div id=echoed_txt style=""font-size: 5rem; color:blue;""><b></b></div></div>",enter,ospan,retrieval,ee0iqTzzboZsvN4QJE6YDWmcv0V2,html-keyboard-response,67,841242,0.0-46.0-0.0-2.0-4.0,NA,NA,NA,3.0,"[""Q"",""J"",""R""]","[""Q"",""J"",""R""]",1.0,3.0,"['<font color=""green"">Q</font>', '<font color=""green"">J</font>', '<font color=""green"">R</font>']",,,,,,5e7c55274f63942a04b08c29,17:52:37,04/04/2024
1972.6000001430511,"['<p style=""font-size:44px"">Letters:<br><br><br><font color=""green"">Q</font> <font color=""green"">J</font> <font color=""green"">R</font></p><br><br>']",0,ospan,practice_feedback,ee0iqTzzboZsvN4QJE6YDWmcv0V2,html-button-response,68,843729,0.0-46.0-0.0-2.0-5.0,,,,,,,,,,,,,,,5e7c55274f63942a04b08c29,17:52:37,04/04/2024
26562.900000095367,"<div class = 'left_align' style='font-size: 3.25rem; line-height: 1.3;'>Now you will practice doing the <b>symmetry judgment part</b> of the experiment.<br><br>A black and white grid picture will appear on the screen and you have to judge if it is <br>symmetrical or asymetrical.<br><br>A picture is 'mirror' symmetrical if its left half is identical to the right half when flipped.<br>Here are examples of a symmetrical and an asymetrical picture:<br><br><center><img src='Stimuli/img/symm_instructions_extra.png' style='height:420px; width:900'></img></center><br>To judge symmetry, imagine you were to fold each picture down the middle, like a book –<br>would the left half match the right half when folded onto each other?<br><br></div><br>",0,ospan,instruct,ee0iqTzzboZsvN4QJE6YDWmcv0V2,html-button-response,69,870293,0.0-46.0-1.0-0.0-0.0,,,,,,,,,,,,,,,5e7c55274f63942a04b08c29,17:52:37,04/04/2024
20525.0,"<div class = 'left_align' style='font-size: 3.25rem; line-height: 1.3;'>When you have viewed the picture and determined whether it is symmetrical or not,<br>you can <b>click the Yes or No button</b> below to answer.<br><br>If you take longer than 15 seconds, it will continue automatically<br>and record the answer as an error.</div><br>",0,ospan,instruct,ee0iqTzzboZsvN4QJE6YDWmcv0V2,html-button-response,70,891077,0.0-46.0-1.0-0.0-1.0,,,,,,,,,,,,,,,5e7c55274f63942a04b08c29,17:52:37,04/04/2024
4101.899999856949,"<div class = 'left_align' style='font-size: 3.25rem; line-height: 1.3;'>It is <b>very</b> important that you make the symmetry judgment correctly.<br><br>It is also important that you try and judge the picture as quickly as you can.<br><br>When you are ready, click on the button below to try some practice problems.</div><br><br><br><br>",0,ospan,instruct,ee0iqTzzboZsvN4QJE6YDWmcv0V2,html-button-response,71,895438,0.0-46.0-1.0-0.0-2.0,,,,,,,,,,,,,,,5e7c55274f63942a04b08c29,17:52:37,04/04/2024
2280.0,,,ospan,symmetry,ee0iqTzzboZsvN4QJE6YDWmcv0V2,symmetry-judgement-task,72,898547,0.0-46.0-1.0-1.0-0.0,,,,,,,,,,1.0,1.0,,,,5e7c55274f63942a04b08c29,17:52:37,04/04/2024
,"<p style=""color:green; font-size: 35px"">Correct</p>",,ospan,feedback,ee0iqTzzboZsvN4QJE6YDWmcv0V2,html-keyboard-response,73,899302,0.0-46.0-1.0-1.0-1.0,,,,,,,,,,,,,,,5e7c55274f63942a04b08c29,17:52:37,04/04/2024
2701.0,,,ospan,symmetry,ee0iqTzzboZsvN4QJE6YDWmcv0V2,symmetry-judgement-task,74,904768,0.0-46.0-1.0-1.0-2.0,,,,,,,,,,1.0,1.0,,,,5e7c55274f63942a04b08c29,17:52:37,04/04/2024
,"<p style=""color:green; font-size: 35px"">Correct</p>",,ospan,feedback,ee0iqTzzboZsvN4QJE6YDWmcv0V2,html-keyboard-response,75,905535,0.0-46.0-1.0-1.0-3.0,,,,,,,,,,,,,,,5e7c55274f63942a04b08c29,17:52:37,04/04/2024
2549.0,,,ospan,symmetry,ee0iqTzzboZsvN4QJE6YDWmcv0V2,symmetry-judgement-task,76,910832,0.0-46.0-1.0-1.0-4.0,,,,,,,,,,1.0,1.0,,,,5e7c55274f63942a04b08c29,17:52:37,04/04/2024
,"<p style=""color:green; font-size: 35px"">Correct</p>",,ospan,feedback,ee0iqTzzboZsvN4QJE6YDWmcv0V2,html-keyboard-response,77,911603,0.0-46.0-1.0-1.0-5.0,,,,,,,,,,,,,,,5e7c55274f63942a04b08c29,17:52:37,04/04/2024
2243.399999856949,"<p style=""font-size: 3rem;"">You responded correctly on 3 of 3 symmetry judgments. Good job!</p><br><br>",0,ospan,practice,ee0iqTzzboZsvN4QJE6YDWmcv0V2,html-button-response,78,915859,0.0-46.0-1.0-2.0,,,,,,,,,,,,,,,5e7c55274f63942a04b08c29,17:52:37,04/04/2024
11379.200000047684,"<div class = 'left_align' style='font-size: 3.25rem; line-height: 1.3;'>Now you will practice doing both parts of the experiment at the same time.<br><br>In the next practice set, you will be given one grid picture to judge.<br>Then letter will appear on the screen. Try to remember the letter.<br><br>It is <b>very important</b> to make the symmetry judgment as quickly and accurately as possible.<br><br>Just as before, once you have make the symmetry judgment, you can click Yes or No.<br><b>Note that you will no longer see Correct or Incorrect feedback.</div><br><br><br><br>",0,ospan,instruct,ee0iqTzzboZsvN4QJE6YDWmcv0V2,html-button-response,79,927498,0.0-46.0-2.0-0.0-0.0,,,,,,,,,,,,,,,5e7c55274f63942a04b08c29,17:52:37,04/04/2024
6881.399999856949,"<div class = 'left_align' style='font-size: 3.25rem; line-height: 1.3;'>After the letter goes away, another grid picture will appear, and then<br>another letter.<br><br>At the end of each set of letters and grids, you will recall the letters to the best<br>of your ability. Remember, try your best to get the letters in the correct order.<br><br>It is important to <b>quickly</b> and <b>accurately</b> make the symmetry judgments.</div><br><br><br><br>",0,ospan,instruct,ee0iqTzzboZsvN4QJE6YDWmcv0V2,html-button-response,80,934634,0.0-46.0-2.0-0.0-1.0,,,,,,,,,,,,,,,5e7c55274f63942a04b08c29,17:52:37,04/04/2024
14347.0,"<div class = 'left_align' style='font-size: 3.25rem; line-height: 1.3;'>On the feedback screen, if you are not doing well at the symmetry judgments,<br>you will also see a warning in the middle. This indicates your percent <br>correct for the grid pictures for the entire experiment.<br><br>It is <b>very</b> important for you to keep accuracy at least at 85%: <u>We can only use<br>data where the participant was at least 85% accurate on the judgments.</u> Therefore,<br> please try your best to perform well on the symmetry judgments, <b>at the same time</b><br>doing your best to recall as many letters as possible.<br><br>Click the button to try some practice problems.</div><br><br><br><br>",0,ospan,instruct,ee0iqTzzboZsvN4QJE6YDWmcv0V2,html-button-response,81,949248,0.0-46.0-2.0-0.0-2.0,,,,,,,,,,,,,,,5e7c55274f63942a04b08c29,17:52:37,04/04/2024
,"<p style=""font-size:75px;"">...</p>",,ospan,iti,ee0iqTzzboZsvN4QJE6YDWmcv0V2,html-keyboard-response,82,950515,0.0-46.0-2.0-1.0-0.0,,,,,,,,,,,,,,,5e7c55274f63942a04b08c29,17:52:37,04/04/2024
2031.0,,,ospan,symmetry,ee0iqTzzboZsvN4QJE6YDWmcv0V2,symmetry-judgement-task,83,953599,0.0-46.0-2.0-1.0-1.0-0.0,,,,,,,,,,1.0,1.0,,,,5e7c55274f63942a04b08c29,17:52:37,04/04/2024
,"<div style=""font-size: 10rem; color: #0000FF"">Q</div>",,ospan,letter,ee0iqTzzboZsvN4QJE6YDWmcv0V2,html-keyboard-response,84,954602,0.0-46.0-2.0-1.0-1.0-1.0,,,,,,,,,,,,,,,5e7c55274f63942a04b08c29,17:52:37,04/04/2024
1656.0,,,ospan,symmetry,ee0iqTzzboZsvN4QJE6YDWmcv0V2,symmetry-judgement-task,85,958251,0.0-46.0-2.0-1.0-1.0-2.0,,,,,,,,,,1.0,1.0,,,,5e7c55274f63942a04b08c29,17:52:37,04/04/2024
,"<div style=""font-size: 10rem; color: #0000FF"">J</div>",,ospan,letter,ee0iqTzzboZsvN4QJE6YDWmcv0V2,html-keyboard-response,86,959269,0.0-46.0-2.0-1.0-1.0-3.0,,,,,,,,,,,,,,,5e7c55274f63942a04b08c29,17:52:37,04/04/2024
2819.0,,,ospan,symmetry,ee0iqTzzboZsvN4QJE6YDWmcv0V2,symmetry-judgement-task,87,964070,0.0-46.0-2.0-1.0-1.0-4.0,,,,,,,,,,1.0,1.0,,,,5e7c55274f63942a04b08c29,17:52:37,04/04/2024
,"<div style=""font-size: 10rem; color: #0000FF"">N</div>",,ospan,letter,ee0iqTzzboZsvN4QJE6YDWmcv0V2,html-keyboard-response,88,965084,0.0-46.0-2.0-1.0-1.0-5.0,,,,,,,,,,,,,,,5e7c55274f63942a04b08c29,17:52:37,04/04/2024
9059.900000095367,"<div class = numbox><p style=""font-size: 2.4rem"">Please recall the letters you saw to the best of your ability. If you do not remember a particular letter, use the SKIP button.<br><b>(When you are ready to lock in your answer, press ENTER)</b></p><button id = button_1 class = ""square num-button"" onclick = ""recordClick(this)""><div class = content><div class = numbers>C</div></div></button><button id = button_2 class = ""square num-button"" onclick = ""recordClick(this)""><div class = content><div class = numbers>G</div></div></button><button id = button_3 class = ""square num-button"" onclick = ""recordClick(this)""><div class = content><div class = numbers>H</div></div></button><button id = button_4 class = ""square num-button"" onclick = ""recordClick(this)""><div class = content><div class = numbers>J</div></div></button><button id = button_5 class = ""square num-button"" onclick = ""recordClick(this)""><div class = content><div class = numbers>K</div></div></button><button id = button_6 class = ""square num-button"" onclick = ""recordClick(this)""><div class = content><div class = numbers>L</div></div></button><button id = button_7 class = ""square num-button"" onclick = ""recordClick(this)""><div class = content><div class = numbers>N</div></div></button><button id = button_8 class = ""square num-button"" onclick = ""recordClick(this)""><div class = content><div class = numbers>P</div></div></button><button id = button_9 class = ""square num-button"" onclick = ""recordClick(this)""><div class = content><div class = numbers>Q</div></div></button><button id = button_10 class = ""square num-button"" onclick = ""recordClick(this)""><div class = content><div class = numbers>R</div></div></button><button id = button_11 class = ""square num-button"" onclick = ""recordClick(this)""><div class = content><div class = numbers>S</div></div></button><button id = button_12 class = ""square num-button"" onclick = ""recordClick(this)""><div class = content><div class = numbers>Y</div></div></button><button class = clear_button id = ""ClearButton"" onclick = ""clearResponse()"">BACKSPACE</button><button class = blank_button id = ""BlankButton"" onclick = ""blankResponse()"">SKIP</button><p style=""font-size: 2.4rem""><u><b>Current Answer:</b></u></p><br><br><div id=echoed_txt style=""font-size: 5rem; color:blue;""><b></b></div></div>",enter,ospan,retrieval,ee0iqTzzboZsvN4QJE6YDWmcv0V2,html-keyboard-response,89,974897,0.0-46.0-2.0-1.0-2.0-0.0,NA,NA,NA,3.0,"[""Q"",""J"",""N""]","[""Q"",""J"",""N""]",1.0,3.0,"['<font color=""green"">Q</font>', '<font color=""green"">J</font>', '<font color=""green"">N</font>']",,,,,,5e7c55274f63942a04b08c29,17:52:37,04/04/2024
2841.0,"['<p style=""font-size:44px"">Letters:<br><br><br><font color=""green"">Q</font> <font color=""green"">J</font> <font color=""green"">N</font></p><br><br><p style=""font-size:30px"">Symmetry:<br><br><font color=""green"">100%</font></p><br><br>']",0,ospan,practice_feedback,ee0iqTzzboZsvN4QJE6YDWmcv0V2,html-button-response,90,978243,0.0-46.0-2.0-1.0-2.0-1.0,,,,,,,,,,,,,,,5e7c55274f63942a04b08c29,17:52:37,04/04/2024
,"<p style=""font-size:75px;"">...</p>",,ospan,iti,ee0iqTzzboZsvN4QJE6YDWmcv0V2,html-keyboard-response,91,979248,0.0-46.0-2.0-2.0-0.0,,,,,,,,,,,,,,,5e7c55274f63942a04b08c29,17:52:37,04/04/2024
1794.0,,,ospan,symmetry,ee0iqTzzboZsvN4QJE6YDWmcv0V2,symmetry-judgement-task,92,982102,0.0-46.0-2.0-2.0-1.0-0.0,,,,,,,,,,1.0,1.0,,,,5e7c55274f63942a04b08c29,17:52:37,04/04/2024
,"<div style=""font-size: 10rem; color: #0000FF"">K</div>",,ospan,letter,ee0iqTzzboZsvN4QJE6YDWmcv0V2,html-keyboard-response,93,983117,0.0-46.0-2.0-2.0-1.0-1.0,,,,,,,,,,,,,,,5e7c55274f63942a04b08c29,17:52:37,04/04/2024
1646.0,,,ospan,symmetry,ee0iqTzzboZsvN4QJE6YDWmcv0V2,symmetry-judgement-task,94,986768,0.0-46.0-2.0-2.0-1.0-2.0,,,,,,,,,,1.0,1.0,,,,5e7c55274f63942a04b08c29,17:52:37,04/04/2024
,"<div style=""font-size: 10rem; color: #0000FF"">G</div>",,ospan,letter,ee0iqTzzboZsvN4QJE6YDWmcv0V2,html-keyboard-response,95,987783,0.0-46.0-2.0-2.0-1.0-3.0,,,,,,,,,,,,,,,5e7c55274f63942a04b08c29,17:52:37,04/04/2024
1395.0,,,ospan,symmetry,ee0iqTzzboZsvN4QJE6YDWmcv0V2,symmetry-judgement-task,96,991168,0.0-46.0-2.0-2.0-1.0-4.0,,,,,,,,,,1.0,1.0,,,,5e7c55274f63942a04b08c29,17:52:37,04/04/2024
,"<div style=""font-size: 10rem; color: #0000FF"">R</div>",,ospan,letter,ee0iqTzzboZsvN4QJE6YDWmcv0V2,html-keyboard-response,97,992182,0.0-46.0-2.0-2.0-1.0-5.0,,,,,,,,,,,,,,,5e7c55274f63942a04b08c29,17:52:37,04/04/2024
5528.700000047684,"<div class = numbox><p style=""font-size: 2.4rem"">Please recall the letters you saw to the best of your ability. If you do not remember a particular letter, use the SKIP button.<br><b>(When you are ready to lock in your answer, press ENTER)</b></p><button id = button_1 class = ""square num-button"" onclick = ""recordClick(this)""><div class = content><div class = numbers>C</div></div></button><button id = button_2 class = ""square num-button"" onclick = ""recordClick(this)""><div class = content><div class = numbers>G</div></div></button><button id = button_3 class = ""square num-button"" onclick = ""recordClick(this)""><div class = content><div class = numbers>H</div></div></button><button id = button_4 class = ""square num-button"" onclick = ""recordClick(this)""><div class = content><div class = numbers>J</div></div></button><button id = button_5 class = ""square num-button"" onclick = ""recordClick(this)""><div class = content><div class = numbers>K</div></div></button><button id = button_6 class = ""square num-button"" onclick = ""recordClick(this)""><div class = content><div class = numbers>L</div></div></button><button id = button_7 class = ""square num-button"" onclick = ""recordClick(this)""><div class = content><div class = numbers>N</div></div></button><button id = button_8 class = ""square num-button"" onclick = ""recordClick(this)""><div class = content><div class = numbers>P</div></div></button><button id = button_9 class = ""square num-button"" onclick = ""recordClick(this)""><div class = content><div class = numbers>Q</div></div></button><button id = button_10 class = ""square num-button"" onclick = ""recordClick(this)""><div class = content><div class = numbers>R</div></div></button><button id = button_11 class = ""square num-button"" onclick = ""recordClick(this)""><div class = content><div class = numbers>S</div></div></button><button id = button_12 class = ""square num-button"" onclick = ""recordClick(this)""><div class = content><div class = numbers>Y</div></div></button><button class = clear_button id = ""ClearButton"" onclick = ""clearResponse()"">BACKSPACE</button><button class = blank_button id = ""BlankButton"" onclick = ""blankResponse()"">SKIP</button><p style=""font-size: 2.4rem""><u><b>Current Answer:</b></u></p><br><br><div id=echoed_txt style=""font-size: 5rem; color:blue;""><b></b></div></div>",enter,ospan,retrieval,ee0iqTzzboZsvN4QJE6YDWmcv0V2,html-keyboard-response,98,998467,0.0-46.0-2.0-2.0-2.0-0.0,NA,NA,NA,3.0,"[""K"",""G"",""R""]","[""K"",""G"",""R""]",1.0,3.0,"['<font color=""green"">K</font>', '<font color=""green"">G</font>', '<font color=""green"">R</font>']",,,,,,5e7c55274f63942a04b08c29,17:52:37,04/04/2024
1763.8000001907349,"['<p style=""font-size:44px"">Letters:<br><br><br><font color=""green"">K</font> <font color=""green"">G</font> <font color=""green"">R</font></p><br><br><p style=""font-size:30px"">Symmetry:<br><br><font color=""green"">100%</font></p><br><br>']",0,ospan,practice_feedback,ee0iqTzzboZsvN4QJE6YDWmcv0V2,html-button-response,99,1000749,0.0-46.0-2.0-2.0-2.0-1.0,,,,,,,,,,,,,,,5e7c55274f63942a04b08c29,17:52:37,04/04/2024
28188.099999904633,"<div class = 'left_align' style='font-size: 3rem; line-height: 1.3;'><b>Great work! That is the end of practice.</b><br><br>The real trials will look just like the practice trials you just completed.<br><br><u>Here, you will not see feedback</u>. First, you will see an grid picture to judge,<br>then a letter to remember. When the recall screen appears, report the letters in the<br>order presented. If you forget a letter, remember to use the <b>blank</b> button to move to the<br>next letter. Some of the sets will have more symmetry grids and letters than others.<br><br>It is important that you do your best on both the symmetry judgments and the letter recall<br>parts of the experiment. For for the symmetry judgments, try to work as <b>quickly</b> and <br>as <b>accurately</b> as possible. Remember to keep your symmetry accuracy at 85% or above.<br><br><b>For the letters, do NOT use any external aid (e.g., writing on paper, electronic device).</b><br><br>It is <u>very important</u> to our experiment to have a <b>true</b> view of your real performance.<br><br>Do not worry if you miss some when it gets hard! This task is meant to be very challenging!<br><br>Click the button to begin.</div><br><br><br><br>",0,ospan,starting_real_here,ee0iqTzzboZsvN4QJE6YDWmcv0V2,html-button-response,100,1028939,0.0-46.0-2.0-3.0,,,,,,,,,,,,,,,5e7c55274f63942a04b08c29,17:52:37,04/04/2024
,"<p style=""font-size:75px;"">...</p>",,ospan,iti,ee0iqTzzboZsvN4QJE6YDWmcv0V2,html-keyboard-response,101,1030215,0.0-46.0-3.0-0.0-0.0,,,,,,,,,,,,,,,5e7c55274f63942a04b08c29,17:52:37,04/04/2024
1652.0,,,ospan,symmetry,ee0iqTzzboZsvN4QJE6YDWmcv0V2,symmetry-judgement-task,102,1032932,0.0-46.0-3.0-0.0-1.0-0.0,,,,,,,,,,1.0,1.0,,,,5e7c55274f63942a04b08c29,17:52:37,04/04/2024
,"<div style=""font-size: 10rem; color: #0000FF"">Y</div>",,ospan,letter,ee0iqTzzboZsvN4QJE6YDWmcv0V2,html-keyboard-response,103,1033948,0.0-46.0-3.0-0.0-1.0-1.0,,,,,,,,,,,,,,,5e7c55274f63942a04b08c29,17:52:37,04/04/2024
1868.0,,,ospan,symmetry,ee0iqTzzboZsvN4QJE6YDWmcv0V2,symmetry-judgement-task,104,1037814,0.0-46.0-3.0-0.0-1.0-2.0,,,,,,,,,,1.0,1.0,,,,5e7c55274f63942a04b08c29,17:52:37,04/04/2024
,"<div style=""font-size: 10rem; color: #0000FF"">N</div>",,ospan,letter,ee0iqTzzboZsvN4QJE6YDWmcv0V2,html-keyboard-response,105,1038832,0.0-46.0-3.0-0.0-1.0-3.0,,,,,,,,,,,,,,,5e7c55274f63942a04b08c29,17:52:37,04/04/2024
1859.0,,,ospan,symmetry,ee0iqTzzboZsvN4QJE6YDWmcv0V2,symmetry-judgement-task,106,1042717,0.0-46.0-3.0-0.0-1.0-4.0,,,,,,,,,,1.0,1.0,,,,5e7c55274f63942a04b08c29,17:52:37,04/04/2024
,"<div style=""font-size: 10rem; color: #0000FF"">K</div>",,ospan,letter,ee0iqTzzboZsvN4QJE6YDWmcv0V2,html-keyboard-response,107,1043734,0.0-46.0-3.0-0.0-1.0-5.0,,,,,,,,,,,,,,,5e7c55274f63942a04b08c29,17:52:37,04/04/2024
5044.0,"<div class = numbox><p style=""font-size: 2.4rem"">Please recall the letters you saw to the best of your ability. If you do not remember a particular letter, use the SKIP button.<br><b>(When you are ready to lock in your answer, press ENTER)</b></p><button id = button_1 class = ""square num-button"" onclick = ""recordClick(this)""><div class = content><div class = numbers>C</div></div></button><button id = button_2 class = ""square num-button"" onclick = ""recordClick(this)""><div class = content><div class = numbers>G</div></div></button><button id = button_3 class = ""square num-button"" onclick = ""recordClick(this)""><div class = content><div class = numbers>H</div></div></button><button id = button_4 class = ""square num-button"" onclick = ""recordClick(this)""><div class = content><div class = numbers>J</div></div></button><button id = button_5 class = ""square num-button"" onclick = ""recordClick(this)""><div class = content><div class = numbers>K</div></div></button><button id = button_6 class = ""square num-button"" onclick = ""recordClick(this)""><div class = content><div class = numbers>L</div></div></button><button id = button_7 class = ""square num-button"" onclick = ""recordClick(this)""><div class = content><div class = numbers>N</div></div></button><button id = button_8 class = ""square num-button"" onclick = ""recordClick(this)""><div class = content><div class = numbers>P</div></div></button><button id = button_9 class = ""square num-button"" onclick = ""recordClick(this)""><div class = content><div class = numbers>Q</div></div></button><button id = button_10 class = ""square num-button"" onclick = ""recordClick(this)""><div class = content><div class = numbers>R</div></div></button><button id = button_11 class = ""square num-button"" onclick = ""recordClick(this)""><div class = content><div class = numbers>S</div></div></button><button id = button_12 class = ""square num-button"" onclick = ""recordClick(this)""><div class = content><div class = numbers>Y</div></div></button><button class = clear_button id = ""ClearButton"" onclick = ""clearResponse()"">BACKSPACE</button><button class = blank_button id = ""BlankButton"" onclick = ""blankResponse()"">SKIP</button><p style=""font-size: 2.4rem""><u><b>Current Answer:</b></u></p><br><br><div id=echoed_txt style=""font-size: 5rem; color:blue;""><b></b></div></div>",enter,ospan,retrieval,ee0iqTzzboZsvN4QJE6YDWmcv0V2,html-keyboard-response,108,1049543,0.0-46.0-3.0-0.0-2.0,3,3,3,3.0,"[""Y"",""N"",""K""]","[""Y"",""N"",""K""]",1.0,3.0,,,,,,,5e7c55274f63942a04b08c29,17:52:37,04/04/2024
1709.5,[''],0,ospan,feedback,ee0iqTzzboZsvN4QJE6YDWmcv0V2,html-button-response,109,1051771,0.0-46.0-3.0-0.0-3.0,,,,,,,,,,,,100.0,0.0,,5e7c55274f63942a04b08c29,17:52:37,04/04/2024
,"<p style=""font-size:75px;"">...</p>",,ospan,iti,ee0iqTzzboZsvN4QJE6YDWmcv0V2,html-keyboard-response,110,1052781,0.0-46.0-4.0-0.0-0.0,,,,,,,,,,,,,,,5e7c55274f63942a04b08c29,17:52:37,04/04/2024
1727.0,,,ospan,symmetry,ee0iqTzzboZsvN4QJE6YDWmcv0V2,symmetry-judgement-task,111,1055731,0.0-46.0-4.0-0.0-1.0-0.0,,,,,,,,,,1.0,1.0,,,,5e7c55274f63942a04b08c29,17:52:37,04/04/2024
,"<div style=""font-size: 10rem; color: #0000FF"">C</div>",,ospan,letter,ee0iqTzzboZsvN4QJE6YDWmcv0V2,html-keyboard-response,112,1056747,0.0-46.0-4.0-0.0-1.0-1.0,,,,,,,,,,,,,,,5e7c55274f63942a04b08c29,17:52:37,04/04/2024
1456.0,,,ospan,symmetry,ee0iqTzzboZsvN4QJE6YDWmcv0V2,symmetry-judgement-task,113,1060231,0.0-46.0-4.0-0.0-1.0-2.0,,,,,,,,,,1.0,1.0,,,,5e7c55274f63942a04b08c29,17:52:37,04/04/2024
,"<div style=""font-size: 10rem; color: #0000FF"">J</div>",,ospan,letter,ee0iqTzzboZsvN4QJE6YDWmcv0V2,html-keyboard-response,114,1061235,0.0-46.0-4.0-0.0-1.0-3.0,,,,,,,,,,,,,,,5e7c55274f63942a04b08c29,17:52:37,04/04/2024
2007.0,,,ospan,symmetry,ee0iqTzzboZsvN4QJE6YDWmcv0V2,symmetry-judgement-task,115,1065266,0.0-46.0-4.0-0.0-1.0-4.0,,,,,,,,,,1.0,1.0,,,,5e7c55274f63942a04b08c29,17:52:37,04/04/2024
,"<div style=""font-size: 10rem; color: #0000FF"">K</div>",,ospan,letter,ee0iqTzzboZsvN4QJE6YDWmcv0V2,html-keyboard-response,116,1066281,0.0-46.0-4.0-0.0-1.0-5.0,,,,,,,,,,,,,,,5e7c55274f63942a04b08c29,17:52:37,04/04/2024
1663.0,,,ospan,symmetry,ee0iqTzzboZsvN4QJE6YDWmcv0V2,symmetry-judgement-task,117,1069917,0.0-46.0-4.0-0.0-1.0-6.0,,,,,,,,,,1.0,1.0,,,,5e7c55274f63942a04b08c29,17:52:37,04/04/2024
,"<div style=""font-size: 10rem; color: #0000FF"">R</div>",,ospan,letter,ee0iqTzzboZsvN4QJE6YDWmcv0V2,html-keyboard-response,118,1070934,0.0-46.0-4.0-0.0-1.0-7.0,,,,,,,,,,,,,,,5e7c55274f63942a04b08c29,17:52:37,04/04/2024
6585.5,"<div class = numbox><p style=""font-size: 2.4rem"">Please recall the letters you saw to the best of your ability. If you do not remember a particular letter, use the SKIP button.<br><b>(When you are ready to lock in your answer, press ENTER)</b></p><button id = button_1 class = ""square num-button"" onclick = ""recordClick(this)""><div class = content><div class = numbers>C</div></div></button><button id = button_2 class = ""square num-button"" onclick = ""recordClick(this)""><div class = content><div class = numbers>G</div></div></button><button id = button_3 class = ""square num-button"" onclick = ""recordClick(this)""><div class = content><div class = numbers>H</div></div></button><button id = button_4 class = ""square num-button"" onclick = ""recordClick(this)""><div class = content><div class = numbers>J</div></div></button><button id = button_5 class = ""square num-button"" onclick = ""recordClick(this)""><div class = content><div class = numbers>K</div></div></button><button id = button_6 class = ""square num-button"" onclick = ""recordClick(this)""><div class = content><div class = numbers>L</div></div></button><button id = button_7 class = ""square num-button"" onclick = ""recordClick(this)""><div class = content><div class = numbers>N</div></div></button><button id = button_8 class = ""square num-button"" onclick = ""recordClick(this)""><div class = content><div class = numbers>P</div></div></button><button id = button_9 class = ""square num-button"" onclick = ""recordClick(this)""><div class = content><div class = numbers>Q</div></div></button><button id = button_10 class = ""square num-button"" onclick = ""recordClick(this)""><div class = content><div class = numbers>R</div></div></button><button id = button_11 class = ""square num-button"" onclick = ""recordClick(this)""><div class = content><div class = numbers>S</div></div></button><button id = button_12 class = ""square num-button"" onclick = ""recordClick(this)""><div class = content><div class = numbers>Y</div></div></button><button class = clear_button id = ""ClearButton"" onclick = ""clearResponse()"">BACKSPACE</button><button class = blank_button id = ""BlankButton"" onclick = ""blankResponse()"">SKIP</button><p style=""font-size: 2.4rem""><u><b>Current Answer:</b></u></p><br><br><div id=echoed_txt style=""font-size: 5rem; color:blue;""><b></b></div></div>",enter,ospan,retrieval,ee0iqTzzboZsvN4QJE6YDWmcv0V2,html-keyboard-response,119,1078288,0.0-46.0-4.0-0.0-2.0,7,7,7,4.0,"[""C"",""J"",""K"",""R""]","[""C"",""J"",""K"",""R""]",1.0,4.0,,,,,,,5e7c55274f63942a04b08c29,17:52:37,04/04/2024
2061.5,[''],0,ospan,feedback,ee0iqTzzboZsvN4QJE6YDWmcv0V2,html-button-response,120,1080864,0.0-46.0-4.0-0.0-3.0,,,,,,,,,,,,100.0,0.0,,5e7c55274f63942a04b08c29,17:52:37,04/04/2024
,"<p style=""font-size:75px;"">...</p>",,ospan,iti,ee0iqTzzboZsvN4QJE6YDWmcv0V2,html-keyboard-response,121,1081870,0.0-46.0-4.0-1.0-0.0,,,,,,,,,,,,,,,5e7c55274f63942a04b08c29,17:52:37,04/04/2024
3467.0,,,ospan,symmetry,ee0iqTzzboZsvN4QJE6YDWmcv0V2,symmetry-judgement-task,122,1086568,0.0-46.0-4.0-1.0-1.0-0.0,,,,,,,,,,1.0,1.0,,,,5e7c55274f63942a04b08c29,17:52:37,04/04/2024
,"<div style=""font-size: 10rem; color: #0000FF"">H</div>",,ospan,letter,ee0iqTzzboZsvN4QJE6YDWmcv0V2,html-keyboard-response,123,1087580,0.0-46.0-4.0-1.0-1.0-1.0,,,,,,,,,,,,,,,5e7c55274f63942a04b08c29,17:52:37,04/04/2024
1363.0,,,ospan,symmetry,ee0iqTzzboZsvN4QJE6YDWmcv0V2,symmetry-judgement-task,124,1091178,0.0-46.0-4.0-1.0-1.0-2.0,,,,,,,,,,1.0,1.0,,,,5e7c55274f63942a04b08c29,17:52:37,04/04/2024
,"<div style=""font-size: 10rem; color: #0000FF"">Q</div>",,ospan,letter,ee0iqTzzboZsvN4QJE6YDWmcv0V2,html-keyboard-response,125,1092180,0.0-46.0-4.0-1.0-1.0-3.0,,,,,,,,,,,,,,,5e7c55274f63942a04b08c29,17:52:37,04/04/2024
2320.0,,,ospan,symmetry,ee0iqTzzboZsvN4QJE6YDWmcv0V2,symmetry-judgement-task,126,1096534,0.0-46.0-4.0-1.0-1.0-4.0,,,,,,,,,,1.0,1.0,,,,5e7c55274f63942a04b08c29,17:52:37,04/04/2024
,"<div style=""font-size: 10rem; color: #0000FF"">N</div>",,ospan,letter,ee0iqTzzboZsvN4QJE6YDWmcv0V2,html-keyboard-response,127,1097549,0.0-46.0-4.0-1.0-1.0-5.0,,,,,,,,,,,,,,,5e7c55274f63942a04b08c29,17:52:37,04/04/2024
2091.0,,,ospan,symmetry,ee0iqTzzboZsvN4QJE6YDWmcv0V2,symmetry-judgement-task,128,1101647,0.0-46.0-4.0-1.0-1.0-6.0,,,,,,,,,,1.0,1.0,,,,5e7c55274f63942a04b08c29,17:52:37,04/04/2024
,"<div style=""font-size: 10rem; color: #0000FF"">S</div>",,ospan,letter,ee0iqTzzboZsvN4QJE6YDWmcv0V2,html-keyboard-response,129,1102668,0.0-46.0-4.0-1.0-1.0-7.0,,,,,,,,,,,,,,,5e7c55274f63942a04b08c29,17:52:37,04/04/2024
1460.0,,,ospan,symmetry,ee0iqTzzboZsvN4QJE6YDWmcv0V2,symmetry-judgement-task,130,1106132,0.0-46.0-4.0-1.0-1.0-8.0,,,,,,,,,,1.0,1.0,,,,5e7c55274f63942a04b08c29,17:52:37,04/04/2024
,"<div style=""font-size: 10rem; color: #0000FF"">L</div>",,ospan,letter,ee0iqTzzboZsvN4QJE6YDWmcv0V2,html-keyboard-response,131,1107133,0.0-46.0-4.0-1.0-1.0-9.0,,,,,,,,,,,,,,,5e7c55274f63942a04b08c29,17:52:37,04/04/2024
6727.099999904633,"<div class = numbox><p style=""font-size: 2.4rem"">Please recall the letters you saw to the best of your ability. If you do not remember a particular letter, use the SKIP button.<br><b>(When you are ready to lock in your answer, press ENTER)</b></p><button id = button_1 class = ""square num-button"" onclick = ""recordClick(this)""><div class = content><div class = numbers>C</div></div></button><button id = button_2 class = ""square num-button"" onclick = ""recordClick(this)""><div class = content><div class = numbers>G</div></div></button><button id = button_3 class = ""square num-button"" onclick = ""recordClick(this)""><div class = content><div class = numbers>H</div></div></button><button id = button_4 class = ""square num-button"" onclick = ""recordClick(this)""><div class = content><div class = numbers>J</div></div></button><button id = button_5 class = ""square num-button"" onclick = ""recordClick(this)""><div class = content><div class = numbers>K</div></div></button><button id = button_6 class = ""square num-button"" onclick = ""recordClick(this)""><div class = content><div class = numbers>L</div></div></button><button id = button_7 class = ""square num-button"" onclick = ""recordClick(this)""><div class = content><div class = numbers>N</div></div></button><button id = button_8 class = ""square num-button"" onclick = ""recordClick(this)""><div class = content><div class = numbers>P</div></div></button><button id = button_9 class = ""square num-button"" onclick = ""recordClick(this)""><div class = content><div class = numbers>Q</div></div></button><button id = button_10 class = ""square num-button"" onclick = ""recordClick(this)""><div class = content><div class = numbers>R</div></div></button><button id = button_11 class = ""square num-button"" onclick = ""recordClick(this)""><div class = content><div class = numbers>S</div></div></button><button id = button_12 class = ""square num-button"" onclick = ""recordClick(this)""><div class = content><div class = numbers>Y</div></div></button><button class = clear_button id = ""ClearButton"" onclick = ""clearResponse()"">BACKSPACE</button><button class = blank_button id = ""BlankButton"" onclick = ""blankResponse()"">SKIP</button><p style=""font-size: 2.4rem""><u><b>Current Answer:</b></u></p><br><br><div id=echoed_txt style=""font-size: 5rem; color:blue;""><b></b></div></div>",enter,ospan,retrieval,ee0iqTzzboZsvN4QJE6YDWmcv0V2,html-keyboard-response,132,1114629,0.0-46.0-4.0-1.0-2.0,12,12,12,5.0,"[""H"",""Q"",""N"",""S"",""L""]","[""H"",""Q"",""N"",""S"",""L""]",1.0,5.0,,,,,,,5e7c55274f63942a04b08c29,17:52:37,04/04/2024
2839.800000190735,[''],0,ospan,feedback,ee0iqTzzboZsvN4QJE6YDWmcv0V2,html-button-response,133,1117973,0.0-46.0-4.0-1.0-3.0,,,,,,,,,,,,100.0,0.0,,5e7c55274f63942a04b08c29,17:52:37,04/04/2024
,"<p style=""font-size:75px;"">...</p>",,ospan,iti,ee0iqTzzboZsvN4QJE6YDWmcv0V2,html-keyboard-response,134,1118985,0.0-46.0-4.0-2.0-0.0,,,,,,,,,,,,,,,5e7c55274f63942a04b08c29,17:52:37,04/04/2024
1756.0,,,ospan,symmetry,ee0iqTzzboZsvN4QJE6YDWmcv0V2,symmetry-judgement-task,135,1121982,0.0-46.0-4.0-2.0-1.0-0.0,,,,,,,,,,1.0,1.0,,,,5e7c55274f63942a04b08c29,17:52:37,04/04/2024
,"<div style=""font-size: 10rem; color: #0000FF"">Y</div>",,ospan,letter,ee0iqTzzboZsvN4QJE6YDWmcv0V2,html-keyboard-response,136,1123000,0.0-46.0-4.0-2.0-1.0-1.0,,,,,,,,,,,,,,,5e7c55274f63942a04b08c29,17:52:37,04/04/2024
1789.0,,,ospan,symmetry,ee0iqTzzboZsvN4QJE6YDWmcv0V2,symmetry-judgement-task,137,1126798,0.0-46.0-4.0-2.0-1.0-2.0,,,,,,,,,,1.0,1.0,,,,5e7c55274f63942a04b08c29,17:52:37,04/04/2024
,"<div style=""font-size: 10rem; color: #0000FF"">S</div>",,ospan,letter,ee0iqTzzboZsvN4QJE6YDWmcv0V2,html-keyboard-response,138,1127814,0.0-46.0-4.0-2.0-1.0-3.0,,,,,,,,,,,,,,,5e7c55274f63942a04b08c29,17:52:37,04/04/2024
962.0,,,ospan,symmetry,ee0iqTzzboZsvN4QJE6YDWmcv0V2,symmetry-judgement-task,139,1130779,0.0-46.0-4.0-2.0-1.0-4.0,,,,,,,,,,1.0,1.0,,,,5e7c55274f63942a04b08c29,17:52:37,04/04/2024
,"<div style=""font-size: 10rem; color: #0000FF"">J</div>",,ospan,letter,ee0iqTzzboZsvN4QJE6YDWmcv0V2,html-keyboard-response,140,1131783,0.0-46.0-4.0-2.0-1.0-5.0,,,,,,,,,,,,,,,5e7c55274f63942a04b08c29,17:52:37,04/04/2024
4667.299999952316,"<div class = numbox><p style=""font-size: 2.4rem"">Please recall the letters you saw to the best of your ability. If you do not remember a particular letter, use the SKIP button.<br><b>(When you are ready to lock in your answer, press ENTER)</b></p><button id = button_1 class = ""square num-button"" onclick = ""recordClick(this)""><div class = content><div class = numbers>C</div></div></button><button id = button_2 class = ""square num-button"" onclick = ""recordClick(this)""><div class = content><div class = numbers>G</div></div></button><button id = button_3 class = ""square num-button"" onclick = ""recordClick(this)""><div class = content><div class = numbers>H</div></div></button><button id = button_4 class = ""square num-button"" onclick = ""recordClick(this)""><div class = content><div class = numbers>J</div></div></button><button id = button_5 class = ""square num-button"" onclick = ""recordClick(this)""><div class = content><div class = numbers>K</div></div></button><button id = button_6 class = ""square num-button"" onclick = ""recordClick(this)""><div class = content><div class = numbers>L</div></div></button><button id = button_7 class = ""square num-button"" onclick = ""recordClick(this)""><div class = content><div class = numbers>N</div></div></button><button id = button_8 class = ""square num-button"" onclick = ""recordClick(this)""><div class = content><div class = numbers>P</div></div></button><button id = button_9 class = ""square num-button"" onclick = ""recordClick(this)""><div class = content><div class = numbers>Q</div></div></button><button id = button_10 class = ""square num-button"" onclick = ""recordClick(this)""><div class = content><div class = numbers>R</div></div></button><button id = button_11 class = ""square num-button"" onclick = ""recordClick(this)""><div class = content><div class = numbers>S</div></div></button><button id = button_12 class = ""square num-button"" onclick = ""recordClick(this)""><div class = content><div class = numbers>Y</div></div></button><button class = clear_button id = ""ClearButton"" onclick = ""clearResponse()"">BACKSPACE</button><button class = blank_button id = ""BlankButton"" onclick = ""blankResponse()"">SKIP</button><p style=""font-size: 2.4rem""><u><b>Current Answer:</b></u></p><br><br><div id=echoed_txt style=""font-size: 5rem; color:blue;""><b></b></div></div>",enter,ospan,retrieval,ee0iqTzzboZsvN4QJE6YDWmcv0V2,html-keyboard-response,141,1137217,0.0-46.0-4.0-2.0-2.0,15,15,15,3.0,"[""Y"",""S"",""J""]","[""Y"",""S"",""J""]",1.0,3.0,,,,,,,5e7c55274f63942a04b08c29,17:52:37,04/04/2024
1193.9000000953674,[''],0,ospan,feedback,ee0iqTzzboZsvN4QJE6YDWmcv0V2,html-button-response,142,1138929,0.0-46.0-4.0-2.0-3.0,,,,,,,,,,,,100.0,0.0,,5e7c55274f63942a04b08c29,17:52:37,04/04/2024
,"<p style=""font-size:75px;"">...</p>",,ospan,iti,ee0iqTzzboZsvN4QJE6YDWmcv0V2,html-keyboard-response,143,1139951,0.0-46.0-5.0-0.0-0.0,,,,,,,,,,,,,,,5e7c55274f63942a04b08c29,17:52:37,04/04/2024
1706.0,,,ospan,symmetry,ee0iqTzzboZsvN4QJE6YDWmcv0V2,symmetry-judgement-task,144,1142900,0.0-46.0-5.0-0.0-1.0-0.0,,,,,,,,,,1.0,1.0,,,,5e7c55274f63942a04b08c29,17:52:37,04/04/2024
,"<div style=""font-size: 10rem; color: #0000FF"">Q</div>",,ospan,letter,ee0iqTzzboZsvN4QJE6YDWmcv0V2,html-keyboard-response,145,1143912,0.0-46.0-5.0-0.0-1.0-1.0,,,,,,,,,,,,,,,5e7c55274f63942a04b08c29,17:52:37,04/04/2024
2028.0,,,ospan,symmetry,ee0iqTzzboZsvN4QJE6YDWmcv0V2,symmetry-judgement-task,146,1147999,0.0-46.0-5.0-0.0-1.0-2.0,,,,,,,,,,1.0,1.0,,,,5e7c55274f63942a04b08c29,17:52:37,04/04/2024
,"<div style=""font-size: 10rem; color: #0000FF"">S</div>",,ospan,letter,ee0iqTzzboZsvN4QJE6YDWmcv0V2,html-keyboard-response,147,1149016,0.0-46.0-5.0-0.0-1.0-3.0,,,,,,,,,,,,,,,5e7c55274f63942a04b08c29,17:52:37,04/04/2024
1467.0,,,ospan,symmetry,ee0iqTzzboZsvN4QJE6YDWmcv0V2,symmetry-judgement-task,148,1152466,0.0-46.0-5.0-0.0-1.0-4.0,,,,,,,,,,1.0,1.0,,,,5e7c55274f63942a04b08c29,17:52:37,04/04/2024
,"<div style=""font-size: 10rem; color: #0000FF"">N</div>",,ospan,letter,ee0iqTzzboZsvN4QJE6YDWmcv0V2,html-keyboard-response,149,1153482,0.0-46.0-5.0-0.0-1.0-5.0,,,,,,,,,,,,,,,5e7c55274f63942a04b08c29,17:52:37,04/04/2024
1709.0,,,ospan,symmetry,ee0iqTzzboZsvN4QJE6YDWmcv0V2,symmetry-judgement-task,150,1157233,0.0-46.0-5.0-0.0-1.0-6.0,,,,,,,,,,1.0,1.0,,,,5e7c55274f63942a04b08c29,17:52:37,04/04/2024
,"<div style=""font-size: 10rem; color: #0000FF"">C</div>",,ospan,letter,ee0iqTzzboZsvN4QJE6YDWmcv0V2,html-keyboard-response,151,1158249,0.0-46.0-5.0-0.0-1.0-7.0,,,,,,,,,,,,,,,5e7c55274f63942a04b08c29,17:52:37,04/04/2024
1924.0,,,ospan,symmetry,ee0iqTzzboZsvN4QJE6YDWmcv0V2,symmetry-judgement-task,152,1162164,0.0-46.0-5.0-0.0-1.0-8.0,,,,,,,,,,1.0,1.0,,,,5e7c55274f63942a04b08c29,17:52:37,04/04/2024
,"<div style=""font-size: 10rem; color: #0000FF"">P</div>",,ospan,letter,ee0iqTzzboZsvN4QJE6YDWmcv0V2,html-keyboard-response,153,1163179,0.0-46.0-5.0-0.0-1.0-9.0,,,,,,,,,,,,,,,5e7c55274f63942a04b08c29,17:52:37,04/04/2024
1996.0,,,ospan,symmetry,ee0iqTzzboZsvN4QJE6YDWmcv0V2,symmetry-judgement-task,154,1167165,0.0-46.0-5.0-0.0-1.0-10.0,,,,,,,,,,1.0,1.0,,,,5e7c55274f63942a04b08c29,17:52:37,04/04/2024
,"<div style=""font-size: 10rem; color: #0000FF"">L</div>",,ospan,letter,ee0iqTzzboZsvN4QJE6YDWmcv0V2,html-keyboard-response,155,1168182,0.0-46.0-5.0-0.0-1.0-11.0,,,,,,,,,,,,,,,5e7c55274f63942a04b08c29,17:52:37,04/04/2024
8611.900000095367,"<div class = numbox><p style=""font-size: 2.4rem"">Please recall the letters you saw to the best of your ability. If you do not remember a particular letter, use the SKIP button.<br><b>(When you are ready to lock in your answer, press ENTER)</b></p><button id = button_1 class = ""square num-button"" onclick = ""recordClick(this)""><div class = content><div class = numbers>C</div></div></button><button id = button_2 class = ""square num-button"" onclick = ""recordClick(this)""><div class = content><div class = numbers>G</div></div></button><button id = button_3 class = ""square num-button"" onclick = ""recordClick(this)""><div class = content><div class = numbers>H</div></div></button><button id = button_4 class = ""square num-button"" onclick = ""recordClick(this)""><div class = content><div class = numbers>J</div></div></button><button id = button_5 class = ""square num-button"" onclick = ""recordClick(this)""><div class = content><div class = numbers>K</div></div></button><button id = button_6 class = ""square num-button"" onclick = ""recordClick(this)""><div class = content><div class = numbers>L</div></div></button><button id = button_7 class = ""square num-button"" onclick = ""recordClick(this)""><div class = content><div class = numbers>N</div></div></button><button id = button_8 class = ""square num-button"" onclick = ""recordClick(this)""><div class = content><div class = numbers>P</div></div></button><button id = button_9 class = ""square num-button"" onclick = ""recordClick(this)""><div class = content><div class = numbers>Q</div></div></button><button id = button_10 class = ""square num-button"" onclick = ""recordClick(this)""><div class = content><div class = numbers>R</div></div></button><button id = button_11 class = ""square num-button"" onclick = ""recordClick(this)""><div class = content><div class = numbers>S</div></div></button><button id = button_12 class = ""square num-button"" onclick = ""recordClick(this)""><div class = content><div class = numbers>Y</div></div></button><button class = clear_button id = ""ClearButton"" onclick = ""clearResponse()"">BACKSPACE</button><button class = blank_button id = ""BlankButton"" onclick = ""blankResponse()"">SKIP</button><p style=""font-size: 2.4rem""><u><b>Current Answer:</b></u></p><br><br><div id=echoed_txt style=""font-size: 5rem; color:blue;""><b></b></div></div>",enter,ospan,retrieval,ee0iqTzzboZsvN4QJE6YDWmcv0V2,html-keyboard-response,156,1177546,0.0-46.0-5.0-0.0-2.0,21,21,21,6.0,"[""Q"",""S"",""N"",""C"",""P"",""L""]","[""Q"",""S"",""N"",""C"",""P"",""L""]",1.0,6.0,,,,,,,5e7c55274f63942a04b08c29,17:52:37,04/04/2024
2124.7999999523163,[''],0,ospan,feedback,ee0iqTzzboZsvN4QJE6YDWmcv0V2,html-button-response,157,1180175,0.0-46.0-5.0-0.0-3.0,,,,,,,,,,,,100.0,0.0,,5e7c55274f63942a04b08c29,17:52:37,04/04/2024
,"<p style=""font-size:75px;"">...</p>",,ospan,iti,ee0iqTzzboZsvN4QJE6YDWmcv0V2,html-keyboard-response,158,1181179,0.0-46.0-5.0-1.0-0.0,,,,,,,,,,,,,,,5e7c55274f63942a04b08c29,17:52:37,04/04/2024
1956.0,,,ospan,symmetry,ee0iqTzzboZsvN4QJE6YDWmcv0V2,symmetry-judgement-task,159,1184199,0.0-46.0-5.0-1.0-1.0-0.0,,,,,,,,,,1.0,1.0,,,,5e7c55274f63942a04b08c29,17:52:37,04/04/2024
,"<div style=""font-size: 10rem; color: #0000FF"">G</div>",,ospan,letter,ee0iqTzzboZsvN4QJE6YDWmcv0V2,html-keyboard-response,160,1185209,0.0-46.0-5.0-1.0-1.0-1.0,,,,,,,,,,,,,,,5e7c55274f63942a04b08c29,17:52:37,04/04/2024
1806.0,,,ospan,symmetry,ee0iqTzzboZsvN4QJE6YDWmcv0V2,symmetry-judgement-task,161,1189013,0.0-46.0-5.0-1.0-1.0-2.0,,,,,,,,,,1.0,1.0,,,,5e7c55274f63942a04b08c29,17:52:37,04/04/2024
,"<div style=""font-size: 10rem; color: #0000FF"">L</div>",,ospan,letter,ee0iqTzzboZsvN4QJE6YDWmcv0V2,html-keyboard-response,162,1190033,0.0-46.0-5.0-1.0-1.0-3.0,,,,,,,,,,,,,,,5e7c55274f63942a04b08c29,17:52:37,04/04/2024
1563.0,,,ospan,symmetry,ee0iqTzzboZsvN4QJE6YDWmcv0V2,symmetry-judgement-task,163,1193599,0.0-46.0-5.0-1.0-1.0-4.0,,,,,,,,,,1.0,1.0,,,,5e7c55274f63942a04b08c29,17:52:37,04/04/2024
,"<div style=""font-size: 10rem; color: #0000FF"">Q</div>",,ospan,letter,ee0iqTzzboZsvN4QJE6YDWmcv0V2,html-keyboard-response,164,1194612,0.0-46.0-5.0-1.0-1.0-5.0,,,,,,,,,,,,,,,5e7c55274f63942a04b08c29,17:52:37,04/04/2024
2091.0,,,ospan,symmetry,ee0iqTzzboZsvN4QJE6YDWmcv0V2,symmetry-judgement-task,165,1198712,0.0-46.0-5.0-1.0-1.0-6.0,,,,,,,,,,1.0,1.0,,,,5e7c55274f63942a04b08c29,17:52:37,04/04/2024
,"<div style=""font-size: 10rem; color: #0000FF"">H</div>",,ospan,letter,ee0iqTzzboZsvN4QJE6YDWmcv0V2,html-keyboard-response,166,1199714,0.0-46.0-5.0-1.0-1.0-7.0,,,,,,,,,,,,,,,5e7c55274f63942a04b08c29,17:52:37,04/04/2024
1966.0,,,ospan,symmetry,ee0iqTzzboZsvN4QJE6YDWmcv0V2,symmetry-judgement-task,167,1203679,0.0-46.0-5.0-1.0-1.0-8.0,,,,,,,,,,1.0,1.0,,,,5e7c55274f63942a04b08c29,17:52:37,04/04/2024
,"<div style=""font-size: 10rem; color: #0000FF"">S</div>",,ospan,letter,ee0iqTzzboZsvN4QJE6YDWmcv0V2,html-keyboard-response,168,1204681,0.0-46.0-5.0-1.0-1.0-9.0,,,,,,,,,,,,,,,5e7c55274f63942a04b08c29,17:52:37,04/04/2024
1939.0,,,ospan,symmetry,ee0iqTzzboZsvN4QJE6YDWmcv0V2,symmetry-judgement-task,169,1208646,0.0-46.0-5.0-1.0-1.0-10.0,,,,,,,,,,1.0,1.0,,,,5e7c55274f63942a04b08c29,17:52:37,04/04/2024
,"<div style=""font-size: 10rem; color: #0000FF"">K</div>",,ospan,letter,ee0iqTzzboZsvN4QJE6YDWmcv0V2,html-keyboard-response,170,1209665,0.0-46.0-5.0-1.0-1.0-11.0,,,,,,,,,,,,,,,5e7c55274f63942a04b08c29,17:52:37,04/04/2024
1694.0,,,ospan,symmetry,ee0iqTzzboZsvN4QJE6YDWmcv0V2,symmetry-judgement-task,171,1213366,0.0-46.0-5.0-1.0-1.0-12.0,,,,,,,,,,1.0,1.0,,,,5e7c55274f63942a04b08c29,17:52:37,04/04/2024
,"<div style=""font-size: 10rem; color: #0000FF"">N</div>",,ospan,letter,ee0iqTzzboZsvN4QJE6YDWmcv0V2,html-keyboard-response,172,1214379,0.0-46.0-5.0-1.0-1.0-13.0,,,,,,,,,,,,,,,5e7c55274f63942a04b08c29,17:52:37,04/04/2024
9649.400000095367,"<div class = numbox><p style=""font-size: 2.4rem"">Please recall the letters you saw to the best of your ability. If you do not remember a particular letter, use the SKIP button.<br><b>(When you are ready to lock in your answer, press ENTER)</b></p><button id = button_1 class = ""square num-button"" onclick = ""recordClick(this)""><div class = content><div class = numbers>C</div></div></button><button id = button_2 class = ""square num-button"" onclick = ""recordClick(this)""><div class = content><div class = numbers>G</div></div></button><button id = button_3 class = ""square num-button"" onclick = ""recordClick(this)""><div class = content><div class = numbers>H</div></div></button><button id = button_4 class = ""square num-button"" onclick = ""recordClick(this)""><div class = content><div class = numbers>J</div></div></button><button id = button_5 class = ""square num-button"" onclick = ""recordClick(this)""><div class = content><div class = numbers>K</div></div></button><button id = button_6 class = ""square num-button"" onclick = ""recordClick(this)""><div class = content><div class = numbers>L</div></div></button><button id = button_7 class = ""square num-button"" onclick = ""recordClick(this)""><div class = content><div class = numbers>N</div></div></button><button id = button_8 class = ""square num-button"" onclick = ""recordClick(this)""><div class = content><div class = numbers>P</div></div></button><button id = button_9 class = ""square num-button"" onclick = ""recordClick(this)""><div class = content><div class = numbers>Q</div></div></button><button id = button_10 class = ""square num-button"" onclick = ""recordClick(this)""><div class = content><div class = numbers>R</div></div></button><button id = button_11 class = ""square num-button"" onclick = ""recordClick(this)""><div class = content><div class = numbers>S</div></div></button><button id = button_12 class = ""square num-button"" onclick = ""recordClick(this)""><div class = content><div class = numbers>Y</div></div></button><button class = clear_button id = ""ClearButton"" onclick = ""clearResponse()"">BACKSPACE</button><button class = blank_button id = ""BlankButton"" onclick = ""blankResponse()"">SKIP</button><p style=""font-size: 2.4rem""><u><b>Current Answer:</b></u></p><br><br><div id=echoed_txt style=""font-size: 5rem; color:blue;""><b></b></div></div>",enter,ospan,retrieval,ee0iqTzzboZsvN4QJE6YDWmcv0V2,html-keyboard-response,173,1224784,0.0-46.0-5.0-1.0-2.0,28,26,21,7.0,"[""G"",""L"",""Q"",""S"",""H"",""K"",""N""]","[""G"",""L"",""Q"",""H"",""S"",""K"",""N""]",0.0,5.0,,,,,,,5e7c55274f63942a04b08c29,17:52:37,04/04/2024
1677.4000000953674,[''],0,ospan,feedback,ee0iqTzzboZsvN4QJE6YDWmcv0V2,html-button-response,174,1226976,0.0-46.0-5.0-1.0-3.0,,,,,,,,,,,,100.0,0.0,,5e7c55274f63942a04b08c29,17:52:37,04/04/2024
,"<p style=""font-size:75px;"">...</p>",,ospan,iti,ee0iqTzzboZsvN4QJE6YDWmcv0V2,html-keyboard-response,175,1227981,0.0-46.0-6.0-0.0-0.0,,,,,,,,,,,,,,,5e7c55274f63942a04b08c29,17:52:37,04/04/2024
1741.0,,,ospan,symmetry,ee0iqTzzboZsvN4QJE6YDWmcv0V2,symmetry-judgement-task,176,1230780,0.0-46.0-6.0-0.0-1.0-0.0,,,,,,,,,,1.0,1.0,,,,5e7c55274f63942a04b08c29,17:52:37,04/04/2024
,"<div style=""font-size: 10rem; color: #0000FF"">Q</div>",,ospan,letter,ee0iqTzzboZsvN4QJE6YDWmcv0V2,html-keyboard-response,177,1231783,0.0-46.0-6.0-0.0-1.0-1.0,,,,,,,,,,,,,,,5e7c55274f63942a04b08c29,17:52:37,04/04/2024
1371.0,,,ospan,symmetry,ee0iqTzzboZsvN4QJE6YDWmcv0V2,symmetry-judgement-task,178,1235148,0.0-46.0-6.0-0.0-1.0-2.0,,,,,,,,,,1.0,1.0,,,,5e7c55274f63942a04b08c29,17:52:37,04/04/2024
,"<div style=""font-size: 10rem; color: #0000FF"">G</div>",,ospan,letter,ee0iqTzzboZsvN4QJE6YDWmcv0V2,html-keyboard-response,179,1236163,0.0-46.0-6.0-0.0-1.0-3.0,,,,,,,,,,,,,,,5e7c55274f63942a04b08c29,17:52:37,04/04/2024
1637.0,,,ospan,symmetry,ee0iqTzzboZsvN4QJE6YDWmcv0V2,symmetry-judgement-task,180,1239828,0.0-46.0-6.0-0.0-1.0-4.0,,,,,,,,,,1.0,1.0,,,,5e7c55274f63942a04b08c29,17:52:37,04/04/2024
,"<div style=""font-size: 10rem; color: #0000FF"">K</div>",,ospan,letter,ee0iqTzzboZsvN4QJE6YDWmcv0V2,html-keyboard-response,181,1240830,0.0-46.0-6.0-0.0-1.0-5.0,,,,,,,,,,,,,,,5e7c55274f63942a04b08c29,17:52:37,04/04/2024
1801.0,,,ospan,symmetry,ee0iqTzzboZsvN4QJE6YDWmcv0V2,symmetry-judgement-task,182,1244633,0.0-46.0-6.0-0.0-1.0-6.0,,,,,,,,,,1.0,1.0,,,,5e7c55274f63942a04b08c29,17:52:37,04/04/2024
,"<div style=""font-size: 10rem; color: #0000FF"">R</div>",,ospan,letter,ee0iqTzzboZsvN4QJE6YDWmcv0V2,html-keyboard-response,183,1245657,0.0-46.0-6.0-0.0-1.0-7.0,,,,,,,,,,,,,,,5e7c55274f63942a04b08c29,17:52:37,04/04/2024
1754.0,,,ospan,symmetry,ee0iqTzzboZsvN4QJE6YDWmcv0V2,symmetry-judgement-task,184,1249411,0.0-46.0-6.0-0.0-1.0-8.0,,,,,,,,,,1.0,1.0,,,,5e7c55274f63942a04b08c29,17:52:37,04/04/2024
,"<div style=""font-size: 10rem; color: #0000FF"">P</div>",,ospan,letter,ee0iqTzzboZsvN4QJE6YDWmcv0V2,html-keyboard-response,185,1250420,0.0-46.0-6.0-0.0-1.0-9.0,,,,,,,,,,,,,,,5e7c55274f63942a04b08c29,17:52:37,04/04/2024
8202.899999856949,"<div class = numbox><p style=""font-size: 2.4rem"">Please recall the letters you saw to the best of your ability. If you do not remember a particular letter, use the SKIP button.<br><b>(When you are ready to lock in your answer, press ENTER)</b></p><button id = button_1 class = ""square num-button"" onclick = ""recordClick(this)""><div class = content><div class = numbers>C</div></div></button><button id = button_2 class = ""square num-button"" onclick = ""recordClick(this)""><div class = content><div class = numbers>G</div></div></button><button id = button_3 class = ""square num-button"" onclick = ""recordClick(this)""><div class = content><div class = numbers>H</div></div></button><button id = button_4 class = ""square num-button"" onclick = ""recordClick(this)""><div class = content><div class = numbers>J</div></div></button><button id = button_5 class = ""square num-button"" onclick = ""recordClick(this)""><div class = content><div class = numbers>K</div></div></button><button id = button_6 class = ""square num-button"" onclick = ""recordClick(this)""><div class = content><div class = numbers>L</div></div></button><button id = button_7 class = ""square num-button"" onclick = ""recordClick(this)""><div class = content><div class = numbers>N</div></div></button><button id = button_8 class = ""square num-button"" onclick = ""recordClick(this)""><div class = content><div class = numbers>P</div></div></button><button id = button_9 class = ""square num-button"" onclick = ""recordClick(this)""><div class = content><div class = numbers>Q</div></div></button><button id = button_10 class = ""square num-button"" onclick = ""recordClick(this)""><div class = content><div class = numbers>R</div></div></button><button id = button_11 class = ""square num-button"" onclick = ""recordClick(this)""><div class = content><div class = numbers>S</div></div></button><button id = button_12 class = ""square num-button"" onclick = ""recordClick(this)""><div class = content><div class = numbers>Y</div></div></button><button class = clear_button id = ""ClearButton"" onclick = ""clearResponse()"">BACKSPACE</button><button class = blank_button id = ""BlankButton"" onclick = ""blankResponse()"">SKIP</button><p style=""font-size: 2.4rem""><u><b>Current Answer:</b></u></p><br><br><div id=echoed_txt style=""font-size: 5rem; color:blue;""><b></b></div></div>",enter,ospan,retrieval,ee0iqTzzboZsvN4QJE6YDWmcv0V2,html-keyboard-response,186,1259383,0.0-46.0-6.0-0.0-2.0,33,30,21,5.0,"[""Q"",""J"",""K"",""R"",""P""]","[""Q"",""G"",""K"",""R"",""P""]",0.0,4.0,,,,,,,5e7c55274f63942a04b08c29,17:52:37,04/04/2024
1502.7000000476837,[''],0,ospan,feedback,ee0iqTzzboZsvN4QJE6YDWmcv0V2,html-button-response,187,1261404,0.0-46.0-6.0-0.0-3.0,,,,,,,,,,,,100.0,0.0,,5e7c55274f63942a04b08c29,17:52:37,04/04/2024
,"<p style=""font-size:75px;"">...</p>",,ospan,iti,ee0iqTzzboZsvN4QJE6YDWmcv0V2,html-keyboard-response,188,1262415,0.0-46.0-6.0-1.0-0.0,,,,,,,,,,,,,,,5e7c55274f63942a04b08c29,17:52:37,04/04/2024
1514.0,,,ospan,symmetry,ee0iqTzzboZsvN4QJE6YDWmcv0V2,symmetry-judgement-task,189,1265145,0.0-46.0-6.0-1.0-1.0-0.0,,,,,,,,,,1.0,1.0,,,,5e7c55274f63942a04b08c29,17:52:37,04/04/2024
,"<div style=""font-size: 10rem; color: #0000FF"">S</div>",,ospan,letter,ee0iqTzzboZsvN4QJE6YDWmcv0V2,html-keyboard-response,190,1266147,0.0-46.0-6.0-1.0-1.0-1.0,,,,,,,,,,,,,,,5e7c55274f63942a04b08c29,17:52:37,04/04/2024
1294.0,,,ospan,symmetry,ee0iqTzzboZsvN4QJE6YDWmcv0V2,symmetry-judgement-task,191,1269432,0.0-46.0-6.0-1.0-1.0-2.0,,,,,,,,,,1.0,1.0,,,,5e7c55274f63942a04b08c29,17:52:37,04/04/2024
,"<div style=""font-size: 10rem; color: #0000FF"">L</div>",,ospan,letter,ee0iqTzzboZsvN4QJE6YDWmcv0V2,html-keyboard-response,192,1270447,0.0-46.0-6.0-1.0-1.0-3.0,,,,,,,,,,,,,,,5e7c55274f63942a04b08c29,17:52:37,04/04/2024
1694.0,,,ospan,symmetry,ee0iqTzzboZsvN4QJE6YDWmcv0V2,symmetry-judgement-task,193,1274145,0.0-46.0-6.0-1.0-1.0-4.0,,,,,,,,,,1.0,1.0,,,,5e7c55274f63942a04b08c29,17:52:37,04/04/2024
,"<div style=""font-size: 10rem; color: #0000FF"">Y</div>",,ospan,letter,ee0iqTzzboZsvN4QJE6YDWmcv0V2,html-keyboard-response,194,1275165,0.0-46.0-6.0-1.0-1.0-5.0,,,,,,,,,,,,,,,5e7c55274f63942a04b08c29,17:52:37,04/04/2024
1767.0,,,ospan,symmetry,ee0iqTzzboZsvN4QJE6YDWmcv0V2,symmetry-judgement-task,195,1278963,0.0-46.0-6.0-1.0-1.0-6.0,,,,,,,,,,1.0,1.0,,,,5e7c55274f63942a04b08c29,17:52:37,04/04/2024
,"<div style=""font-size: 10rem; color: #0000FF"">G</div>",,ospan,letter,ee0iqTzzboZsvN4QJE6YDWmcv0V2,html-keyboard-response,196,1279981,0.0-46.0-6.0-1.0-1.0-7.0,,,,,,,,,,,,,,,5e7c55274f63942a04b08c29,17:52:37,04/04/2024
1562.0,,,ospan,symmetry,ee0iqTzzboZsvN4QJE6YDWmcv0V2,symmetry-judgement-task,197,1283545,0.0-46.0-6.0-1.0-1.0-8.0,,,,,,,,,,1.0,1.0,,,,5e7c55274f63942a04b08c29,17:52:37,04/04/2024
,"<div style=""font-size: 10rem; color: #0000FF"">R</div>",,ospan,letter,ee0iqTzzboZsvN4QJE6YDWmcv0V2,html-keyboard-response,198,1284565,0.0-46.0-6.0-1.0-1.0-9.0,,,,,,,,,,,,,,,5e7c55274f63942a04b08c29,17:52:37,04/04/2024
2185.0,,,ospan,symmetry,ee0iqTzzboZsvN4QJE6YDWmcv0V2,symmetry-judgement-task,199,1288763,0.0-46.0-6.0-1.0-1.0-10.0,,,,,,,,,,1.0,1.0,,,,5e7c55274f63942a04b08c29,17:52:37,04/04/2024
,"<div style=""font-size: 10rem; color: #0000FF"">C</div>",,ospan,letter,ee0iqTzzboZsvN4QJE6YDWmcv0V2,html-keyboard-response,200,1289781,0.0-46.0-6.0-1.0-1.0-11.0,,,,,,,,,,,,,,,5e7c55274f63942a04b08c29,17:52:37,04/04/2024
1652.0,,,ospan,symmetry,ee0iqTzzboZsvN4QJE6YDWmcv0V2,symmetry-judgement-task,201,1293447,0.0-46.0-6.0-1.0-1.0-12.0,,,,,,,,,,1.0,1.0,,,,5e7c55274f63942a04b08c29,17:52:37,04/04/2024
,"<div style=""font-size: 10rem; color: #0000FF"">K</div>",,ospan,letter,ee0iqTzzboZsvN4QJE6YDWmcv0V2,html-keyboard-response,202,1294465,0.0-46.0-6.0-1.0-1.0-13.0,,,,,,,,,,,,,,,5e7c55274f63942a04b08c29,17:52:37,04/04/2024
1614.0,,,ospan,symmetry,ee0iqTzzboZsvN4QJE6YDWmcv0V2,symmetry-judgement-task,203,1298080,0.0-46.0-6.0-1.0-1.0-14.0,,,,,,,,,,1.0,1.0,,,,5e7c55274f63942a04b08c29,17:52:37,04/04/2024
,"<div style=""font-size: 10rem; color: #0000FF"">Q</div>",,ospan,letter,ee0iqTzzboZsvN4QJE6YDWmcv0V2,html-keyboard-response,204,1299097,0.0-46.0-6.0-1.0-1.0-15.0,,,,,,,,,,,,,,,5e7c55274f63942a04b08c29,17:52:37,04/04/2024
19558.900000095367,"<div class = numbox><p style=""font-size: 2.4rem"">Please recall the letters you saw to the best of your ability. If you do not remember a particular letter, use the SKIP button.<br><b>(When you are ready to lock in your answer, press ENTER)</b></p><button id = button_1 class = ""square num-button"" onclick = ""recordClick(this)""><div class = content><div class = numbers>C</div></div></button><button id = button_2 class = ""square num-button"" onclick = ""recordClick(this)""><div class = content><div class = numbers>G</div></div></button><button id = button_3 class = ""square num-button"" onclick = ""recordClick(this)""><div class = content><div class = numbers>H</div></div></button><button id = button_4 class = ""square num-button"" onclick = ""recordClick(this)""><div class = content><div class = numbers>J</div></div></button><button id = button_5 class = ""square num-button"" onclick = ""recordClick(this)""><div class = content><div class = numbers>K</div></div></button><button id = button_6 class = ""square num-button"" onclick = ""recordClick(this)""><div class = content><div class = numbers>L</div></div></button><button id = button_7 class = ""square num-button"" onclick = ""recordClick(this)""><div class = content><div class = numbers>N</div></div></button><button id = button_8 class = ""square num-button"" onclick = ""recordClick(this)""><div class = content><div class = numbers>P</div></div></button><button id = button_9 class = ""square num-button"" onclick = ""recordClick(this)""><div class = content><div class = numbers>Q</div></div></button><button id = button_10 class = ""square num-button"" onclick = ""recordClick(this)""><div class = content><div class = numbers>R</div></div></button><button id = button_11 class = ""square num-button"" onclick = ""recordClick(this)""><div class = content><div class = numbers>S</div></div></button><button id = button_12 class = ""square num-button"" onclick = ""recordClick(this)""><div class = content><div class = numbers>Y</div></div></button><button class = clear_button id = ""ClearButton"" onclick = ""clearResponse()"">BACKSPACE</button><button class = blank_button id = ""BlankButton"" onclick = ""blankResponse()"">SKIP</button><p style=""font-size: 2.4rem""><u><b>Current Answer:</b></u></p><br><br><div id=echoed_txt style=""font-size: 5rem; color:blue;""><b></b></div></div>",enter,ospan,retrieval,ee0iqTzzboZsvN4QJE6YDWmcv0V2,html-keyboard-response,205,1319427,0.0-46.0-6.0-1.0-2.0,41,36,21,8.0,"[""S"",""L"",""Y"",""G"",""R"",""K"",""C"",""Q""]","[""S"",""L"",""Y"",""G"",""R"",""C"",""K"",""Q""]",0.0,6.0,,,,,,,5e7c55274f63942a04b08c29,17:52:37,04/04/2024
1608.7000000476837,[''],0,ospan,feedback,ee0iqTzzboZsvN4QJE6YDWmcv0V2,html-button-response,206,1321542,0.0-46.0-6.0-1.0-3.0,,,,,,,,,,,,100.0,0.0,,5e7c55274f63942a04b08c29,17:52:37,04/04/2024
13665.099999904633,,{'Q0': 'I thought this task was fun'},ospan,survey_ospan,ee0iqTzzboZsvN4QJE6YDWmcv0V2,lmdlab-survey-text,207,1335965,0.0-46.0-7.0,,,,,,,,,,,,,,ee0iqTzzboZsvN4QJE6YDWmcv0V2,5e7c55274f63942a04b08c29,17:52:37,04/04/2024
2168.2000000476837,<p><p style='font-size: 3rem'>Great work!<br><br>This completes the symmetry and memory task.</p><br><br><br>,0,ospan,finish,ee0iqTzzboZsvN4QJE6YDWmcv0V2,html-button-response,208,1338139,0.0-46.0-8.0,41,36,21,,,,,,,,,100.0,,,5e7c55274f63942a04b08c29,17:52:37,04/04/2024
