rt,stimulus,response,exp_name,exp_stage,subjectID,trial_type,trial_index,time_elapsed,internal_node_id,ospan_shown,ospan_total,ospan_abs,length,resp_actual,resp_correct,full_correct,num_correct,feedback,accuracy,correct,math_acc,math_warning,databaseID,prolificID,start_time,date
2010.0,<div class = 'left_align' style='font-size: 3.25rem; line-height: 1.3;'><p class = 'center_align'><b>Welcome to the Symmetry and Memory Task</b><br><br><br><br></p>Press 'continue' to show the instructions.<br><br><br><br></div>,0,ospan,instruct,YaSRQtz6PMZ8r3KzDqDcpU2mrQG2,html-button-response,54,1353786,0.0-46.0-0.0-0.0-0.0,,,,,,,,,,,,,,,5de6cfc6b5bed765473c624b,11:33:51,04/04/2024
97158.5,"<div class = 'left_align' style='font-size: 3.25rem; line-height: 1.3;'><p class = 'center_align'><b>Symmetry and Memory Task</b><br><br></p>In this task, you will try to memorize letters you see on the screen<br>while you also view black and white grid pictures.<br><br>In the next few minutes, you will have some practice to get you familiar<br>with how the task works.<br><br>It may be difficult sometimes, but please do not worry about making mistakes!<br><br>We will begin by practicing the letter part of the task.<br><br><br><br></div>",0,ospan,instruct,YaSRQtz6PMZ8r3KzDqDcpU2mrQG2,html-button-response,55,1451197,0.0-46.0-0.0-0.0-1.0,,,,,,,,,,,,,,,5de6cfc6b5bed765473c624b,11:33:51,04/04/2024
9427.400000572205,"<div class = 'left_align' style='font-size: 3.25rem; line-height: 1.3;'>For this practice part, letters will appear on the screen one at a time.<br><br>Try to remember each letter in the order presented.<br><br>After some letters have been shown, you will see a response screen. Your<br>goal is to report the letters you saw <b>in order</b>. If you do not remember<br>a particular letter, you will have the option to leave it blank.<br><br><br><br></div>",0,ospan,instruct,YaSRQtz6PMZ8r3KzDqDcpU2mrQG2,html-button-response,56,1460880,0.0-46.0-0.0-0.0-2.0,,,,,,,,,,,,,,,5de6cfc6b5bed765473c624b,11:33:51,04/04/2024
2691.5,"<div class = 'left_align' style='font-size: 3.25rem; line-height: 1.3;'>Remember, it is very important to get the letters in the same<br>order as you see them.<br><br>When you are ready, you may begin the letter practice.</div><br><br><br><br>",0,ospan,instruct,YaSRQtz6PMZ8r3KzDqDcpU2mrQG2,html-button-response,57,1463834,0.0-46.0-0.0-0.0-3.0,,,,,,,,,,,,,,,5de6cfc6b5bed765473c624b,11:33:51,04/04/2024
,"<p style=""font-size:75px;"">...</p>",,ospan,iti,YaSRQtz6PMZ8r3KzDqDcpU2mrQG2,html-keyboard-response,58,1465100,0.0-46.0-0.0-1.0-0.0,,,,,,,,,,,,,,,5de6cfc6b5bed765473c624b,11:33:51,04/04/2024
,"<div style=""font-size: 10rem; color: #0000FF"">L</div>",,ospan,letter,YaSRQtz6PMZ8r3KzDqDcpU2mrQG2,html-keyboard-response,59,1466118,0.0-46.0-0.0-1.0-1.0,,,,,,,,,,,,,,,5de6cfc6b5bed765473c624b,11:33:51,04/04/2024
,"<div style=""font-size: 10rem; color: #0000FF"">P</div>",,ospan,letter,YaSRQtz6PMZ8r3KzDqDcpU2mrQG2,html-keyboard-response,60,1467883,0.0-46.0-0.0-1.0-2.0,,,,,,,,,,,,,,,5de6cfc6b5bed765473c624b,11:33:51,04/04/2024
7690.5,"<div class = numbox><p style=""font-size: 2.4rem"">Please recall the letters you saw to the best of your ability. If you do not remember a particular letter, use the SKIP button.<br><b>(When you are ready to lock in your answer, press ENTER)</b></p><button id = button_1 class = ""square num-button"" onclick = ""recordClick(this)""><div class = content><div class = numbers>C</div></div></button><button id = button_2 class = ""square num-button"" onclick = ""recordClick(this)""><div class = content><div class = numbers>G</div></div></button><button id = button_3 class = ""square num-button"" onclick = ""recordClick(this)""><div class = content><div class = numbers>H</div></div></button><button id = button_4 class = ""square num-button"" onclick = ""recordClick(this)""><div class = content><div class = numbers>J</div></div></button><button id = button_5 class = ""square num-button"" onclick = ""recordClick(this)""><div class = content><div class = numbers>K</div></div></button><button id = button_6 class = ""square num-button"" onclick = ""recordClick(this)""><div class = content><div class = numbers>L</div></div></button><button id = button_7 class = ""square num-button"" onclick = ""recordClick(this)""><div class = content><div class = numbers>N</div></div></button><button id = button_8 class = ""square num-button"" onclick = ""recordClick(this)""><div class = content><div class = numbers>P</div></div></button><button id = button_9 class = ""square num-button"" onclick = ""recordClick(this)""><div class = content><div class = numbers>Q</div></div></button><button id = button_10 class = ""square num-button"" onclick = ""recordClick(this)""><div class = content><div class = numbers>R</div></div></button><button id = button_11 class = ""square num-button"" onclick = ""recordClick(this)""><div class = content><div class = numbers>S</div></div></button><button id = button_12 class = ""square num-button"" onclick = ""recordClick(this)""><div class = content><div class = numbers>Y</div></div></button><button class = clear_button id = ""ClearButton"" onclick = ""clearResponse()"">BACKSPACE</button><button class = blank_button id = ""BlankButton"" onclick = ""blankResponse()"">SKIP</button><p style=""font-size: 2.4rem""><u><b>Current Answer:</b></u></p><br><br><div id=echoed_txt style=""font-size: 5rem; color:blue;""><b></b></div></div>",enter,ospan,retrieval,YaSRQtz6PMZ8r3KzDqDcpU2mrQG2,html-keyboard-response,61,1476335,0.0-46.0-0.0-1.0-3.0,NA,NA,NA,2.0,"[""L"",""P""]","[""L"",""P""]",1.0,2.0,"['<font color=""green"">L</font>', '<font color=""green"">P</font>']",,,,,,5de6cfc6b5bed765473c624b,11:33:51,04/04/2024
2860.6000003814697,"['<p style=""font-size:44px"">Letters:<br><br><br><font color=""green"">L</font> <font color=""green"">P</font></p><br><br>']",0,ospan,practice_feedback,YaSRQtz6PMZ8r3KzDqDcpU2mrQG2,html-button-response,62,1479707,0.0-46.0-0.0-1.0-4.0,,,,,,,,,,,,,,,5de6cfc6b5bed765473c624b,11:33:51,04/04/2024
,"<p style=""font-size:75px;"">...</p>",,ospan,iti,YaSRQtz6PMZ8r3KzDqDcpU2mrQG2,html-keyboard-response,63,1480714,0.0-46.0-0.0-2.0-0.0,,,,,,,,,,,,,,,5de6cfc6b5bed765473c624b,11:33:51,04/04/2024
,"<div style=""font-size: 10rem; color: #0000FF"">K</div>",,ospan,letter,YaSRQtz6PMZ8r3KzDqDcpU2mrQG2,html-keyboard-response,64,1481723,0.0-46.0-0.0-2.0-1.0,,,,,,,,,,,,,,,5de6cfc6b5bed765473c624b,11:33:51,04/04/2024
,"<div style=""font-size: 10rem; color: #0000FF"">J</div>",,ospan,letter,YaSRQtz6PMZ8r3KzDqDcpU2mrQG2,html-keyboard-response,65,1483501,0.0-46.0-0.0-2.0-2.0,,,,,,,,,,,,,,,5de6cfc6b5bed765473c624b,11:33:51,04/04/2024
,"<div style=""font-size: 10rem; color: #0000FF"">R</div>",,ospan,letter,YaSRQtz6PMZ8r3KzDqDcpU2mrQG2,html-keyboard-response,66,1485265,0.0-46.0-0.0-2.0-3.0,,,,,,,,,,,,,,,5de6cfc6b5bed765473c624b,11:33:51,04/04/2024
4596.60000038147,"<div class = numbox><p style=""font-size: 2.4rem"">Please recall the letters you saw to the best of your ability. If you do not remember a particular letter, use the SKIP button.<br><b>(When you are ready to lock in your answer, press ENTER)</b></p><button id = button_1 class = ""square num-button"" onclick = ""recordClick(this)""><div class = content><div class = numbers>C</div></div></button><button id = button_2 class = ""square num-button"" onclick = ""recordClick(this)""><div class = content><div class = numbers>G</div></div></button><button id = button_3 class = ""square num-button"" onclick = ""recordClick(this)""><div class = content><div class = numbers>H</div></div></button><button id = button_4 class = ""square num-button"" onclick = ""recordClick(this)""><div class = content><div class = numbers>J</div></div></button><button id = button_5 class = ""square num-button"" onclick = ""recordClick(this)""><div class = content><div class = numbers>K</div></div></button><button id = button_6 class = ""square num-button"" onclick = ""recordClick(this)""><div class = content><div class = numbers>L</div></div></button><button id = button_7 class = ""square num-button"" onclick = ""recordClick(this)""><div class = content><div class = numbers>N</div></div></button><button id = button_8 class = ""square num-button"" onclick = ""recordClick(this)""><div class = content><div class = numbers>P</div></div></button><button id = button_9 class = ""square num-button"" onclick = ""recordClick(this)""><div class = content><div class = numbers>Q</div></div></button><button id = button_10 class = ""square num-button"" onclick = ""recordClick(this)""><div class = content><div class = numbers>R</div></div></button><button id = button_11 class = ""square num-button"" onclick = ""recordClick(this)""><div class = content><div class = numbers>S</div></div></button><button id = button_12 class = ""square num-button"" onclick = ""recordClick(this)""><div class = content><div class = numbers>Y</div></div></button><button class = clear_button id = ""ClearButton"" onclick = ""clearResponse()"">BACKSPACE</button><button class = blank_button id = ""BlankButton"" onclick = ""blankResponse()"">SKIP</button><p style=""font-size: 2.4rem""><u><b>Current Answer:</b></u></p><br><br><div id=echoed_txt style=""font-size: 5rem; color:blue;""><b></b></div></div>",enter,ospan,retrieval,YaSRQtz6PMZ8r3KzDqDcpU2mrQG2,html-keyboard-response,67,1490628,0.0-46.0-0.0-2.0-4.0,NA,NA,NA,3.0,"[""K"",""J"",""R""]","[""K"",""J"",""R""]",1.0,3.0,"['<font color=""green"">K</font>', '<font color=""green"">J</font>', '<font color=""green"">R</font>']",,,,,,5de6cfc6b5bed765473c624b,11:33:51,04/04/2024
2199.6000003814697,"['<p style=""font-size:44px"">Letters:<br><br><br><font color=""green"">K</font> <font color=""green"">J</font> <font color=""green"">R</font></p><br><br>']",0,ospan,practice_feedback,YaSRQtz6PMZ8r3KzDqDcpU2mrQG2,html-button-response,68,1493336,0.0-46.0-0.0-2.0-5.0,,,,,,,,,,,,,,,5de6cfc6b5bed765473c624b,11:33:51,04/04/2024
43796.199999809265,"<div class = 'left_align' style='font-size: 3.25rem; line-height: 1.3;'>Now you will practice doing the <b>symmetry judgment part</b> of the experiment.<br><br>A black and white grid picture will appear on the screen and you have to judge if it is <br>symmetrical or asymetrical.<br><br>A picture is 'mirror' symmetrical if its left half is identical to the right half when flipped.<br>Here are examples of a symmetrical and an asymetrical picture:<br><br><center><img src='Stimuli/img/symm_instructions_extra.png' style='height:420px; width:900'></img></center><br>To judge symmetry, imagine you were to fold each picture down the middle, like a book –<br>would the left half match the right half when folded onto each other?<br><br></div><br>",0,ospan,instruct,YaSRQtz6PMZ8r3KzDqDcpU2mrQG2,html-button-response,69,1537135,0.0-46.0-1.0-0.0-0.0,,,,,,,,,,,,,,,5de6cfc6b5bed765473c624b,11:33:51,04/04/2024
6521.900000572205,"<div class = 'left_align' style='font-size: 3.25rem; line-height: 1.3;'>When you have viewed the picture and determined whether it is symmetrical or not,<br>you can <b>click the Yes or No button</b> below to answer.<br><br>If you take longer than 15 seconds, it will continue automatically<br>and record the answer as an error.</div><br>",0,ospan,instruct,YaSRQtz6PMZ8r3KzDqDcpU2mrQG2,html-button-response,70,1543919,0.0-46.0-1.0-0.0-1.0,,,,,,,,,,,,,,,5de6cfc6b5bed765473c624b,11:33:51,04/04/2024
3302.6000003814697,"<div class = 'left_align' style='font-size: 3.25rem; line-height: 1.3;'>It is <b>very</b> important that you make the symmetry judgment correctly.<br><br>It is also important that you try and judge the picture as quickly as you can.<br><br>When you are ready, click on the button below to try some practice problems.</div><br><br><br><br>",0,ospan,instruct,YaSRQtz6PMZ8r3KzDqDcpU2mrQG2,html-button-response,71,1547477,0.0-46.0-1.0-0.0-2.0,,,,,,,,,,,,,,,5de6cfc6b5bed765473c624b,11:33:51,04/04/2024
2876.0,,,ospan,symmetry,YaSRQtz6PMZ8r3KzDqDcpU2mrQG2,symmetry-judgement-task,72,1551190,0.0-46.0-1.0-1.0-0.0,,,,,,,,,,1.0,1.0,,,,5de6cfc6b5bed765473c624b,11:33:51,04/04/2024
,"<p style=""color:green; font-size: 35px"">Correct</p>",,ospan,feedback,YaSRQtz6PMZ8r3KzDqDcpU2mrQG2,html-keyboard-response,73,1551956,0.0-46.0-1.0-1.0-1.0,,,,,,,,,,,,,,,5de6cfc6b5bed765473c624b,11:33:51,04/04/2024
2158.0,,,ospan,symmetry,YaSRQtz6PMZ8r3KzDqDcpU2mrQG2,symmetry-judgement-task,74,1556950,0.0-46.0-1.0-1.0-2.0,,,,,,,,,,1.0,1.0,,,,5de6cfc6b5bed765473c624b,11:33:51,04/04/2024
,"<p style=""color:green; font-size: 35px"">Correct</p>",,ospan,feedback,YaSRQtz6PMZ8r3KzDqDcpU2mrQG2,html-keyboard-response,75,1557707,0.0-46.0-1.0-1.0-3.0,,,,,,,,,,,,,,,5de6cfc6b5bed765473c624b,11:33:51,04/04/2024
1791.0,,,ospan,symmetry,YaSRQtz6PMZ8r3KzDqDcpU2mrQG2,symmetry-judgement-task,76,1562307,0.0-46.0-1.0-1.0-4.0,,,,,,,,,,1.0,1.0,,,,5de6cfc6b5bed765473c624b,11:33:51,04/04/2024
,"<p style=""color:green; font-size: 35px"">Correct</p>",,ospan,feedback,YaSRQtz6PMZ8r3KzDqDcpU2mrQG2,html-keyboard-response,77,1563063,0.0-46.0-1.0-1.0-5.0,,,,,,,,,,,,,,,5de6cfc6b5bed765473c624b,11:33:51,04/04/2024
1917.6000003814697,"<p style=""font-size: 3rem;"">You responded correctly on 3 of 3 symmetry judgments. Good job!</p><br><br>",0,ospan,practice,YaSRQtz6PMZ8r3KzDqDcpU2mrQG2,html-button-response,78,1566998,0.0-46.0-1.0-2.0,,,,,,,,,,,,,,,5de6cfc6b5bed765473c624b,11:33:51,04/04/2024
19672.89999961853,"<div class = 'left_align' style='font-size: 3.25rem; line-height: 1.3;'>Now you will practice doing both parts of the experiment at the same time.<br><br>In the next practice set, you will be given one grid picture to judge.<br>Then letter will appear on the screen. Try to remember the letter.<br><br>It is <b>very important</b> to make the symmetry judgment as quickly and accurately as possible.<br><br>Just as before, once you have make the symmetry judgment, you can click Yes or No.<br><b>Note that you will no longer see Correct or Incorrect feedback.</div><br><br><br><br>",0,ospan,instruct,YaSRQtz6PMZ8r3KzDqDcpU2mrQG2,html-button-response,79,1586929,0.0-46.0-2.0-0.0-0.0,,,,,,,,,,,,,,,5de6cfc6b5bed765473c624b,11:33:51,04/04/2024
15216.10000038147,"<div class = 'left_align' style='font-size: 3.25rem; line-height: 1.3;'>After the letter goes away, another grid picture will appear, and then<br>another letter.<br><br>At the end of each set of letters and grids, you will recall the letters to the best<br>of your ability. Remember, try your best to get the letters in the correct order.<br><br>It is important to <b>quickly</b> and <b>accurately</b> make the symmetry judgments.</div><br><br><br><br>",0,ospan,instruct,YaSRQtz6PMZ8r3KzDqDcpU2mrQG2,html-button-response,80,1602412,0.0-46.0-2.0-0.0-1.0,,,,,,,,,,,,,,,5de6cfc6b5bed765473c624b,11:33:51,04/04/2024
16669.300000190735,"<div class = 'left_align' style='font-size: 3.25rem; line-height: 1.3;'>On the feedback screen, if you are not doing well at the symmetry judgments,<br>you will also see a warning in the middle. This indicates your percent <br>correct for the grid pictures for the entire experiment.<br><br>It is <b>very</b> important for you to keep accuracy at least at 85%: <u>We can only use<br>data where the participant was at least 85% accurate on the judgments.</u> Therefore,<br> please try your best to perform well on the symmetry judgments, <b>at the same time</b><br>doing your best to recall as many letters as possible.<br><br>Click the button to try some practice problems.</div><br><br><br><br>",0,ospan,instruct,YaSRQtz6PMZ8r3KzDqDcpU2mrQG2,html-button-response,81,1619338,0.0-46.0-2.0-0.0-2.0,,,,,,,,,,,,,,,5de6cfc6b5bed765473c624b,11:33:51,04/04/2024
,"<p style=""font-size:75px;"">...</p>",,ospan,iti,YaSRQtz6PMZ8r3KzDqDcpU2mrQG2,html-keyboard-response,82,1620591,0.0-46.0-2.0-1.0-0.0,,,,,,,,,,,,,,,5de6cfc6b5bed765473c624b,11:33:51,04/04/2024
2057.0,,,ospan,symmetry,YaSRQtz6PMZ8r3KzDqDcpU2mrQG2,symmetry-judgement-task,83,1623717,0.0-46.0-2.0-1.0-1.0-0.0,,,,,,,,,,1.0,1.0,,,,5de6cfc6b5bed765473c624b,11:33:51,04/04/2024
,"<div style=""font-size: 10rem; color: #0000FF"">P</div>",,ospan,letter,YaSRQtz6PMZ8r3KzDqDcpU2mrQG2,html-keyboard-response,84,1624727,0.0-46.0-2.0-1.0-1.0-1.0,,,,,,,,,,,,,,,5de6cfc6b5bed765473c624b,11:33:51,04/04/2024
1622.0,,,ospan,symmetry,YaSRQtz6PMZ8r3KzDqDcpU2mrQG2,symmetry-judgement-task,85,1628405,0.0-46.0-2.0-1.0-1.0-2.0,,,,,,,,,,1.0,1.0,,,,5de6cfc6b5bed765473c624b,11:33:51,04/04/2024
,"<div style=""font-size: 10rem; color: #0000FF"">Y</div>",,ospan,letter,YaSRQtz6PMZ8r3KzDqDcpU2mrQG2,html-keyboard-response,86,1629419,0.0-46.0-2.0-1.0-1.0-3.0,,,,,,,,,,,,,,,5de6cfc6b5bed765473c624b,11:33:51,04/04/2024
1593.0,,,ospan,symmetry,YaSRQtz6PMZ8r3KzDqDcpU2mrQG2,symmetry-judgement-task,87,1633081,0.0-46.0-2.0-1.0-1.0-4.0,,,,,,,,,,1.0,1.0,,,,5de6cfc6b5bed765473c624b,11:33:51,04/04/2024
,"<div style=""font-size: 10rem; color: #0000FF"">G</div>",,ospan,letter,YaSRQtz6PMZ8r3KzDqDcpU2mrQG2,html-keyboard-response,88,1634091,0.0-46.0-2.0-1.0-1.0-5.0,,,,,,,,,,,,,,,5de6cfc6b5bed765473c624b,11:33:51,04/04/2024
4736.099999427795,"<div class = numbox><p style=""font-size: 2.4rem"">Please recall the letters you saw to the best of your ability. If you do not remember a particular letter, use the SKIP button.<br><b>(When you are ready to lock in your answer, press ENTER)</b></p><button id = button_1 class = ""square num-button"" onclick = ""recordClick(this)""><div class = content><div class = numbers>C</div></div></button><button id = button_2 class = ""square num-button"" onclick = ""recordClick(this)""><div class = content><div class = numbers>G</div></div></button><button id = button_3 class = ""square num-button"" onclick = ""recordClick(this)""><div class = content><div class = numbers>H</div></div></button><button id = button_4 class = ""square num-button"" onclick = ""recordClick(this)""><div class = content><div class = numbers>J</div></div></button><button id = button_5 class = ""square num-button"" onclick = ""recordClick(this)""><div class = content><div class = numbers>K</div></div></button><button id = button_6 class = ""square num-button"" onclick = ""recordClick(this)""><div class = content><div class = numbers>L</div></div></button><button id = button_7 class = ""square num-button"" onclick = ""recordClick(this)""><div class = content><div class = numbers>N</div></div></button><button id = button_8 class = ""square num-button"" onclick = ""recordClick(this)""><div class = content><div class = numbers>P</div></div></button><button id = button_9 class = ""square num-button"" onclick = ""recordClick(this)""><div class = content><div class = numbers>Q</div></div></button><button id = button_10 class = ""square num-button"" onclick = ""recordClick(this)""><div class = content><div class = numbers>R</div></div></button><button id = button_11 class = ""square num-button"" onclick = ""recordClick(this)""><div class = content><div class = numbers>S</div></div></button><button id = button_12 class = ""square num-button"" onclick = ""recordClick(this)""><div class = content><div class = numbers>Y</div></div></button><button class = clear_button id = ""ClearButton"" onclick = ""clearResponse()"">BACKSPACE</button><button class = blank_button id = ""BlankButton"" onclick = ""blankResponse()"">SKIP</button><p style=""font-size: 2.4rem""><u><b>Current Answer:</b></u></p><br><br><div id=echoed_txt style=""font-size: 5rem; color:blue;""><b></b></div></div>",enter,ospan,retrieval,YaSRQtz6PMZ8r3KzDqDcpU2mrQG2,html-keyboard-response,89,1639581,0.0-46.0-2.0-1.0-2.0-0.0,NA,NA,NA,3.0,"[""P"",""Y"",""G""]","[""P"",""Y"",""G""]",1.0,3.0,"['<font color=""green"">P</font>', '<font color=""green"">Y</font>', '<font color=""green"">G</font>']",,,,,,5de6cfc6b5bed765473c624b,11:33:51,04/04/2024
1706.2000007629395,"['<p style=""font-size:44px"">Letters:<br><br><br><font color=""green"">P</font> <font color=""green"">Y</font> <font color=""green"">G</font></p><br><br><p style=""font-size:30px"">Symmetry:<br><br><font color=""green"">100%</font></p><br><br>']",0,ospan,practice_feedback,YaSRQtz6PMZ8r3KzDqDcpU2mrQG2,html-button-response,90,1641795,0.0-46.0-2.0-1.0-2.0-1.0,,,,,,,,,,,,,,,5de6cfc6b5bed765473c624b,11:33:51,04/04/2024
,"<p style=""font-size:75px;"">...</p>",,ospan,iti,YaSRQtz6PMZ8r3KzDqDcpU2mrQG2,html-keyboard-response,91,1642803,0.0-46.0-2.0-2.0-0.0,,,,,,,,,,,,,,,5de6cfc6b5bed765473c624b,11:33:51,04/04/2024
3157.0,,,ospan,symmetry,YaSRQtz6PMZ8r3KzDqDcpU2mrQG2,symmetry-judgement-task,92,1647040,0.0-46.0-2.0-2.0-1.0-0.0,,,,,,,,,,1.0,1.0,,,,5de6cfc6b5bed765473c624b,11:33:51,04/04/2024
,"<div style=""font-size: 10rem; color: #0000FF"">K</div>",,ospan,letter,YaSRQtz6PMZ8r3KzDqDcpU2mrQG2,html-keyboard-response,93,1648058,0.0-46.0-2.0-2.0-1.0-1.0,,,,,,,,,,,,,,,5de6cfc6b5bed765473c624b,11:33:51,04/04/2024
1527.0,,,ospan,symmetry,YaSRQtz6PMZ8r3KzDqDcpU2mrQG2,symmetry-judgement-task,94,1651644,0.0-46.0-2.0-2.0-1.0-2.0,,,,,,,,,,1.0,1.0,,,,5de6cfc6b5bed765473c624b,11:33:51,04/04/2024
,"<div style=""font-size: 10rem; color: #0000FF"">G</div>",,ospan,letter,YaSRQtz6PMZ8r3KzDqDcpU2mrQG2,html-keyboard-response,95,1652652,0.0-46.0-2.0-2.0-1.0-3.0,,,,,,,,,,,,,,,5de6cfc6b5bed765473c624b,11:33:51,04/04/2024
3020.0,,,ospan,symmetry,YaSRQtz6PMZ8r3KzDqDcpU2mrQG2,symmetry-judgement-task,96,1657702,0.0-46.0-2.0-2.0-1.0-4.0,,,,,,,,,,0.0,0.0,,,,5de6cfc6b5bed765473c624b,11:33:51,04/04/2024
,"<div style=""font-size: 10rem; color: #0000FF"">N</div>",,ospan,letter,YaSRQtz6PMZ8r3KzDqDcpU2mrQG2,html-keyboard-response,97,1658710,0.0-46.0-2.0-2.0-1.0-5.0,,,,,,,,,,,,,,,5de6cfc6b5bed765473c624b,11:33:51,04/04/2024
4853.300000190735,"<div class = numbox><p style=""font-size: 2.4rem"">Please recall the letters you saw to the best of your ability. If you do not remember a particular letter, use the SKIP button.<br><b>(When you are ready to lock in your answer, press ENTER)</b></p><button id = button_1 class = ""square num-button"" onclick = ""recordClick(this)""><div class = content><div class = numbers>C</div></div></button><button id = button_2 class = ""square num-button"" onclick = ""recordClick(this)""><div class = content><div class = numbers>G</div></div></button><button id = button_3 class = ""square num-button"" onclick = ""recordClick(this)""><div class = content><div class = numbers>H</div></div></button><button id = button_4 class = ""square num-button"" onclick = ""recordClick(this)""><div class = content><div class = numbers>J</div></div></button><button id = button_5 class = ""square num-button"" onclick = ""recordClick(this)""><div class = content><div class = numbers>K</div></div></button><button id = button_6 class = ""square num-button"" onclick = ""recordClick(this)""><div class = content><div class = numbers>L</div></div></button><button id = button_7 class = ""square num-button"" onclick = ""recordClick(this)""><div class = content><div class = numbers>N</div></div></button><button id = button_8 class = ""square num-button"" onclick = ""recordClick(this)""><div class = content><div class = numbers>P</div></div></button><button id = button_9 class = ""square num-button"" onclick = ""recordClick(this)""><div class = content><div class = numbers>Q</div></div></button><button id = button_10 class = ""square num-button"" onclick = ""recordClick(this)""><div class = content><div class = numbers>R</div></div></button><button id = button_11 class = ""square num-button"" onclick = ""recordClick(this)""><div class = content><div class = numbers>S</div></div></button><button id = button_12 class = ""square num-button"" onclick = ""recordClick(this)""><div class = content><div class = numbers>Y</div></div></button><button class = clear_button id = ""ClearButton"" onclick = ""clearResponse()"">BACKSPACE</button><button class = blank_button id = ""BlankButton"" onclick = ""blankResponse()"">SKIP</button><p style=""font-size: 2.4rem""><u><b>Current Answer:</b></u></p><br><br><div id=echoed_txt style=""font-size: 5rem; color:blue;""><b></b></div></div>",enter,ospan,retrieval,YaSRQtz6PMZ8r3KzDqDcpU2mrQG2,html-keyboard-response,98,1664322,0.0-46.0-2.0-2.0-2.0-0.0,NA,NA,NA,3.0,"[""K"",""G"",""N""]","[""K"",""G"",""N""]",1.0,3.0,"['<font color=""green"">K</font>', '<font color=""green"">G</font>', '<font color=""green"">N</font>']",,,,,,5de6cfc6b5bed765473c624b,11:33:51,04/04/2024
2185.3999996185303,"['<p style=""font-size:44px"">Letters:<br><br><br><font color=""green"">K</font> <font color=""green"">G</font> <font color=""green"">N</font></p><br><br><p style=""font-size:30px"">Symmetry:<br><br><font color=""red"">83%</font></p><br><br>']",0,ospan,practice_feedback,YaSRQtz6PMZ8r3KzDqDcpU2mrQG2,html-button-response,99,1667017,0.0-46.0-2.0-2.0-2.0-1.0,,,,,,,,,,,,,,,5de6cfc6b5bed765473c624b,11:33:51,04/04/2024
45936.5,"<div class = 'left_align' style='font-size: 3rem; line-height: 1.3;'><b>Great work! That is the end of practice.</b><br><br>The real trials will look just like the practice trials you just completed.<br><br><u>Here, you will not see feedback</u>. First, you will see an grid picture to judge,<br>then a letter to remember. When the recall screen appears, report the letters in the<br>order presented. If you forget a letter, remember to use the <b>blank</b> button to move to the<br>next letter. Some of the sets will have more symmetry grids and letters than others.<br><br>It is important that you do your best on both the symmetry judgments and the letter recall<br>parts of the experiment. For for the symmetry judgments, try to work as <b>quickly</b> and <br>as <b>accurately</b> as possible. Remember to keep your symmetry accuracy at 85% or above.<br><br><b>For the letters, do NOT use any external aid (e.g., writing on paper, electronic device).</b><br><br>It is <u>very important</u> to our experiment to have a <b>true</b> view of your real performance.<br><br>Do not worry if you miss some when it gets hard! This task is meant to be very challenging!<br><br>Click the button to begin.</div><br><br><br><br>",0,ospan,starting_real_here,YaSRQtz6PMZ8r3KzDqDcpU2mrQG2,html-button-response,100,1712956,0.0-46.0-2.0-3.0,,,,,,,,,,,,,,,5de6cfc6b5bed765473c624b,11:33:51,04/04/2024
,"<p style=""font-size:75px;"">...</p>",,ospan,iti,YaSRQtz6PMZ8r3KzDqDcpU2mrQG2,html-keyboard-response,101,1714212,0.0-46.0-3.0-0.0-0.0,,,,,,,,,,,,,,,5de6cfc6b5bed765473c624b,11:33:51,04/04/2024
1644.0,,,ospan,symmetry,YaSRQtz6PMZ8r3KzDqDcpU2mrQG2,symmetry-judgement-task,102,1717190,0.0-46.0-3.0-0.0-1.0-0.0,,,,,,,,,,1.0,1.0,,,,5de6cfc6b5bed765473c624b,11:33:51,04/04/2024
,"<div style=""font-size: 10rem; color: #0000FF"">Y</div>",,ospan,letter,YaSRQtz6PMZ8r3KzDqDcpU2mrQG2,html-keyboard-response,103,1718208,0.0-46.0-3.0-0.0-1.0-1.0,,,,,,,,,,,,,,,5de6cfc6b5bed765473c624b,11:33:51,04/04/2024
1982.0,,,ospan,symmetry,YaSRQtz6PMZ8r3KzDqDcpU2mrQG2,symmetry-judgement-task,104,1722227,0.0-46.0-3.0-0.0-1.0-2.0,,,,,,,,,,1.0,1.0,,,,5de6cfc6b5bed765473c624b,11:33:51,04/04/2024
,"<div style=""font-size: 10rem; color: #0000FF"">L</div>",,ospan,letter,YaSRQtz6PMZ8r3KzDqDcpU2mrQG2,html-keyboard-response,105,1723235,0.0-46.0-3.0-0.0-1.0-3.0,,,,,,,,,,,,,,,5de6cfc6b5bed765473c624b,11:33:51,04/04/2024
1672.0,,,ospan,symmetry,YaSRQtz6PMZ8r3KzDqDcpU2mrQG2,symmetry-judgement-task,106,1726942,0.0-46.0-3.0-0.0-1.0-4.0,,,,,,,,,,1.0,1.0,,,,5de6cfc6b5bed765473c624b,11:33:51,04/04/2024
,"<div style=""font-size: 10rem; color: #0000FF"">Q</div>",,ospan,letter,YaSRQtz6PMZ8r3KzDqDcpU2mrQG2,html-keyboard-response,107,1727954,0.0-46.0-3.0-0.0-1.0-5.0,,,,,,,,,,,,,,,5de6cfc6b5bed765473c624b,11:33:51,04/04/2024
5361.299999237061,"<div class = numbox><p style=""font-size: 2.4rem"">Please recall the letters you saw to the best of your ability. If you do not remember a particular letter, use the SKIP button.<br><b>(When you are ready to lock in your answer, press ENTER)</b></p><button id = button_1 class = ""square num-button"" onclick = ""recordClick(this)""><div class = content><div class = numbers>C</div></div></button><button id = button_2 class = ""square num-button"" onclick = ""recordClick(this)""><div class = content><div class = numbers>G</div></div></button><button id = button_3 class = ""square num-button"" onclick = ""recordClick(this)""><div class = content><div class = numbers>H</div></div></button><button id = button_4 class = ""square num-button"" onclick = ""recordClick(this)""><div class = content><div class = numbers>J</div></div></button><button id = button_5 class = ""square num-button"" onclick = ""recordClick(this)""><div class = content><div class = numbers>K</div></div></button><button id = button_6 class = ""square num-button"" onclick = ""recordClick(this)""><div class = content><div class = numbers>L</div></div></button><button id = button_7 class = ""square num-button"" onclick = ""recordClick(this)""><div class = content><div class = numbers>N</div></div></button><button id = button_8 class = ""square num-button"" onclick = ""recordClick(this)""><div class = content><div class = numbers>P</div></div></button><button id = button_9 class = ""square num-button"" onclick = ""recordClick(this)""><div class = content><div class = numbers>Q</div></div></button><button id = button_10 class = ""square num-button"" onclick = ""recordClick(this)""><div class = content><div class = numbers>R</div></div></button><button id = button_11 class = ""square num-button"" onclick = ""recordClick(this)""><div class = content><div class = numbers>S</div></div></button><button id = button_12 class = ""square num-button"" onclick = ""recordClick(this)""><div class = content><div class = numbers>Y</div></div></button><button class = clear_button id = ""ClearButton"" onclick = ""clearResponse()"">BACKSPACE</button><button class = blank_button id = ""BlankButton"" onclick = ""blankResponse()"">SKIP</button><p style=""font-size: 2.4rem""><u><b>Current Answer:</b></u></p><br><br><div id=echoed_txt style=""font-size: 5rem; color:blue;""><b></b></div></div>",enter,ospan,retrieval,YaSRQtz6PMZ8r3KzDqDcpU2mrQG2,html-keyboard-response,108,1734069,0.0-46.0-3.0-0.0-2.0,3,3,3,3.0,"[""Y"",""L"",""Q""]","[""Y"",""L"",""Q""]",1.0,3.0,,,,,,,5de6cfc6b5bed765473c624b,11:33:51,04/04/2024
1654.7000007629395,[''],0,ospan,feedback,YaSRQtz6PMZ8r3KzDqDcpU2mrQG2,html-button-response,109,1736233,0.0-46.0-3.0-0.0-3.0,,,,,,,,,,,,100.0,0.0,,5de6cfc6b5bed765473c624b,11:33:51,04/04/2024
,"<p style=""font-size:75px;"">...</p>",,ospan,iti,YaSRQtz6PMZ8r3KzDqDcpU2mrQG2,html-keyboard-response,110,1737248,0.0-46.0-4.0-0.0-0.0,,,,,,,,,,,,,,,5de6cfc6b5bed765473c624b,11:33:51,04/04/2024
1959.0,,,ospan,symmetry,YaSRQtz6PMZ8r3KzDqDcpU2mrQG2,symmetry-judgement-task,111,1740487,0.0-46.0-4.0-0.0-1.0-0.0,,,,,,,,,,1.0,1.0,,,,5de6cfc6b5bed765473c624b,11:33:51,04/04/2024
,"<div style=""font-size: 10rem; color: #0000FF"">S</div>",,ospan,letter,YaSRQtz6PMZ8r3KzDqDcpU2mrQG2,html-keyboard-response,112,1741503,0.0-46.0-4.0-0.0-1.0-1.0,,,,,,,,,,,,,,,5de6cfc6b5bed765473c624b,11:33:51,04/04/2024
1617.0,,,ospan,symmetry,YaSRQtz6PMZ8r3KzDqDcpU2mrQG2,symmetry-judgement-task,113,1745202,0.0-46.0-4.0-0.0-1.0-2.0,,,,,,,,,,1.0,1.0,,,,5de6cfc6b5bed765473c624b,11:33:51,04/04/2024
,"<div style=""font-size: 10rem; color: #0000FF"">H</div>",,ospan,letter,YaSRQtz6PMZ8r3KzDqDcpU2mrQG2,html-keyboard-response,114,1746216,0.0-46.0-4.0-0.0-1.0-3.0,,,,,,,,,,,,,,,5de6cfc6b5bed765473c624b,11:33:51,04/04/2024
1503.0,,,ospan,symmetry,YaSRQtz6PMZ8r3KzDqDcpU2mrQG2,symmetry-judgement-task,115,1749752,0.0-46.0-4.0-0.0-1.0-4.0,,,,,,,,,,1.0,1.0,,,,5de6cfc6b5bed765473c624b,11:33:51,04/04/2024
,"<div style=""font-size: 10rem; color: #0000FF"">P</div>",,ospan,letter,YaSRQtz6PMZ8r3KzDqDcpU2mrQG2,html-keyboard-response,116,1750769,0.0-46.0-4.0-0.0-1.0-5.0,,,,,,,,,,,,,,,5de6cfc6b5bed765473c624b,11:33:51,04/04/2024
1679.0,,,ospan,symmetry,YaSRQtz6PMZ8r3KzDqDcpU2mrQG2,symmetry-judgement-task,117,1754491,0.0-46.0-4.0-0.0-1.0-6.0,,,,,,,,,,1.0,1.0,,,,5de6cfc6b5bed765473c624b,11:33:51,04/04/2024
,"<div style=""font-size: 10rem; color: #0000FF"">R</div>",,ospan,letter,YaSRQtz6PMZ8r3KzDqDcpU2mrQG2,html-keyboard-response,118,1755496,0.0-46.0-4.0-0.0-1.0-7.0,,,,,,,,,,,,,,,5de6cfc6b5bed765473c624b,11:33:51,04/04/2024
6042.10000038147,"<div class = numbox><p style=""font-size: 2.4rem"">Please recall the letters you saw to the best of your ability. If you do not remember a particular letter, use the SKIP button.<br><b>(When you are ready to lock in your answer, press ENTER)</b></p><button id = button_1 class = ""square num-button"" onclick = ""recordClick(this)""><div class = content><div class = numbers>C</div></div></button><button id = button_2 class = ""square num-button"" onclick = ""recordClick(this)""><div class = content><div class = numbers>G</div></div></button><button id = button_3 class = ""square num-button"" onclick = ""recordClick(this)""><div class = content><div class = numbers>H</div></div></button><button id = button_4 class = ""square num-button"" onclick = ""recordClick(this)""><div class = content><div class = numbers>J</div></div></button><button id = button_5 class = ""square num-button"" onclick = ""recordClick(this)""><div class = content><div class = numbers>K</div></div></button><button id = button_6 class = ""square num-button"" onclick = ""recordClick(this)""><div class = content><div class = numbers>L</div></div></button><button id = button_7 class = ""square num-button"" onclick = ""recordClick(this)""><div class = content><div class = numbers>N</div></div></button><button id = button_8 class = ""square num-button"" onclick = ""recordClick(this)""><div class = content><div class = numbers>P</div></div></button><button id = button_9 class = ""square num-button"" onclick = ""recordClick(this)""><div class = content><div class = numbers>Q</div></div></button><button id = button_10 class = ""square num-button"" onclick = ""recordClick(this)""><div class = content><div class = numbers>R</div></div></button><button id = button_11 class = ""square num-button"" onclick = ""recordClick(this)""><div class = content><div class = numbers>S</div></div></button><button id = button_12 class = ""square num-button"" onclick = ""recordClick(this)""><div class = content><div class = numbers>Y</div></div></button><button class = clear_button id = ""ClearButton"" onclick = ""clearResponse()"">BACKSPACE</button><button class = blank_button id = ""BlankButton"" onclick = ""blankResponse()"">SKIP</button><p style=""font-size: 2.4rem""><u><b>Current Answer:</b></u></p><br><br><div id=echoed_txt style=""font-size: 5rem; color:blue;""><b></b></div></div>",enter,ospan,retrieval,YaSRQtz6PMZ8r3KzDqDcpU2mrQG2,html-keyboard-response,119,1762302,0.0-46.0-4.0-0.0-2.0,7,7,7,4.0,"[""S"",""H"",""P"",""R""]","[""S"",""H"",""P"",""R""]",1.0,4.0,,,,,,,5de6cfc6b5bed765473c624b,11:33:51,04/04/2024
1191.9000005722046,[''],0,ospan,feedback,YaSRQtz6PMZ8r3KzDqDcpU2mrQG2,html-button-response,120,1764003,0.0-46.0-4.0-0.0-3.0,,,,,,,,,,,,100.0,0.0,,5de6cfc6b5bed765473c624b,11:33:51,04/04/2024
,"<p style=""font-size:75px;"">...</p>",,ospan,iti,YaSRQtz6PMZ8r3KzDqDcpU2mrQG2,html-keyboard-response,121,1765007,0.0-46.0-4.0-1.0-0.0,,,,,,,,,,,,,,,5de6cfc6b5bed765473c624b,11:33:51,04/04/2024
1906.0,,,ospan,symmetry,YaSRQtz6PMZ8r3KzDqDcpU2mrQG2,symmetry-judgement-task,122,1768192,0.0-46.0-4.0-1.0-1.0-0.0,,,,,,,,,,1.0,1.0,,,,5de6cfc6b5bed765473c624b,11:33:51,04/04/2024
,"<div style=""font-size: 10rem; color: #0000FF"">P</div>",,ospan,letter,YaSRQtz6PMZ8r3KzDqDcpU2mrQG2,html-keyboard-response,123,1769200,0.0-46.0-4.0-1.0-1.0-1.0,,,,,,,,,,,,,,,5de6cfc6b5bed765473c624b,11:33:51,04/04/2024
1624.0,,,ospan,symmetry,YaSRQtz6PMZ8r3KzDqDcpU2mrQG2,symmetry-judgement-task,124,1772864,0.0-46.0-4.0-1.0-1.0-2.0,,,,,,,,,,1.0,1.0,,,,5de6cfc6b5bed765473c624b,11:33:51,04/04/2024
,"<div style=""font-size: 10rem; color: #0000FF"">Q</div>",,ospan,letter,YaSRQtz6PMZ8r3KzDqDcpU2mrQG2,html-keyboard-response,125,1773881,0.0-46.0-4.0-1.0-1.0-3.0,,,,,,,,,,,,,,,5de6cfc6b5bed765473c624b,11:33:51,04/04/2024
1665.0,,,ospan,symmetry,YaSRQtz6PMZ8r3KzDqDcpU2mrQG2,symmetry-judgement-task,126,1777583,0.0-46.0-4.0-1.0-1.0-4.0,,,,,,,,,,1.0,1.0,,,,5de6cfc6b5bed765473c624b,11:33:51,04/04/2024
,"<div style=""font-size: 10rem; color: #0000FF"">C</div>",,ospan,letter,YaSRQtz6PMZ8r3KzDqDcpU2mrQG2,html-keyboard-response,127,1778599,0.0-46.0-4.0-1.0-1.0-5.0,,,,,,,,,,,,,,,5de6cfc6b5bed765473c624b,11:33:51,04/04/2024
1485.0,,,ospan,symmetry,YaSRQtz6PMZ8r3KzDqDcpU2mrQG2,symmetry-judgement-task,128,1782173,0.0-46.0-4.0-1.0-1.0-6.0,,,,,,,,,,1.0,1.0,,,,5de6cfc6b5bed765473c624b,11:33:51,04/04/2024
,"<div style=""font-size: 10rem; color: #0000FF"">K</div>",,ospan,letter,YaSRQtz6PMZ8r3KzDqDcpU2mrQG2,html-keyboard-response,129,1783182,0.0-46.0-4.0-1.0-1.0-7.0,,,,,,,,,,,,,,,5de6cfc6b5bed765473c624b,11:33:51,04/04/2024
1295.0,,,ospan,symmetry,YaSRQtz6PMZ8r3KzDqDcpU2mrQG2,symmetry-judgement-task,130,1786518,0.0-46.0-4.0-1.0-1.0-8.0,,,,,,,,,,1.0,1.0,,,,5de6cfc6b5bed765473c624b,11:33:51,04/04/2024
,"<div style=""font-size: 10rem; color: #0000FF"">R</div>",,ospan,letter,YaSRQtz6PMZ8r3KzDqDcpU2mrQG2,html-keyboard-response,131,1787521,0.0-46.0-4.0-1.0-1.0-9.0,,,,,,,,,,,,,,,5de6cfc6b5bed765473c624b,11:33:51,04/04/2024
14633.699999809265,"<div class = numbox><p style=""font-size: 2.4rem"">Please recall the letters you saw to the best of your ability. If you do not remember a particular letter, use the SKIP button.<br><b>(When you are ready to lock in your answer, press ENTER)</b></p><button id = button_1 class = ""square num-button"" onclick = ""recordClick(this)""><div class = content><div class = numbers>C</div></div></button><button id = button_2 class = ""square num-button"" onclick = ""recordClick(this)""><div class = content><div class = numbers>G</div></div></button><button id = button_3 class = ""square num-button"" onclick = ""recordClick(this)""><div class = content><div class = numbers>H</div></div></button><button id = button_4 class = ""square num-button"" onclick = ""recordClick(this)""><div class = content><div class = numbers>J</div></div></button><button id = button_5 class = ""square num-button"" onclick = ""recordClick(this)""><div class = content><div class = numbers>K</div></div></button><button id = button_6 class = ""square num-button"" onclick = ""recordClick(this)""><div class = content><div class = numbers>L</div></div></button><button id = button_7 class = ""square num-button"" onclick = ""recordClick(this)""><div class = content><div class = numbers>N</div></div></button><button id = button_8 class = ""square num-button"" onclick = ""recordClick(this)""><div class = content><div class = numbers>P</div></div></button><button id = button_9 class = ""square num-button"" onclick = ""recordClick(this)""><div class = content><div class = numbers>Q</div></div></button><button id = button_10 class = ""square num-button"" onclick = ""recordClick(this)""><div class = content><div class = numbers>R</div></div></button><button id = button_11 class = ""square num-button"" onclick = ""recordClick(this)""><div class = content><div class = numbers>S</div></div></button><button id = button_12 class = ""square num-button"" onclick = ""recordClick(this)""><div class = content><div class = numbers>Y</div></div></button><button class = clear_button id = ""ClearButton"" onclick = ""clearResponse()"">BACKSPACE</button><button class = blank_button id = ""BlankButton"" onclick = ""blankResponse()"">SKIP</button><p style=""font-size: 2.4rem""><u><b>Current Answer:</b></u></p><br><br><div id=echoed_txt style=""font-size: 5rem; color:blue;""><b></b></div></div>",enter,ospan,retrieval,YaSRQtz6PMZ8r3KzDqDcpU2mrQG2,html-keyboard-response,132,1802909,0.0-46.0-4.0-1.0-2.0,12,12,12,5.0,"[""P"",""Q"",""C"",""K"",""R""]","[""P"",""Q"",""C"",""K"",""R""]",1.0,5.0,,,,,,,5de6cfc6b5bed765473c624b,11:33:51,04/04/2024
10418.60000038147,[''],0,ospan,feedback,YaSRQtz6PMZ8r3KzDqDcpU2mrQG2,html-button-response,133,1813839,0.0-46.0-4.0-1.0-3.0,,,,,,,,,,,,100.0,0.0,,5de6cfc6b5bed765473c624b,11:33:51,04/04/2024
,"<p style=""font-size:75px;"">...</p>",,ospan,iti,YaSRQtz6PMZ8r3KzDqDcpU2mrQG2,html-keyboard-response,134,1814857,0.0-46.0-4.0-2.0-0.0,,,,,,,,,,,,,,,5de6cfc6b5bed765473c624b,11:33:51,04/04/2024
1983.0,,,ospan,symmetry,YaSRQtz6PMZ8r3KzDqDcpU2mrQG2,symmetry-judgement-task,135,1818150,0.0-46.0-4.0-2.0-1.0-0.0,,,,,,,,,,0.0,0.0,,,,5de6cfc6b5bed765473c624b,11:33:51,04/04/2024
,"<div style=""font-size: 10rem; color: #0000FF"">S</div>",,ospan,letter,YaSRQtz6PMZ8r3KzDqDcpU2mrQG2,html-keyboard-response,136,1819159,0.0-46.0-4.0-2.0-1.0-1.0,,,,,,,,,,,,,,,5de6cfc6b5bed765473c624b,11:33:51,04/04/2024
1846.0,,,ospan,symmetry,YaSRQtz6PMZ8r3KzDqDcpU2mrQG2,symmetry-judgement-task,137,1823058,0.0-46.0-4.0-2.0-1.0-2.0,,,,,,,,,,1.0,1.0,,,,5de6cfc6b5bed765473c624b,11:33:51,04/04/2024
,"<div style=""font-size: 10rem; color: #0000FF"">C</div>",,ospan,letter,YaSRQtz6PMZ8r3KzDqDcpU2mrQG2,html-keyboard-response,138,1824075,0.0-46.0-4.0-2.0-1.0-3.0,,,,,,,,,,,,,,,5de6cfc6b5bed765473c624b,11:33:51,04/04/2024
2164.0,,,ospan,symmetry,YaSRQtz6PMZ8r3KzDqDcpU2mrQG2,symmetry-judgement-task,139,1828314,0.0-46.0-4.0-2.0-1.0-4.0,,,,,,,,,,1.0,1.0,,,,5de6cfc6b5bed765473c624b,11:33:51,04/04/2024
,"<div style=""font-size: 10rem; color: #0000FF"">Q</div>",,ospan,letter,YaSRQtz6PMZ8r3KzDqDcpU2mrQG2,html-keyboard-response,140,1829326,0.0-46.0-4.0-2.0-1.0-5.0,,,,,,,,,,,,,,,5de6cfc6b5bed765473c624b,11:33:51,04/04/2024
4861.599999427795,"<div class = numbox><p style=""font-size: 2.4rem"">Please recall the letters you saw to the best of your ability. If you do not remember a particular letter, use the SKIP button.<br><b>(When you are ready to lock in your answer, press ENTER)</b></p><button id = button_1 class = ""square num-button"" onclick = ""recordClick(this)""><div class = content><div class = numbers>C</div></div></button><button id = button_2 class = ""square num-button"" onclick = ""recordClick(this)""><div class = content><div class = numbers>G</div></div></button><button id = button_3 class = ""square num-button"" onclick = ""recordClick(this)""><div class = content><div class = numbers>H</div></div></button><button id = button_4 class = ""square num-button"" onclick = ""recordClick(this)""><div class = content><div class = numbers>J</div></div></button><button id = button_5 class = ""square num-button"" onclick = ""recordClick(this)""><div class = content><div class = numbers>K</div></div></button><button id = button_6 class = ""square num-button"" onclick = ""recordClick(this)""><div class = content><div class = numbers>L</div></div></button><button id = button_7 class = ""square num-button"" onclick = ""recordClick(this)""><div class = content><div class = numbers>N</div></div></button><button id = button_8 class = ""square num-button"" onclick = ""recordClick(this)""><div class = content><div class = numbers>P</div></div></button><button id = button_9 class = ""square num-button"" onclick = ""recordClick(this)""><div class = content><div class = numbers>Q</div></div></button><button id = button_10 class = ""square num-button"" onclick = ""recordClick(this)""><div class = content><div class = numbers>R</div></div></button><button id = button_11 class = ""square num-button"" onclick = ""recordClick(this)""><div class = content><div class = numbers>S</div></div></button><button id = button_12 class = ""square num-button"" onclick = ""recordClick(this)""><div class = content><div class = numbers>Y</div></div></button><button class = clear_button id = ""ClearButton"" onclick = ""clearResponse()"">BACKSPACE</button><button class = blank_button id = ""BlankButton"" onclick = ""blankResponse()"">SKIP</button><p style=""font-size: 2.4rem""><u><b>Current Answer:</b></u></p><br><br><div id=echoed_txt style=""font-size: 5rem; color:blue;""><b></b></div></div>",enter,ospan,retrieval,YaSRQtz6PMZ8r3KzDqDcpU2mrQG2,html-keyboard-response,141,1834953,0.0-46.0-4.0-2.0-2.0,15,15,15,3.0,"[""S"",""C"",""Q""]","[""S"",""C"",""Q""]",1.0,3.0,,,,,,,5de6cfc6b5bed765473c624b,11:33:51,04/04/2024
1634.2999992370605,[''],0,ospan,feedback,YaSRQtz6PMZ8r3KzDqDcpU2mrQG2,html-button-response,142,1837107,0.0-46.0-4.0-2.0-3.0,,,,,,,,,,,,93.0,0.0,,5de6cfc6b5bed765473c624b,11:33:51,04/04/2024
,"<p style=""font-size:75px;"">...</p>",,ospan,iti,YaSRQtz6PMZ8r3KzDqDcpU2mrQG2,html-keyboard-response,143,1838112,0.0-46.0-5.0-0.0-0.0,,,,,,,,,,,,,,,5de6cfc6b5bed765473c624b,11:33:51,04/04/2024
2949.0,,,ospan,symmetry,YaSRQtz6PMZ8r3KzDqDcpU2mrQG2,symmetry-judgement-task,144,1842165,0.0-46.0-5.0-0.0-1.0-0.0,,,,,,,,,,1.0,1.0,,,,5de6cfc6b5bed765473c624b,11:33:51,04/04/2024
,"<div style=""font-size: 10rem; color: #0000FF"">Q</div>",,ospan,letter,YaSRQtz6PMZ8r3KzDqDcpU2mrQG2,html-keyboard-response,145,1843181,0.0-46.0-5.0-0.0-1.0-1.0,,,,,,,,,,,,,,,5de6cfc6b5bed765473c624b,11:33:51,04/04/2024
2090.0,,,ospan,symmetry,YaSRQtz6PMZ8r3KzDqDcpU2mrQG2,symmetry-judgement-task,146,1847310,0.0-46.0-5.0-0.0-1.0-2.0,,,,,,,,,,1.0,1.0,,,,5de6cfc6b5bed765473c624b,11:33:51,04/04/2024
,"<div style=""font-size: 10rem; color: #0000FF"">C</div>",,ospan,letter,YaSRQtz6PMZ8r3KzDqDcpU2mrQG2,html-keyboard-response,147,1848320,0.0-46.0-5.0-0.0-1.0-3.0,,,,,,,,,,,,,,,5de6cfc6b5bed765473c624b,11:33:51,04/04/2024
1756.0,,,ospan,symmetry,YaSRQtz6PMZ8r3KzDqDcpU2mrQG2,symmetry-judgement-task,148,1852135,0.0-46.0-5.0-0.0-1.0-4.0,,,,,,,,,,1.0,1.0,,,,5de6cfc6b5bed765473c624b,11:33:51,04/04/2024
,"<div style=""font-size: 10rem; color: #0000FF"">S</div>",,ospan,letter,YaSRQtz6PMZ8r3KzDqDcpU2mrQG2,html-keyboard-response,149,1853147,0.0-46.0-5.0-0.0-1.0-5.0,,,,,,,,,,,,,,,5de6cfc6b5bed765473c624b,11:33:51,04/04/2024
1694.0,,,ospan,symmetry,YaSRQtz6PMZ8r3KzDqDcpU2mrQG2,symmetry-judgement-task,150,1856877,0.0-46.0-5.0-0.0-1.0-6.0,,,,,,,,,,1.0,1.0,,,,5de6cfc6b5bed765473c624b,11:33:51,04/04/2024
,"<div style=""font-size: 10rem; color: #0000FF"">N</div>",,ospan,letter,YaSRQtz6PMZ8r3KzDqDcpU2mrQG2,html-keyboard-response,151,1857892,0.0-46.0-5.0-0.0-1.0-7.0,,,,,,,,,,,,,,,5de6cfc6b5bed765473c624b,11:33:51,04/04/2024
1483.0,,,ospan,symmetry,YaSRQtz6PMZ8r3KzDqDcpU2mrQG2,symmetry-judgement-task,152,1861491,0.0-46.0-5.0-0.0-1.0-8.0,,,,,,,,,,1.0,1.0,,,,5de6cfc6b5bed765473c624b,11:33:51,04/04/2024
,"<div style=""font-size: 10rem; color: #0000FF"">K</div>",,ospan,letter,YaSRQtz6PMZ8r3KzDqDcpU2mrQG2,html-keyboard-response,153,1862502,0.0-46.0-5.0-0.0-1.0-9.0,,,,,,,,,,,,,,,5de6cfc6b5bed765473c624b,11:33:51,04/04/2024
1736.0,,,ospan,symmetry,YaSRQtz6PMZ8r3KzDqDcpU2mrQG2,symmetry-judgement-task,154,1866304,0.0-46.0-5.0-0.0-1.0-10.0,,,,,,,,,,1.0,1.0,,,,5de6cfc6b5bed765473c624b,11:33:51,04/04/2024
,"<div style=""font-size: 10rem; color: #0000FF"">Y</div>",,ospan,letter,YaSRQtz6PMZ8r3KzDqDcpU2mrQG2,html-keyboard-response,155,1867315,0.0-46.0-5.0-0.0-1.0-11.0,,,,,,,,,,,,,,,5de6cfc6b5bed765473c624b,11:33:51,04/04/2024
8490.800000190735,"<div class = numbox><p style=""font-size: 2.4rem"">Please recall the letters you saw to the best of your ability. If you do not remember a particular letter, use the SKIP button.<br><b>(When you are ready to lock in your answer, press ENTER)</b></p><button id = button_1 class = ""square num-button"" onclick = ""recordClick(this)""><div class = content><div class = numbers>C</div></div></button><button id = button_2 class = ""square num-button"" onclick = ""recordClick(this)""><div class = content><div class = numbers>G</div></div></button><button id = button_3 class = ""square num-button"" onclick = ""recordClick(this)""><div class = content><div class = numbers>H</div></div></button><button id = button_4 class = ""square num-button"" onclick = ""recordClick(this)""><div class = content><div class = numbers>J</div></div></button><button id = button_5 class = ""square num-button"" onclick = ""recordClick(this)""><div class = content><div class = numbers>K</div></div></button><button id = button_6 class = ""square num-button"" onclick = ""recordClick(this)""><div class = content><div class = numbers>L</div></div></button><button id = button_7 class = ""square num-button"" onclick = ""recordClick(this)""><div class = content><div class = numbers>N</div></div></button><button id = button_8 class = ""square num-button"" onclick = ""recordClick(this)""><div class = content><div class = numbers>P</div></div></button><button id = button_9 class = ""square num-button"" onclick = ""recordClick(this)""><div class = content><div class = numbers>Q</div></div></button><button id = button_10 class = ""square num-button"" onclick = ""recordClick(this)""><div class = content><div class = numbers>R</div></div></button><button id = button_11 class = ""square num-button"" onclick = ""recordClick(this)""><div class = content><div class = numbers>S</div></div></button><button id = button_12 class = ""square num-button"" onclick = ""recordClick(this)""><div class = content><div class = numbers>Y</div></div></button><button class = clear_button id = ""ClearButton"" onclick = ""clearResponse()"">BACKSPACE</button><button class = blank_button id = ""BlankButton"" onclick = ""blankResponse()"">SKIP</button><p style=""font-size: 2.4rem""><u><b>Current Answer:</b></u></p><br><br><div id=echoed_txt style=""font-size: 5rem; color:blue;""><b></b></div></div>",enter,ospan,retrieval,YaSRQtz6PMZ8r3KzDqDcpU2mrQG2,html-keyboard-response,156,1876564,0.0-46.0-5.0-0.0-2.0,21,21,21,6.0,"[""Q"",""C"",""S"",""N"",""K"",""Y""]","[""Q"",""C"",""S"",""N"",""K"",""Y""]",1.0,6.0,,,,,,,5de6cfc6b5bed765473c624b,11:33:51,04/04/2024
1960.2999992370605,[''],0,ospan,feedback,YaSRQtz6PMZ8r3KzDqDcpU2mrQG2,html-button-response,157,1879038,0.0-46.0-5.0-0.0-3.0,,,,,,,,,,,,95.0,0.0,,5de6cfc6b5bed765473c624b,11:33:51,04/04/2024
,"<p style=""font-size:75px;"">...</p>",,ospan,iti,YaSRQtz6PMZ8r3KzDqDcpU2mrQG2,html-keyboard-response,158,1880048,0.0-46.0-5.0-1.0-0.0,,,,,,,,,,,,,,,5de6cfc6b5bed765473c624b,11:33:51,04/04/2024
1684.0,,,ospan,symmetry,YaSRQtz6PMZ8r3KzDqDcpU2mrQG2,symmetry-judgement-task,159,1883063,0.0-46.0-5.0-1.0-1.0-0.0,,,,,,,,,,1.0,1.0,,,,5de6cfc6b5bed765473c624b,11:33:51,04/04/2024
,"<div style=""font-size: 10rem; color: #0000FF"">N</div>",,ospan,letter,YaSRQtz6PMZ8r3KzDqDcpU2mrQG2,html-keyboard-response,160,1884067,0.0-46.0-5.0-1.0-1.0-1.0,,,,,,,,,,,,,,,5de6cfc6b5bed765473c624b,11:33:51,04/04/2024
2113.0,,,ospan,symmetry,YaSRQtz6PMZ8r3KzDqDcpU2mrQG2,symmetry-judgement-task,161,1888243,0.0-46.0-5.0-1.0-1.0-2.0,,,,,,,,,,1.0,1.0,,,,5de6cfc6b5bed765473c624b,11:33:51,04/04/2024
,"<div style=""font-size: 10rem; color: #0000FF"">H</div>",,ospan,letter,YaSRQtz6PMZ8r3KzDqDcpU2mrQG2,html-keyboard-response,162,1889260,0.0-46.0-5.0-1.0-1.0-3.0,,,,,,,,,,,,,,,5de6cfc6b5bed765473c624b,11:33:51,04/04/2024
1638.0,,,ospan,symmetry,YaSRQtz6PMZ8r3KzDqDcpU2mrQG2,symmetry-judgement-task,163,1892936,0.0-46.0-5.0-1.0-1.0-4.0,,,,,,,,,,1.0,1.0,,,,5de6cfc6b5bed765473c624b,11:33:51,04/04/2024
,"<div style=""font-size: 10rem; color: #0000FF"">C</div>",,ospan,letter,YaSRQtz6PMZ8r3KzDqDcpU2mrQG2,html-keyboard-response,164,1893946,0.0-46.0-5.0-1.0-1.0-5.0,,,,,,,,,,,,,,,5de6cfc6b5bed765473c624b,11:33:51,04/04/2024
1460.0,,,ospan,symmetry,YaSRQtz6PMZ8r3KzDqDcpU2mrQG2,symmetry-judgement-task,165,1897238,0.0-46.0-5.0-1.0-1.0-6.0,,,,,,,,,,1.0,1.0,,,,5de6cfc6b5bed765473c624b,11:33:51,04/04/2024
,"<div style=""font-size: 10rem; color: #0000FF"">Y</div>",,ospan,letter,YaSRQtz6PMZ8r3KzDqDcpU2mrQG2,html-keyboard-response,166,1898249,0.0-46.0-5.0-1.0-1.0-7.0,,,,,,,,,,,,,,,5de6cfc6b5bed765473c624b,11:33:51,04/04/2024
1548.0,,,ospan,symmetry,YaSRQtz6PMZ8r3KzDqDcpU2mrQG2,symmetry-judgement-task,167,1901835,0.0-46.0-5.0-1.0-1.0-8.0,,,,,,,,,,1.0,1.0,,,,5de6cfc6b5bed765473c624b,11:33:51,04/04/2024
,"<div style=""font-size: 10rem; color: #0000FF"">J</div>",,ospan,letter,YaSRQtz6PMZ8r3KzDqDcpU2mrQG2,html-keyboard-response,168,1902847,0.0-46.0-5.0-1.0-1.0-9.0,,,,,,,,,,,,,,,5de6cfc6b5bed765473c624b,11:33:51,04/04/2024
2114.0,,,ospan,symmetry,YaSRQtz6PMZ8r3KzDqDcpU2mrQG2,symmetry-judgement-task,169,1906792,0.0-46.0-5.0-1.0-1.0-10.0,,,,,,,,,,1.0,1.0,,,,5de6cfc6b5bed765473c624b,11:33:51,04/04/2024
,"<div style=""font-size: 10rem; color: #0000FF"">R</div>",,ospan,letter,YaSRQtz6PMZ8r3KzDqDcpU2mrQG2,html-keyboard-response,170,1907805,0.0-46.0-5.0-1.0-1.0-11.0,,,,,,,,,,,,,,,5de6cfc6b5bed765473c624b,11:33:51,04/04/2024
1636.0,,,ospan,symmetry,YaSRQtz6PMZ8r3KzDqDcpU2mrQG2,symmetry-judgement-task,171,1911542,0.0-46.0-5.0-1.0-1.0-12.0,,,,,,,,,,1.0,1.0,,,,5de6cfc6b5bed765473c624b,11:33:51,04/04/2024
,"<div style=""font-size: 10rem; color: #0000FF"">Q</div>",,ospan,letter,YaSRQtz6PMZ8r3KzDqDcpU2mrQG2,html-keyboard-response,172,1912559,0.0-46.0-5.0-1.0-1.0-13.0,,,,,,,,,,,,,,,5de6cfc6b5bed765473c624b,11:33:51,04/04/2024
8607.5,"<div class = numbox><p style=""font-size: 2.4rem"">Please recall the letters you saw to the best of your ability. If you do not remember a particular letter, use the SKIP button.<br><b>(When you are ready to lock in your answer, press ENTER)</b></p><button id = button_1 class = ""square num-button"" onclick = ""recordClick(this)""><div class = content><div class = numbers>C</div></div></button><button id = button_2 class = ""square num-button"" onclick = ""recordClick(this)""><div class = content><div class = numbers>G</div></div></button><button id = button_3 class = ""square num-button"" onclick = ""recordClick(this)""><div class = content><div class = numbers>H</div></div></button><button id = button_4 class = ""square num-button"" onclick = ""recordClick(this)""><div class = content><div class = numbers>J</div></div></button><button id = button_5 class = ""square num-button"" onclick = ""recordClick(this)""><div class = content><div class = numbers>K</div></div></button><button id = button_6 class = ""square num-button"" onclick = ""recordClick(this)""><div class = content><div class = numbers>L</div></div></button><button id = button_7 class = ""square num-button"" onclick = ""recordClick(this)""><div class = content><div class = numbers>N</div></div></button><button id = button_8 class = ""square num-button"" onclick = ""recordClick(this)""><div class = content><div class = numbers>P</div></div></button><button id = button_9 class = ""square num-button"" onclick = ""recordClick(this)""><div class = content><div class = numbers>Q</div></div></button><button id = button_10 class = ""square num-button"" onclick = ""recordClick(this)""><div class = content><div class = numbers>R</div></div></button><button id = button_11 class = ""square num-button"" onclick = ""recordClick(this)""><div class = content><div class = numbers>S</div></div></button><button id = button_12 class = ""square num-button"" onclick = ""recordClick(this)""><div class = content><div class = numbers>Y</div></div></button><button class = clear_button id = ""ClearButton"" onclick = ""clearResponse()"">BACKSPACE</button><button class = blank_button id = ""BlankButton"" onclick = ""blankResponse()"">SKIP</button><p style=""font-size: 2.4rem""><u><b>Current Answer:</b></u></p><br><br><div id=echoed_txt style=""font-size: 5rem; color:blue;""><b></b></div></div>",enter,ospan,retrieval,YaSRQtz6PMZ8r3KzDqDcpU2mrQG2,html-keyboard-response,173,1921926,0.0-46.0-5.0-1.0-2.0,28,26,21,7.0,"[""N"",""H"",""Y"",""C"",""J"",""R"",""Q""]","[""N"",""H"",""C"",""Y"",""J"",""R"",""Q""]",0.0,5.0,,,,,,,5de6cfc6b5bed765473c624b,11:33:51,04/04/2024
1049.4000005722046,[''],0,ospan,feedback,YaSRQtz6PMZ8r3KzDqDcpU2mrQG2,html-button-response,174,1923489,0.0-46.0-5.0-1.0-3.0,,,,,,,,,,,,96.0,0.0,,5de6cfc6b5bed765473c624b,11:33:51,04/04/2024
,"<p style=""font-size:75px;"">...</p>",,ospan,iti,YaSRQtz6PMZ8r3KzDqDcpU2mrQG2,html-keyboard-response,175,1924503,0.0-46.0-6.0-0.0-0.0,,,,,,,,,,,,,,,5de6cfc6b5bed765473c624b,11:33:51,04/04/2024
2536.0,,,ospan,symmetry,YaSRQtz6PMZ8r3KzDqDcpU2mrQG2,symmetry-judgement-task,176,1928408,0.0-46.0-6.0-0.0-1.0-0.0,,,,,,,,,,1.0,1.0,,,,5de6cfc6b5bed765473c624b,11:33:51,04/04/2024
,"<div style=""font-size: 10rem; color: #0000FF"">J</div>",,ospan,letter,YaSRQtz6PMZ8r3KzDqDcpU2mrQG2,html-keyboard-response,177,1929425,0.0-46.0-6.0-0.0-1.0-1.0,,,,,,,,,,,,,,,5de6cfc6b5bed765473c624b,11:33:51,04/04/2024
1385.0,,,ospan,symmetry,YaSRQtz6PMZ8r3KzDqDcpU2mrQG2,symmetry-judgement-task,178,1932854,0.0-46.0-6.0-0.0-1.0-2.0,,,,,,,,,,1.0,1.0,,,,5de6cfc6b5bed765473c624b,11:33:51,04/04/2024
,"<div style=""font-size: 10rem; color: #0000FF"">Q</div>",,ospan,letter,YaSRQtz6PMZ8r3KzDqDcpU2mrQG2,html-keyboard-response,179,1933866,0.0-46.0-6.0-0.0-1.0-3.0,,,,,,,,,,,,,,,5de6cfc6b5bed765473c624b,11:33:51,04/04/2024
3261.0,,,ospan,symmetry,YaSRQtz6PMZ8r3KzDqDcpU2mrQG2,symmetry-judgement-task,180,1939190,0.0-46.0-6.0-0.0-1.0-4.0,,,,,,,,,,1.0,1.0,,,,5de6cfc6b5bed765473c624b,11:33:51,04/04/2024
,"<div style=""font-size: 10rem; color: #0000FF"">G</div>",,ospan,letter,YaSRQtz6PMZ8r3KzDqDcpU2mrQG2,html-keyboard-response,181,1940208,0.0-46.0-6.0-0.0-1.0-5.0,,,,,,,,,,,,,,,5de6cfc6b5bed765473c624b,11:33:51,04/04/2024
2673.0,,,ospan,symmetry,YaSRQtz6PMZ8r3KzDqDcpU2mrQG2,symmetry-judgement-task,182,1944935,0.0-46.0-6.0-0.0-1.0-6.0,,,,,,,,,,1.0,1.0,,,,5de6cfc6b5bed765473c624b,11:33:51,04/04/2024
,"<div style=""font-size: 10rem; color: #0000FF"">C</div>",,ospan,letter,YaSRQtz6PMZ8r3KzDqDcpU2mrQG2,html-keyboard-response,183,1945943,0.0-46.0-6.0-0.0-1.0-7.0,,,,,,,,,,,,,,,5de6cfc6b5bed765473c624b,11:33:51,04/04/2024
1732.0,,,ospan,symmetry,YaSRQtz6PMZ8r3KzDqDcpU2mrQG2,symmetry-judgement-task,184,1949776,0.0-46.0-6.0-0.0-1.0-8.0,,,,,,,,,,1.0,1.0,,,,5de6cfc6b5bed765473c624b,11:33:51,04/04/2024
,"<div style=""font-size: 10rem; color: #0000FF"">K</div>",,ospan,letter,YaSRQtz6PMZ8r3KzDqDcpU2mrQG2,html-keyboard-response,185,1950794,0.0-46.0-6.0-0.0-1.0-9.0,,,,,,,,,,,,,,,5de6cfc6b5bed765473c624b,11:33:51,04/04/2024
16059.599999427795,"<div class = numbox><p style=""font-size: 2.4rem"">Please recall the letters you saw to the best of your ability. If you do not remember a particular letter, use the SKIP button.<br><b>(When you are ready to lock in your answer, press ENTER)</b></p><button id = button_1 class = ""square num-button"" onclick = ""recordClick(this)""><div class = content><div class = numbers>C</div></div></button><button id = button_2 class = ""square num-button"" onclick = ""recordClick(this)""><div class = content><div class = numbers>G</div></div></button><button id = button_3 class = ""square num-button"" onclick = ""recordClick(this)""><div class = content><div class = numbers>H</div></div></button><button id = button_4 class = ""square num-button"" onclick = ""recordClick(this)""><div class = content><div class = numbers>J</div></div></button><button id = button_5 class = ""square num-button"" onclick = ""recordClick(this)""><div class = content><div class = numbers>K</div></div></button><button id = button_6 class = ""square num-button"" onclick = ""recordClick(this)""><div class = content><div class = numbers>L</div></div></button><button id = button_7 class = ""square num-button"" onclick = ""recordClick(this)""><div class = content><div class = numbers>N</div></div></button><button id = button_8 class = ""square num-button"" onclick = ""recordClick(this)""><div class = content><div class = numbers>P</div></div></button><button id = button_9 class = ""square num-button"" onclick = ""recordClick(this)""><div class = content><div class = numbers>Q</div></div></button><button id = button_10 class = ""square num-button"" onclick = ""recordClick(this)""><div class = content><div class = numbers>R</div></div></button><button id = button_11 class = ""square num-button"" onclick = ""recordClick(this)""><div class = content><div class = numbers>S</div></div></button><button id = button_12 class = ""square num-button"" onclick = ""recordClick(this)""><div class = content><div class = numbers>Y</div></div></button><button class = clear_button id = ""ClearButton"" onclick = ""clearResponse()"">BACKSPACE</button><button class = blank_button id = ""BlankButton"" onclick = ""blankResponse()"">SKIP</button><p style=""font-size: 2.4rem""><u><b>Current Answer:</b></u></p><br><br><div id=echoed_txt style=""font-size: 5rem; color:blue;""><b></b></div></div>",enter,ospan,retrieval,YaSRQtz6PMZ8r3KzDqDcpU2mrQG2,html-keyboard-response,186,1967620,0.0-46.0-6.0-0.0-2.0,33,28,21,5.0,"[""J"",""_"",""Q"",""C"",""J""]","[""J"",""Q"",""G"",""C"",""K""]",0.0,2.0,,,,,,,5de6cfc6b5bed765473c624b,11:33:51,04/04/2024
2350.3999996185303,[''],0,ospan,feedback,YaSRQtz6PMZ8r3KzDqDcpU2mrQG2,html-button-response,187,1970484,0.0-46.0-6.0-0.0-3.0,,,,,,,,,,,,97.0,0.0,,5de6cfc6b5bed765473c624b,11:33:51,04/04/2024
,"<p style=""font-size:75px;"">...</p>",,ospan,iti,YaSRQtz6PMZ8r3KzDqDcpU2mrQG2,html-keyboard-response,188,1971493,0.0-46.0-6.0-1.0-0.0,,,,,,,,,,,,,,,5de6cfc6b5bed765473c624b,11:33:51,04/04/2024
1954.0,,,ospan,symmetry,YaSRQtz6PMZ8r3KzDqDcpU2mrQG2,symmetry-judgement-task,189,1974820,0.0-46.0-6.0-1.0-1.0-0.0,,,,,,,,,,1.0,1.0,,,,5de6cfc6b5bed765473c624b,11:33:51,04/04/2024
,"<div style=""font-size: 10rem; color: #0000FF"">R</div>",,ospan,letter,YaSRQtz6PMZ8r3KzDqDcpU2mrQG2,html-keyboard-response,190,1975825,0.0-46.0-6.0-1.0-1.0-1.0,,,,,,,,,,,,,,,5de6cfc6b5bed765473c624b,11:33:51,04/04/2024
1518.0,,,ospan,symmetry,YaSRQtz6PMZ8r3KzDqDcpU2mrQG2,symmetry-judgement-task,191,1979383,0.0-46.0-6.0-1.0-1.0-2.0,,,,,,,,,,1.0,1.0,,,,5de6cfc6b5bed765473c624b,11:33:51,04/04/2024
,"<div style=""font-size: 10rem; color: #0000FF"">C</div>",,ospan,letter,YaSRQtz6PMZ8r3KzDqDcpU2mrQG2,html-keyboard-response,192,1980396,0.0-46.0-6.0-1.0-1.0-3.0,,,,,,,,,,,,,,,5de6cfc6b5bed765473c624b,11:33:51,04/04/2024
4047.0,,,ospan,symmetry,YaSRQtz6PMZ8r3KzDqDcpU2mrQG2,symmetry-judgement-task,193,1986494,0.0-46.0-6.0-1.0-1.0-4.0,,,,,,,,,,1.0,1.0,,,,5de6cfc6b5bed765473c624b,11:33:51,04/04/2024
,"<div style=""font-size: 10rem; color: #0000FF"">Q</div>",,ospan,letter,YaSRQtz6PMZ8r3KzDqDcpU2mrQG2,html-keyboard-response,194,1987512,0.0-46.0-6.0-1.0-1.0-5.0,,,,,,,,,,,,,,,5de6cfc6b5bed765473c624b,11:33:51,04/04/2024
1843.0,,,ospan,symmetry,YaSRQtz6PMZ8r3KzDqDcpU2mrQG2,symmetry-judgement-task,195,1991434,0.0-46.0-6.0-1.0-1.0-6.0,,,,,,,,,,1.0,1.0,,,,5de6cfc6b5bed765473c624b,11:33:51,04/04/2024
,"<div style=""font-size: 10rem; color: #0000FF"">K</div>",,ospan,letter,YaSRQtz6PMZ8r3KzDqDcpU2mrQG2,html-keyboard-response,196,1992437,0.0-46.0-6.0-1.0-1.0-7.0,,,,,,,,,,,,,,,5de6cfc6b5bed765473c624b,11:33:51,04/04/2024
1879.0,,,ospan,symmetry,YaSRQtz6PMZ8r3KzDqDcpU2mrQG2,symmetry-judgement-task,197,1996430,0.0-46.0-6.0-1.0-1.0-8.0,,,,,,,,,,1.0,1.0,,,,5de6cfc6b5bed765473c624b,11:33:51,04/04/2024
,"<div style=""font-size: 10rem; color: #0000FF"">J</div>",,ospan,letter,YaSRQtz6PMZ8r3KzDqDcpU2mrQG2,html-keyboard-response,198,1997437,0.0-46.0-6.0-1.0-1.0-9.0,,,,,,,,,,,,,,,5de6cfc6b5bed765473c624b,11:33:51,04/04/2024
1867.0,,,ospan,symmetry,YaSRQtz6PMZ8r3KzDqDcpU2mrQG2,symmetry-judgement-task,199,2001339,0.0-46.0-6.0-1.0-1.0-10.0,,,,,,,,,,1.0,1.0,,,,5de6cfc6b5bed765473c624b,11:33:51,04/04/2024
,"<div style=""font-size: 10rem; color: #0000FF"">P</div>",,ospan,letter,YaSRQtz6PMZ8r3KzDqDcpU2mrQG2,html-keyboard-response,200,2002344,0.0-46.0-6.0-1.0-1.0-11.0,,,,,,,,,,,,,,,5de6cfc6b5bed765473c624b,11:33:51,04/04/2024
1671.0,,,ospan,symmetry,YaSRQtz6PMZ8r3KzDqDcpU2mrQG2,symmetry-judgement-task,201,2006080,0.0-46.0-6.0-1.0-1.0-12.0,,,,,,,,,,1.0,1.0,,,,5de6cfc6b5bed765473c624b,11:33:51,04/04/2024
,"<div style=""font-size: 10rem; color: #0000FF"">S</div>",,ospan,letter,YaSRQtz6PMZ8r3KzDqDcpU2mrQG2,html-keyboard-response,202,2007083,0.0-46.0-6.0-1.0-1.0-13.0,,,,,,,,,,,,,,,5de6cfc6b5bed765473c624b,11:33:51,04/04/2024
1529.0,,,ospan,symmetry,YaSRQtz6PMZ8r3KzDqDcpU2mrQG2,symmetry-judgement-task,203,2010680,0.0-46.0-6.0-1.0-1.0-14.0,,,,,,,,,,1.0,1.0,,,,5de6cfc6b5bed765473c624b,11:33:51,04/04/2024
,"<div style=""font-size: 10rem; color: #0000FF"">G</div>",,ospan,letter,YaSRQtz6PMZ8r3KzDqDcpU2mrQG2,html-keyboard-response,204,2011684,0.0-46.0-6.0-1.0-1.0-15.0,,,,,,,,,,,,,,,5de6cfc6b5bed765473c624b,11:33:51,04/04/2024
9656.599999427795,"<div class = numbox><p style=""font-size: 2.4rem"">Please recall the letters you saw to the best of your ability. If you do not remember a particular letter, use the SKIP button.<br><b>(When you are ready to lock in your answer, press ENTER)</b></p><button id = button_1 class = ""square num-button"" onclick = ""recordClick(this)""><div class = content><div class = numbers>C</div></div></button><button id = button_2 class = ""square num-button"" onclick = ""recordClick(this)""><div class = content><div class = numbers>G</div></div></button><button id = button_3 class = ""square num-button"" onclick = ""recordClick(this)""><div class = content><div class = numbers>H</div></div></button><button id = button_4 class = ""square num-button"" onclick = ""recordClick(this)""><div class = content><div class = numbers>J</div></div></button><button id = button_5 class = ""square num-button"" onclick = ""recordClick(this)""><div class = content><div class = numbers>K</div></div></button><button id = button_6 class = ""square num-button"" onclick = ""recordClick(this)""><div class = content><div class = numbers>L</div></div></button><button id = button_7 class = ""square num-button"" onclick = ""recordClick(this)""><div class = content><div class = numbers>N</div></div></button><button id = button_8 class = ""square num-button"" onclick = ""recordClick(this)""><div class = content><div class = numbers>P</div></div></button><button id = button_9 class = ""square num-button"" onclick = ""recordClick(this)""><div class = content><div class = numbers>Q</div></div></button><button id = button_10 class = ""square num-button"" onclick = ""recordClick(this)""><div class = content><div class = numbers>R</div></div></button><button id = button_11 class = ""square num-button"" onclick = ""recordClick(this)""><div class = content><div class = numbers>S</div></div></button><button id = button_12 class = ""square num-button"" onclick = ""recordClick(this)""><div class = content><div class = numbers>Y</div></div></button><button class = clear_button id = ""ClearButton"" onclick = ""clearResponse()"">BACKSPACE</button><button class = blank_button id = ""BlankButton"" onclick = ""blankResponse()"">SKIP</button><p style=""font-size: 2.4rem""><u><b>Current Answer:</b></u></p><br><br><div id=echoed_txt style=""font-size: 5rem; color:blue;""><b></b></div></div>",enter,ospan,retrieval,YaSRQtz6PMZ8r3KzDqDcpU2mrQG2,html-keyboard-response,205,2022094,0.0-46.0-6.0-1.0-2.0,41,28,21,8.0,"[""_"",""_"",""J"",""P"",""S"",""_""]","[""R"",""C"",""Q"",""K"",""J"",""P"",""S"",""G""]",0.0,0.0,,,,,,,5de6cfc6b5bed765473c624b,11:33:51,04/04/2024
4082.0,[''],0,ospan,feedback,YaSRQtz6PMZ8r3KzDqDcpU2mrQG2,html-button-response,206,2026682,0.0-46.0-6.0-1.0-3.0,,,,,,,,,,,,98.0,0.0,,5de6cfc6b5bed765473c624b,11:33:51,04/04/2024
16892.5,,{'Q0': 'It was an enjoyable task'},ospan,survey_ospan,YaSRQtz6PMZ8r3KzDqDcpU2mrQG2,lmdlab-survey-text,207,2044335,0.0-46.0-7.0,,,,,,,,,,,,,,YaSRQtz6PMZ8r3KzDqDcpU2mrQG2,5de6cfc6b5bed765473c624b,11:33:51,04/04/2024
2832.800000190735,<p><p style='font-size: 3rem'>Great work!<br><br>This completes the symmetry and memory task.</p><br><br><br>,0,ospan,finish,YaSRQtz6PMZ8r3KzDqDcpU2mrQG2,html-button-response,208,2047173,0.0-46.0-8.0,41,28,21,,,,,,,,,98.0,,,5de6cfc6b5bed765473c624b,11:33:51,04/04/2024
