rt,stimulus,response,exp_name,exp_stage,subjectID,trial_type,trial_index,time_elapsed,internal_node_id,ospan_shown,ospan_total,ospan_abs,length,resp_actual,resp_correct,full_correct,num_correct,feedback,accuracy,correct,math_acc,math_warning,databaseID,prolificID,start_time,date
3229.800000011921,<div class = 'left_align' style='font-size: 3.25rem; line-height: 1.3;'><p class = 'center_align'><b>Welcome to the Symmetry and Memory Task</b><br><br><br><br></p>Press 'continue' to show the instructions.<br><br><br><br></div>,0,ospan,instruct,J8mCOYbkt6ZzLRyRYAMYJqvRh5O2,html-button-response,54,651905,0.0-46.0-0.0-0.0-0.0,,,,,,,,,,,,,,,5c5844d8dd470300014ee3f1,11:40:40,03/04/2024
13995.300000011921,"<div class = 'left_align' style='font-size: 3.25rem; line-height: 1.3;'><p class = 'center_align'><b>Symmetry and Memory Task</b><br><br></p>In this task, you will try to memorize letters you see on the screen<br>while you also view black and white grid pictures.<br><br>In the next few minutes, you will have some practice to get you familiar<br>with how the task works.<br><br>It may be difficult sometimes, but please do not worry about making mistakes!<br><br>We will begin by practicing the letter part of the task.<br><br><br><br></div>",0,ospan,instruct,J8mCOYbkt6ZzLRyRYAMYJqvRh5O2,html-button-response,55,666158,0.0-46.0-0.0-0.0-1.0,,,,,,,,,,,,,,,5c5844d8dd470300014ee3f1,11:40:40,03/04/2024
13783.5,"<div class = 'left_align' style='font-size: 3.25rem; line-height: 1.3;'>For this practice part, letters will appear on the screen one at a time.<br><br>Try to remember each letter in the order presented.<br><br>After some letters have been shown, you will see a response screen. Your<br>goal is to report the letters you saw <b>in order</b>. If you do not remember<br>a particular letter, you will have the option to leave it blank.<br><br><br><br></div>",0,ospan,instruct,J8mCOYbkt6ZzLRyRYAMYJqvRh5O2,html-button-response,56,680195,0.0-46.0-0.0-0.0-2.0,,,,,,,,,,,,,,,5c5844d8dd470300014ee3f1,11:40:40,03/04/2024
15354.900000035763,"<div class = 'left_align' style='font-size: 3.25rem; line-height: 1.3;'>Remember, it is very important to get the letters in the same<br>order as you see them.<br><br>When you are ready, you may begin the letter practice.</div><br><br><br><br>",0,ospan,instruct,J8mCOYbkt6ZzLRyRYAMYJqvRh5O2,html-button-response,57,695818,0.0-46.0-0.0-0.0-3.0,,,,,,,,,,,,,,,5c5844d8dd470300014ee3f1,11:40:40,03/04/2024
,"<p style=""font-size:75px;"">...</p>",,ospan,iti,J8mCOYbkt6ZzLRyRYAMYJqvRh5O2,html-keyboard-response,58,697085,0.0-46.0-0.0-1.0-0.0,,,,,,,,,,,,,,,5c5844d8dd470300014ee3f1,11:40:40,03/04/2024
,"<div style=""font-size: 10rem; color: #0000FF"">Q</div>",,ospan,letter,J8mCOYbkt6ZzLRyRYAMYJqvRh5O2,html-keyboard-response,59,698103,0.0-46.0-0.0-1.0-1.0,,,,,,,,,,,,,,,5c5844d8dd470300014ee3f1,11:40:40,03/04/2024
,"<div style=""font-size: 10rem; color: #0000FF"">L</div>",,ospan,letter,J8mCOYbkt6ZzLRyRYAMYJqvRh5O2,html-keyboard-response,60,699868,0.0-46.0-0.0-1.0-2.0,,,,,,,,,,,,,,,5c5844d8dd470300014ee3f1,11:40:40,03/04/2024
15612.899999976158,"<div class = numbox><p style=""font-size: 2.4rem"">Please recall the letters you saw to the best of your ability. If you do not remember a particular letter, use the SKIP button.<br><b>(When you are ready to lock in your answer, press ENTER)</b></p><button id = button_1 class = ""square num-button"" onclick = ""recordClick(this)""><div class = content><div class = numbers>C</div></div></button><button id = button_2 class = ""square num-button"" onclick = ""recordClick(this)""><div class = content><div class = numbers>G</div></div></button><button id = button_3 class = ""square num-button"" onclick = ""recordClick(this)""><div class = content><div class = numbers>H</div></div></button><button id = button_4 class = ""square num-button"" onclick = ""recordClick(this)""><div class = content><div class = numbers>J</div></div></button><button id = button_5 class = ""square num-button"" onclick = ""recordClick(this)""><div class = content><div class = numbers>K</div></div></button><button id = button_6 class = ""square num-button"" onclick = ""recordClick(this)""><div class = content><div class = numbers>L</div></div></button><button id = button_7 class = ""square num-button"" onclick = ""recordClick(this)""><div class = content><div class = numbers>N</div></div></button><button id = button_8 class = ""square num-button"" onclick = ""recordClick(this)""><div class = content><div class = numbers>P</div></div></button><button id = button_9 class = ""square num-button"" onclick = ""recordClick(this)""><div class = content><div class = numbers>Q</div></div></button><button id = button_10 class = ""square num-button"" onclick = ""recordClick(this)""><div class = content><div class = numbers>R</div></div></button><button id = button_11 class = ""square num-button"" onclick = ""recordClick(this)""><div class = content><div class = numbers>S</div></div></button><button id = button_12 class = ""square num-button"" onclick = ""recordClick(this)""><div class = content><div class = numbers>Y</div></div></button><button class = clear_button id = ""ClearButton"" onclick = ""clearResponse()"">BACKSPACE</button><button class = blank_button id = ""BlankButton"" onclick = ""blankResponse()"">SKIP</button><p style=""font-size: 2.4rem""><u><b>Current Answer:</b></u></p><br><br><div id=echoed_txt style=""font-size: 5rem; color:blue;""><b></b></div></div>",enter,ospan,retrieval,J8mCOYbkt6ZzLRyRYAMYJqvRh5O2,html-keyboard-response,61,716245,0.0-46.0-0.0-1.0-3.0,NA,NA,NA,2.0,"[""Q"",""L""]","[""Q"",""L""]",1.0,2.0,"['<font color=""green"">Q</font>', '<font color=""green"">L</font>']",,,,,,5c5844d8dd470300014ee3f1,11:40:40,03/04/2024
2294.800000011921,"['<p style=""font-size:44px"">Letters:<br><br><br><font color=""green"">Q</font> <font color=""green"">L</font></p><br><br>']",0,ospan,practice_feedback,J8mCOYbkt6ZzLRyRYAMYJqvRh5O2,html-button-response,62,719045,0.0-46.0-0.0-1.0-4.0,,,,,,,,,,,,,,,5c5844d8dd470300014ee3f1,11:40:40,03/04/2024
,"<p style=""font-size:75px;"">...</p>",,ospan,iti,J8mCOYbkt6ZzLRyRYAMYJqvRh5O2,html-keyboard-response,63,720051,0.0-46.0-0.0-2.0-0.0,,,,,,,,,,,,,,,5c5844d8dd470300014ee3f1,11:40:40,03/04/2024
,"<div style=""font-size: 10rem; color: #0000FF"">J</div>",,ospan,letter,J8mCOYbkt6ZzLRyRYAMYJqvRh5O2,html-keyboard-response,64,721056,0.0-46.0-0.0-2.0-1.0,,,,,,,,,,,,,,,5c5844d8dd470300014ee3f1,11:40:40,03/04/2024
,"<div style=""font-size: 10rem; color: #0000FF"">Q</div>",,ospan,letter,J8mCOYbkt6ZzLRyRYAMYJqvRh5O2,html-keyboard-response,65,722823,0.0-46.0-0.0-2.0-2.0,,,,,,,,,,,,,,,5c5844d8dd470300014ee3f1,11:40:40,03/04/2024
,"<div style=""font-size: 10rem; color: #0000FF"">C</div>",,ospan,letter,J8mCOYbkt6ZzLRyRYAMYJqvRh5O2,html-keyboard-response,66,724583,0.0-46.0-0.0-2.0-3.0,,,,,,,,,,,,,,,5c5844d8dd470300014ee3f1,11:40:40,03/04/2024
5264.400000035763,"<div class = numbox><p style=""font-size: 2.4rem"">Please recall the letters you saw to the best of your ability. If you do not remember a particular letter, use the SKIP button.<br><b>(When you are ready to lock in your answer, press ENTER)</b></p><button id = button_1 class = ""square num-button"" onclick = ""recordClick(this)""><div class = content><div class = numbers>C</div></div></button><button id = button_2 class = ""square num-button"" onclick = ""recordClick(this)""><div class = content><div class = numbers>G</div></div></button><button id = button_3 class = ""square num-button"" onclick = ""recordClick(this)""><div class = content><div class = numbers>H</div></div></button><button id = button_4 class = ""square num-button"" onclick = ""recordClick(this)""><div class = content><div class = numbers>J</div></div></button><button id = button_5 class = ""square num-button"" onclick = ""recordClick(this)""><div class = content><div class = numbers>K</div></div></button><button id = button_6 class = ""square num-button"" onclick = ""recordClick(this)""><div class = content><div class = numbers>L</div></div></button><button id = button_7 class = ""square num-button"" onclick = ""recordClick(this)""><div class = content><div class = numbers>N</div></div></button><button id = button_8 class = ""square num-button"" onclick = ""recordClick(this)""><div class = content><div class = numbers>P</div></div></button><button id = button_9 class = ""square num-button"" onclick = ""recordClick(this)""><div class = content><div class = numbers>Q</div></div></button><button id = button_10 class = ""square num-button"" onclick = ""recordClick(this)""><div class = content><div class = numbers>R</div></div></button><button id = button_11 class = ""square num-button"" onclick = ""recordClick(this)""><div class = content><div class = numbers>S</div></div></button><button id = button_12 class = ""square num-button"" onclick = ""recordClick(this)""><div class = content><div class = numbers>Y</div></div></button><button class = clear_button id = ""ClearButton"" onclick = ""clearResponse()"">BACKSPACE</button><button class = blank_button id = ""BlankButton"" onclick = ""blankResponse()"">SKIP</button><p style=""font-size: 2.4rem""><u><b>Current Answer:</b></u></p><br><br><div id=echoed_txt style=""font-size: 5rem; color:blue;""><b></b></div></div>",enter,ospan,retrieval,J8mCOYbkt6ZzLRyRYAMYJqvRh5O2,html-keyboard-response,67,730607,0.0-46.0-0.0-2.0-4.0,NA,NA,NA,3.0,"[""J"",""Q"",""C""]","[""J"",""Q"",""C""]",1.0,3.0,"['<font color=""green"">J</font>', '<font color=""green"">Q</font>', '<font color=""green"">C</font>']",,,,,,5c5844d8dd470300014ee3f1,11:40:40,03/04/2024
1754.5,"['<p style=""font-size:44px"">Letters:<br><br><br><font color=""green"">J</font> <font color=""green"">Q</font> <font color=""green"">C</font></p><br><br>']",0,ospan,practice_feedback,J8mCOYbkt6ZzLRyRYAMYJqvRh5O2,html-button-response,68,732867,0.0-46.0-0.0-2.0-5.0,,,,,,,,,,,,,,,5c5844d8dd470300014ee3f1,11:40:40,03/04/2024
34687.39999997616,"<div class = 'left_align' style='font-size: 3.25rem; line-height: 1.3;'>Now you will practice doing the <b>symmetry judgment part</b> of the experiment.<br><br>A black and white grid picture will appear on the screen and you have to judge if it is <br>symmetrical or asymetrical.<br><br>A picture is 'mirror' symmetrical if its left half is identical to the right half when flipped.<br>Here are examples of a symmetrical and an asymetrical picture:<br><br><center><img src='Stimuli/img/symm_instructions_extra.png' style='height:420px; width:900'></img></center><br>To judge symmetry, imagine you were to fold each picture down the middle, like a book –<br>would the left half match the right half when folded onto each other?<br><br></div><br>",0,ospan,instruct,J8mCOYbkt6ZzLRyRYAMYJqvRh5O2,html-button-response,69,767557,0.0-46.0-1.0-0.0-0.0,,,,,,,,,,,,,,,5c5844d8dd470300014ee3f1,11:40:40,03/04/2024
12900.300000011921,"<div class = 'left_align' style='font-size: 3.25rem; line-height: 1.3;'>When you have viewed the picture and determined whether it is symmetrical or not,<br>you can <b>click the Yes or No button</b> below to answer.<br><br>If you take longer than 15 seconds, it will continue automatically<br>and record the answer as an error.</div><br>",0,ospan,instruct,J8mCOYbkt6ZzLRyRYAMYJqvRh5O2,html-button-response,70,780726,0.0-46.0-1.0-0.0-1.0,,,,,,,,,,,,,,,5c5844d8dd470300014ee3f1,11:40:40,03/04/2024
7044.800000011921,"<div class = 'left_align' style='font-size: 3.25rem; line-height: 1.3;'>It is <b>very</b> important that you make the symmetry judgment correctly.<br><br>It is also important that you try and judge the picture as quickly as you can.<br><br>When you are ready, click on the button below to try some practice problems.</div><br><br><br><br>",0,ospan,instruct,J8mCOYbkt6ZzLRyRYAMYJqvRh5O2,html-button-response,71,788026,0.0-46.0-1.0-0.0-2.0,,,,,,,,,,,,,,,5c5844d8dd470300014ee3f1,11:40:40,03/04/2024
4238.0,,,ospan,symmetry,J8mCOYbkt6ZzLRyRYAMYJqvRh5O2,symmetry-judgement-task,72,793267,0.0-46.0-1.0-1.0-0.0,,,,,,,,,,1.0,1.0,,,,5c5844d8dd470300014ee3f1,11:40:40,03/04/2024
,"<p style=""color:green; font-size: 35px"">Correct</p>",,ospan,feedback,J8mCOYbkt6ZzLRyRYAMYJqvRh5O2,html-keyboard-response,73,794024,0.0-46.0-1.0-1.0-1.0,,,,,,,,,,,,,,,5c5844d8dd470300014ee3f1,11:40:40,03/04/2024
1837.0,,,ospan,symmetry,J8mCOYbkt6ZzLRyRYAMYJqvRh5O2,symmetry-judgement-task,74,798883,0.0-46.0-1.0-1.0-2.0,,,,,,,,,,1.0,1.0,,,,5c5844d8dd470300014ee3f1,11:40:40,03/04/2024
,"<p style=""color:green; font-size: 35px"">Correct</p>",,ospan,feedback,J8mCOYbkt6ZzLRyRYAMYJqvRh5O2,html-keyboard-response,75,799642,0.0-46.0-1.0-1.0-3.0,,,,,,,,,,,,,,,5c5844d8dd470300014ee3f1,11:40:40,03/04/2024
1686.0,,,ospan,symmetry,J8mCOYbkt6ZzLRyRYAMYJqvRh5O2,symmetry-judgement-task,76,804397,0.0-46.0-1.0-1.0-4.0,,,,,,,,,,1.0,1.0,,,,5c5844d8dd470300014ee3f1,11:40:40,03/04/2024
,"<p style=""color:green; font-size: 35px"">Correct</p>",,ospan,feedback,J8mCOYbkt6ZzLRyRYAMYJqvRh5O2,html-keyboard-response,77,805152,0.0-46.0-1.0-1.0-5.0,,,,,,,,,,,,,,,5c5844d8dd470300014ee3f1,11:40:40,03/04/2024
2073.300000011921,"<p style=""font-size: 3rem;"">You responded correctly on 3 of 3 symmetry judgments. Good job!</p><br><br>",0,ospan,practice,J8mCOYbkt6ZzLRyRYAMYJqvRh5O2,html-button-response,78,809242,0.0-46.0-1.0-2.0,,,,,,,,,,,,,,,5c5844d8dd470300014ee3f1,11:40:40,03/04/2024
19913.80000001192,"<div class = 'left_align' style='font-size: 3.25rem; line-height: 1.3;'>Now you will practice doing both parts of the experiment at the same time.<br><br>In the next practice set, you will be given one grid picture to judge.<br>Then letter will appear on the screen. Try to remember the letter.<br><br>It is <b>very important</b> to make the symmetry judgment as quickly and accurately as possible.<br><br>Just as before, once you have make the symmetry judgment, you can click Yes or No.<br><b>Note that you will no longer see Correct or Incorrect feedback.</div><br><br><br><br>",0,ospan,instruct,J8mCOYbkt6ZzLRyRYAMYJqvRh5O2,html-button-response,79,829414,0.0-46.0-2.0-0.0-0.0,,,,,,,,,,,,,,,5c5844d8dd470300014ee3f1,11:40:40,03/04/2024
10268.400000035763,"<div class = 'left_align' style='font-size: 3.25rem; line-height: 1.3;'>After the letter goes away, another grid picture will appear, and then<br>another letter.<br><br>At the end of each set of letters and grids, you will recall the letters to the best<br>of your ability. Remember, try your best to get the letters in the correct order.<br><br>It is important to <b>quickly</b> and <b>accurately</b> make the symmetry judgments.</div><br><br><br><br>",0,ospan,instruct,J8mCOYbkt6ZzLRyRYAMYJqvRh5O2,html-button-response,80,839945,0.0-46.0-2.0-0.0-1.0,,,,,,,,,,,,,,,5c5844d8dd470300014ee3f1,11:40:40,03/04/2024
15330.399999976158,"<div class = 'left_align' style='font-size: 3.25rem; line-height: 1.3;'>On the feedback screen, if you are not doing well at the symmetry judgments,<br>you will also see a warning in the middle. This indicates your percent <br>correct for the grid pictures for the entire experiment.<br><br>It is <b>very</b> important for you to keep accuracy at least at 85%: <u>We can only use<br>data where the participant was at least 85% accurate on the judgments.</u> Therefore,<br> please try your best to perform well on the symmetry judgments, <b>at the same time</b><br>doing your best to recall as many letters as possible.<br><br>Click the button to try some practice problems.</div><br><br><br><br>",0,ospan,instruct,J8mCOYbkt6ZzLRyRYAMYJqvRh5O2,html-button-response,81,855536,0.0-46.0-2.0-0.0-2.0,,,,,,,,,,,,,,,5c5844d8dd470300014ee3f1,11:40:40,03/04/2024
,"<p style=""font-size:75px;"">...</p>",,ospan,iti,J8mCOYbkt6ZzLRyRYAMYJqvRh5O2,html-keyboard-response,82,856800,0.0-46.0-2.0-1.0-0.0,,,,,,,,,,,,,,,5c5844d8dd470300014ee3f1,11:40:40,03/04/2024
2376.0,,,ospan,symmetry,J8mCOYbkt6ZzLRyRYAMYJqvRh5O2,symmetry-judgement-task,83,860438,0.0-46.0-2.0-1.0-1.0-0.0,,,,,,,,,,1.0,1.0,,,,5c5844d8dd470300014ee3f1,11:40:40,03/04/2024
,"<div style=""font-size: 10rem; color: #0000FF"">L</div>",,ospan,letter,J8mCOYbkt6ZzLRyRYAMYJqvRh5O2,html-keyboard-response,84,861457,0.0-46.0-2.0-1.0-1.0-1.0,,,,,,,,,,,,,,,5c5844d8dd470300014ee3f1,11:40:40,03/04/2024
1478.0,,,ospan,symmetry,J8mCOYbkt6ZzLRyRYAMYJqvRh5O2,symmetry-judgement-task,85,865238,0.0-46.0-2.0-1.0-1.0-2.0,,,,,,,,,,1.0,1.0,,,,5c5844d8dd470300014ee3f1,11:40:40,03/04/2024
,"<div style=""font-size: 10rem; color: #0000FF"">N</div>",,ospan,letter,J8mCOYbkt6ZzLRyRYAMYJqvRh5O2,html-keyboard-response,86,866243,0.0-46.0-2.0-1.0-1.0-3.0,,,,,,,,,,,,,,,5c5844d8dd470300014ee3f1,11:40:40,03/04/2024
1173.0,,,ospan,symmetry,J8mCOYbkt6ZzLRyRYAMYJqvRh5O2,symmetry-judgement-task,87,869765,0.0-46.0-2.0-1.0-1.0-4.0,,,,,,,,,,1.0,1.0,,,,5c5844d8dd470300014ee3f1,11:40:40,03/04/2024
,"<div style=""font-size: 10rem; color: #0000FF"">J</div>",,ospan,letter,J8mCOYbkt6ZzLRyRYAMYJqvRh5O2,html-keyboard-response,88,870784,0.0-46.0-2.0-1.0-1.0-5.0,,,,,,,,,,,,,,,5c5844d8dd470300014ee3f1,11:40:40,03/04/2024
4949.600000023842,"<div class = numbox><p style=""font-size: 2.4rem"">Please recall the letters you saw to the best of your ability. If you do not remember a particular letter, use the SKIP button.<br><b>(When you are ready to lock in your answer, press ENTER)</b></p><button id = button_1 class = ""square num-button"" onclick = ""recordClick(this)""><div class = content><div class = numbers>C</div></div></button><button id = button_2 class = ""square num-button"" onclick = ""recordClick(this)""><div class = content><div class = numbers>G</div></div></button><button id = button_3 class = ""square num-button"" onclick = ""recordClick(this)""><div class = content><div class = numbers>H</div></div></button><button id = button_4 class = ""square num-button"" onclick = ""recordClick(this)""><div class = content><div class = numbers>J</div></div></button><button id = button_5 class = ""square num-button"" onclick = ""recordClick(this)""><div class = content><div class = numbers>K</div></div></button><button id = button_6 class = ""square num-button"" onclick = ""recordClick(this)""><div class = content><div class = numbers>L</div></div></button><button id = button_7 class = ""square num-button"" onclick = ""recordClick(this)""><div class = content><div class = numbers>N</div></div></button><button id = button_8 class = ""square num-button"" onclick = ""recordClick(this)""><div class = content><div class = numbers>P</div></div></button><button id = button_9 class = ""square num-button"" onclick = ""recordClick(this)""><div class = content><div class = numbers>Q</div></div></button><button id = button_10 class = ""square num-button"" onclick = ""recordClick(this)""><div class = content><div class = numbers>R</div></div></button><button id = button_11 class = ""square num-button"" onclick = ""recordClick(this)""><div class = content><div class = numbers>S</div></div></button><button id = button_12 class = ""square num-button"" onclick = ""recordClick(this)""><div class = content><div class = numbers>Y</div></div></button><button class = clear_button id = ""ClearButton"" onclick = ""clearResponse()"">BACKSPACE</button><button class = blank_button id = ""BlankButton"" onclick = ""blankResponse()"">SKIP</button><p style=""font-size: 2.4rem""><u><b>Current Answer:</b></u></p><br><br><div id=echoed_txt style=""font-size: 5rem; color:blue;""><b></b></div></div>",enter,ospan,retrieval,J8mCOYbkt6ZzLRyRYAMYJqvRh5O2,html-keyboard-response,89,876495,0.0-46.0-2.0-1.0-2.0-0.0,NA,NA,NA,3.0,"[""L"",""N"",""J""]","[""L"",""N"",""J""]",1.0,3.0,"['<font color=""green"">L</font>', '<font color=""green"">N</font>', '<font color=""green"">J</font>']",,,,,,5c5844d8dd470300014ee3f1,11:40:40,03/04/2024
2194.0,"['<p style=""font-size:44px"">Letters:<br><br><br><font color=""green"">L</font> <font color=""green"">N</font> <font color=""green"">J</font></p><br><br><p style=""font-size:30px"">Symmetry:<br><br><font color=""green"">100%</font></p><br><br>']",0,ospan,practice_feedback,J8mCOYbkt6ZzLRyRYAMYJqvRh5O2,html-button-response,90,879195,0.0-46.0-2.0-1.0-2.0-1.0,,,,,,,,,,,,,,,5c5844d8dd470300014ee3f1,11:40:40,03/04/2024
,"<p style=""font-size:75px;"">...</p>",,ospan,iti,J8mCOYbkt6ZzLRyRYAMYJqvRh5O2,html-keyboard-response,91,880208,0.0-46.0-2.0-2.0-0.0,,,,,,,,,,,,,,,5c5844d8dd470300014ee3f1,11:40:40,03/04/2024
1627.0,,,ospan,symmetry,J8mCOYbkt6ZzLRyRYAMYJqvRh5O2,symmetry-judgement-task,92,883348,0.0-46.0-2.0-2.0-1.0-0.0,,,,,,,,,,1.0,1.0,,,,5c5844d8dd470300014ee3f1,11:40:40,03/04/2024
,"<div style=""font-size: 10rem; color: #0000FF"">P</div>",,ospan,letter,J8mCOYbkt6ZzLRyRYAMYJqvRh5O2,html-keyboard-response,93,884354,0.0-46.0-2.0-2.0-1.0-1.0,,,,,,,,,,,,,,,5c5844d8dd470300014ee3f1,11:40:40,03/04/2024
2024.0,,,ospan,symmetry,J8mCOYbkt6ZzLRyRYAMYJqvRh5O2,symmetry-judgement-task,94,888697,0.0-46.0-2.0-2.0-1.0-2.0,,,,,,,,,,1.0,1.0,,,,5c5844d8dd470300014ee3f1,11:40:40,03/04/2024
,"<div style=""font-size: 10rem; color: #0000FF"">S</div>",,ospan,letter,J8mCOYbkt6ZzLRyRYAMYJqvRh5O2,html-keyboard-response,95,889703,0.0-46.0-2.0-2.0-1.0-3.0,,,,,,,,,,,,,,,5c5844d8dd470300014ee3f1,11:40:40,03/04/2024
1879.0,,,ospan,symmetry,J8mCOYbkt6ZzLRyRYAMYJqvRh5O2,symmetry-judgement-task,96,893835,0.0-46.0-2.0-2.0-1.0-4.0,,,,,,,,,,1.0,1.0,,,,5c5844d8dd470300014ee3f1,11:40:40,03/04/2024
,"<div style=""font-size: 10rem; color: #0000FF"">Y</div>",,ospan,letter,J8mCOYbkt6ZzLRyRYAMYJqvRh5O2,html-keyboard-response,97,894843,0.0-46.0-2.0-2.0-1.0-5.0,,,,,,,,,,,,,,,5c5844d8dd470300014ee3f1,11:40:40,03/04/2024
4618.599999964237,"<div class = numbox><p style=""font-size: 2.4rem"">Please recall the letters you saw to the best of your ability. If you do not remember a particular letter, use the SKIP button.<br><b>(When you are ready to lock in your answer, press ENTER)</b></p><button id = button_1 class = ""square num-button"" onclick = ""recordClick(this)""><div class = content><div class = numbers>C</div></div></button><button id = button_2 class = ""square num-button"" onclick = ""recordClick(this)""><div class = content><div class = numbers>G</div></div></button><button id = button_3 class = ""square num-button"" onclick = ""recordClick(this)""><div class = content><div class = numbers>H</div></div></button><button id = button_4 class = ""square num-button"" onclick = ""recordClick(this)""><div class = content><div class = numbers>J</div></div></button><button id = button_5 class = ""square num-button"" onclick = ""recordClick(this)""><div class = content><div class = numbers>K</div></div></button><button id = button_6 class = ""square num-button"" onclick = ""recordClick(this)""><div class = content><div class = numbers>L</div></div></button><button id = button_7 class = ""square num-button"" onclick = ""recordClick(this)""><div class = content><div class = numbers>N</div></div></button><button id = button_8 class = ""square num-button"" onclick = ""recordClick(this)""><div class = content><div class = numbers>P</div></div></button><button id = button_9 class = ""square num-button"" onclick = ""recordClick(this)""><div class = content><div class = numbers>Q</div></div></button><button id = button_10 class = ""square num-button"" onclick = ""recordClick(this)""><div class = content><div class = numbers>R</div></div></button><button id = button_11 class = ""square num-button"" onclick = ""recordClick(this)""><div class = content><div class = numbers>S</div></div></button><button id = button_12 class = ""square num-button"" onclick = ""recordClick(this)""><div class = content><div class = numbers>Y</div></div></button><button class = clear_button id = ""ClearButton"" onclick = ""clearResponse()"">BACKSPACE</button><button class = blank_button id = ""BlankButton"" onclick = ""blankResponse()"">SKIP</button><p style=""font-size: 2.4rem""><u><b>Current Answer:</b></u></p><br><br><div id=echoed_txt style=""font-size: 5rem; color:blue;""><b></b></div></div>",enter,ospan,retrieval,J8mCOYbkt6ZzLRyRYAMYJqvRh5O2,html-keyboard-response,98,900220,0.0-46.0-2.0-2.0-2.0-0.0,NA,NA,NA,3.0,"[""P"",""S"",""Y""]","[""P"",""S"",""Y""]",1.0,3.0,"['<font color=""green"">P</font>', '<font color=""green"">S</font>', '<font color=""green"">Y</font>']",,,,,,5c5844d8dd470300014ee3f1,11:40:40,03/04/2024
2808.600000023842,"['<p style=""font-size:44px"">Letters:<br><br><br><font color=""green"">P</font> <font color=""green"">S</font> <font color=""green"">Y</font></p><br><br><p style=""font-size:30px"">Symmetry:<br><br><font color=""green"">100%</font></p><br><br>']",0,ospan,practice_feedback,J8mCOYbkt6ZzLRyRYAMYJqvRh5O2,html-button-response,99,903539,0.0-46.0-2.0-2.0-2.0-1.0,,,,,,,,,,,,,,,5c5844d8dd470300014ee3f1,11:40:40,03/04/2024
45374.69999998808,"<div class = 'left_align' style='font-size: 3rem; line-height: 1.3;'><b>Great work! That is the end of practice.</b><br><br>The real trials will look just like the practice trials you just completed.<br><br><u>Here, you will not see feedback</u>. First, you will see an grid picture to judge,<br>then a letter to remember. When the recall screen appears, report the letters in the<br>order presented. If you forget a letter, remember to use the <b>blank</b> button to move to the<br>next letter. Some of the sets will have more symmetry grids and letters than others.<br><br>It is important that you do your best on both the symmetry judgments and the letter recall<br>parts of the experiment. For for the symmetry judgments, try to work as <b>quickly</b> and <br>as <b>accurately</b> as possible. Remember to keep your symmetry accuracy at 85% or above.<br><br><b>For the letters, do NOT use any external aid (e.g., writing on paper, electronic device).</b><br><br>It is <u>very important</u> to our experiment to have a <b>true</b> view of your real performance.<br><br>Do not worry if you miss some when it gets hard! This task is meant to be very challenging!<br><br>Click the button to begin.</div><br><br><br><br>",0,ospan,starting_real_here,J8mCOYbkt6ZzLRyRYAMYJqvRh5O2,html-button-response,100,948917,0.0-46.0-2.0-3.0,,,,,,,,,,,,,,,5c5844d8dd470300014ee3f1,11:40:40,03/04/2024
,"<p style=""font-size:75px;"">...</p>",,ospan,iti,J8mCOYbkt6ZzLRyRYAMYJqvRh5O2,html-keyboard-response,101,950174,0.0-46.0-3.0-0.0-0.0,,,,,,,,,,,,,,,5c5844d8dd470300014ee3f1,11:40:40,03/04/2024
1724.0,,,ospan,symmetry,J8mCOYbkt6ZzLRyRYAMYJqvRh5O2,symmetry-judgement-task,102,953388,0.0-46.0-3.0-0.0-1.0-0.0,,,,,,,,,,1.0,1.0,,,,5c5844d8dd470300014ee3f1,11:40:40,03/04/2024
,"<div style=""font-size: 10rem; color: #0000FF"">H</div>",,ospan,letter,J8mCOYbkt6ZzLRyRYAMYJqvRh5O2,html-keyboard-response,103,954396,0.0-46.0-3.0-0.0-1.0-1.0,,,,,,,,,,,,,,,5c5844d8dd470300014ee3f1,11:40:40,03/04/2024
1366.0,,,ospan,symmetry,J8mCOYbkt6ZzLRyRYAMYJqvRh5O2,symmetry-judgement-task,104,958044,0.0-46.0-3.0-0.0-1.0-2.0,,,,,,,,,,1.0,1.0,,,,5c5844d8dd470300014ee3f1,11:40:40,03/04/2024
,"<div style=""font-size: 10rem; color: #0000FF"">J</div>",,ospan,letter,J8mCOYbkt6ZzLRyRYAMYJqvRh5O2,html-keyboard-response,105,959053,0.0-46.0-3.0-0.0-1.0-3.0,,,,,,,,,,,,,,,5c5844d8dd470300014ee3f1,11:40:40,03/04/2024
1710.0,,,ospan,symmetry,J8mCOYbkt6ZzLRyRYAMYJqvRh5O2,symmetry-judgement-task,106,963085,0.0-46.0-3.0-0.0-1.0-4.0,,,,,,,,,,1.0,1.0,,,,5c5844d8dd470300014ee3f1,11:40:40,03/04/2024
,"<div style=""font-size: 10rem; color: #0000FF"">Y</div>",,ospan,letter,J8mCOYbkt6ZzLRyRYAMYJqvRh5O2,html-keyboard-response,107,964092,0.0-46.0-3.0-0.0-1.0-5.0,,,,,,,,,,,,,,,5c5844d8dd470300014ee3f1,11:40:40,03/04/2024
4487.799999952316,"<div class = numbox><p style=""font-size: 2.4rem"">Please recall the letters you saw to the best of your ability. If you do not remember a particular letter, use the SKIP button.<br><b>(When you are ready to lock in your answer, press ENTER)</b></p><button id = button_1 class = ""square num-button"" onclick = ""recordClick(this)""><div class = content><div class = numbers>C</div></div></button><button id = button_2 class = ""square num-button"" onclick = ""recordClick(this)""><div class = content><div class = numbers>G</div></div></button><button id = button_3 class = ""square num-button"" onclick = ""recordClick(this)""><div class = content><div class = numbers>H</div></div></button><button id = button_4 class = ""square num-button"" onclick = ""recordClick(this)""><div class = content><div class = numbers>J</div></div></button><button id = button_5 class = ""square num-button"" onclick = ""recordClick(this)""><div class = content><div class = numbers>K</div></div></button><button id = button_6 class = ""square num-button"" onclick = ""recordClick(this)""><div class = content><div class = numbers>L</div></div></button><button id = button_7 class = ""square num-button"" onclick = ""recordClick(this)""><div class = content><div class = numbers>N</div></div></button><button id = button_8 class = ""square num-button"" onclick = ""recordClick(this)""><div class = content><div class = numbers>P</div></div></button><button id = button_9 class = ""square num-button"" onclick = ""recordClick(this)""><div class = content><div class = numbers>Q</div></div></button><button id = button_10 class = ""square num-button"" onclick = ""recordClick(this)""><div class = content><div class = numbers>R</div></div></button><button id = button_11 class = ""square num-button"" onclick = ""recordClick(this)""><div class = content><div class = numbers>S</div></div></button><button id = button_12 class = ""square num-button"" onclick = ""recordClick(this)""><div class = content><div class = numbers>Y</div></div></button><button class = clear_button id = ""ClearButton"" onclick = ""clearResponse()"">BACKSPACE</button><button class = blank_button id = ""BlankButton"" onclick = ""blankResponse()"">SKIP</button><p style=""font-size: 2.4rem""><u><b>Current Answer:</b></u></p><br><br><div id=echoed_txt style=""font-size: 5rem; color:blue;""><b></b></div></div>",enter,ospan,retrieval,J8mCOYbkt6ZzLRyRYAMYJqvRh5O2,html-keyboard-response,108,969338,0.0-46.0-3.0-0.0-2.0,3,3,3,3.0,"[""H"",""J"",""Y""]","[""H"",""J"",""Y""]",1.0,3.0,,,,,,,5c5844d8dd470300014ee3f1,11:40:40,03/04/2024
1426.5999999642372,[''],0,ospan,feedback,J8mCOYbkt6ZzLRyRYAMYJqvRh5O2,html-button-response,109,971280,0.0-46.0-3.0-0.0-3.0,,,,,,,,,,,,100.0,0.0,,5c5844d8dd470300014ee3f1,11:40:40,03/04/2024
,"<p style=""font-size:75px;"">...</p>",,ospan,iti,J8mCOYbkt6ZzLRyRYAMYJqvRh5O2,html-keyboard-response,110,972293,0.0-46.0-4.0-0.0-0.0,,,,,,,,,,,,,,,5c5844d8dd470300014ee3f1,11:40:40,03/04/2024
1715.0,,,ospan,symmetry,J8mCOYbkt6ZzLRyRYAMYJqvRh5O2,symmetry-judgement-task,111,975623,0.0-46.0-4.0-0.0-1.0-0.0,,,,,,,,,,1.0,1.0,,,,5c5844d8dd470300014ee3f1,11:40:40,03/04/2024
,"<div style=""font-size: 10rem; color: #0000FF"">K</div>",,ospan,letter,J8mCOYbkt6ZzLRyRYAMYJqvRh5O2,html-keyboard-response,112,976630,0.0-46.0-4.0-0.0-1.0-1.0,,,,,,,,,,,,,,,5c5844d8dd470300014ee3f1,11:40:40,03/04/2024
1247.0,,,ospan,symmetry,J8mCOYbkt6ZzLRyRYAMYJqvRh5O2,symmetry-judgement-task,113,980203,0.0-46.0-4.0-0.0-1.0-2.0,,,,,,,,,,1.0,1.0,,,,5c5844d8dd470300014ee3f1,11:40:40,03/04/2024
,"<div style=""font-size: 10rem; color: #0000FF"">Q</div>",,ospan,letter,J8mCOYbkt6ZzLRyRYAMYJqvRh5O2,html-keyboard-response,114,981208,0.0-46.0-4.0-0.0-1.0-3.0,,,,,,,,,,,,,,,5c5844d8dd470300014ee3f1,11:40:40,03/04/2024
1993.0,,,ospan,symmetry,J8mCOYbkt6ZzLRyRYAMYJqvRh5O2,symmetry-judgement-task,115,985544,0.0-46.0-4.0-0.0-1.0-4.0,,,,,,,,,,1.0,1.0,,,,5c5844d8dd470300014ee3f1,11:40:40,03/04/2024
,"<div style=""font-size: 10rem; color: #0000FF"">Y</div>",,ospan,letter,J8mCOYbkt6ZzLRyRYAMYJqvRh5O2,html-keyboard-response,116,986560,0.0-46.0-4.0-0.0-1.0-5.0,,,,,,,,,,,,,,,5c5844d8dd470300014ee3f1,11:40:40,03/04/2024
1636.0,,,ospan,symmetry,J8mCOYbkt6ZzLRyRYAMYJqvRh5O2,symmetry-judgement-task,117,990554,0.0-46.0-4.0-0.0-1.0-6.0,,,,,,,,,,1.0,1.0,,,,5c5844d8dd470300014ee3f1,11:40:40,03/04/2024
,"<div style=""font-size: 10rem; color: #0000FF"">R</div>",,ospan,letter,J8mCOYbkt6ZzLRyRYAMYJqvRh5O2,html-keyboard-response,118,991562,0.0-46.0-4.0-0.0-1.0-7.0,,,,,,,,,,,,,,,5c5844d8dd470300014ee3f1,11:40:40,03/04/2024
4988.199999988079,"<div class = numbox><p style=""font-size: 2.4rem"">Please recall the letters you saw to the best of your ability. If you do not remember a particular letter, use the SKIP button.<br><b>(When you are ready to lock in your answer, press ENTER)</b></p><button id = button_1 class = ""square num-button"" onclick = ""recordClick(this)""><div class = content><div class = numbers>C</div></div></button><button id = button_2 class = ""square num-button"" onclick = ""recordClick(this)""><div class = content><div class = numbers>G</div></div></button><button id = button_3 class = ""square num-button"" onclick = ""recordClick(this)""><div class = content><div class = numbers>H</div></div></button><button id = button_4 class = ""square num-button"" onclick = ""recordClick(this)""><div class = content><div class = numbers>J</div></div></button><button id = button_5 class = ""square num-button"" onclick = ""recordClick(this)""><div class = content><div class = numbers>K</div></div></button><button id = button_6 class = ""square num-button"" onclick = ""recordClick(this)""><div class = content><div class = numbers>L</div></div></button><button id = button_7 class = ""square num-button"" onclick = ""recordClick(this)""><div class = content><div class = numbers>N</div></div></button><button id = button_8 class = ""square num-button"" onclick = ""recordClick(this)""><div class = content><div class = numbers>P</div></div></button><button id = button_9 class = ""square num-button"" onclick = ""recordClick(this)""><div class = content><div class = numbers>Q</div></div></button><button id = button_10 class = ""square num-button"" onclick = ""recordClick(this)""><div class = content><div class = numbers>R</div></div></button><button id = button_11 class = ""square num-button"" onclick = ""recordClick(this)""><div class = content><div class = numbers>S</div></div></button><button id = button_12 class = ""square num-button"" onclick = ""recordClick(this)""><div class = content><div class = numbers>Y</div></div></button><button class = clear_button id = ""ClearButton"" onclick = ""clearResponse()"">BACKSPACE</button><button class = blank_button id = ""BlankButton"" onclick = ""blankResponse()"">SKIP</button><p style=""font-size: 2.4rem""><u><b>Current Answer:</b></u></p><br><br><div id=echoed_txt style=""font-size: 5rem; color:blue;""><b></b></div></div>",enter,ospan,retrieval,J8mCOYbkt6ZzLRyRYAMYJqvRh5O2,html-keyboard-response,119,997310,0.0-46.0-4.0-0.0-2.0,7,7,7,4.0,"[""K"",""Q"",""Y"",""R""]","[""K"",""Q"",""Y"",""R""]",1.0,4.0,,,,,,,5c5844d8dd470300014ee3f1,11:40:40,03/04/2024
1226.8999999761581,[''],0,ospan,feedback,J8mCOYbkt6ZzLRyRYAMYJqvRh5O2,html-button-response,120,999049,0.0-46.0-4.0-0.0-3.0,,,,,,,,,,,,100.0,0.0,,5c5844d8dd470300014ee3f1,11:40:40,03/04/2024
,"<p style=""font-size:75px;"">...</p>",,ospan,iti,J8mCOYbkt6ZzLRyRYAMYJqvRh5O2,html-keyboard-response,121,1000064,0.0-46.0-4.0-1.0-0.0,,,,,,,,,,,,,,,5c5844d8dd470300014ee3f1,11:40:40,03/04/2024
1779.0,,,ospan,symmetry,J8mCOYbkt6ZzLRyRYAMYJqvRh5O2,symmetry-judgement-task,122,1003380,0.0-46.0-4.0-1.0-1.0-0.0,,,,,,,,,,1.0,1.0,,,,5c5844d8dd470300014ee3f1,11:40:40,03/04/2024
,"<div style=""font-size: 10rem; color: #0000FF"">H</div>",,ospan,letter,J8mCOYbkt6ZzLRyRYAMYJqvRh5O2,html-keyboard-response,123,1004386,0.0-46.0-4.0-1.0-1.0-1.0,,,,,,,,,,,,,,,5c5844d8dd470300014ee3f1,11:40:40,03/04/2024
1498.0,,,ospan,symmetry,J8mCOYbkt6ZzLRyRYAMYJqvRh5O2,symmetry-judgement-task,124,1008164,0.0-46.0-4.0-1.0-1.0-2.0,,,,,,,,,,1.0,1.0,,,,5c5844d8dd470300014ee3f1,11:40:40,03/04/2024
,"<div style=""font-size: 10rem; color: #0000FF"">J</div>",,ospan,letter,J8mCOYbkt6ZzLRyRYAMYJqvRh5O2,html-keyboard-response,125,1009169,0.0-46.0-4.0-1.0-1.0-3.0,,,,,,,,,,,,,,,5c5844d8dd470300014ee3f1,11:40:40,03/04/2024
1346.0,,,ospan,symmetry,J8mCOYbkt6ZzLRyRYAMYJqvRh5O2,symmetry-judgement-task,126,1012798,0.0-46.0-4.0-1.0-1.0-4.0,,,,,,,,,,1.0,1.0,,,,5c5844d8dd470300014ee3f1,11:40:40,03/04/2024
,"<div style=""font-size: 10rem; color: #0000FF"">G</div>",,ospan,letter,J8mCOYbkt6ZzLRyRYAMYJqvRh5O2,html-keyboard-response,127,1013808,0.0-46.0-4.0-1.0-1.0-5.0,,,,,,,,,,,,,,,5c5844d8dd470300014ee3f1,11:40:40,03/04/2024
1141.0,,,ospan,symmetry,J8mCOYbkt6ZzLRyRYAMYJqvRh5O2,symmetry-judgement-task,128,1017295,0.0-46.0-4.0-1.0-1.0-6.0,,,,,,,,,,1.0,1.0,,,,5c5844d8dd470300014ee3f1,11:40:40,03/04/2024
,"<div style=""font-size: 10rem; color: #0000FF"">Q</div>",,ospan,letter,J8mCOYbkt6ZzLRyRYAMYJqvRh5O2,html-keyboard-response,129,1018299,0.0-46.0-4.0-1.0-1.0-7.0,,,,,,,,,,,,,,,5c5844d8dd470300014ee3f1,11:40:40,03/04/2024
1711.0,,,ospan,symmetry,J8mCOYbkt6ZzLRyRYAMYJqvRh5O2,symmetry-judgement-task,130,1022359,0.0-46.0-4.0-1.0-1.0-8.0,,,,,,,,,,1.0,1.0,,,,5c5844d8dd470300014ee3f1,11:40:40,03/04/2024
,"<div style=""font-size: 10rem; color: #0000FF"">S</div>",,ospan,letter,J8mCOYbkt6ZzLRyRYAMYJqvRh5O2,html-keyboard-response,131,1023379,0.0-46.0-4.0-1.0-1.0-9.0,,,,,,,,,,,,,,,5c5844d8dd470300014ee3f1,11:40:40,03/04/2024
6084.199999988079,"<div class = numbox><p style=""font-size: 2.4rem"">Please recall the letters you saw to the best of your ability. If you do not remember a particular letter, use the SKIP button.<br><b>(When you are ready to lock in your answer, press ENTER)</b></p><button id = button_1 class = ""square num-button"" onclick = ""recordClick(this)""><div class = content><div class = numbers>C</div></div></button><button id = button_2 class = ""square num-button"" onclick = ""recordClick(this)""><div class = content><div class = numbers>G</div></div></button><button id = button_3 class = ""square num-button"" onclick = ""recordClick(this)""><div class = content><div class = numbers>H</div></div></button><button id = button_4 class = ""square num-button"" onclick = ""recordClick(this)""><div class = content><div class = numbers>J</div></div></button><button id = button_5 class = ""square num-button"" onclick = ""recordClick(this)""><div class = content><div class = numbers>K</div></div></button><button id = button_6 class = ""square num-button"" onclick = ""recordClick(this)""><div class = content><div class = numbers>L</div></div></button><button id = button_7 class = ""square num-button"" onclick = ""recordClick(this)""><div class = content><div class = numbers>N</div></div></button><button id = button_8 class = ""square num-button"" onclick = ""recordClick(this)""><div class = content><div class = numbers>P</div></div></button><button id = button_9 class = ""square num-button"" onclick = ""recordClick(this)""><div class = content><div class = numbers>Q</div></div></button><button id = button_10 class = ""square num-button"" onclick = ""recordClick(this)""><div class = content><div class = numbers>R</div></div></button><button id = button_11 class = ""square num-button"" onclick = ""recordClick(this)""><div class = content><div class = numbers>S</div></div></button><button id = button_12 class = ""square num-button"" onclick = ""recordClick(this)""><div class = content><div class = numbers>Y</div></div></button><button class = clear_button id = ""ClearButton"" onclick = ""clearResponse()"">BACKSPACE</button><button class = blank_button id = ""BlankButton"" onclick = ""blankResponse()"">SKIP</button><p style=""font-size: 2.4rem""><u><b>Current Answer:</b></u></p><br><br><div id=echoed_txt style=""font-size: 5rem; color:blue;""><b></b></div></div>",enter,ospan,retrieval,J8mCOYbkt6ZzLRyRYAMYJqvRh5O2,html-keyboard-response,132,1030221,0.0-46.0-4.0-1.0-2.0,12,12,12,5.0,"[""H"",""J"",""G"",""Q"",""S""]","[""H"",""J"",""G"",""Q"",""S""]",1.0,5.0,,,,,,,5c5844d8dd470300014ee3f1,11:40:40,03/04/2024
3350.100000023842,[''],0,ospan,feedback,J8mCOYbkt6ZzLRyRYAMYJqvRh5O2,html-button-response,133,1034083,0.0-46.0-4.0-1.0-3.0,,,,,,,,,,,,100.0,0.0,,5c5844d8dd470300014ee3f1,11:40:40,03/04/2024
,"<p style=""font-size:75px;"">...</p>",,ospan,iti,J8mCOYbkt6ZzLRyRYAMYJqvRh5O2,html-keyboard-response,134,1035096,0.0-46.0-4.0-2.0-0.0,,,,,,,,,,,,,,,5c5844d8dd470300014ee3f1,11:40:40,03/04/2024
1813.0,,,ospan,symmetry,J8mCOYbkt6ZzLRyRYAMYJqvRh5O2,symmetry-judgement-task,135,1038088,0.0-46.0-4.0-2.0-1.0-0.0,,,,,,,,,,1.0,1.0,,,,5c5844d8dd470300014ee3f1,11:40:40,03/04/2024
,"<div style=""font-size: 10rem; color: #0000FF"">H</div>",,ospan,letter,J8mCOYbkt6ZzLRyRYAMYJqvRh5O2,html-keyboard-response,136,1039094,0.0-46.0-4.0-2.0-1.0-1.0,,,,,,,,,,,,,,,5c5844d8dd470300014ee3f1,11:40:40,03/04/2024
2725.0,,,ospan,symmetry,J8mCOYbkt6ZzLRyRYAMYJqvRh5O2,symmetry-judgement-task,137,1044112,0.0-46.0-4.0-2.0-1.0-2.0,,,,,,,,,,1.0,1.0,,,,5c5844d8dd470300014ee3f1,11:40:40,03/04/2024
,"<div style=""font-size: 10rem; color: #0000FF"">N</div>",,ospan,letter,J8mCOYbkt6ZzLRyRYAMYJqvRh5O2,html-keyboard-response,138,1045118,0.0-46.0-4.0-2.0-1.0-3.0,,,,,,,,,,,,,,,5c5844d8dd470300014ee3f1,11:40:40,03/04/2024
1454.0,,,ospan,symmetry,J8mCOYbkt6ZzLRyRYAMYJqvRh5O2,symmetry-judgement-task,139,1049086,0.0-46.0-4.0-2.0-1.0-4.0,,,,,,,,,,1.0,1.0,,,,5c5844d8dd470300014ee3f1,11:40:40,03/04/2024
,"<div style=""font-size: 10rem; color: #0000FF"">S</div>",,ospan,letter,J8mCOYbkt6ZzLRyRYAMYJqvRh5O2,html-keyboard-response,140,1050096,0.0-46.0-4.0-2.0-1.0-5.0,,,,,,,,,,,,,,,5c5844d8dd470300014ee3f1,11:40:40,03/04/2024
3770.399999976158,"<div class = numbox><p style=""font-size: 2.4rem"">Please recall the letters you saw to the best of your ability. If you do not remember a particular letter, use the SKIP button.<br><b>(When you are ready to lock in your answer, press ENTER)</b></p><button id = button_1 class = ""square num-button"" onclick = ""recordClick(this)""><div class = content><div class = numbers>C</div></div></button><button id = button_2 class = ""square num-button"" onclick = ""recordClick(this)""><div class = content><div class = numbers>G</div></div></button><button id = button_3 class = ""square num-button"" onclick = ""recordClick(this)""><div class = content><div class = numbers>H</div></div></button><button id = button_4 class = ""square num-button"" onclick = ""recordClick(this)""><div class = content><div class = numbers>J</div></div></button><button id = button_5 class = ""square num-button"" onclick = ""recordClick(this)""><div class = content><div class = numbers>K</div></div></button><button id = button_6 class = ""square num-button"" onclick = ""recordClick(this)""><div class = content><div class = numbers>L</div></div></button><button id = button_7 class = ""square num-button"" onclick = ""recordClick(this)""><div class = content><div class = numbers>N</div></div></button><button id = button_8 class = ""square num-button"" onclick = ""recordClick(this)""><div class = content><div class = numbers>P</div></div></button><button id = button_9 class = ""square num-button"" onclick = ""recordClick(this)""><div class = content><div class = numbers>Q</div></div></button><button id = button_10 class = ""square num-button"" onclick = ""recordClick(this)""><div class = content><div class = numbers>R</div></div></button><button id = button_11 class = ""square num-button"" onclick = ""recordClick(this)""><div class = content><div class = numbers>S</div></div></button><button id = button_12 class = ""square num-button"" onclick = ""recordClick(this)""><div class = content><div class = numbers>Y</div></div></button><button class = clear_button id = ""ClearButton"" onclick = ""clearResponse()"">BACKSPACE</button><button class = blank_button id = ""BlankButton"" onclick = ""blankResponse()"">SKIP</button><p style=""font-size: 2.4rem""><u><b>Current Answer:</b></u></p><br><br><div id=echoed_txt style=""font-size: 5rem; color:blue;""><b></b></div></div>",enter,ospan,retrieval,J8mCOYbkt6ZzLRyRYAMYJqvRh5O2,html-keyboard-response,141,1054624,0.0-46.0-4.0-2.0-2.0,15,15,15,3.0,"[""H"",""N"",""S""]","[""H"",""N"",""S""]",1.0,3.0,,,,,,,5c5844d8dd470300014ee3f1,11:40:40,03/04/2024
1164.9000000357628,[''],0,ospan,feedback,J8mCOYbkt6ZzLRyRYAMYJqvRh5O2,html-button-response,142,1056293,0.0-46.0-4.0-2.0-3.0,,,,,,,,,,,,100.0,0.0,,5c5844d8dd470300014ee3f1,11:40:40,03/04/2024
,"<p style=""font-size:75px;"">...</p>",,ospan,iti,J8mCOYbkt6ZzLRyRYAMYJqvRh5O2,html-keyboard-response,143,1057307,0.0-46.0-5.0-0.0-0.0,,,,,,,,,,,,,,,5c5844d8dd470300014ee3f1,11:40:40,03/04/2024
1444.0,,,ospan,symmetry,J8mCOYbkt6ZzLRyRYAMYJqvRh5O2,symmetry-judgement-task,144,1060264,0.0-46.0-5.0-0.0-1.0-0.0,,,,,,,,,,1.0,1.0,,,,5c5844d8dd470300014ee3f1,11:40:40,03/04/2024
,"<div style=""font-size: 10rem; color: #0000FF"">N</div>",,ospan,letter,J8mCOYbkt6ZzLRyRYAMYJqvRh5O2,html-keyboard-response,145,1061282,0.0-46.0-5.0-0.0-1.0-1.0,,,,,,,,,,,,,,,5c5844d8dd470300014ee3f1,11:40:40,03/04/2024
1547.0,,,ospan,symmetry,J8mCOYbkt6ZzLRyRYAMYJqvRh5O2,symmetry-judgement-task,146,1065047,0.0-46.0-5.0-0.0-1.0-2.0,,,,,,,,,,1.0,1.0,,,,5c5844d8dd470300014ee3f1,11:40:40,03/04/2024
,"<div style=""font-size: 10rem; color: #0000FF"">J</div>",,ospan,letter,J8mCOYbkt6ZzLRyRYAMYJqvRh5O2,html-keyboard-response,147,1066055,0.0-46.0-5.0-0.0-1.0-3.0,,,,,,,,,,,,,,,5c5844d8dd470300014ee3f1,11:40:40,03/04/2024
1390.0,,,ospan,symmetry,J8mCOYbkt6ZzLRyRYAMYJqvRh5O2,symmetry-judgement-task,148,1069786,0.0-46.0-5.0-0.0-1.0-4.0,,,,,,,,,,1.0,1.0,,,,5c5844d8dd470300014ee3f1,11:40:40,03/04/2024
,"<div style=""font-size: 10rem; color: #0000FF"">R</div>",,ospan,letter,J8mCOYbkt6ZzLRyRYAMYJqvRh5O2,html-keyboard-response,149,1070799,0.0-46.0-5.0-0.0-1.0-5.0,,,,,,,,,,,,,,,5c5844d8dd470300014ee3f1,11:40:40,03/04/2024
1798.0,,,ospan,symmetry,J8mCOYbkt6ZzLRyRYAMYJqvRh5O2,symmetry-judgement-task,150,1075000,0.0-46.0-5.0-0.0-1.0-6.0,,,,,,,,,,1.0,1.0,,,,5c5844d8dd470300014ee3f1,11:40:40,03/04/2024
,"<div style=""font-size: 10rem; color: #0000FF"">S</div>",,ospan,letter,J8mCOYbkt6ZzLRyRYAMYJqvRh5O2,html-keyboard-response,151,1076004,0.0-46.0-5.0-0.0-1.0-7.0,,,,,,,,,,,,,,,5c5844d8dd470300014ee3f1,11:40:40,03/04/2024
1271.0,,,ospan,symmetry,J8mCOYbkt6ZzLRyRYAMYJqvRh5O2,symmetry-judgement-task,152,1079579,0.0-46.0-5.0-0.0-1.0-8.0,,,,,,,,,,1.0,1.0,,,,5c5844d8dd470300014ee3f1,11:40:40,03/04/2024
,"<div style=""font-size: 10rem; color: #0000FF"">K</div>",,ospan,letter,J8mCOYbkt6ZzLRyRYAMYJqvRh5O2,html-keyboard-response,153,1080583,0.0-46.0-5.0-0.0-1.0-9.0,,,,,,,,,,,,,,,5c5844d8dd470300014ee3f1,11:40:40,03/04/2024
1481.0,,,ospan,symmetry,J8mCOYbkt6ZzLRyRYAMYJqvRh5O2,symmetry-judgement-task,154,1084383,0.0-46.0-5.0-0.0-1.0-10.0,,,,,,,,,,1.0,1.0,,,,5c5844d8dd470300014ee3f1,11:40:40,03/04/2024
,"<div style=""font-size: 10rem; color: #0000FF"">Y</div>",,ospan,letter,J8mCOYbkt6ZzLRyRYAMYJqvRh5O2,html-keyboard-response,155,1085400,0.0-46.0-5.0-0.0-1.0-11.0,,,,,,,,,,,,,,,5c5844d8dd470300014ee3f1,11:40:40,03/04/2024
7267.300000011921,"<div class = numbox><p style=""font-size: 2.4rem"">Please recall the letters you saw to the best of your ability. If you do not remember a particular letter, use the SKIP button.<br><b>(When you are ready to lock in your answer, press ENTER)</b></p><button id = button_1 class = ""square num-button"" onclick = ""recordClick(this)""><div class = content><div class = numbers>C</div></div></button><button id = button_2 class = ""square num-button"" onclick = ""recordClick(this)""><div class = content><div class = numbers>G</div></div></button><button id = button_3 class = ""square num-button"" onclick = ""recordClick(this)""><div class = content><div class = numbers>H</div></div></button><button id = button_4 class = ""square num-button"" onclick = ""recordClick(this)""><div class = content><div class = numbers>J</div></div></button><button id = button_5 class = ""square num-button"" onclick = ""recordClick(this)""><div class = content><div class = numbers>K</div></div></button><button id = button_6 class = ""square num-button"" onclick = ""recordClick(this)""><div class = content><div class = numbers>L</div></div></button><button id = button_7 class = ""square num-button"" onclick = ""recordClick(this)""><div class = content><div class = numbers>N</div></div></button><button id = button_8 class = ""square num-button"" onclick = ""recordClick(this)""><div class = content><div class = numbers>P</div></div></button><button id = button_9 class = ""square num-button"" onclick = ""recordClick(this)""><div class = content><div class = numbers>Q</div></div></button><button id = button_10 class = ""square num-button"" onclick = ""recordClick(this)""><div class = content><div class = numbers>R</div></div></button><button id = button_11 class = ""square num-button"" onclick = ""recordClick(this)""><div class = content><div class = numbers>S</div></div></button><button id = button_12 class = ""square num-button"" onclick = ""recordClick(this)""><div class = content><div class = numbers>Y</div></div></button><button class = clear_button id = ""ClearButton"" onclick = ""clearResponse()"">BACKSPACE</button><button class = blank_button id = ""BlankButton"" onclick = ""blankResponse()"">SKIP</button><p style=""font-size: 2.4rem""><u><b>Current Answer:</b></u></p><br><br><div id=echoed_txt style=""font-size: 5rem; color:blue;""><b></b></div></div>",enter,ospan,retrieval,J8mCOYbkt6ZzLRyRYAMYJqvRh5O2,html-keyboard-response,156,1093431,0.0-46.0-5.0-0.0-2.0,21,21,21,6.0,"[""N"",""J"",""R"",""S"",""K"",""Y""]","[""N"",""J"",""R"",""S"",""K"",""Y""]",1.0,6.0,,,,,,,5c5844d8dd470300014ee3f1,11:40:40,03/04/2024
2525.0,[''],0,ospan,feedback,J8mCOYbkt6ZzLRyRYAMYJqvRh5O2,html-button-response,157,1096462,0.0-46.0-5.0-0.0-3.0,,,,,,,,,,,,100.0,0.0,,5c5844d8dd470300014ee3f1,11:40:40,03/04/2024
,"<p style=""font-size:75px;"">...</p>",,ospan,iti,J8mCOYbkt6ZzLRyRYAMYJqvRh5O2,html-keyboard-response,158,1097480,0.0-46.0-5.0-1.0-0.0,,,,,,,,,,,,,,,5c5844d8dd470300014ee3f1,11:40:40,03/04/2024
1393.0,,,ospan,symmetry,J8mCOYbkt6ZzLRyRYAMYJqvRh5O2,symmetry-judgement-task,159,1100434,0.0-46.0-5.0-1.0-1.0-0.0,,,,,,,,,,1.0,1.0,,,,5c5844d8dd470300014ee3f1,11:40:40,03/04/2024
,"<div style=""font-size: 10rem; color: #0000FF"">G</div>",,ospan,letter,J8mCOYbkt6ZzLRyRYAMYJqvRh5O2,html-keyboard-response,160,1101439,0.0-46.0-5.0-1.0-1.0-1.0,,,,,,,,,,,,,,,5c5844d8dd470300014ee3f1,11:40:40,03/04/2024
1311.0,,,ospan,symmetry,J8mCOYbkt6ZzLRyRYAMYJqvRh5O2,symmetry-judgement-task,161,1104996,0.0-46.0-5.0-1.0-1.0-2.0,,,,,,,,,,1.0,1.0,,,,5c5844d8dd470300014ee3f1,11:40:40,03/04/2024
,"<div style=""font-size: 10rem; color: #0000FF"">Y</div>",,ospan,letter,J8mCOYbkt6ZzLRyRYAMYJqvRh5O2,html-keyboard-response,162,1106003,0.0-46.0-5.0-1.0-1.0-3.0,,,,,,,,,,,,,,,5c5844d8dd470300014ee3f1,11:40:40,03/04/2024
1653.0,,,ospan,symmetry,J8mCOYbkt6ZzLRyRYAMYJqvRh5O2,symmetry-judgement-task,163,1109983,0.0-46.0-5.0-1.0-1.0-4.0,,,,,,,,,,1.0,1.0,,,,5c5844d8dd470300014ee3f1,11:40:40,03/04/2024
,"<div style=""font-size: 10rem; color: #0000FF"">R</div>",,ospan,letter,J8mCOYbkt6ZzLRyRYAMYJqvRh5O2,html-keyboard-response,164,1110988,0.0-46.0-5.0-1.0-1.0-5.0,,,,,,,,,,,,,,,5c5844d8dd470300014ee3f1,11:40:40,03/04/2024
1329.0,,,ospan,symmetry,J8mCOYbkt6ZzLRyRYAMYJqvRh5O2,symmetry-judgement-task,165,1114622,0.0-46.0-5.0-1.0-1.0-6.0,,,,,,,,,,1.0,1.0,,,,5c5844d8dd470300014ee3f1,11:40:40,03/04/2024
,"<div style=""font-size: 10rem; color: #0000FF"">L</div>",,ospan,letter,J8mCOYbkt6ZzLRyRYAMYJqvRh5O2,html-keyboard-response,166,1115628,0.0-46.0-5.0-1.0-1.0-7.0,,,,,,,,,,,,,,,5c5844d8dd470300014ee3f1,11:40:40,03/04/2024
1661.0,,,ospan,symmetry,J8mCOYbkt6ZzLRyRYAMYJqvRh5O2,symmetry-judgement-task,167,1119616,0.0-46.0-5.0-1.0-1.0-8.0,,,,,,,,,,1.0,1.0,,,,5c5844d8dd470300014ee3f1,11:40:40,03/04/2024
,"<div style=""font-size: 10rem; color: #0000FF"">P</div>",,ospan,letter,J8mCOYbkt6ZzLRyRYAMYJqvRh5O2,html-keyboard-response,168,1120619,0.0-46.0-5.0-1.0-1.0-9.0,,,,,,,,,,,,,,,5c5844d8dd470300014ee3f1,11:40:40,03/04/2024
1142.0,,,ospan,symmetry,J8mCOYbkt6ZzLRyRYAMYJqvRh5O2,symmetry-judgement-task,169,1124084,0.0-46.0-5.0-1.0-1.0-10.0,,,,,,,,,,1.0,1.0,,,,5c5844d8dd470300014ee3f1,11:40:40,03/04/2024
,"<div style=""font-size: 10rem; color: #0000FF"">H</div>",,ospan,letter,J8mCOYbkt6ZzLRyRYAMYJqvRh5O2,html-keyboard-response,170,1125092,0.0-46.0-5.0-1.0-1.0-11.0,,,,,,,,,,,,,,,5c5844d8dd470300014ee3f1,11:40:40,03/04/2024
1894.0,,,ospan,symmetry,J8mCOYbkt6ZzLRyRYAMYJqvRh5O2,symmetry-judgement-task,171,1129334,0.0-46.0-5.0-1.0-1.0-12.0,,,,,,,,,,1.0,1.0,,,,5c5844d8dd470300014ee3f1,11:40:40,03/04/2024
,"<div style=""font-size: 10rem; color: #0000FF"">N</div>",,ospan,letter,J8mCOYbkt6ZzLRyRYAMYJqvRh5O2,html-keyboard-response,172,1130342,0.0-46.0-5.0-1.0-1.0-13.0,,,,,,,,,,,,,,,5c5844d8dd470300014ee3f1,11:40:40,03/04/2024
8469.899999976158,"<div class = numbox><p style=""font-size: 2.4rem"">Please recall the letters you saw to the best of your ability. If you do not remember a particular letter, use the SKIP button.<br><b>(When you are ready to lock in your answer, press ENTER)</b></p><button id = button_1 class = ""square num-button"" onclick = ""recordClick(this)""><div class = content><div class = numbers>C</div></div></button><button id = button_2 class = ""square num-button"" onclick = ""recordClick(this)""><div class = content><div class = numbers>G</div></div></button><button id = button_3 class = ""square num-button"" onclick = ""recordClick(this)""><div class = content><div class = numbers>H</div></div></button><button id = button_4 class = ""square num-button"" onclick = ""recordClick(this)""><div class = content><div class = numbers>J</div></div></button><button id = button_5 class = ""square num-button"" onclick = ""recordClick(this)""><div class = content><div class = numbers>K</div></div></button><button id = button_6 class = ""square num-button"" onclick = ""recordClick(this)""><div class = content><div class = numbers>L</div></div></button><button id = button_7 class = ""square num-button"" onclick = ""recordClick(this)""><div class = content><div class = numbers>N</div></div></button><button id = button_8 class = ""square num-button"" onclick = ""recordClick(this)""><div class = content><div class = numbers>P</div></div></button><button id = button_9 class = ""square num-button"" onclick = ""recordClick(this)""><div class = content><div class = numbers>Q</div></div></button><button id = button_10 class = ""square num-button"" onclick = ""recordClick(this)""><div class = content><div class = numbers>R</div></div></button><button id = button_11 class = ""square num-button"" onclick = ""recordClick(this)""><div class = content><div class = numbers>S</div></div></button><button id = button_12 class = ""square num-button"" onclick = ""recordClick(this)""><div class = content><div class = numbers>Y</div></div></button><button class = clear_button id = ""ClearButton"" onclick = ""clearResponse()"">BACKSPACE</button><button class = blank_button id = ""BlankButton"" onclick = ""blankResponse()"">SKIP</button><p style=""font-size: 2.4rem""><u><b>Current Answer:</b></u></p><br><br><div id=echoed_txt style=""font-size: 5rem; color:blue;""><b></b></div></div>",enter,ospan,retrieval,J8mCOYbkt6ZzLRyRYAMYJqvRh5O2,html-keyboard-response,173,1139569,0.0-46.0-5.0-1.0-2.0,28,28,28,7.0,"[""G"",""Y"",""R"",""L"",""P"",""H"",""N""]","[""G"",""Y"",""R"",""L"",""P"",""H"",""N""]",1.0,7.0,,,,,,,5c5844d8dd470300014ee3f1,11:40:40,03/04/2024
1337.699999988079,[''],0,ospan,feedback,J8mCOYbkt6ZzLRyRYAMYJqvRh5O2,html-button-response,174,1141412,0.0-46.0-5.0-1.0-3.0,,,,,,,,,,,,100.0,0.0,,5c5844d8dd470300014ee3f1,11:40:40,03/04/2024
,"<p style=""font-size:75px;"">...</p>",,ospan,iti,J8mCOYbkt6ZzLRyRYAMYJqvRh5O2,html-keyboard-response,175,1142425,0.0-46.0-6.0-0.0-0.0,,,,,,,,,,,,,,,5c5844d8dd470300014ee3f1,11:40:40,03/04/2024
1356.0,,,ospan,symmetry,J8mCOYbkt6ZzLRyRYAMYJqvRh5O2,symmetry-judgement-task,176,1145262,0.0-46.0-6.0-0.0-1.0-0.0,,,,,,,,,,1.0,1.0,,,,5c5844d8dd470300014ee3f1,11:40:40,03/04/2024
,"<div style=""font-size: 10rem; color: #0000FF"">Q</div>",,ospan,letter,J8mCOYbkt6ZzLRyRYAMYJqvRh5O2,html-keyboard-response,177,1146266,0.0-46.0-6.0-0.0-1.0-1.0,,,,,,,,,,,,,,,5c5844d8dd470300014ee3f1,11:40:40,03/04/2024
1465.0,,,ospan,symmetry,J8mCOYbkt6ZzLRyRYAMYJqvRh5O2,symmetry-judgement-task,178,1149949,0.0-46.0-6.0-0.0-1.0-2.0,,,,,,,,,,1.0,1.0,,,,5c5844d8dd470300014ee3f1,11:40:40,03/04/2024
,"<div style=""font-size: 10rem; color: #0000FF"">S</div>",,ospan,letter,J8mCOYbkt6ZzLRyRYAMYJqvRh5O2,html-keyboard-response,179,1150960,0.0-46.0-6.0-0.0-1.0-3.0,,,,,,,,,,,,,,,5c5844d8dd470300014ee3f1,11:40:40,03/04/2024
1076.0,,,ospan,symmetry,J8mCOYbkt6ZzLRyRYAMYJqvRh5O2,symmetry-judgement-task,180,1154280,0.0-46.0-6.0-0.0-1.0-4.0,,,,,,,,,,1.0,1.0,,,,5c5844d8dd470300014ee3f1,11:40:40,03/04/2024
,"<div style=""font-size: 10rem; color: #0000FF"">R</div>",,ospan,letter,J8mCOYbkt6ZzLRyRYAMYJqvRh5O2,html-keyboard-response,181,1155283,0.0-46.0-6.0-0.0-1.0-5.0,,,,,,,,,,,,,,,5c5844d8dd470300014ee3f1,11:40:40,03/04/2024
920.0,,,ospan,symmetry,J8mCOYbkt6ZzLRyRYAMYJqvRh5O2,symmetry-judgement-task,182,1158562,0.0-46.0-6.0-0.0-1.0-6.0,,,,,,,,,,1.0,1.0,,,,5c5844d8dd470300014ee3f1,11:40:40,03/04/2024
,"<div style=""font-size: 10rem; color: #0000FF"">G</div>",,ospan,letter,J8mCOYbkt6ZzLRyRYAMYJqvRh5O2,html-keyboard-response,183,1159569,0.0-46.0-6.0-0.0-1.0-7.0,,,,,,,,,,,,,,,5c5844d8dd470300014ee3f1,11:40:40,03/04/2024
1910.0,,,ospan,symmetry,J8mCOYbkt6ZzLRyRYAMYJqvRh5O2,symmetry-judgement-task,184,1163820,0.0-46.0-6.0-0.0-1.0-8.0,,,,,,,,,,1.0,1.0,,,,5c5844d8dd470300014ee3f1,11:40:40,03/04/2024
,"<div style=""font-size: 10rem; color: #0000FF"">J</div>",,ospan,letter,J8mCOYbkt6ZzLRyRYAMYJqvRh5O2,html-keyboard-response,185,1164824,0.0-46.0-6.0-0.0-1.0-9.0,,,,,,,,,,,,,,,5c5844d8dd470300014ee3f1,11:40:40,03/04/2024
7432.600000023842,"<div class = numbox><p style=""font-size: 2.4rem"">Please recall the letters you saw to the best of your ability. If you do not remember a particular letter, use the SKIP button.<br><b>(When you are ready to lock in your answer, press ENTER)</b></p><button id = button_1 class = ""square num-button"" onclick = ""recordClick(this)""><div class = content><div class = numbers>C</div></div></button><button id = button_2 class = ""square num-button"" onclick = ""recordClick(this)""><div class = content><div class = numbers>G</div></div></button><button id = button_3 class = ""square num-button"" onclick = ""recordClick(this)""><div class = content><div class = numbers>H</div></div></button><button id = button_4 class = ""square num-button"" onclick = ""recordClick(this)""><div class = content><div class = numbers>J</div></div></button><button id = button_5 class = ""square num-button"" onclick = ""recordClick(this)""><div class = content><div class = numbers>K</div></div></button><button id = button_6 class = ""square num-button"" onclick = ""recordClick(this)""><div class = content><div class = numbers>L</div></div></button><button id = button_7 class = ""square num-button"" onclick = ""recordClick(this)""><div class = content><div class = numbers>N</div></div></button><button id = button_8 class = ""square num-button"" onclick = ""recordClick(this)""><div class = content><div class = numbers>P</div></div></button><button id = button_9 class = ""square num-button"" onclick = ""recordClick(this)""><div class = content><div class = numbers>Q</div></div></button><button id = button_10 class = ""square num-button"" onclick = ""recordClick(this)""><div class = content><div class = numbers>R</div></div></button><button id = button_11 class = ""square num-button"" onclick = ""recordClick(this)""><div class = content><div class = numbers>S</div></div></button><button id = button_12 class = ""square num-button"" onclick = ""recordClick(this)""><div class = content><div class = numbers>Y</div></div></button><button class = clear_button id = ""ClearButton"" onclick = ""clearResponse()"">BACKSPACE</button><button class = blank_button id = ""BlankButton"" onclick = ""blankResponse()"">SKIP</button><p style=""font-size: 2.4rem""><u><b>Current Answer:</b></u></p><br><br><div id=echoed_txt style=""font-size: 5rem; color:blue;""><b></b></div></div>",enter,ospan,retrieval,J8mCOYbkt6ZzLRyRYAMYJqvRh5O2,html-keyboard-response,186,1173018,0.0-46.0-6.0-0.0-2.0,33,33,33,5.0,"[""Q"",""S"",""R"",""G"",""J""]","[""Q"",""S"",""R"",""G"",""J""]",1.0,5.0,,,,,,,5c5844d8dd470300014ee3f1,11:40:40,03/04/2024
1141.6000000238419,[''],0,ospan,feedback,J8mCOYbkt6ZzLRyRYAMYJqvRh5O2,html-button-response,187,1174671,0.0-46.0-6.0-0.0-3.0,,,,,,,,,,,,100.0,0.0,,5c5844d8dd470300014ee3f1,11:40:40,03/04/2024
,"<p style=""font-size:75px;"">...</p>",,ospan,iti,J8mCOYbkt6ZzLRyRYAMYJqvRh5O2,html-keyboard-response,188,1175678,0.0-46.0-6.0-1.0-0.0,,,,,,,,,,,,,,,5c5844d8dd470300014ee3f1,11:40:40,03/04/2024
1629.0,,,ospan,symmetry,J8mCOYbkt6ZzLRyRYAMYJqvRh5O2,symmetry-judgement-task,189,1178814,0.0-46.0-6.0-1.0-1.0-0.0,,,,,,,,,,1.0,1.0,,,,5c5844d8dd470300014ee3f1,11:40:40,03/04/2024
,"<div style=""font-size: 10rem; color: #0000FF"">P</div>",,ospan,letter,J8mCOYbkt6ZzLRyRYAMYJqvRh5O2,html-keyboard-response,190,1179819,0.0-46.0-6.0-1.0-1.0-1.0,,,,,,,,,,,,,,,5c5844d8dd470300014ee3f1,11:40:40,03/04/2024
1335.0,,,ospan,symmetry,J8mCOYbkt6ZzLRyRYAMYJqvRh5O2,symmetry-judgement-task,191,1183398,0.0-46.0-6.0-1.0-1.0-2.0,,,,,,,,,,1.0,1.0,,,,5c5844d8dd470300014ee3f1,11:40:40,03/04/2024
,"<div style=""font-size: 10rem; color: #0000FF"">N</div>",,ospan,letter,J8mCOYbkt6ZzLRyRYAMYJqvRh5O2,html-keyboard-response,192,1184415,0.0-46.0-6.0-1.0-1.0-3.0,,,,,,,,,,,,,,,5c5844d8dd470300014ee3f1,11:40:40,03/04/2024
1957.0,,,ospan,symmetry,J8mCOYbkt6ZzLRyRYAMYJqvRh5O2,symmetry-judgement-task,193,1188600,0.0-46.0-6.0-1.0-1.0-4.0,,,,,,,,,,1.0,1.0,,,,5c5844d8dd470300014ee3f1,11:40:40,03/04/2024
,"<div style=""font-size: 10rem; color: #0000FF"">S</div>",,ospan,letter,J8mCOYbkt6ZzLRyRYAMYJqvRh5O2,html-keyboard-response,194,1189618,0.0-46.0-6.0-1.0-1.0-5.0,,,,,,,,,,,,,,,5c5844d8dd470300014ee3f1,11:40:40,03/04/2024
1267.0,,,ospan,symmetry,J8mCOYbkt6ZzLRyRYAMYJqvRh5O2,symmetry-judgement-task,195,1193134,0.0-46.0-6.0-1.0-1.0-6.0,,,,,,,,,,1.0,1.0,,,,5c5844d8dd470300014ee3f1,11:40:40,03/04/2024
,"<div style=""font-size: 10rem; color: #0000FF"">Y</div>",,ospan,letter,J8mCOYbkt6ZzLRyRYAMYJqvRh5O2,html-keyboard-response,196,1194139,0.0-46.0-6.0-1.0-1.0-7.0,,,,,,,,,,,,,,,5c5844d8dd470300014ee3f1,11:40:40,03/04/2024
1816.0,,,ospan,symmetry,J8mCOYbkt6ZzLRyRYAMYJqvRh5O2,symmetry-judgement-task,197,1198301,0.0-46.0-6.0-1.0-1.0-8.0,,,,,,,,,,1.0,1.0,,,,5c5844d8dd470300014ee3f1,11:40:40,03/04/2024
,"<div style=""font-size: 10rem; color: #0000FF"">L</div>",,ospan,letter,J8mCOYbkt6ZzLRyRYAMYJqvRh5O2,html-keyboard-response,198,1199304,0.0-46.0-6.0-1.0-1.0-9.0,,,,,,,,,,,,,,,5c5844d8dd470300014ee3f1,11:40:40,03/04/2024
1097.0,,,ospan,symmetry,J8mCOYbkt6ZzLRyRYAMYJqvRh5O2,symmetry-judgement-task,199,1202645,0.0-46.0-6.0-1.0-1.0-10.0,,,,,,,,,,1.0,1.0,,,,5c5844d8dd470300014ee3f1,11:40:40,03/04/2024
,"<div style=""font-size: 10rem; color: #0000FF"">K</div>",,ospan,letter,J8mCOYbkt6ZzLRyRYAMYJqvRh5O2,html-keyboard-response,200,1203648,0.0-46.0-6.0-1.0-1.0-11.0,,,,,,,,,,,,,,,5c5844d8dd470300014ee3f1,11:40:40,03/04/2024
1944.0,,,ospan,symmetry,J8mCOYbkt6ZzLRyRYAMYJqvRh5O2,symmetry-judgement-task,201,1207866,0.0-46.0-6.0-1.0-1.0-12.0,,,,,,,,,,1.0,1.0,,,,5c5844d8dd470300014ee3f1,11:40:40,03/04/2024
,"<div style=""font-size: 10rem; color: #0000FF"">C</div>",,ospan,letter,J8mCOYbkt6ZzLRyRYAMYJqvRh5O2,html-keyboard-response,202,1208872,0.0-46.0-6.0-1.0-1.0-13.0,,,,,,,,,,,,,,,5c5844d8dd470300014ee3f1,11:40:40,03/04/2024
1800.0,,,ospan,symmetry,J8mCOYbkt6ZzLRyRYAMYJqvRh5O2,symmetry-judgement-task,203,1213008,0.0-46.0-6.0-1.0-1.0-14.0,,,,,,,,,,1.0,1.0,,,,5c5844d8dd470300014ee3f1,11:40:40,03/04/2024
,"<div style=""font-size: 10rem; color: #0000FF"">R</div>",,ospan,letter,J8mCOYbkt6ZzLRyRYAMYJqvRh5O2,html-keyboard-response,204,1214016,0.0-46.0-6.0-1.0-1.0-15.0,,,,,,,,,,,,,,,5c5844d8dd470300014ee3f1,11:40:40,03/04/2024
11991.800000011921,"<div class = numbox><p style=""font-size: 2.4rem"">Please recall the letters you saw to the best of your ability. If you do not remember a particular letter, use the SKIP button.<br><b>(When you are ready to lock in your answer, press ENTER)</b></p><button id = button_1 class = ""square num-button"" onclick = ""recordClick(this)""><div class = content><div class = numbers>C</div></div></button><button id = button_2 class = ""square num-button"" onclick = ""recordClick(this)""><div class = content><div class = numbers>G</div></div></button><button id = button_3 class = ""square num-button"" onclick = ""recordClick(this)""><div class = content><div class = numbers>H</div></div></button><button id = button_4 class = ""square num-button"" onclick = ""recordClick(this)""><div class = content><div class = numbers>J</div></div></button><button id = button_5 class = ""square num-button"" onclick = ""recordClick(this)""><div class = content><div class = numbers>K</div></div></button><button id = button_6 class = ""square num-button"" onclick = ""recordClick(this)""><div class = content><div class = numbers>L</div></div></button><button id = button_7 class = ""square num-button"" onclick = ""recordClick(this)""><div class = content><div class = numbers>N</div></div></button><button id = button_8 class = ""square num-button"" onclick = ""recordClick(this)""><div class = content><div class = numbers>P</div></div></button><button id = button_9 class = ""square num-button"" onclick = ""recordClick(this)""><div class = content><div class = numbers>Q</div></div></button><button id = button_10 class = ""square num-button"" onclick = ""recordClick(this)""><div class = content><div class = numbers>R</div></div></button><button id = button_11 class = ""square num-button"" onclick = ""recordClick(this)""><div class = content><div class = numbers>S</div></div></button><button id = button_12 class = ""square num-button"" onclick = ""recordClick(this)""><div class = content><div class = numbers>Y</div></div></button><button class = clear_button id = ""ClearButton"" onclick = ""clearResponse()"">BACKSPACE</button><button class = blank_button id = ""BlankButton"" onclick = ""blankResponse()"">SKIP</button><p style=""font-size: 2.4rem""><u><b>Current Answer:</b></u></p><br><br><div id=echoed_txt style=""font-size: 5rem; color:blue;""><b></b></div></div>",enter,ospan,retrieval,J8mCOYbkt6ZzLRyRYAMYJqvRh5O2,html-keyboard-response,205,1226773,0.0-46.0-6.0-1.0-2.0,41,39,33,8.0,"[""P"",""N"",""S"",""Y"",""L"",""C"",""K"",""R""]","[""P"",""N"",""S"",""Y"",""L"",""K"",""C"",""R""]",0.0,6.0,,,,,,,5c5844d8dd470300014ee3f1,11:40:40,03/04/2024
1594.800000011921,[''],0,ospan,feedback,J8mCOYbkt6ZzLRyRYAMYJqvRh5O2,html-button-response,206,1228876,0.0-46.0-6.0-1.0-3.0,,,,,,,,,,,,100.0,0.0,,5c5844d8dd470300014ee3f1,11:40:40,03/04/2024
43509.10000002384,,"{'Q0': 'Everything was very clear. I quite enjoyed this one, I like the challenge of trying to remember the letters.'}",ospan,survey_ospan,J8mCOYbkt6ZzLRyRYAMYJqvRh5O2,lmdlab-survey-text,207,1273149,0.0-46.0-7.0,,,,,,,,,,,,,,J8mCOYbkt6ZzLRyRYAMYJqvRh5O2,5c5844d8dd470300014ee3f1,11:40:40,03/04/2024
1747.2999999523163,<p><p style='font-size: 3rem'>Great work!<br><br>This completes the symmetry and memory task.</p><br><br><br>,0,ospan,finish,J8mCOYbkt6ZzLRyRYAMYJqvRh5O2,html-button-response,208,1274907,0.0-46.0-8.0,41,39,33,,,,,,,,,100.0,,,5c5844d8dd470300014ee3f1,11:40:40,03/04/2024
