rt,stimulus,response,exp_name,exp_stage,subjectID,trial_type,trial_index,time_elapsed,internal_node_id,ospan_shown,ospan_total,ospan_abs,length,resp_actual,resp_correct,full_correct,num_correct,feedback,accuracy,correct,math_acc,math_warning,databaseID,prolificID,start_time,date
2385.399999999441,<div class = 'left_align' style='font-size: 3.25rem; line-height: 1.3;'><p class = 'center_align'><b>Welcome to the Symmetry and Memory Task</b><br><br><br><br></p>Press 'continue' to show the instructions.<br><br><br><br></div>,0,ospan,instruct,IeGaeeJ9XBcX6sxB8CdSerkmgg92,html-button-response,54,486246,0.0-46.0-0.0-0.0-0.0,,,,,,,,,,,,,,,5d4ada2fed2dfc0016a22af5,11:55:18,03/04/2024
12491.299999999814,"<div class = 'left_align' style='font-size: 3.25rem; line-height: 1.3;'><p class = 'center_align'><b>Symmetry and Memory Task</b><br><br></p>In this task, you will try to memorize letters you see on the screen<br>while you also view black and white grid pictures.<br><br>In the next few minutes, you will have some practice to get you familiar<br>with how the task works.<br><br>It may be difficult sometimes, but please do not worry about making mistakes!<br><br>We will begin by practicing the letter part of the task.<br><br><br><br></div>",0,ospan,instruct,IeGaeeJ9XBcX6sxB8CdSerkmgg92,html-button-response,55,498997,0.0-46.0-0.0-0.0-1.0,,,,,,,,,,,,,,,5d4ada2fed2dfc0016a22af5,11:55:18,03/04/2024
11490.799999999814,"<div class = 'left_align' style='font-size: 3.25rem; line-height: 1.3;'>For this practice part, letters will appear on the screen one at a time.<br><br>Try to remember each letter in the order presented.<br><br>After some letters have been shown, you will see a response screen. Your<br>goal is to report the letters you saw <b>in order</b>. If you do not remember<br>a particular letter, you will have the option to leave it blank.<br><br><br><br></div>",0,ospan,instruct,IeGaeeJ9XBcX6sxB8CdSerkmgg92,html-button-response,56,510741,0.0-46.0-0.0-0.0-2.0,,,,,,,,,,,,,,,5d4ada2fed2dfc0016a22af5,11:55:18,03/04/2024
5482.299999999814,"<div class = 'left_align' style='font-size: 3.25rem; line-height: 1.3;'>Remember, it is very important to get the letters in the same<br>order as you see them.<br><br>When you are ready, you may begin the letter practice.</div><br><br><br><br>",0,ospan,instruct,IeGaeeJ9XBcX6sxB8CdSerkmgg92,html-button-response,57,516491,0.0-46.0-0.0-0.0-3.0,,,,,,,,,,,,,,,5d4ada2fed2dfc0016a22af5,11:55:18,03/04/2024
,"<p style=""font-size:75px;"">...</p>",,ospan,iti,IeGaeeJ9XBcX6sxB8CdSerkmgg92,html-keyboard-response,58,517770,0.0-46.0-0.0-1.0-0.0,,,,,,,,,,,,,,,5d4ada2fed2dfc0016a22af5,11:55:18,03/04/2024
,"<div style=""font-size: 10rem; color: #0000FF"">J</div>",,ospan,letter,IeGaeeJ9XBcX6sxB8CdSerkmgg92,html-keyboard-response,59,518783,0.0-46.0-0.0-1.0-1.0,,,,,,,,,,,,,,,5d4ada2fed2dfc0016a22af5,11:55:18,03/04/2024
,"<div style=""font-size: 10rem; color: #0000FF"">H</div>",,ospan,letter,IeGaeeJ9XBcX6sxB8CdSerkmgg92,html-keyboard-response,60,520554,0.0-46.0-0.0-1.0-2.0,,,,,,,,,,,,,,,5d4ada2fed2dfc0016a22af5,11:55:18,03/04/2024
14797.200000000186,"<div class = numbox><p style=""font-size: 2.4rem"">Please recall the letters you saw to the best of your ability. If you do not remember a particular letter, use the SKIP button.<br><b>(When you are ready to lock in your answer, press ENTER)</b></p><button id = button_1 class = ""square num-button"" onclick = ""recordClick(this)""><div class = content><div class = numbers>C</div></div></button><button id = button_2 class = ""square num-button"" onclick = ""recordClick(this)""><div class = content><div class = numbers>G</div></div></button><button id = button_3 class = ""square num-button"" onclick = ""recordClick(this)""><div class = content><div class = numbers>H</div></div></button><button id = button_4 class = ""square num-button"" onclick = ""recordClick(this)""><div class = content><div class = numbers>J</div></div></button><button id = button_5 class = ""square num-button"" onclick = ""recordClick(this)""><div class = content><div class = numbers>K</div></div></button><button id = button_6 class = ""square num-button"" onclick = ""recordClick(this)""><div class = content><div class = numbers>L</div></div></button><button id = button_7 class = ""square num-button"" onclick = ""recordClick(this)""><div class = content><div class = numbers>N</div></div></button><button id = button_8 class = ""square num-button"" onclick = ""recordClick(this)""><div class = content><div class = numbers>P</div></div></button><button id = button_9 class = ""square num-button"" onclick = ""recordClick(this)""><div class = content><div class = numbers>Q</div></div></button><button id = button_10 class = ""square num-button"" onclick = ""recordClick(this)""><div class = content><div class = numbers>R</div></div></button><button id = button_11 class = ""square num-button"" onclick = ""recordClick(this)""><div class = content><div class = numbers>S</div></div></button><button id = button_12 class = ""square num-button"" onclick = ""recordClick(this)""><div class = content><div class = numbers>Y</div></div></button><button class = clear_button id = ""ClearButton"" onclick = ""clearResponse()"">BACKSPACE</button><button class = blank_button id = ""BlankButton"" onclick = ""blankResponse()"">SKIP</button><p style=""font-size: 2.4rem""><u><b>Current Answer:</b></u></p><br><br><div id=echoed_txt style=""font-size: 5rem; color:blue;""><b></b></div></div>",enter,ospan,retrieval,IeGaeeJ9XBcX6sxB8CdSerkmgg92,html-keyboard-response,61,536110,0.0-46.0-0.0-1.0-3.0,NA,NA,NA,2.0,"[""J"",""H""]","[""J"",""H""]",1.0,2.0,"['<font color=""green"">J</font>', '<font color=""green"">H</font>']",,,,,,5d4ada2fed2dfc0016a22af5,11:55:18,03/04/2024
2190.2999999998137,"['<p style=""font-size:44px"">Letters:<br><br><br><font color=""green"">J</font> <font color=""green"">H</font></p><br><br>']",0,ospan,practice_feedback,IeGaeeJ9XBcX6sxB8CdSerkmgg92,html-button-response,62,538809,0.0-46.0-0.0-1.0-4.0,,,,,,,,,,,,,,,5d4ada2fed2dfc0016a22af5,11:55:18,03/04/2024
,"<p style=""font-size:75px;"">...</p>",,ospan,iti,IeGaeeJ9XBcX6sxB8CdSerkmgg92,html-keyboard-response,63,539828,0.0-46.0-0.0-2.0-0.0,,,,,,,,,,,,,,,5d4ada2fed2dfc0016a22af5,11:55:18,03/04/2024
,"<div style=""font-size: 10rem; color: #0000FF"">N</div>",,ospan,letter,IeGaeeJ9XBcX6sxB8CdSerkmgg92,html-keyboard-response,64,540847,0.0-46.0-0.0-2.0-1.0,,,,,,,,,,,,,,,5d4ada2fed2dfc0016a22af5,11:55:18,03/04/2024
,"<div style=""font-size: 10rem; color: #0000FF"">K</div>",,ospan,letter,IeGaeeJ9XBcX6sxB8CdSerkmgg92,html-keyboard-response,65,542656,0.0-46.0-0.0-2.0-2.0,,,,,,,,,,,,,,,5d4ada2fed2dfc0016a22af5,11:55:18,03/04/2024
,"<div style=""font-size: 10rem; color: #0000FF"">J</div>",,ospan,letter,IeGaeeJ9XBcX6sxB8CdSerkmgg92,html-keyboard-response,66,544448,0.0-46.0-0.0-2.0-3.0,,,,,,,,,,,,,,,5d4ada2fed2dfc0016a22af5,11:55:18,03/04/2024
7572.799999999814,"<div class = numbox><p style=""font-size: 2.4rem"">Please recall the letters you saw to the best of your ability. If you do not remember a particular letter, use the SKIP button.<br><b>(When you are ready to lock in your answer, press ENTER)</b></p><button id = button_1 class = ""square num-button"" onclick = ""recordClick(this)""><div class = content><div class = numbers>C</div></div></button><button id = button_2 class = ""square num-button"" onclick = ""recordClick(this)""><div class = content><div class = numbers>G</div></div></button><button id = button_3 class = ""square num-button"" onclick = ""recordClick(this)""><div class = content><div class = numbers>H</div></div></button><button id = button_4 class = ""square num-button"" onclick = ""recordClick(this)""><div class = content><div class = numbers>J</div></div></button><button id = button_5 class = ""square num-button"" onclick = ""recordClick(this)""><div class = content><div class = numbers>K</div></div></button><button id = button_6 class = ""square num-button"" onclick = ""recordClick(this)""><div class = content><div class = numbers>L</div></div></button><button id = button_7 class = ""square num-button"" onclick = ""recordClick(this)""><div class = content><div class = numbers>N</div></div></button><button id = button_8 class = ""square num-button"" onclick = ""recordClick(this)""><div class = content><div class = numbers>P</div></div></button><button id = button_9 class = ""square num-button"" onclick = ""recordClick(this)""><div class = content><div class = numbers>Q</div></div></button><button id = button_10 class = ""square num-button"" onclick = ""recordClick(this)""><div class = content><div class = numbers>R</div></div></button><button id = button_11 class = ""square num-button"" onclick = ""recordClick(this)""><div class = content><div class = numbers>S</div></div></button><button id = button_12 class = ""square num-button"" onclick = ""recordClick(this)""><div class = content><div class = numbers>Y</div></div></button><button class = clear_button id = ""ClearButton"" onclick = ""clearResponse()"">BACKSPACE</button><button class = blank_button id = ""BlankButton"" onclick = ""blankResponse()"">SKIP</button><p style=""font-size: 2.4rem""><u><b>Current Answer:</b></u></p><br><br><div id=echoed_txt style=""font-size: 5rem; color:blue;""><b></b></div></div>",enter,ospan,retrieval,IeGaeeJ9XBcX6sxB8CdSerkmgg92,html-keyboard-response,67,552808,0.0-46.0-0.0-2.0-4.0,NA,NA,NA,3.0,"[""N"",""K"",""J""]","[""N"",""K"",""J""]",1.0,3.0,"['<font color=""green"">N</font>', '<font color=""green"">K</font>', '<font color=""green"">J</font>']",,,,,,5d4ada2fed2dfc0016a22af5,11:55:18,03/04/2024
1579.7999999998137,"['<p style=""font-size:44px"">Letters:<br><br><br><font color=""green"">N</font> <font color=""green"">K</font> <font color=""green"">J</font></p><br><br>']",0,ospan,practice_feedback,IeGaeeJ9XBcX6sxB8CdSerkmgg92,html-button-response,68,554907,0.0-46.0-0.0-2.0-5.0,,,,,,,,,,,,,,,5d4ada2fed2dfc0016a22af5,11:55:18,03/04/2024
18342.099999999627,"<div class = 'left_align' style='font-size: 3.25rem; line-height: 1.3;'>Now you will practice doing the <b>symmetry judgment part</b> of the experiment.<br><br>A black and white grid picture will appear on the screen and you have to judge if it is <br>symmetrical or asymetrical.<br><br>A picture is 'mirror' symmetrical if its left half is identical to the right half when flipped.<br>Here are examples of a symmetrical and an asymetrical picture:<br><br><center><img src='Stimuli/img/symm_instructions_extra.png' style='height:420px; width:900'></img></center><br>To judge symmetry, imagine you were to fold each picture down the middle, like a book –<br>would the left half match the right half when folded onto each other?<br><br></div><br>",0,ospan,instruct,IeGaeeJ9XBcX6sxB8CdSerkmgg92,html-button-response,69,573252,0.0-46.0-1.0-0.0-0.0,,,,,,,,,,,,,,,5d4ada2fed2dfc0016a22af5,11:55:18,03/04/2024
7802.100000000559,"<div class = 'left_align' style='font-size: 3.25rem; line-height: 1.3;'>When you have viewed the picture and determined whether it is symmetrical or not,<br>you can <b>click the Yes or No button</b> below to answer.<br><br>If you take longer than 15 seconds, it will continue automatically<br>and record the answer as an error.</div><br>",0,ospan,instruct,IeGaeeJ9XBcX6sxB8CdSerkmgg92,html-button-response,70,581322,0.0-46.0-1.0-0.0-1.0,,,,,,,,,,,,,,,5d4ada2fed2dfc0016a22af5,11:55:18,03/04/2024
2031.2999999998137,"<div class = 'left_align' style='font-size: 3.25rem; line-height: 1.3;'>It is <b>very</b> important that you make the symmetry judgment correctly.<br><br>It is also important that you try and judge the picture as quickly as you can.<br><br>When you are ready, click on the button below to try some practice problems.</div><br><br><br><br>",0,ospan,instruct,IeGaeeJ9XBcX6sxB8CdSerkmgg92,html-button-response,71,583619,0.0-46.0-1.0-0.0-2.0,,,,,,,,,,,,,,,5d4ada2fed2dfc0016a22af5,11:55:18,03/04/2024
1630.0,,,ospan,symmetry,IeGaeeJ9XBcX6sxB8CdSerkmgg92,symmetry-judgement-task,72,586093,0.0-46.0-1.0-1.0-0.0,,,,,,,,,,1.0,1.0,,,,5d4ada2fed2dfc0016a22af5,11:55:18,03/04/2024
,"<p style=""color:green; font-size: 35px"">Correct</p>",,ospan,feedback,IeGaeeJ9XBcX6sxB8CdSerkmgg92,html-keyboard-response,73,586879,0.0-46.0-1.0-1.0-1.0,,,,,,,,,,,,,,,5d4ada2fed2dfc0016a22af5,11:55:18,03/04/2024
1161.0,,,ospan,symmetry,IeGaeeJ9XBcX6sxB8CdSerkmgg92,symmetry-judgement-task,74,590810,0.0-46.0-1.0-1.0-2.0,,,,,,,,,,1.0,1.0,,,,5d4ada2fed2dfc0016a22af5,11:55:18,03/04/2024
,"<p style=""color:green; font-size: 35px"">Correct</p>",,ospan,feedback,IeGaeeJ9XBcX6sxB8CdSerkmgg92,html-keyboard-response,75,591564,0.0-46.0-1.0-1.0-3.0,,,,,,,,,,,,,,,5d4ada2fed2dfc0016a22af5,11:55:18,03/04/2024
2158.0,,,ospan,symmetry,IeGaeeJ9XBcX6sxB8CdSerkmgg92,symmetry-judgement-task,76,596457,0.0-46.0-1.0-1.0-4.0,,,,,,,,,,1.0,1.0,,,,5d4ada2fed2dfc0016a22af5,11:55:18,03/04/2024
,"<p style=""color:green; font-size: 35px"">Correct</p>",,ospan,feedback,IeGaeeJ9XBcX6sxB8CdSerkmgg92,html-keyboard-response,77,597212,0.0-46.0-1.0-1.0-5.0,,,,,,,,,,,,,,,5d4ada2fed2dfc0016a22af5,11:55:18,03/04/2024
1859.3999999994412,"<p style=""font-size: 3rem;"">You responded correctly on 3 of 3 symmetry judgments. Good job!</p><br><br>",0,ospan,practice,IeGaeeJ9XBcX6sxB8CdSerkmgg92,html-button-response,78,601085,0.0-46.0-1.0-2.0,,,,,,,,,,,,,,,5d4ada2fed2dfc0016a22af5,11:55:18,03/04/2024
14116.199999999255,"<div class = 'left_align' style='font-size: 3.25rem; line-height: 1.3;'>Now you will practice doing both parts of the experiment at the same time.<br><br>In the next practice set, you will be given one grid picture to judge.<br>Then letter will appear on the screen. Try to remember the letter.<br><br>It is <b>very important</b> to make the symmetry judgment as quickly and accurately as possible.<br><br>Just as before, once you have make the symmetry judgment, you can click Yes or No.<br><b>Note that you will no longer see Correct or Incorrect feedback.</div><br><br><br><br>",0,ospan,instruct,IeGaeeJ9XBcX6sxB8CdSerkmgg92,html-button-response,79,615463,0.0-46.0-2.0-0.0-0.0,,,,,,,,,,,,,,,5d4ada2fed2dfc0016a22af5,11:55:18,03/04/2024
7753.199999999255,"<div class = 'left_align' style='font-size: 3.25rem; line-height: 1.3;'>After the letter goes away, another grid picture will appear, and then<br>another letter.<br><br>At the end of each set of letters and grids, you will recall the letters to the best<br>of your ability. Remember, try your best to get the letters in the correct order.<br><br>It is important to <b>quickly</b> and <b>accurately</b> make the symmetry judgments.</div><br><br><br><br>",0,ospan,instruct,IeGaeeJ9XBcX6sxB8CdSerkmgg92,html-button-response,80,623477,0.0-46.0-2.0-0.0-1.0,,,,,,,,,,,,,,,5d4ada2fed2dfc0016a22af5,11:55:18,03/04/2024
12876.299999999814,"<div class = 'left_align' style='font-size: 3.25rem; line-height: 1.3;'>On the feedback screen, if you are not doing well at the symmetry judgments,<br>you will also see a warning in the middle. This indicates your percent <br>correct for the grid pictures for the entire experiment.<br><br>It is <b>very</b> important for you to keep accuracy at least at 85%: <u>We can only use<br>data where the participant was at least 85% accurate on the judgments.</u> Therefore,<br> please try your best to perform well on the symmetry judgments, <b>at the same time</b><br>doing your best to recall as many letters as possible.<br><br>Click the button to try some practice problems.</div><br><br><br><br>",0,ospan,instruct,IeGaeeJ9XBcX6sxB8CdSerkmgg92,html-button-response,81,636606,0.0-46.0-2.0-0.0-2.0,,,,,,,,,,,,,,,5d4ada2fed2dfc0016a22af5,11:55:18,03/04/2024
,"<p style=""font-size:75px;"">...</p>",,ospan,iti,IeGaeeJ9XBcX6sxB8CdSerkmgg92,html-keyboard-response,82,637867,0.0-46.0-2.0-1.0-0.0,,,,,,,,,,,,,,,5d4ada2fed2dfc0016a22af5,11:55:18,03/04/2024
2035.0,,,ospan,symmetry,IeGaeeJ9XBcX6sxB8CdSerkmgg92,symmetry-judgement-task,83,641099,0.0-46.0-2.0-1.0-1.0-0.0,,,,,,,,,,1.0,1.0,,,,5d4ada2fed2dfc0016a22af5,11:55:18,03/04/2024
,"<div style=""font-size: 10rem; color: #0000FF"">Q</div>",,ospan,letter,IeGaeeJ9XBcX6sxB8CdSerkmgg92,html-keyboard-response,84,642141,0.0-46.0-2.0-1.0-1.0-1.0,,,,,,,,,,,,,,,5d4ada2fed2dfc0016a22af5,11:55:18,03/04/2024
1212.0,,,ospan,symmetry,IeGaeeJ9XBcX6sxB8CdSerkmgg92,symmetry-judgement-task,85,645328,0.0-46.0-2.0-1.0-1.0-2.0,,,,,,,,,,1.0,1.0,,,,5d4ada2fed2dfc0016a22af5,11:55:18,03/04/2024
,"<div style=""font-size: 10rem; color: #0000FF"">P</div>",,ospan,letter,IeGaeeJ9XBcX6sxB8CdSerkmgg92,html-keyboard-response,86,646338,0.0-46.0-2.0-1.0-1.0-3.0,,,,,,,,,,,,,,,5d4ada2fed2dfc0016a22af5,11:55:18,03/04/2024
1395.0,,,ospan,symmetry,IeGaeeJ9XBcX6sxB8CdSerkmgg92,symmetry-judgement-task,87,649701,0.0-46.0-2.0-1.0-1.0-4.0,,,,,,,,,,1.0,1.0,,,,5d4ada2fed2dfc0016a22af5,11:55:18,03/04/2024
,"<div style=""font-size: 10rem; color: #0000FF"">Y</div>",,ospan,letter,IeGaeeJ9XBcX6sxB8CdSerkmgg92,html-keyboard-response,88,650713,0.0-46.0-2.0-1.0-1.0-5.0,,,,,,,,,,,,,,,5d4ada2fed2dfc0016a22af5,11:55:18,03/04/2024
4357.5,"<div class = numbox><p style=""font-size: 2.4rem"">Please recall the letters you saw to the best of your ability. If you do not remember a particular letter, use the SKIP button.<br><b>(When you are ready to lock in your answer, press ENTER)</b></p><button id = button_1 class = ""square num-button"" onclick = ""recordClick(this)""><div class = content><div class = numbers>C</div></div></button><button id = button_2 class = ""square num-button"" onclick = ""recordClick(this)""><div class = content><div class = numbers>G</div></div></button><button id = button_3 class = ""square num-button"" onclick = ""recordClick(this)""><div class = content><div class = numbers>H</div></div></button><button id = button_4 class = ""square num-button"" onclick = ""recordClick(this)""><div class = content><div class = numbers>J</div></div></button><button id = button_5 class = ""square num-button"" onclick = ""recordClick(this)""><div class = content><div class = numbers>K</div></div></button><button id = button_6 class = ""square num-button"" onclick = ""recordClick(this)""><div class = content><div class = numbers>L</div></div></button><button id = button_7 class = ""square num-button"" onclick = ""recordClick(this)""><div class = content><div class = numbers>N</div></div></button><button id = button_8 class = ""square num-button"" onclick = ""recordClick(this)""><div class = content><div class = numbers>P</div></div></button><button id = button_9 class = ""square num-button"" onclick = ""recordClick(this)""><div class = content><div class = numbers>Q</div></div></button><button id = button_10 class = ""square num-button"" onclick = ""recordClick(this)""><div class = content><div class = numbers>R</div></div></button><button id = button_11 class = ""square num-button"" onclick = ""recordClick(this)""><div class = content><div class = numbers>S</div></div></button><button id = button_12 class = ""square num-button"" onclick = ""recordClick(this)""><div class = content><div class = numbers>Y</div></div></button><button class = clear_button id = ""ClearButton"" onclick = ""clearResponse()"">BACKSPACE</button><button class = blank_button id = ""BlankButton"" onclick = ""blankResponse()"">SKIP</button><p style=""font-size: 2.4rem""><u><b>Current Answer:</b></u></p><br><br><div id=echoed_txt style=""font-size: 5rem; color:blue;""><b></b></div></div>",enter,ospan,retrieval,IeGaeeJ9XBcX6sxB8CdSerkmgg92,html-keyboard-response,89,655861,0.0-46.0-2.0-1.0-2.0-0.0,NA,NA,NA,3.0,"[""Q"",""P"",""Y""]","[""Q"",""P"",""Y""]",1.0,3.0,"['<font color=""green"">Q</font>', '<font color=""green"">P</font>', '<font color=""green"">Y</font>']",,,,,,5d4ada2fed2dfc0016a22af5,11:55:18,03/04/2024
3173.7000000001863,"['<p style=""font-size:44px"">Letters:<br><br><br><font color=""green"">Q</font> <font color=""green"">P</font> <font color=""green"">Y</font></p><br><br><p style=""font-size:30px"">Symmetry:<br><br><font color=""green"">100%</font></p><br><br>']",0,ospan,practice_feedback,IeGaeeJ9XBcX6sxB8CdSerkmgg92,html-button-response,90,659556,0.0-46.0-2.0-1.0-2.0-1.0,,,,,,,,,,,,,,,5d4ada2fed2dfc0016a22af5,11:55:18,03/04/2024
,"<p style=""font-size:75px;"">...</p>",,ospan,iti,IeGaeeJ9XBcX6sxB8CdSerkmgg92,html-keyboard-response,91,660576,0.0-46.0-2.0-2.0-0.0,,,,,,,,,,,,,,,5d4ada2fed2dfc0016a22af5,11:55:18,03/04/2024
1398.0,,,ospan,symmetry,IeGaeeJ9XBcX6sxB8CdSerkmgg92,symmetry-judgement-task,92,663165,0.0-46.0-2.0-2.0-1.0-0.0,,,,,,,,,,1.0,1.0,,,,5d4ada2fed2dfc0016a22af5,11:55:18,03/04/2024
,"<div style=""font-size: 10rem; color: #0000FF"">Q</div>",,ospan,letter,IeGaeeJ9XBcX6sxB8CdSerkmgg92,html-keyboard-response,93,664170,0.0-46.0-2.0-2.0-1.0-1.0,,,,,,,,,,,,,,,5d4ada2fed2dfc0016a22af5,11:55:18,03/04/2024
1226.0,,,ospan,symmetry,IeGaeeJ9XBcX6sxB8CdSerkmgg92,symmetry-judgement-task,94,667365,0.0-46.0-2.0-2.0-1.0-2.0,,,,,,,,,,1.0,1.0,,,,5d4ada2fed2dfc0016a22af5,11:55:18,03/04/2024
,"<div style=""font-size: 10rem; color: #0000FF"">L</div>",,ospan,letter,IeGaeeJ9XBcX6sxB8CdSerkmgg92,html-keyboard-response,95,668377,0.0-46.0-2.0-2.0-1.0-3.0,,,,,,,,,,,,,,,5d4ada2fed2dfc0016a22af5,11:55:18,03/04/2024
1393.0,,,ospan,symmetry,IeGaeeJ9XBcX6sxB8CdSerkmgg92,symmetry-judgement-task,96,671712,0.0-46.0-2.0-2.0-1.0-4.0,,,,,,,,,,1.0,1.0,,,,5d4ada2fed2dfc0016a22af5,11:55:18,03/04/2024
,"<div style=""font-size: 10rem; color: #0000FF"">S</div>",,ospan,letter,IeGaeeJ9XBcX6sxB8CdSerkmgg92,html-keyboard-response,97,672740,0.0-46.0-2.0-2.0-1.0-5.0,,,,,,,,,,,,,,,5d4ada2fed2dfc0016a22af5,11:55:18,03/04/2024
4500.300000000745,"<div class = numbox><p style=""font-size: 2.4rem"">Please recall the letters you saw to the best of your ability. If you do not remember a particular letter, use the SKIP button.<br><b>(When you are ready to lock in your answer, press ENTER)</b></p><button id = button_1 class = ""square num-button"" onclick = ""recordClick(this)""><div class = content><div class = numbers>C</div></div></button><button id = button_2 class = ""square num-button"" onclick = ""recordClick(this)""><div class = content><div class = numbers>G</div></div></button><button id = button_3 class = ""square num-button"" onclick = ""recordClick(this)""><div class = content><div class = numbers>H</div></div></button><button id = button_4 class = ""square num-button"" onclick = ""recordClick(this)""><div class = content><div class = numbers>J</div></div></button><button id = button_5 class = ""square num-button"" onclick = ""recordClick(this)""><div class = content><div class = numbers>K</div></div></button><button id = button_6 class = ""square num-button"" onclick = ""recordClick(this)""><div class = content><div class = numbers>L</div></div></button><button id = button_7 class = ""square num-button"" onclick = ""recordClick(this)""><div class = content><div class = numbers>N</div></div></button><button id = button_8 class = ""square num-button"" onclick = ""recordClick(this)""><div class = content><div class = numbers>P</div></div></button><button id = button_9 class = ""square num-button"" onclick = ""recordClick(this)""><div class = content><div class = numbers>Q</div></div></button><button id = button_10 class = ""square num-button"" onclick = ""recordClick(this)""><div class = content><div class = numbers>R</div></div></button><button id = button_11 class = ""square num-button"" onclick = ""recordClick(this)""><div class = content><div class = numbers>S</div></div></button><button id = button_12 class = ""square num-button"" onclick = ""recordClick(this)""><div class = content><div class = numbers>Y</div></div></button><button class = clear_button id = ""ClearButton"" onclick = ""clearResponse()"">BACKSPACE</button><button class = blank_button id = ""BlankButton"" onclick = ""blankResponse()"">SKIP</button><p style=""font-size: 2.4rem""><u><b>Current Answer:</b></u></p><br><br><div id=echoed_txt style=""font-size: 5rem; color:blue;""><b></b></div></div>",enter,ospan,retrieval,IeGaeeJ9XBcX6sxB8CdSerkmgg92,html-keyboard-response,98,678015,0.0-46.0-2.0-2.0-2.0-0.0,NA,NA,NA,3.0,"[""Q"",""L"",""S""]","[""Q"",""L"",""S""]",1.0,3.0,"['<font color=""green"">Q</font>', '<font color=""green"">L</font>', '<font color=""green"">S</font>']",,,,,,5d4ada2fed2dfc0016a22af5,11:55:18,03/04/2024
3181.399999999441,"['<p style=""font-size:44px"">Letters:<br><br><br><font color=""green"">Q</font> <font color=""green"">L</font> <font color=""green"">S</font></p><br><br><p style=""font-size:30px"">Symmetry:<br><br><font color=""green"">100%</font></p><br><br>']",0,ospan,practice_feedback,IeGaeeJ9XBcX6sxB8CdSerkmgg92,html-button-response,99,681712,0.0-46.0-2.0-2.0-2.0-1.0,,,,,,,,,,,,,,,5d4ada2fed2dfc0016a22af5,11:55:18,03/04/2024
14708.799999999814,"<div class = 'left_align' style='font-size: 3rem; line-height: 1.3;'><b>Great work! That is the end of practice.</b><br><br>The real trials will look just like the practice trials you just completed.<br><br><u>Here, you will not see feedback</u>. First, you will see an grid picture to judge,<br>then a letter to remember. When the recall screen appears, report the letters in the<br>order presented. If you forget a letter, remember to use the <b>blank</b> button to move to the<br>next letter. Some of the sets will have more symmetry grids and letters than others.<br><br>It is important that you do your best on both the symmetry judgments and the letter recall<br>parts of the experiment. For for the symmetry judgments, try to work as <b>quickly</b> and <br>as <b>accurately</b> as possible. Remember to keep your symmetry accuracy at 85% or above.<br><br><b>For the letters, do NOT use any external aid (e.g., writing on paper, electronic device).</b><br><br>It is <u>very important</u> to our experiment to have a <b>true</b> view of your real performance.<br><br>Do not worry if you miss some when it gets hard! This task is meant to be very challenging!<br><br>Click the button to begin.</div><br><br><br><br>",0,ospan,starting_real_here,IeGaeeJ9XBcX6sxB8CdSerkmgg92,html-button-response,100,696425,0.0-46.0-2.0-3.0,,,,,,,,,,,,,,,5d4ada2fed2dfc0016a22af5,11:55:18,03/04/2024
,"<p style=""font-size:75px;"">...</p>",,ospan,iti,IeGaeeJ9XBcX6sxB8CdSerkmgg92,html-keyboard-response,101,697692,0.0-46.0-3.0-0.0-0.0,,,,,,,,,,,,,,,5d4ada2fed2dfc0016a22af5,11:55:18,03/04/2024
1169.0,,,ospan,symmetry,IeGaeeJ9XBcX6sxB8CdSerkmgg92,symmetry-judgement-task,102,700067,0.0-46.0-3.0-0.0-1.0-0.0,,,,,,,,,,1.0,1.0,,,,5d4ada2fed2dfc0016a22af5,11:55:18,03/04/2024
,"<div style=""font-size: 10rem; color: #0000FF"">Q</div>",,ospan,letter,IeGaeeJ9XBcX6sxB8CdSerkmgg92,html-keyboard-response,103,701082,0.0-46.0-3.0-0.0-1.0-1.0,,,,,,,,,,,,,,,5d4ada2fed2dfc0016a22af5,11:55:18,03/04/2024
1032.0,,,ospan,symmetry,IeGaeeJ9XBcX6sxB8CdSerkmgg92,symmetry-judgement-task,104,704116,0.0-46.0-3.0-0.0-1.0-2.0,,,,,,,,,,1.0,1.0,,,,5d4ada2fed2dfc0016a22af5,11:55:18,03/04/2024
,"<div style=""font-size: 10rem; color: #0000FF"">G</div>",,ospan,letter,IeGaeeJ9XBcX6sxB8CdSerkmgg92,html-keyboard-response,105,705126,0.0-46.0-3.0-0.0-1.0-3.0,,,,,,,,,,,,,,,5d4ada2fed2dfc0016a22af5,11:55:18,03/04/2024
1145.0,,,ospan,symmetry,IeGaeeJ9XBcX6sxB8CdSerkmgg92,symmetry-judgement-task,106,708260,0.0-46.0-3.0-0.0-1.0-4.0,,,,,,,,,,1.0,1.0,,,,5d4ada2fed2dfc0016a22af5,11:55:18,03/04/2024
,"<div style=""font-size: 10rem; color: #0000FF"">Y</div>",,ospan,letter,IeGaeeJ9XBcX6sxB8CdSerkmgg92,html-keyboard-response,107,709268,0.0-46.0-3.0-0.0-1.0-5.0,,,,,,,,,,,,,,,5d4ada2fed2dfc0016a22af5,11:55:18,03/04/2024
4472.199999999255,"<div class = numbox><p style=""font-size: 2.4rem"">Please recall the letters you saw to the best of your ability. If you do not remember a particular letter, use the SKIP button.<br><b>(When you are ready to lock in your answer, press ENTER)</b></p><button id = button_1 class = ""square num-button"" onclick = ""recordClick(this)""><div class = content><div class = numbers>C</div></div></button><button id = button_2 class = ""square num-button"" onclick = ""recordClick(this)""><div class = content><div class = numbers>G</div></div></button><button id = button_3 class = ""square num-button"" onclick = ""recordClick(this)""><div class = content><div class = numbers>H</div></div></button><button id = button_4 class = ""square num-button"" onclick = ""recordClick(this)""><div class = content><div class = numbers>J</div></div></button><button id = button_5 class = ""square num-button"" onclick = ""recordClick(this)""><div class = content><div class = numbers>K</div></div></button><button id = button_6 class = ""square num-button"" onclick = ""recordClick(this)""><div class = content><div class = numbers>L</div></div></button><button id = button_7 class = ""square num-button"" onclick = ""recordClick(this)""><div class = content><div class = numbers>N</div></div></button><button id = button_8 class = ""square num-button"" onclick = ""recordClick(this)""><div class = content><div class = numbers>P</div></div></button><button id = button_9 class = ""square num-button"" onclick = ""recordClick(this)""><div class = content><div class = numbers>Q</div></div></button><button id = button_10 class = ""square num-button"" onclick = ""recordClick(this)""><div class = content><div class = numbers>R</div></div></button><button id = button_11 class = ""square num-button"" onclick = ""recordClick(this)""><div class = content><div class = numbers>S</div></div></button><button id = button_12 class = ""square num-button"" onclick = ""recordClick(this)""><div class = content><div class = numbers>Y</div></div></button><button class = clear_button id = ""ClearButton"" onclick = ""clearResponse()"">BACKSPACE</button><button class = blank_button id = ""BlankButton"" onclick = ""blankResponse()"">SKIP</button><p style=""font-size: 2.4rem""><u><b>Current Answer:</b></u></p><br><br><div id=echoed_txt style=""font-size: 5rem; color:blue;""><b></b></div></div>",enter,ospan,retrieval,IeGaeeJ9XBcX6sxB8CdSerkmgg92,html-keyboard-response,108,714536,0.0-46.0-3.0-0.0-2.0,3,3,3,3.0,"[""Q"",""G"",""Y""]","[""Q"",""G"",""Y""]",1.0,3.0,,,,,,,5d4ada2fed2dfc0016a22af5,11:55:18,03/04/2024
863.3999999994412,[''],0,ospan,feedback,IeGaeeJ9XBcX6sxB8CdSerkmgg92,html-button-response,109,715911,0.0-46.0-3.0-0.0-3.0,,,,,,,,,,,,100.0,0.0,,5d4ada2fed2dfc0016a22af5,11:55:18,03/04/2024
,"<p style=""font-size:75px;"">...</p>",,ospan,iti,IeGaeeJ9XBcX6sxB8CdSerkmgg92,html-keyboard-response,110,716935,0.0-46.0-4.0-0.0-0.0,,,,,,,,,,,,,,,5d4ada2fed2dfc0016a22af5,11:55:18,03/04/2024
1233.0,,,ospan,symmetry,IeGaeeJ9XBcX6sxB8CdSerkmgg92,symmetry-judgement-task,111,719366,0.0-46.0-4.0-0.0-1.0-0.0,,,,,,,,,,1.0,1.0,,,,5d4ada2fed2dfc0016a22af5,11:55:18,03/04/2024
,"<div style=""font-size: 10rem; color: #0000FF"">P</div>",,ospan,letter,IeGaeeJ9XBcX6sxB8CdSerkmgg92,html-keyboard-response,112,720375,0.0-46.0-4.0-0.0-1.0-1.0,,,,,,,,,,,,,,,5d4ada2fed2dfc0016a22af5,11:55:18,03/04/2024
921.0,,,ospan,symmetry,IeGaeeJ9XBcX6sxB8CdSerkmgg92,symmetry-judgement-task,113,723255,0.0-46.0-4.0-0.0-1.0-2.0,,,,,,,,,,1.0,1.0,,,,5d4ada2fed2dfc0016a22af5,11:55:18,03/04/2024
,"<div style=""font-size: 10rem; color: #0000FF"">J</div>",,ospan,letter,IeGaeeJ9XBcX6sxB8CdSerkmgg92,html-keyboard-response,114,724274,0.0-46.0-4.0-0.0-1.0-3.0,,,,,,,,,,,,,,,5d4ada2fed2dfc0016a22af5,11:55:18,03/04/2024
860.0,,,ospan,symmetry,IeGaeeJ9XBcX6sxB8CdSerkmgg92,symmetry-judgement-task,115,727135,0.0-46.0-4.0-0.0-1.0-4.0,,,,,,,,,,1.0,1.0,,,,5d4ada2fed2dfc0016a22af5,11:55:18,03/04/2024
,"<div style=""font-size: 10rem; color: #0000FF"">L</div>",,ospan,letter,IeGaeeJ9XBcX6sxB8CdSerkmgg92,html-keyboard-response,116,728136,0.0-46.0-4.0-0.0-1.0-5.0,,,,,,,,,,,,,,,5d4ada2fed2dfc0016a22af5,11:55:18,03/04/2024
1524.0,,,ospan,symmetry,IeGaeeJ9XBcX6sxB8CdSerkmgg92,symmetry-judgement-task,117,731629,0.0-46.0-4.0-0.0-1.0-6.0,,,,,,,,,,1.0,1.0,,,,5d4ada2fed2dfc0016a22af5,11:55:18,03/04/2024
,"<div style=""font-size: 10rem; color: #0000FF"">K</div>",,ospan,letter,IeGaeeJ9XBcX6sxB8CdSerkmgg92,html-keyboard-response,118,732644,0.0-46.0-4.0-0.0-1.0-7.0,,,,,,,,,,,,,,,5d4ada2fed2dfc0016a22af5,11:55:18,03/04/2024
4437.399999999441,"<div class = numbox><p style=""font-size: 2.4rem"">Please recall the letters you saw to the best of your ability. If you do not remember a particular letter, use the SKIP button.<br><b>(When you are ready to lock in your answer, press ENTER)</b></p><button id = button_1 class = ""square num-button"" onclick = ""recordClick(this)""><div class = content><div class = numbers>C</div></div></button><button id = button_2 class = ""square num-button"" onclick = ""recordClick(this)""><div class = content><div class = numbers>G</div></div></button><button id = button_3 class = ""square num-button"" onclick = ""recordClick(this)""><div class = content><div class = numbers>H</div></div></button><button id = button_4 class = ""square num-button"" onclick = ""recordClick(this)""><div class = content><div class = numbers>J</div></div></button><button id = button_5 class = ""square num-button"" onclick = ""recordClick(this)""><div class = content><div class = numbers>K</div></div></button><button id = button_6 class = ""square num-button"" onclick = ""recordClick(this)""><div class = content><div class = numbers>L</div></div></button><button id = button_7 class = ""square num-button"" onclick = ""recordClick(this)""><div class = content><div class = numbers>N</div></div></button><button id = button_8 class = ""square num-button"" onclick = ""recordClick(this)""><div class = content><div class = numbers>P</div></div></button><button id = button_9 class = ""square num-button"" onclick = ""recordClick(this)""><div class = content><div class = numbers>Q</div></div></button><button id = button_10 class = ""square num-button"" onclick = ""recordClick(this)""><div class = content><div class = numbers>R</div></div></button><button id = button_11 class = ""square num-button"" onclick = ""recordClick(this)""><div class = content><div class = numbers>S</div></div></button><button id = button_12 class = ""square num-button"" onclick = ""recordClick(this)""><div class = content><div class = numbers>Y</div></div></button><button class = clear_button id = ""ClearButton"" onclick = ""clearResponse()"">BACKSPACE</button><button class = blank_button id = ""BlankButton"" onclick = ""blankResponse()"">SKIP</button><p style=""font-size: 2.4rem""><u><b>Current Answer:</b></u></p><br><br><div id=echoed_txt style=""font-size: 5rem; color:blue;""><b></b></div></div>",enter,ospan,retrieval,IeGaeeJ9XBcX6sxB8CdSerkmgg92,html-keyboard-response,119,737864,0.0-46.0-4.0-0.0-2.0,7,7,7,4.0,"[""P"",""J"",""L"",""K""]","[""P"",""J"",""L"",""K""]",1.0,4.0,,,,,,,5d4ada2fed2dfc0016a22af5,11:55:18,03/04/2024
1594.0,[''],0,ospan,feedback,IeGaeeJ9XBcX6sxB8CdSerkmgg92,html-button-response,120,739966,0.0-46.0-4.0-0.0-3.0,,,,,,,,,,,,100.0,0.0,,5d4ada2fed2dfc0016a22af5,11:55:18,03/04/2024
,"<p style=""font-size:75px;"">...</p>",,ospan,iti,IeGaeeJ9XBcX6sxB8CdSerkmgg92,html-keyboard-response,121,740986,0.0-46.0-4.0-1.0-0.0,,,,,,,,,,,,,,,5d4ada2fed2dfc0016a22af5,11:55:18,03/04/2024
1165.0,,,ospan,symmetry,IeGaeeJ9XBcX6sxB8CdSerkmgg92,symmetry-judgement-task,122,743204,0.0-46.0-4.0-1.0-1.0-0.0,,,,,,,,,,1.0,1.0,,,,5d4ada2fed2dfc0016a22af5,11:55:18,03/04/2024
,"<div style=""font-size: 10rem; color: #0000FF"">J</div>",,ospan,letter,IeGaeeJ9XBcX6sxB8CdSerkmgg92,html-keyboard-response,123,744206,0.0-46.0-4.0-1.0-1.0-1.0,,,,,,,,,,,,,,,5d4ada2fed2dfc0016a22af5,11:55:18,03/04/2024
857.0,,,ospan,symmetry,IeGaeeJ9XBcX6sxB8CdSerkmgg92,symmetry-judgement-task,124,747056,0.0-46.0-4.0-1.0-1.0-2.0,,,,,,,,,,1.0,1.0,,,,5d4ada2fed2dfc0016a22af5,11:55:18,03/04/2024
,"<div style=""font-size: 10rem; color: #0000FF"">C</div>",,ospan,letter,IeGaeeJ9XBcX6sxB8CdSerkmgg92,html-keyboard-response,125,748064,0.0-46.0-4.0-1.0-1.0-3.0,,,,,,,,,,,,,,,5d4ada2fed2dfc0016a22af5,11:55:18,03/04/2024
1096.0,,,ospan,symmetry,IeGaeeJ9XBcX6sxB8CdSerkmgg92,symmetry-judgement-task,126,751124,0.0-46.0-4.0-1.0-1.0-4.0,,,,,,,,,,1.0,1.0,,,,5d4ada2fed2dfc0016a22af5,11:55:18,03/04/2024
,"<div style=""font-size: 10rem; color: #0000FF"">K</div>",,ospan,letter,IeGaeeJ9XBcX6sxB8CdSerkmgg92,html-keyboard-response,127,752144,0.0-46.0-4.0-1.0-1.0-5.0,,,,,,,,,,,,,,,5d4ada2fed2dfc0016a22af5,11:55:18,03/04/2024
77.0,,,ospan,symmetry,IeGaeeJ9XBcX6sxB8CdSerkmgg92,symmetry-judgement-task,128,754202,0.0-46.0-4.0-1.0-1.0-6.0,,,,,,,,,,1.0,1.0,,,,5d4ada2fed2dfc0016a22af5,11:55:18,03/04/2024
,"<div style=""font-size: 10rem; color: #0000FF"">Q</div>",,ospan,letter,IeGaeeJ9XBcX6sxB8CdSerkmgg92,html-keyboard-response,129,755210,0.0-46.0-4.0-1.0-1.0-7.0,,,,,,,,,,,,,,,5d4ada2fed2dfc0016a22af5,11:55:18,03/04/2024
1323.0,,,ospan,symmetry,IeGaeeJ9XBcX6sxB8CdSerkmgg92,symmetry-judgement-task,130,758500,0.0-46.0-4.0-1.0-1.0-8.0,,,,,,,,,,1.0,1.0,,,,5d4ada2fed2dfc0016a22af5,11:55:18,03/04/2024
,"<div style=""font-size: 10rem; color: #0000FF"">N</div>",,ospan,letter,IeGaeeJ9XBcX6sxB8CdSerkmgg92,html-keyboard-response,131,759532,0.0-46.0-4.0-1.0-1.0-9.0,,,,,,,,,,,,,,,5d4ada2fed2dfc0016a22af5,11:55:18,03/04/2024
6150.0,"<div class = numbox><p style=""font-size: 2.4rem"">Please recall the letters you saw to the best of your ability. If you do not remember a particular letter, use the SKIP button.<br><b>(When you are ready to lock in your answer, press ENTER)</b></p><button id = button_1 class = ""square num-button"" onclick = ""recordClick(this)""><div class = content><div class = numbers>C</div></div></button><button id = button_2 class = ""square num-button"" onclick = ""recordClick(this)""><div class = content><div class = numbers>G</div></div></button><button id = button_3 class = ""square num-button"" onclick = ""recordClick(this)""><div class = content><div class = numbers>H</div></div></button><button id = button_4 class = ""square num-button"" onclick = ""recordClick(this)""><div class = content><div class = numbers>J</div></div></button><button id = button_5 class = ""square num-button"" onclick = ""recordClick(this)""><div class = content><div class = numbers>K</div></div></button><button id = button_6 class = ""square num-button"" onclick = ""recordClick(this)""><div class = content><div class = numbers>L</div></div></button><button id = button_7 class = ""square num-button"" onclick = ""recordClick(this)""><div class = content><div class = numbers>N</div></div></button><button id = button_8 class = ""square num-button"" onclick = ""recordClick(this)""><div class = content><div class = numbers>P</div></div></button><button id = button_9 class = ""square num-button"" onclick = ""recordClick(this)""><div class = content><div class = numbers>Q</div></div></button><button id = button_10 class = ""square num-button"" onclick = ""recordClick(this)""><div class = content><div class = numbers>R</div></div></button><button id = button_11 class = ""square num-button"" onclick = ""recordClick(this)""><div class = content><div class = numbers>S</div></div></button><button id = button_12 class = ""square num-button"" onclick = ""recordClick(this)""><div class = content><div class = numbers>Y</div></div></button><button class = clear_button id = ""ClearButton"" onclick = ""clearResponse()"">BACKSPACE</button><button class = blank_button id = ""BlankButton"" onclick = ""blankResponse()"">SKIP</button><p style=""font-size: 2.4rem""><u><b>Current Answer:</b></u></p><br><br><div id=echoed_txt style=""font-size: 5rem; color:blue;""><b></b></div></div>",enter,ospan,retrieval,IeGaeeJ9XBcX6sxB8CdSerkmgg92,html-keyboard-response,132,766464,0.0-46.0-4.0-1.0-2.0,12,12,12,5.0,"[""J"",""C"",""K"",""Q"",""N""]","[""J"",""C"",""K"",""Q"",""N""]",1.0,5.0,,,,,,,5d4ada2fed2dfc0016a22af5,11:55:18,03/04/2024
982.2000000001863,[''],0,ospan,feedback,IeGaeeJ9XBcX6sxB8CdSerkmgg92,html-button-response,133,767965,0.0-46.0-4.0-1.0-3.0,,,,,,,,,,,,100.0,0.0,,5d4ada2fed2dfc0016a22af5,11:55:18,03/04/2024
,"<p style=""font-size:75px;"">...</p>",,ospan,iti,IeGaeeJ9XBcX6sxB8CdSerkmgg92,html-keyboard-response,134,768977,0.0-46.0-4.0-2.0-0.0,,,,,,,,,,,,,,,5d4ada2fed2dfc0016a22af5,11:55:18,03/04/2024
1283.0,,,ospan,symmetry,IeGaeeJ9XBcX6sxB8CdSerkmgg92,symmetry-judgement-task,135,771331,0.0-46.0-4.0-2.0-1.0-0.0,,,,,,,,,,1.0,1.0,,,,5d4ada2fed2dfc0016a22af5,11:55:18,03/04/2024
,"<div style=""font-size: 10rem; color: #0000FF"">K</div>",,ospan,letter,IeGaeeJ9XBcX6sxB8CdSerkmgg92,html-keyboard-response,136,772344,0.0-46.0-4.0-2.0-1.0-1.0,,,,,,,,,,,,,,,5d4ada2fed2dfc0016a22af5,11:55:18,03/04/2024
1172.0,,,ospan,symmetry,IeGaeeJ9XBcX6sxB8CdSerkmgg92,symmetry-judgement-task,137,775516,0.0-46.0-4.0-2.0-1.0-2.0,,,,,,,,,,1.0,1.0,,,,5d4ada2fed2dfc0016a22af5,11:55:18,03/04/2024
,"<div style=""font-size: 10rem; color: #0000FF"">C</div>",,ospan,letter,IeGaeeJ9XBcX6sxB8CdSerkmgg92,html-keyboard-response,138,776528,0.0-46.0-4.0-2.0-1.0-3.0,,,,,,,,,,,,,,,5d4ada2fed2dfc0016a22af5,11:55:18,03/04/2024
1091.0,,,ospan,symmetry,IeGaeeJ9XBcX6sxB8CdSerkmgg92,symmetry-judgement-task,139,779598,0.0-46.0-4.0-2.0-1.0-4.0,,,,,,,,,,1.0,1.0,,,,5d4ada2fed2dfc0016a22af5,11:55:18,03/04/2024
,"<div style=""font-size: 10rem; color: #0000FF"">G</div>",,ospan,letter,IeGaeeJ9XBcX6sxB8CdSerkmgg92,html-keyboard-response,140,780608,0.0-46.0-4.0-2.0-1.0-5.0,,,,,,,,,,,,,,,5d4ada2fed2dfc0016a22af5,11:55:18,03/04/2024
3612.5,"<div class = numbox><p style=""font-size: 2.4rem"">Please recall the letters you saw to the best of your ability. If you do not remember a particular letter, use the SKIP button.<br><b>(When you are ready to lock in your answer, press ENTER)</b></p><button id = button_1 class = ""square num-button"" onclick = ""recordClick(this)""><div class = content><div class = numbers>C</div></div></button><button id = button_2 class = ""square num-button"" onclick = ""recordClick(this)""><div class = content><div class = numbers>G</div></div></button><button id = button_3 class = ""square num-button"" onclick = ""recordClick(this)""><div class = content><div class = numbers>H</div></div></button><button id = button_4 class = ""square num-button"" onclick = ""recordClick(this)""><div class = content><div class = numbers>J</div></div></button><button id = button_5 class = ""square num-button"" onclick = ""recordClick(this)""><div class = content><div class = numbers>K</div></div></button><button id = button_6 class = ""square num-button"" onclick = ""recordClick(this)""><div class = content><div class = numbers>L</div></div></button><button id = button_7 class = ""square num-button"" onclick = ""recordClick(this)""><div class = content><div class = numbers>N</div></div></button><button id = button_8 class = ""square num-button"" onclick = ""recordClick(this)""><div class = content><div class = numbers>P</div></div></button><button id = button_9 class = ""square num-button"" onclick = ""recordClick(this)""><div class = content><div class = numbers>Q</div></div></button><button id = button_10 class = ""square num-button"" onclick = ""recordClick(this)""><div class = content><div class = numbers>R</div></div></button><button id = button_11 class = ""square num-button"" onclick = ""recordClick(this)""><div class = content><div class = numbers>S</div></div></button><button id = button_12 class = ""square num-button"" onclick = ""recordClick(this)""><div class = content><div class = numbers>Y</div></div></button><button class = clear_button id = ""ClearButton"" onclick = ""clearResponse()"">BACKSPACE</button><button class = blank_button id = ""BlankButton"" onclick = ""blankResponse()"">SKIP</button><p style=""font-size: 2.4rem""><u><b>Current Answer:</b></u></p><br><br><div id=echoed_txt style=""font-size: 5rem; color:blue;""><b></b></div></div>",enter,ospan,retrieval,IeGaeeJ9XBcX6sxB8CdSerkmgg92,html-keyboard-response,141,785017,0.0-46.0-4.0-2.0-2.0,15,15,15,3.0,"[""K"",""C"",""G""]","[""K"",""C"",""G""]",1.0,3.0,,,,,,,5d4ada2fed2dfc0016a22af5,11:55:18,03/04/2024
940.0999999996275,[''],0,ospan,feedback,IeGaeeJ9XBcX6sxB8CdSerkmgg92,html-button-response,142,786471,0.0-46.0-4.0-2.0-3.0,,,,,,,,,,,,100.0,0.0,,5d4ada2fed2dfc0016a22af5,11:55:18,03/04/2024
,"<p style=""font-size:75px;"">...</p>",,ospan,iti,IeGaeeJ9XBcX6sxB8CdSerkmgg92,html-keyboard-response,143,787479,0.0-46.0-5.0-0.0-0.0,,,,,,,,,,,,,,,5d4ada2fed2dfc0016a22af5,11:55:18,03/04/2024
1309.0,,,ospan,symmetry,IeGaeeJ9XBcX6sxB8CdSerkmgg92,symmetry-judgement-task,144,790005,0.0-46.0-5.0-0.0-1.0-0.0,,,,,,,,,,1.0,1.0,,,,5d4ada2fed2dfc0016a22af5,11:55:18,03/04/2024
,"<div style=""font-size: 10rem; color: #0000FF"">G</div>",,ospan,letter,IeGaeeJ9XBcX6sxB8CdSerkmgg92,html-keyboard-response,145,791008,0.0-46.0-5.0-0.0-1.0-1.0,,,,,,,,,,,,,,,5d4ada2fed2dfc0016a22af5,11:55:18,03/04/2024
938.0,,,ospan,symmetry,IeGaeeJ9XBcX6sxB8CdSerkmgg92,symmetry-judgement-task,146,793881,0.0-46.0-5.0-0.0-1.0-2.0,,,,,,,,,,1.0,1.0,,,,5d4ada2fed2dfc0016a22af5,11:55:18,03/04/2024
,"<div style=""font-size: 10rem; color: #0000FF"">N</div>",,ospan,letter,IeGaeeJ9XBcX6sxB8CdSerkmgg92,html-keyboard-response,147,794904,0.0-46.0-5.0-0.0-1.0-3.0,,,,,,,,,,,,,,,5d4ada2fed2dfc0016a22af5,11:55:18,03/04/2024
988.0,,,ospan,symmetry,IeGaeeJ9XBcX6sxB8CdSerkmgg92,symmetry-judgement-task,148,797878,0.0-46.0-5.0-0.0-1.0-4.0,,,,,,,,,,1.0,1.0,,,,5d4ada2fed2dfc0016a22af5,11:55:18,03/04/2024
,"<div style=""font-size: 10rem; color: #0000FF"">Y</div>",,ospan,letter,IeGaeeJ9XBcX6sxB8CdSerkmgg92,html-keyboard-response,149,798884,0.0-46.0-5.0-0.0-1.0-5.0,,,,,,,,,,,,,,,5d4ada2fed2dfc0016a22af5,11:55:18,03/04/2024
1562.0,,,ospan,symmetry,IeGaeeJ9XBcX6sxB8CdSerkmgg92,symmetry-judgement-task,150,802426,0.0-46.0-5.0-0.0-1.0-6.0,,,,,,,,,,1.0,1.0,,,,5d4ada2fed2dfc0016a22af5,11:55:18,03/04/2024
,"<div style=""font-size: 10rem; color: #0000FF"">R</div>",,ospan,letter,IeGaeeJ9XBcX6sxB8CdSerkmgg92,html-keyboard-response,151,803438,0.0-46.0-5.0-0.0-1.0-7.0,,,,,,,,,,,,,,,5d4ada2fed2dfc0016a22af5,11:55:18,03/04/2024
1592.0,,,ospan,symmetry,IeGaeeJ9XBcX6sxB8CdSerkmgg92,symmetry-judgement-task,152,807010,0.0-46.0-5.0-0.0-1.0-8.0,,,,,,,,,,1.0,1.0,,,,5d4ada2fed2dfc0016a22af5,11:55:18,03/04/2024
,"<div style=""font-size: 10rem; color: #0000FF"">K</div>",,ospan,letter,IeGaeeJ9XBcX6sxB8CdSerkmgg92,html-keyboard-response,153,808024,0.0-46.0-5.0-0.0-1.0-9.0,,,,,,,,,,,,,,,5d4ada2fed2dfc0016a22af5,11:55:18,03/04/2024
1704.0,,,ospan,symmetry,IeGaeeJ9XBcX6sxB8CdSerkmgg92,symmetry-judgement-task,154,811692,0.0-46.0-5.0-0.0-1.0-10.0,,,,,,,,,,1.0,1.0,,,,5d4ada2fed2dfc0016a22af5,11:55:18,03/04/2024
,"<div style=""font-size: 10rem; color: #0000FF"">C</div>",,ospan,letter,IeGaeeJ9XBcX6sxB8CdSerkmgg92,html-keyboard-response,155,812713,0.0-46.0-5.0-0.0-1.0-11.0,,,,,,,,,,,,,,,5d4ada2fed2dfc0016a22af5,11:55:18,03/04/2024
8354.200000000186,"<div class = numbox><p style=""font-size: 2.4rem"">Please recall the letters you saw to the best of your ability. If you do not remember a particular letter, use the SKIP button.<br><b>(When you are ready to lock in your answer, press ENTER)</b></p><button id = button_1 class = ""square num-button"" onclick = ""recordClick(this)""><div class = content><div class = numbers>C</div></div></button><button id = button_2 class = ""square num-button"" onclick = ""recordClick(this)""><div class = content><div class = numbers>G</div></div></button><button id = button_3 class = ""square num-button"" onclick = ""recordClick(this)""><div class = content><div class = numbers>H</div></div></button><button id = button_4 class = ""square num-button"" onclick = ""recordClick(this)""><div class = content><div class = numbers>J</div></div></button><button id = button_5 class = ""square num-button"" onclick = ""recordClick(this)""><div class = content><div class = numbers>K</div></div></button><button id = button_6 class = ""square num-button"" onclick = ""recordClick(this)""><div class = content><div class = numbers>L</div></div></button><button id = button_7 class = ""square num-button"" onclick = ""recordClick(this)""><div class = content><div class = numbers>N</div></div></button><button id = button_8 class = ""square num-button"" onclick = ""recordClick(this)""><div class = content><div class = numbers>P</div></div></button><button id = button_9 class = ""square num-button"" onclick = ""recordClick(this)""><div class = content><div class = numbers>Q</div></div></button><button id = button_10 class = ""square num-button"" onclick = ""recordClick(this)""><div class = content><div class = numbers>R</div></div></button><button id = button_11 class = ""square num-button"" onclick = ""recordClick(this)""><div class = content><div class = numbers>S</div></div></button><button id = button_12 class = ""square num-button"" onclick = ""recordClick(this)""><div class = content><div class = numbers>Y</div></div></button><button class = clear_button id = ""ClearButton"" onclick = ""clearResponse()"">BACKSPACE</button><button class = blank_button id = ""BlankButton"" onclick = ""blankResponse()"">SKIP</button><p style=""font-size: 2.4rem""><u><b>Current Answer:</b></u></p><br><br><div id=echoed_txt style=""font-size: 5rem; color:blue;""><b></b></div></div>",enter,ospan,retrieval,IeGaeeJ9XBcX6sxB8CdSerkmgg92,html-keyboard-response,156,821850,0.0-46.0-5.0-0.0-2.0,21,18,15,6.0,"[""G"",""N"",""K"",""R"",""C""]","[""G"",""N"",""Y"",""R"",""K"",""C""]",0.0,3.0,,,,,,,5d4ada2fed2dfc0016a22af5,11:55:18,03/04/2024
2844.0999999996275,[''],0,ospan,feedback,IeGaeeJ9XBcX6sxB8CdSerkmgg92,html-button-response,157,825209,0.0-46.0-5.0-0.0-3.0,,,,,,,,,,,,100.0,0.0,,5d4ada2fed2dfc0016a22af5,11:55:18,03/04/2024
,"<p style=""font-size:75px;"">...</p>",,ospan,iti,IeGaeeJ9XBcX6sxB8CdSerkmgg92,html-keyboard-response,158,826218,0.0-46.0-5.0-1.0-0.0,,,,,,,,,,,,,,,5d4ada2fed2dfc0016a22af5,11:55:18,03/04/2024
1250.0,,,ospan,symmetry,IeGaeeJ9XBcX6sxB8CdSerkmgg92,symmetry-judgement-task,159,828678,0.0-46.0-5.0-1.0-1.0-0.0,,,,,,,,,,1.0,1.0,,,,5d4ada2fed2dfc0016a22af5,11:55:18,03/04/2024
,"<div style=""font-size: 10rem; color: #0000FF"">S</div>",,ospan,letter,IeGaeeJ9XBcX6sxB8CdSerkmgg92,html-keyboard-response,160,829688,0.0-46.0-5.0-1.0-1.0-1.0,,,,,,,,,,,,,,,5d4ada2fed2dfc0016a22af5,11:55:18,03/04/2024
1070.0,,,ospan,symmetry,IeGaeeJ9XBcX6sxB8CdSerkmgg92,symmetry-judgement-task,161,832748,0.0-46.0-5.0-1.0-1.0-2.0,,,,,,,,,,1.0,1.0,,,,5d4ada2fed2dfc0016a22af5,11:55:18,03/04/2024
,"<div style=""font-size: 10rem; color: #0000FF"">N</div>",,ospan,letter,IeGaeeJ9XBcX6sxB8CdSerkmgg92,html-keyboard-response,162,833778,0.0-46.0-5.0-1.0-1.0-3.0,,,,,,,,,,,,,,,5d4ada2fed2dfc0016a22af5,11:55:18,03/04/2024
1248.0,,,ospan,symmetry,IeGaeeJ9XBcX6sxB8CdSerkmgg92,symmetry-judgement-task,163,837016,0.0-46.0-5.0-1.0-1.0-4.0,,,,,,,,,,1.0,1.0,,,,5d4ada2fed2dfc0016a22af5,11:55:18,03/04/2024
,"<div style=""font-size: 10rem; color: #0000FF"">L</div>",,ospan,letter,IeGaeeJ9XBcX6sxB8CdSerkmgg92,html-keyboard-response,164,838029,0.0-46.0-5.0-1.0-1.0-5.0,,,,,,,,,,,,,,,5d4ada2fed2dfc0016a22af5,11:55:18,03/04/2024
1086.0,,,ospan,symmetry,IeGaeeJ9XBcX6sxB8CdSerkmgg92,symmetry-judgement-task,165,841119,0.0-46.0-5.0-1.0-1.0-6.0,,,,,,,,,,1.0,1.0,,,,5d4ada2fed2dfc0016a22af5,11:55:18,03/04/2024
,"<div style=""font-size: 10rem; color: #0000FF"">G</div>",,ospan,letter,IeGaeeJ9XBcX6sxB8CdSerkmgg92,html-keyboard-response,166,842139,0.0-46.0-5.0-1.0-1.0-7.0,,,,,,,,,,,,,,,5d4ada2fed2dfc0016a22af5,11:55:18,03/04/2024
875.0,,,ospan,symmetry,IeGaeeJ9XBcX6sxB8CdSerkmgg92,symmetry-judgement-task,167,844997,0.0-46.0-5.0-1.0-1.0-8.0,,,,,,,,,,1.0,1.0,,,,5d4ada2fed2dfc0016a22af5,11:55:18,03/04/2024
,"<div style=""font-size: 10rem; color: #0000FF"">R</div>",,ospan,letter,IeGaeeJ9XBcX6sxB8CdSerkmgg92,html-keyboard-response,168,846003,0.0-46.0-5.0-1.0-1.0-9.0,,,,,,,,,,,,,,,5d4ada2fed2dfc0016a22af5,11:55:18,03/04/2024
1061.0,,,ospan,symmetry,IeGaeeJ9XBcX6sxB8CdSerkmgg92,symmetry-judgement-task,169,849002,0.0-46.0-5.0-1.0-1.0-10.0,,,,,,,,,,1.0,1.0,,,,5d4ada2fed2dfc0016a22af5,11:55:18,03/04/2024
,"<div style=""font-size: 10rem; color: #0000FF"">Y</div>",,ospan,letter,IeGaeeJ9XBcX6sxB8CdSerkmgg92,html-keyboard-response,170,850028,0.0-46.0-5.0-1.0-1.0-11.0,,,,,,,,,,,,,,,5d4ada2fed2dfc0016a22af5,11:55:18,03/04/2024
953.0,,,ospan,symmetry,IeGaeeJ9XBcX6sxB8CdSerkmgg92,symmetry-judgement-task,171,852983,0.0-46.0-5.0-1.0-1.0-12.0,,,,,,,,,,1.0,1.0,,,,5d4ada2fed2dfc0016a22af5,11:55:18,03/04/2024
,"<div style=""font-size: 10rem; color: #0000FF"">K</div>",,ospan,letter,IeGaeeJ9XBcX6sxB8CdSerkmgg92,html-keyboard-response,172,853996,0.0-46.0-5.0-1.0-1.0-13.0,,,,,,,,,,,,,,,5d4ada2fed2dfc0016a22af5,11:55:18,03/04/2024
17409.300000000745,"<div class = numbox><p style=""font-size: 2.4rem"">Please recall the letters you saw to the best of your ability. If you do not remember a particular letter, use the SKIP button.<br><b>(When you are ready to lock in your answer, press ENTER)</b></p><button id = button_1 class = ""square num-button"" onclick = ""recordClick(this)""><div class = content><div class = numbers>C</div></div></button><button id = button_2 class = ""square num-button"" onclick = ""recordClick(this)""><div class = content><div class = numbers>G</div></div></button><button id = button_3 class = ""square num-button"" onclick = ""recordClick(this)""><div class = content><div class = numbers>H</div></div></button><button id = button_4 class = ""square num-button"" onclick = ""recordClick(this)""><div class = content><div class = numbers>J</div></div></button><button id = button_5 class = ""square num-button"" onclick = ""recordClick(this)""><div class = content><div class = numbers>K</div></div></button><button id = button_6 class = ""square num-button"" onclick = ""recordClick(this)""><div class = content><div class = numbers>L</div></div></button><button id = button_7 class = ""square num-button"" onclick = ""recordClick(this)""><div class = content><div class = numbers>N</div></div></button><button id = button_8 class = ""square num-button"" onclick = ""recordClick(this)""><div class = content><div class = numbers>P</div></div></button><button id = button_9 class = ""square num-button"" onclick = ""recordClick(this)""><div class = content><div class = numbers>Q</div></div></button><button id = button_10 class = ""square num-button"" onclick = ""recordClick(this)""><div class = content><div class = numbers>R</div></div></button><button id = button_11 class = ""square num-button"" onclick = ""recordClick(this)""><div class = content><div class = numbers>S</div></div></button><button id = button_12 class = ""square num-button"" onclick = ""recordClick(this)""><div class = content><div class = numbers>Y</div></div></button><button class = clear_button id = ""ClearButton"" onclick = ""clearResponse()"">BACKSPACE</button><button class = blank_button id = ""BlankButton"" onclick = ""blankResponse()"">SKIP</button><p style=""font-size: 2.4rem""><u><b>Current Answer:</b></u></p><br><br><div id=echoed_txt style=""font-size: 5rem; color:blue;""><b></b></div></div>",enter,ospan,retrieval,IeGaeeJ9XBcX6sxB8CdSerkmgg92,html-keyboard-response,173,872175,0.0-46.0-5.0-1.0-2.0,28,24,15,7.0,"[""S"",""N"",""L"",""G"",""R"",""Y"",""_""]","[""S"",""N"",""L"",""G"",""R"",""Y"",""K""]",0.0,6.0,,,,,,,5d4ada2fed2dfc0016a22af5,11:55:18,03/04/2024
1397.5,[''],0,ospan,feedback,IeGaeeJ9XBcX6sxB8CdSerkmgg92,html-button-response,174,874091,0.0-46.0-5.0-1.0-3.0,,,,,,,,,,,,100.0,0.0,,5d4ada2fed2dfc0016a22af5,11:55:18,03/04/2024
,"<p style=""font-size:75px;"">...</p>",,ospan,iti,IeGaeeJ9XBcX6sxB8CdSerkmgg92,html-keyboard-response,175,875107,0.0-46.0-6.0-0.0-0.0,,,,,,,,,,,,,,,5d4ada2fed2dfc0016a22af5,11:55:18,03/04/2024
1705.0,,,ospan,symmetry,IeGaeeJ9XBcX6sxB8CdSerkmgg92,symmetry-judgement-task,176,878032,0.0-46.0-6.0-0.0-1.0-0.0,,,,,,,,,,1.0,1.0,,,,5d4ada2fed2dfc0016a22af5,11:55:18,03/04/2024
,"<div style=""font-size: 10rem; color: #0000FF"">G</div>",,ospan,letter,IeGaeeJ9XBcX6sxB8CdSerkmgg92,html-keyboard-response,177,879041,0.0-46.0-6.0-0.0-1.0-1.0,,,,,,,,,,,,,,,5d4ada2fed2dfc0016a22af5,11:55:18,03/04/2024
1414.0,,,ospan,symmetry,IeGaeeJ9XBcX6sxB8CdSerkmgg92,symmetry-judgement-task,178,882410,0.0-46.0-6.0-0.0-1.0-2.0,,,,,,,,,,1.0,1.0,,,,5d4ada2fed2dfc0016a22af5,11:55:18,03/04/2024
,"<div style=""font-size: 10rem; color: #0000FF"">L</div>",,ospan,letter,IeGaeeJ9XBcX6sxB8CdSerkmgg92,html-keyboard-response,179,883434,0.0-46.0-6.0-0.0-1.0-3.0,,,,,,,,,,,,,,,5d4ada2fed2dfc0016a22af5,11:55:18,03/04/2024
1060.0,,,ospan,symmetry,IeGaeeJ9XBcX6sxB8CdSerkmgg92,symmetry-judgement-task,180,886482,0.0-46.0-6.0-0.0-1.0-4.0,,,,,,,,,,1.0,1.0,,,,5d4ada2fed2dfc0016a22af5,11:55:18,03/04/2024
,"<div style=""font-size: 10rem; color: #0000FF"">K</div>",,ospan,letter,IeGaeeJ9XBcX6sxB8CdSerkmgg92,html-keyboard-response,181,887490,0.0-46.0-6.0-0.0-1.0-5.0,,,,,,,,,,,,,,,5d4ada2fed2dfc0016a22af5,11:55:18,03/04/2024
1040.0,,,ospan,symmetry,IeGaeeJ9XBcX6sxB8CdSerkmgg92,symmetry-judgement-task,182,890543,0.0-46.0-6.0-0.0-1.0-6.0,,,,,,,,,,1.0,1.0,,,,5d4ada2fed2dfc0016a22af5,11:55:18,03/04/2024
,"<div style=""font-size: 10rem; color: #0000FF"">S</div>",,ospan,letter,IeGaeeJ9XBcX6sxB8CdSerkmgg92,html-keyboard-response,183,891557,0.0-46.0-6.0-0.0-1.0-7.0,,,,,,,,,,,,,,,5d4ada2fed2dfc0016a22af5,11:55:18,03/04/2024
1055.0,,,ospan,symmetry,IeGaeeJ9XBcX6sxB8CdSerkmgg92,symmetry-judgement-task,184,894595,0.0-46.0-6.0-0.0-1.0-8.0,,,,,,,,,,1.0,1.0,,,,5d4ada2fed2dfc0016a22af5,11:55:18,03/04/2024
,"<div style=""font-size: 10rem; color: #0000FF"">R</div>",,ospan,letter,IeGaeeJ9XBcX6sxB8CdSerkmgg92,html-keyboard-response,185,895610,0.0-46.0-6.0-0.0-1.0-9.0,,,,,,,,,,,,,,,5d4ada2fed2dfc0016a22af5,11:55:18,03/04/2024
6858.399999999441,"<div class = numbox><p style=""font-size: 2.4rem"">Please recall the letters you saw to the best of your ability. If you do not remember a particular letter, use the SKIP button.<br><b>(When you are ready to lock in your answer, press ENTER)</b></p><button id = button_1 class = ""square num-button"" onclick = ""recordClick(this)""><div class = content><div class = numbers>C</div></div></button><button id = button_2 class = ""square num-button"" onclick = ""recordClick(this)""><div class = content><div class = numbers>G</div></div></button><button id = button_3 class = ""square num-button"" onclick = ""recordClick(this)""><div class = content><div class = numbers>H</div></div></button><button id = button_4 class = ""square num-button"" onclick = ""recordClick(this)""><div class = content><div class = numbers>J</div></div></button><button id = button_5 class = ""square num-button"" onclick = ""recordClick(this)""><div class = content><div class = numbers>K</div></div></button><button id = button_6 class = ""square num-button"" onclick = ""recordClick(this)""><div class = content><div class = numbers>L</div></div></button><button id = button_7 class = ""square num-button"" onclick = ""recordClick(this)""><div class = content><div class = numbers>N</div></div></button><button id = button_8 class = ""square num-button"" onclick = ""recordClick(this)""><div class = content><div class = numbers>P</div></div></button><button id = button_9 class = ""square num-button"" onclick = ""recordClick(this)""><div class = content><div class = numbers>Q</div></div></button><button id = button_10 class = ""square num-button"" onclick = ""recordClick(this)""><div class = content><div class = numbers>R</div></div></button><button id = button_11 class = ""square num-button"" onclick = ""recordClick(this)""><div class = content><div class = numbers>S</div></div></button><button id = button_12 class = ""square num-button"" onclick = ""recordClick(this)""><div class = content><div class = numbers>Y</div></div></button><button class = clear_button id = ""ClearButton"" onclick = ""clearResponse()"">BACKSPACE</button><button class = blank_button id = ""BlankButton"" onclick = ""blankResponse()"">SKIP</button><p style=""font-size: 2.4rem""><u><b>Current Answer:</b></u></p><br><br><div id=echoed_txt style=""font-size: 5rem; color:blue;""><b></b></div></div>",enter,ospan,retrieval,IeGaeeJ9XBcX6sxB8CdSerkmgg92,html-keyboard-response,186,903235,0.0-46.0-6.0-0.0-2.0,33,29,20,5.0,"[""G"",""L"",""K"",""S"",""R""]","[""G"",""L"",""K"",""S"",""R""]",1.0,5.0,,,,,,,5d4ada2fed2dfc0016a22af5,11:55:18,03/04/2024
1240.8999999994412,[''],0,ospan,feedback,IeGaeeJ9XBcX6sxB8CdSerkmgg92,html-button-response,187,904984,0.0-46.0-6.0-0.0-3.0,,,,,,,,,,,,100.0,0.0,,5d4ada2fed2dfc0016a22af5,11:55:18,03/04/2024
,"<p style=""font-size:75px;"">...</p>",,ospan,iti,IeGaeeJ9XBcX6sxB8CdSerkmgg92,html-keyboard-response,188,905989,0.0-46.0-6.0-1.0-0.0,,,,,,,,,,,,,,,5d4ada2fed2dfc0016a22af5,11:55:18,03/04/2024
1284.0,,,ospan,symmetry,IeGaeeJ9XBcX6sxB8CdSerkmgg92,symmetry-judgement-task,189,908355,0.0-46.0-6.0-1.0-1.0-0.0,,,,,,,,,,1.0,1.0,,,,5d4ada2fed2dfc0016a22af5,11:55:18,03/04/2024
,"<div style=""font-size: 10rem; color: #0000FF"">N</div>",,ospan,letter,IeGaeeJ9XBcX6sxB8CdSerkmgg92,html-keyboard-response,190,909361,0.0-46.0-6.0-1.0-1.0-1.0,,,,,,,,,,,,,,,5d4ada2fed2dfc0016a22af5,11:55:18,03/04/2024
789.0,,,ospan,symmetry,IeGaeeJ9XBcX6sxB8CdSerkmgg92,symmetry-judgement-task,191,912123,0.0-46.0-6.0-1.0-1.0-2.0,,,,,,,,,,1.0,1.0,,,,5d4ada2fed2dfc0016a22af5,11:55:18,03/04/2024
,"<div style=""font-size: 10rem; color: #0000FF"">L</div>",,ospan,letter,IeGaeeJ9XBcX6sxB8CdSerkmgg92,html-keyboard-response,192,913131,0.0-46.0-6.0-1.0-1.0-3.0,,,,,,,,,,,,,,,5d4ada2fed2dfc0016a22af5,11:55:18,03/04/2024
1161.0,,,ospan,symmetry,IeGaeeJ9XBcX6sxB8CdSerkmgg92,symmetry-judgement-task,193,916280,0.0-46.0-6.0-1.0-1.0-4.0,,,,,,,,,,1.0,1.0,,,,5d4ada2fed2dfc0016a22af5,11:55:18,03/04/2024
,"<div style=""font-size: 10rem; color: #0000FF"">Q</div>",,ospan,letter,IeGaeeJ9XBcX6sxB8CdSerkmgg92,html-keyboard-response,194,917298,0.0-46.0-6.0-1.0-1.0-5.0,,,,,,,,,,,,,,,5d4ada2fed2dfc0016a22af5,11:55:18,03/04/2024
1024.0,,,ospan,symmetry,IeGaeeJ9XBcX6sxB8CdSerkmgg92,symmetry-judgement-task,195,920285,0.0-46.0-6.0-1.0-1.0-6.0,,,,,,,,,,1.0,1.0,,,,5d4ada2fed2dfc0016a22af5,11:55:18,03/04/2024
,"<div style=""font-size: 10rem; color: #0000FF"">P</div>",,ospan,letter,IeGaeeJ9XBcX6sxB8CdSerkmgg92,html-keyboard-response,196,921288,0.0-46.0-6.0-1.0-1.0-7.0,,,,,,,,,,,,,,,5d4ada2fed2dfc0016a22af5,11:55:18,03/04/2024
1221.0,,,ospan,symmetry,IeGaeeJ9XBcX6sxB8CdSerkmgg92,symmetry-judgement-task,197,924470,0.0-46.0-6.0-1.0-1.0-8.0,,,,,,,,,,1.0,1.0,,,,5d4ada2fed2dfc0016a22af5,11:55:18,03/04/2024
,"<div style=""font-size: 10rem; color: #0000FF"">Y</div>",,ospan,letter,IeGaeeJ9XBcX6sxB8CdSerkmgg92,html-keyboard-response,198,925489,0.0-46.0-6.0-1.0-1.0-9.0,,,,,,,,,,,,,,,5d4ada2fed2dfc0016a22af5,11:55:18,03/04/2024
1116.0,,,ospan,symmetry,IeGaeeJ9XBcX6sxB8CdSerkmgg92,symmetry-judgement-task,199,928581,0.0-46.0-6.0-1.0-1.0-10.0,,,,,,,,,,1.0,1.0,,,,5d4ada2fed2dfc0016a22af5,11:55:18,03/04/2024
,"<div style=""font-size: 10rem; color: #0000FF"">H</div>",,ospan,letter,IeGaeeJ9XBcX6sxB8CdSerkmgg92,html-keyboard-response,200,929591,0.0-46.0-6.0-1.0-1.0-11.0,,,,,,,,,,,,,,,5d4ada2fed2dfc0016a22af5,11:55:18,03/04/2024
1850.0,,,ospan,symmetry,IeGaeeJ9XBcX6sxB8CdSerkmgg92,symmetry-judgement-task,201,933442,0.0-46.0-6.0-1.0-1.0-12.0,,,,,,,,,,1.0,1.0,,,,5d4ada2fed2dfc0016a22af5,11:55:18,03/04/2024
,"<div style=""font-size: 10rem; color: #0000FF"">K</div>",,ospan,letter,IeGaeeJ9XBcX6sxB8CdSerkmgg92,html-keyboard-response,202,934463,0.0-46.0-6.0-1.0-1.0-13.0,,,,,,,,,,,,,,,5d4ada2fed2dfc0016a22af5,11:55:18,03/04/2024
1300.0,,,ospan,symmetry,IeGaeeJ9XBcX6sxB8CdSerkmgg92,symmetry-judgement-task,203,937709,0.0-46.0-6.0-1.0-1.0-14.0,,,,,,,,,,1.0,1.0,,,,5d4ada2fed2dfc0016a22af5,11:55:18,03/04/2024
,"<div style=""font-size: 10rem; color: #0000FF"">S</div>",,ospan,letter,IeGaeeJ9XBcX6sxB8CdSerkmgg92,html-keyboard-response,204,938720,0.0-46.0-6.0-1.0-1.0-15.0,,,,,,,,,,,,,,,5d4ada2fed2dfc0016a22af5,11:55:18,03/04/2024
10448.5,"<div class = numbox><p style=""font-size: 2.4rem"">Please recall the letters you saw to the best of your ability. If you do not remember a particular letter, use the SKIP button.<br><b>(When you are ready to lock in your answer, press ENTER)</b></p><button id = button_1 class = ""square num-button"" onclick = ""recordClick(this)""><div class = content><div class = numbers>C</div></div></button><button id = button_2 class = ""square num-button"" onclick = ""recordClick(this)""><div class = content><div class = numbers>G</div></div></button><button id = button_3 class = ""square num-button"" onclick = ""recordClick(this)""><div class = content><div class = numbers>H</div></div></button><button id = button_4 class = ""square num-button"" onclick = ""recordClick(this)""><div class = content><div class = numbers>J</div></div></button><button id = button_5 class = ""square num-button"" onclick = ""recordClick(this)""><div class = content><div class = numbers>K</div></div></button><button id = button_6 class = ""square num-button"" onclick = ""recordClick(this)""><div class = content><div class = numbers>L</div></div></button><button id = button_7 class = ""square num-button"" onclick = ""recordClick(this)""><div class = content><div class = numbers>N</div></div></button><button id = button_8 class = ""square num-button"" onclick = ""recordClick(this)""><div class = content><div class = numbers>P</div></div></button><button id = button_9 class = ""square num-button"" onclick = ""recordClick(this)""><div class = content><div class = numbers>Q</div></div></button><button id = button_10 class = ""square num-button"" onclick = ""recordClick(this)""><div class = content><div class = numbers>R</div></div></button><button id = button_11 class = ""square num-button"" onclick = ""recordClick(this)""><div class = content><div class = numbers>S</div></div></button><button id = button_12 class = ""square num-button"" onclick = ""recordClick(this)""><div class = content><div class = numbers>Y</div></div></button><button class = clear_button id = ""ClearButton"" onclick = ""clearResponse()"">BACKSPACE</button><button class = blank_button id = ""BlankButton"" onclick = ""blankResponse()"">SKIP</button><p style=""font-size: 2.4rem""><u><b>Current Answer:</b></u></p><br><br><div id=echoed_txt style=""font-size: 5rem; color:blue;""><b></b></div></div>",enter,ospan,retrieval,IeGaeeJ9XBcX6sxB8CdSerkmgg92,html-keyboard-response,205,949935,0.0-46.0-6.0-1.0-2.0,41,35,20,8.0,"[""N"",""L"",""Q"",""P"",""Y"",""H"",""S""]","[""N"",""L"",""Q"",""P"",""Y"",""H"",""K"",""S""]",0.0,6.0,,,,,,,5d4ada2fed2dfc0016a22af5,11:55:18,03/04/2024
1172.2999999998137,[''],0,ospan,feedback,IeGaeeJ9XBcX6sxB8CdSerkmgg92,html-button-response,206,951624,0.0-46.0-6.0-1.0-3.0,,,,,,,,,,,,100.0,0.0,,5d4ada2fed2dfc0016a22af5,11:55:18,03/04/2024
11695.299999999814,,"{'Q0': 'All was clear, very easy to follow.'}",ospan,survey_ospan,IeGaeeJ9XBcX6sxB8CdSerkmgg92,lmdlab-survey-text,207,964092,0.0-46.0-7.0,,,,,,,,,,,,,,IeGaeeJ9XBcX6sxB8CdSerkmgg92,5d4ada2fed2dfc0016a22af5,11:55:18,03/04/2024
4612.399999999441,<p><p style='font-size: 3rem'>Great work!<br><br>This completes the symmetry and memory task.</p><br><br><br>,0,ospan,finish,IeGaeeJ9XBcX6sxB8CdSerkmgg92,html-button-response,208,968709,0.0-46.0-8.0,41,35,20,,,,,,,,,100.0,,,5d4ada2fed2dfc0016a22af5,11:55:18,03/04/2024
