rt,stimulus,response,exp_name,exp_stage,subjectID,trial_type,trial_index,time_elapsed,internal_node_id,ospan_shown,ospan_total,ospan_abs,length,resp_actual,resp_correct,full_correct,num_correct,feedback,accuracy,correct,math_acc,math_warning,databaseID,prolificID,start_time,date
1474.7999999523163,<div class = 'left_align' style='font-size: 3.25rem; line-height: 1.3;'><p class = 'center_align'><b>Welcome to the Symmetry and Memory Task</b><br><br><br><br></p>Press 'continue' to show the instructions.<br><br><br><br></div>,0,ospan,instruct,oWLmhi7Tjbhvfjrcliu8AePS8Uy2,html-button-response,54,583519,0.0-46.0-0.0-0.0-0.0,,,,,,,,,,,,,,,606f1462c3fcfaeb5c52bec8,16:30:31,03/04/2024
8787.799999952316,"<div class = 'left_align' style='font-size: 3.25rem; line-height: 1.3;'><p class = 'center_align'><b>Symmetry and Memory Task</b><br><br></p>In this task, you will try to memorize letters you see on the screen<br>while you also view black and white grid pictures.<br><br>In the next few minutes, you will have some practice to get you familiar<br>with how the task works.<br><br>It may be difficult sometimes, but please do not worry about making mistakes!<br><br>We will begin by practicing the letter part of the task.<br><br><br><br></div>",0,ospan,instruct,oWLmhi7Tjbhvfjrcliu8AePS8Uy2,html-button-response,55,592560,0.0-46.0-0.0-0.0-1.0,,,,,,,,,,,,,,,606f1462c3fcfaeb5c52bec8,16:30:31,03/04/2024
20769.899999976158,"<div class = 'left_align' style='font-size: 3.25rem; line-height: 1.3;'>For this practice part, letters will appear on the screen one at a time.<br><br>Try to remember each letter in the order presented.<br><br>After some letters have been shown, you will see a response screen. Your<br>goal is to report the letters you saw <b>in order</b>. If you do not remember<br>a particular letter, you will have the option to leave it blank.<br><br><br><br></div>",0,ospan,instruct,oWLmhi7Tjbhvfjrcliu8AePS8Uy2,html-button-response,56,613589,0.0-46.0-0.0-0.0-2.0,,,,,,,,,,,,,,,606f1462c3fcfaeb5c52bec8,16:30:31,03/04/2024
1873.5,"<div class = 'left_align' style='font-size: 3.25rem; line-height: 1.3;'>Remember, it is very important to get the letters in the same<br>order as you see them.<br><br>When you are ready, you may begin the letter practice.</div><br><br><br><br>",0,ospan,instruct,oWLmhi7Tjbhvfjrcliu8AePS8Uy2,html-button-response,57,615716,0.0-46.0-0.0-0.0-3.0,,,,,,,,,,,,,,,606f1462c3fcfaeb5c52bec8,16:30:31,03/04/2024
,"<p style=""font-size:75px;"">...</p>",,ospan,iti,oWLmhi7Tjbhvfjrcliu8AePS8Uy2,html-keyboard-response,58,616970,0.0-46.0-0.0-1.0-0.0,,,,,,,,,,,,,,,606f1462c3fcfaeb5c52bec8,16:30:31,03/04/2024
,"<div style=""font-size: 10rem; color: #0000FF"">R</div>",,ospan,letter,oWLmhi7Tjbhvfjrcliu8AePS8Uy2,html-keyboard-response,59,617974,0.0-46.0-0.0-1.0-1.0,,,,,,,,,,,,,,,606f1462c3fcfaeb5c52bec8,16:30:31,03/04/2024
,"<div style=""font-size: 10rem; color: #0000FF"">S</div>",,ospan,letter,oWLmhi7Tjbhvfjrcliu8AePS8Uy2,html-keyboard-response,60,619728,0.0-46.0-0.0-1.0-2.0,,,,,,,,,,,,,,,606f1462c3fcfaeb5c52bec8,16:30:31,03/04/2024
8525.100000023842,"<div class = numbox><p style=""font-size: 2.4rem"">Please recall the letters you saw to the best of your ability. If you do not remember a particular letter, use the SKIP button.<br><b>(When you are ready to lock in your answer, press ENTER)</b></p><button id = button_1 class = ""square num-button"" onclick = ""recordClick(this)""><div class = content><div class = numbers>C</div></div></button><button id = button_2 class = ""square num-button"" onclick = ""recordClick(this)""><div class = content><div class = numbers>G</div></div></button><button id = button_3 class = ""square num-button"" onclick = ""recordClick(this)""><div class = content><div class = numbers>H</div></div></button><button id = button_4 class = ""square num-button"" onclick = ""recordClick(this)""><div class = content><div class = numbers>J</div></div></button><button id = button_5 class = ""square num-button"" onclick = ""recordClick(this)""><div class = content><div class = numbers>K</div></div></button><button id = button_6 class = ""square num-button"" onclick = ""recordClick(this)""><div class = content><div class = numbers>L</div></div></button><button id = button_7 class = ""square num-button"" onclick = ""recordClick(this)""><div class = content><div class = numbers>N</div></div></button><button id = button_8 class = ""square num-button"" onclick = ""recordClick(this)""><div class = content><div class = numbers>P</div></div></button><button id = button_9 class = ""square num-button"" onclick = ""recordClick(this)""><div class = content><div class = numbers>Q</div></div></button><button id = button_10 class = ""square num-button"" onclick = ""recordClick(this)""><div class = content><div class = numbers>R</div></div></button><button id = button_11 class = ""square num-button"" onclick = ""recordClick(this)""><div class = content><div class = numbers>S</div></div></button><button id = button_12 class = ""square num-button"" onclick = ""recordClick(this)""><div class = content><div class = numbers>Y</div></div></button><button class = clear_button id = ""ClearButton"" onclick = ""clearResponse()"">BACKSPACE</button><button class = blank_button id = ""BlankButton"" onclick = ""blankResponse()"">SKIP</button><p style=""font-size: 2.4rem""><u><b>Current Answer:</b></u></p><br><br><div id=echoed_txt style=""font-size: 5rem; color:blue;""><b></b></div></div>",enter,ospan,retrieval,oWLmhi7Tjbhvfjrcliu8AePS8Uy2,html-keyboard-response,61,629008,0.0-46.0-0.0-1.0-3.0,NA,NA,NA,2.0,"[""R"",""S""]","[""R"",""S""]",1.0,2.0,"['<font color=""green"">R</font>', '<font color=""green"">S</font>']",,,,,,606f1462c3fcfaeb5c52bec8,16:30:31,03/04/2024
811.9000000953674,"['<p style=""font-size:44px"">Letters:<br><br><br><font color=""green"">R</font> <font color=""green"">S</font></p><br><br>']",0,ospan,practice_feedback,oWLmhi7Tjbhvfjrcliu8AePS8Uy2,html-button-response,62,630323,0.0-46.0-0.0-1.0-4.0,,,,,,,,,,,,,,,606f1462c3fcfaeb5c52bec8,16:30:31,03/04/2024
,"<p style=""font-size:75px;"">...</p>",,ospan,iti,oWLmhi7Tjbhvfjrcliu8AePS8Uy2,html-keyboard-response,63,631326,0.0-46.0-0.0-2.0-0.0,,,,,,,,,,,,,,,606f1462c3fcfaeb5c52bec8,16:30:31,03/04/2024
,"<div style=""font-size: 10rem; color: #0000FF"">C</div>",,ospan,letter,oWLmhi7Tjbhvfjrcliu8AePS8Uy2,html-keyboard-response,64,632329,0.0-46.0-0.0-2.0-1.0,,,,,,,,,,,,,,,606f1462c3fcfaeb5c52bec8,16:30:31,03/04/2024
,"<div style=""font-size: 10rem; color: #0000FF"">K</div>",,ospan,letter,oWLmhi7Tjbhvfjrcliu8AePS8Uy2,html-keyboard-response,65,634081,0.0-46.0-0.0-2.0-2.0,,,,,,,,,,,,,,,606f1462c3fcfaeb5c52bec8,16:30:31,03/04/2024
,"<div style=""font-size: 10rem; color: #0000FF"">N</div>",,ospan,letter,oWLmhi7Tjbhvfjrcliu8AePS8Uy2,html-keyboard-response,66,635835,0.0-46.0-0.0-2.0-3.0,,,,,,,,,,,,,,,606f1462c3fcfaeb5c52bec8,16:30:31,03/04/2024
5993.599999904633,"<div class = numbox><p style=""font-size: 2.4rem"">Please recall the letters you saw to the best of your ability. If you do not remember a particular letter, use the SKIP button.<br><b>(When you are ready to lock in your answer, press ENTER)</b></p><button id = button_1 class = ""square num-button"" onclick = ""recordClick(this)""><div class = content><div class = numbers>C</div></div></button><button id = button_2 class = ""square num-button"" onclick = ""recordClick(this)""><div class = content><div class = numbers>G</div></div></button><button id = button_3 class = ""square num-button"" onclick = ""recordClick(this)""><div class = content><div class = numbers>H</div></div></button><button id = button_4 class = ""square num-button"" onclick = ""recordClick(this)""><div class = content><div class = numbers>J</div></div></button><button id = button_5 class = ""square num-button"" onclick = ""recordClick(this)""><div class = content><div class = numbers>K</div></div></button><button id = button_6 class = ""square num-button"" onclick = ""recordClick(this)""><div class = content><div class = numbers>L</div></div></button><button id = button_7 class = ""square num-button"" onclick = ""recordClick(this)""><div class = content><div class = numbers>N</div></div></button><button id = button_8 class = ""square num-button"" onclick = ""recordClick(this)""><div class = content><div class = numbers>P</div></div></button><button id = button_9 class = ""square num-button"" onclick = ""recordClick(this)""><div class = content><div class = numbers>Q</div></div></button><button id = button_10 class = ""square num-button"" onclick = ""recordClick(this)""><div class = content><div class = numbers>R</div></div></button><button id = button_11 class = ""square num-button"" onclick = ""recordClick(this)""><div class = content><div class = numbers>S</div></div></button><button id = button_12 class = ""square num-button"" onclick = ""recordClick(this)""><div class = content><div class = numbers>Y</div></div></button><button class = clear_button id = ""ClearButton"" onclick = ""clearResponse()"">BACKSPACE</button><button class = blank_button id = ""BlankButton"" onclick = ""blankResponse()"">SKIP</button><p style=""font-size: 2.4rem""><u><b>Current Answer:</b></u></p><br><br><div id=echoed_txt style=""font-size: 5rem; color:blue;""><b></b></div></div>",enter,ospan,retrieval,oWLmhi7Tjbhvfjrcliu8AePS8Uy2,html-keyboard-response,67,642582,0.0-46.0-0.0-2.0-4.0,NA,NA,NA,3.0,"[""C"",""K"",""N""]","[""C"",""K"",""N""]",1.0,3.0,"['<font color=""green"">C</font>', '<font color=""green"">K</font>', '<font color=""green"">N</font>']",,,,,,606f1462c3fcfaeb5c52bec8,16:30:31,03/04/2024
998.6000000238419,"['<p style=""font-size:44px"">Letters:<br><br><br><font color=""green"">C</font> <font color=""green"">K</font> <font color=""green"">N</font></p><br><br>']",0,ospan,practice_feedback,oWLmhi7Tjbhvfjrcliu8AePS8Uy2,html-button-response,68,644083,0.0-46.0-0.0-2.0-5.0,,,,,,,,,,,,,,,606f1462c3fcfaeb5c52bec8,16:30:31,03/04/2024
14301.299999952316,"<div class = 'left_align' style='font-size: 3.25rem; line-height: 1.3;'>Now you will practice doing the <b>symmetry judgment part</b> of the experiment.<br><br>A black and white grid picture will appear on the screen and you have to judge if it is <br>symmetrical or asymetrical.<br><br>A picture is 'mirror' symmetrical if its left half is identical to the right half when flipped.<br>Here are examples of a symmetrical and an asymetrical picture:<br><br><center><img src='Stimuli/img/symm_instructions_extra.png' style='height:420px; width:900'></img></center><br>To judge symmetry, imagine you were to fold each picture down the middle, like a book –<br>would the left half match the right half when folded onto each other?<br><br></div><br>",0,ospan,instruct,oWLmhi7Tjbhvfjrcliu8AePS8Uy2,html-button-response,69,658387,0.0-46.0-1.0-0.0-0.0,,,,,,,,,,,,,,,606f1462c3fcfaeb5c52bec8,16:30:31,03/04/2024
2960.899999976158,"<div class = 'left_align' style='font-size: 3.25rem; line-height: 1.3;'>When you have viewed the picture and determined whether it is symmetrical or not,<br>you can <b>click the Yes or No button</b> below to answer.<br><br>If you take longer than 15 seconds, it will continue automatically<br>and record the answer as an error.</div><br>",0,ospan,instruct,oWLmhi7Tjbhvfjrcliu8AePS8Uy2,html-button-response,70,661601,0.0-46.0-1.0-0.0-1.0,,,,,,,,,,,,,,,606f1462c3fcfaeb5c52bec8,16:30:31,03/04/2024
3432.7999999523163,"<div class = 'left_align' style='font-size: 3.25rem; line-height: 1.3;'>It is <b>very</b> important that you make the symmetry judgment correctly.<br><br>It is also important that you try and judge the picture as quickly as you can.<br><br>When you are ready, click on the button below to try some practice problems.</div><br><br><br><br>",0,ospan,instruct,oWLmhi7Tjbhvfjrcliu8AePS8Uy2,html-button-response,71,665287,0.0-46.0-1.0-0.0-2.0,,,,,,,,,,,,,,,606f1462c3fcfaeb5c52bec8,16:30:31,03/04/2024
1649.0,,,ospan,symmetry,oWLmhi7Tjbhvfjrcliu8AePS8Uy2,symmetry-judgement-task,72,667746,0.0-46.0-1.0-1.0-0.0,,,,,,,,,,1.0,1.0,,,,606f1462c3fcfaeb5c52bec8,16:30:31,03/04/2024
,"<p style=""color:green; font-size: 35px"">Correct</p>",,ospan,feedback,oWLmhi7Tjbhvfjrcliu8AePS8Uy2,html-keyboard-response,73,668499,0.0-46.0-1.0-1.0-1.0,,,,,,,,,,,,,,,606f1462c3fcfaeb5c52bec8,16:30:31,03/04/2024
1569.0,,,ospan,symmetry,oWLmhi7Tjbhvfjrcliu8AePS8Uy2,symmetry-judgement-task,74,672797,0.0-46.0-1.0-1.0-2.0,,,,,,,,,,1.0,1.0,,,,606f1462c3fcfaeb5c52bec8,16:30:31,03/04/2024
,"<p style=""color:green; font-size: 35px"">Correct</p>",,ospan,feedback,oWLmhi7Tjbhvfjrcliu8AePS8Uy2,html-keyboard-response,75,673549,0.0-46.0-1.0-1.0-3.0,,,,,,,,,,,,,,,606f1462c3fcfaeb5c52bec8,16:30:31,03/04/2024
1075.0,,,ospan,symmetry,oWLmhi7Tjbhvfjrcliu8AePS8Uy2,symmetry-judgement-task,76,677396,0.0-46.0-1.0-1.0-4.0,,,,,,,,,,1.0,1.0,,,,606f1462c3fcfaeb5c52bec8,16:30:31,03/04/2024
,"<p style=""color:green; font-size: 35px"">Correct</p>",,ospan,feedback,oWLmhi7Tjbhvfjrcliu8AePS8Uy2,html-keyboard-response,77,678150,0.0-46.0-1.0-1.0-5.0,,,,,,,,,,,,,,,606f1462c3fcfaeb5c52bec8,16:30:31,03/04/2024
1569.0999999046326,"<p style=""font-size: 3rem;"">You responded correctly on 3 of 3 symmetry judgments. Good job!</p><br><br>",0,ospan,practice,oWLmhi7Tjbhvfjrcliu8AePS8Uy2,html-button-response,78,681723,0.0-46.0-1.0-2.0,,,,,,,,,,,,,,,606f1462c3fcfaeb5c52bec8,16:30:31,03/04/2024
12128.600000023842,"<div class = 'left_align' style='font-size: 3.25rem; line-height: 1.3;'>Now you will practice doing both parts of the experiment at the same time.<br><br>In the next practice set, you will be given one grid picture to judge.<br>Then letter will appear on the screen. Try to remember the letter.<br><br>It is <b>very important</b> to make the symmetry judgment as quickly and accurately as possible.<br><br>Just as before, once you have make the symmetry judgment, you can click Yes or No.<br><b>Note that you will no longer see Correct or Incorrect feedback.</div><br><br><br><br>",0,ospan,instruct,oWLmhi7Tjbhvfjrcliu8AePS8Uy2,html-button-response,79,694104,0.0-46.0-2.0-0.0-0.0,,,,,,,,,,,,,,,606f1462c3fcfaeb5c52bec8,16:30:31,03/04/2024
3036.1999999284744,"<div class = 'left_align' style='font-size: 3.25rem; line-height: 1.3;'>After the letter goes away, another grid picture will appear, and then<br>another letter.<br><br>At the end of each set of letters and grids, you will recall the letters to the best<br>of your ability. Remember, try your best to get the letters in the correct order.<br><br>It is important to <b>quickly</b> and <b>accurately</b> make the symmetry judgments.</div><br><br><br><br>",0,ospan,instruct,oWLmhi7Tjbhvfjrcliu8AePS8Uy2,html-button-response,80,697393,0.0-46.0-2.0-0.0-1.0,,,,,,,,,,,,,,,606f1462c3fcfaeb5c52bec8,16:30:31,03/04/2024
10471.5,"<div class = 'left_align' style='font-size: 3.25rem; line-height: 1.3;'>On the feedback screen, if you are not doing well at the symmetry judgments,<br>you will also see a warning in the middle. This indicates your percent <br>correct for the grid pictures for the entire experiment.<br><br>It is <b>very</b> important for you to keep accuracy at least at 85%: <u>We can only use<br>data where the participant was at least 85% accurate on the judgments.</u> Therefore,<br> please try your best to perform well on the symmetry judgments, <b>at the same time</b><br>doing your best to recall as many letters as possible.<br><br>Click the button to try some practice problems.</div><br><br><br><br>",0,ospan,instruct,oWLmhi7Tjbhvfjrcliu8AePS8Uy2,html-button-response,81,708118,0.0-46.0-2.0-0.0-2.0,,,,,,,,,,,,,,,606f1462c3fcfaeb5c52bec8,16:30:31,03/04/2024
,"<p style=""font-size:75px;"">...</p>",,ospan,iti,oWLmhi7Tjbhvfjrcliu8AePS8Uy2,html-keyboard-response,82,709372,0.0-46.0-2.0-1.0-0.0,,,,,,,,,,,,,,,606f1462c3fcfaeb5c52bec8,16:30:31,03/04/2024
1733.0,,,ospan,symmetry,oWLmhi7Tjbhvfjrcliu8AePS8Uy2,symmetry-judgement-task,83,712365,0.0-46.0-2.0-1.0-1.0-0.0,,,,,,,,,,1.0,1.0,,,,606f1462c3fcfaeb5c52bec8,16:30:31,03/04/2024
,"<div style=""font-size: 10rem; color: #0000FF"">K</div>",,ospan,letter,oWLmhi7Tjbhvfjrcliu8AePS8Uy2,html-keyboard-response,84,713368,0.0-46.0-2.0-1.0-1.0-1.0,,,,,,,,,,,,,,,606f1462c3fcfaeb5c52bec8,16:30:31,03/04/2024
1315.0,,,ospan,symmetry,oWLmhi7Tjbhvfjrcliu8AePS8Uy2,symmetry-judgement-task,85,716693,0.0-46.0-2.0-1.0-1.0-2.0,,,,,,,,,,1.0,1.0,,,,606f1462c3fcfaeb5c52bec8,16:30:31,03/04/2024
,"<div style=""font-size: 10rem; color: #0000FF"">Y</div>",,ospan,letter,oWLmhi7Tjbhvfjrcliu8AePS8Uy2,html-keyboard-response,86,717696,0.0-46.0-2.0-1.0-1.0-3.0,,,,,,,,,,,,,,,606f1462c3fcfaeb5c52bec8,16:30:31,03/04/2024
1209.0,,,ospan,symmetry,oWLmhi7Tjbhvfjrcliu8AePS8Uy2,symmetry-judgement-task,87,720911,0.0-46.0-2.0-1.0-1.0-4.0,,,,,,,,,,1.0,1.0,,,,606f1462c3fcfaeb5c52bec8,16:30:31,03/04/2024
,"<div style=""font-size: 10rem; color: #0000FF"">N</div>",,ospan,letter,oWLmhi7Tjbhvfjrcliu8AePS8Uy2,html-keyboard-response,88,721914,0.0-46.0-2.0-1.0-1.0-5.0,,,,,,,,,,,,,,,606f1462c3fcfaeb5c52bec8,16:30:31,03/04/2024
5080.200000047684,"<div class = numbox><p style=""font-size: 2.4rem"">Please recall the letters you saw to the best of your ability. If you do not remember a particular letter, use the SKIP button.<br><b>(When you are ready to lock in your answer, press ENTER)</b></p><button id = button_1 class = ""square num-button"" onclick = ""recordClick(this)""><div class = content><div class = numbers>C</div></div></button><button id = button_2 class = ""square num-button"" onclick = ""recordClick(this)""><div class = content><div class = numbers>G</div></div></button><button id = button_3 class = ""square num-button"" onclick = ""recordClick(this)""><div class = content><div class = numbers>H</div></div></button><button id = button_4 class = ""square num-button"" onclick = ""recordClick(this)""><div class = content><div class = numbers>J</div></div></button><button id = button_5 class = ""square num-button"" onclick = ""recordClick(this)""><div class = content><div class = numbers>K</div></div></button><button id = button_6 class = ""square num-button"" onclick = ""recordClick(this)""><div class = content><div class = numbers>L</div></div></button><button id = button_7 class = ""square num-button"" onclick = ""recordClick(this)""><div class = content><div class = numbers>N</div></div></button><button id = button_8 class = ""square num-button"" onclick = ""recordClick(this)""><div class = content><div class = numbers>P</div></div></button><button id = button_9 class = ""square num-button"" onclick = ""recordClick(this)""><div class = content><div class = numbers>Q</div></div></button><button id = button_10 class = ""square num-button"" onclick = ""recordClick(this)""><div class = content><div class = numbers>R</div></div></button><button id = button_11 class = ""square num-button"" onclick = ""recordClick(this)""><div class = content><div class = numbers>S</div></div></button><button id = button_12 class = ""square num-button"" onclick = ""recordClick(this)""><div class = content><div class = numbers>Y</div></div></button><button class = clear_button id = ""ClearButton"" onclick = ""clearResponse()"">BACKSPACE</button><button class = blank_button id = ""BlankButton"" onclick = ""blankResponse()"">SKIP</button><p style=""font-size: 2.4rem""><u><b>Current Answer:</b></u></p><br><br><div id=echoed_txt style=""font-size: 5rem; color:blue;""><b></b></div></div>",enter,ospan,retrieval,oWLmhi7Tjbhvfjrcliu8AePS8Uy2,html-keyboard-response,89,727749,0.0-46.0-2.0-1.0-2.0-0.0,NA,NA,NA,3.0,"[""K"",""Y"",""N""]","[""K"",""Y"",""N""]",1.0,3.0,"['<font color=""green"">K</font>', '<font color=""green"">Y</font>', '<font color=""green"">N</font>']",,,,,,606f1462c3fcfaeb5c52bec8,16:30:31,03/04/2024
1102.2000000476837,"['<p style=""font-size:44px"">Letters:<br><br><br><font color=""green"">K</font> <font color=""green"">Y</font> <font color=""green"">N</font></p><br><br><p style=""font-size:30px"">Symmetry:<br><br><font color=""green"">100%</font></p><br><br>']",0,ospan,practice_feedback,oWLmhi7Tjbhvfjrcliu8AePS8Uy2,html-button-response,90,729353,0.0-46.0-2.0-1.0-2.0-1.0,,,,,,,,,,,,,,,606f1462c3fcfaeb5c52bec8,16:30:31,03/04/2024
,"<p style=""font-size:75px;"">...</p>",,ospan,iti,oWLmhi7Tjbhvfjrcliu8AePS8Uy2,html-keyboard-response,91,730357,0.0-46.0-2.0-2.0-0.0,,,,,,,,,,,,,,,606f1462c3fcfaeb5c52bec8,16:30:31,03/04/2024
1425.0,,,ospan,symmetry,oWLmhi7Tjbhvfjrcliu8AePS8Uy2,symmetry-judgement-task,92,733053,0.0-46.0-2.0-2.0-1.0-0.0,,,,,,,,,,1.0,1.0,,,,606f1462c3fcfaeb5c52bec8,16:30:31,03/04/2024
,"<div style=""font-size: 10rem; color: #0000FF"">Q</div>",,ospan,letter,oWLmhi7Tjbhvfjrcliu8AePS8Uy2,html-keyboard-response,93,734057,0.0-46.0-2.0-2.0-1.0-1.0,,,,,,,,,,,,,,,606f1462c3fcfaeb5c52bec8,16:30:31,03/04/2024
1347.0,,,ospan,symmetry,oWLmhi7Tjbhvfjrcliu8AePS8Uy2,symmetry-judgement-task,94,737420,0.0-46.0-2.0-2.0-1.0-2.0,,,,,,,,,,1.0,1.0,,,,606f1462c3fcfaeb5c52bec8,16:30:31,03/04/2024
,"<div style=""font-size: 10rem; color: #0000FF"">L</div>",,ospan,letter,oWLmhi7Tjbhvfjrcliu8AePS8Uy2,html-keyboard-response,95,738423,0.0-46.0-2.0-2.0-1.0-3.0,,,,,,,,,,,,,,,606f1462c3fcfaeb5c52bec8,16:30:31,03/04/2024
1581.0,,,ospan,symmetry,oWLmhi7Tjbhvfjrcliu8AePS8Uy2,symmetry-judgement-task,96,742018,0.0-46.0-2.0-2.0-1.0-4.0,,,,,,,,,,1.0,1.0,,,,606f1462c3fcfaeb5c52bec8,16:30:31,03/04/2024
,"<div style=""font-size: 10rem; color: #0000FF"">P</div>",,ospan,letter,oWLmhi7Tjbhvfjrcliu8AePS8Uy2,html-keyboard-response,97,743021,0.0-46.0-2.0-2.0-1.0-5.0,,,,,,,,,,,,,,,606f1462c3fcfaeb5c52bec8,16:30:31,03/04/2024
4971.899999976158,"<div class = numbox><p style=""font-size: 2.4rem"">Please recall the letters you saw to the best of your ability. If you do not remember a particular letter, use the SKIP button.<br><b>(When you are ready to lock in your answer, press ENTER)</b></p><button id = button_1 class = ""square num-button"" onclick = ""recordClick(this)""><div class = content><div class = numbers>C</div></div></button><button id = button_2 class = ""square num-button"" onclick = ""recordClick(this)""><div class = content><div class = numbers>G</div></div></button><button id = button_3 class = ""square num-button"" onclick = ""recordClick(this)""><div class = content><div class = numbers>H</div></div></button><button id = button_4 class = ""square num-button"" onclick = ""recordClick(this)""><div class = content><div class = numbers>J</div></div></button><button id = button_5 class = ""square num-button"" onclick = ""recordClick(this)""><div class = content><div class = numbers>K</div></div></button><button id = button_6 class = ""square num-button"" onclick = ""recordClick(this)""><div class = content><div class = numbers>L</div></div></button><button id = button_7 class = ""square num-button"" onclick = ""recordClick(this)""><div class = content><div class = numbers>N</div></div></button><button id = button_8 class = ""square num-button"" onclick = ""recordClick(this)""><div class = content><div class = numbers>P</div></div></button><button id = button_9 class = ""square num-button"" onclick = ""recordClick(this)""><div class = content><div class = numbers>Q</div></div></button><button id = button_10 class = ""square num-button"" onclick = ""recordClick(this)""><div class = content><div class = numbers>R</div></div></button><button id = button_11 class = ""square num-button"" onclick = ""recordClick(this)""><div class = content><div class = numbers>S</div></div></button><button id = button_12 class = ""square num-button"" onclick = ""recordClick(this)""><div class = content><div class = numbers>Y</div></div></button><button class = clear_button id = ""ClearButton"" onclick = ""clearResponse()"">BACKSPACE</button><button class = blank_button id = ""BlankButton"" onclick = ""blankResponse()"">SKIP</button><p style=""font-size: 2.4rem""><u><b>Current Answer:</b></u></p><br><br><div id=echoed_txt style=""font-size: 5rem; color:blue;""><b></b></div></div>",enter,ospan,retrieval,oWLmhi7Tjbhvfjrcliu8AePS8Uy2,html-keyboard-response,98,748746,0.0-46.0-2.0-2.0-2.0-0.0,NA,NA,NA,3.0,"[""Q"",""L"",""P""]","[""Q"",""L"",""P""]",1.0,3.0,"['<font color=""green"">Q</font>', '<font color=""green"">L</font>', '<font color=""green"">P</font>']",,,,,,606f1462c3fcfaeb5c52bec8,16:30:31,03/04/2024
967.1000000238419,"['<p style=""font-size:44px"">Letters:<br><br><br><font color=""green"">Q</font> <font color=""green"">L</font> <font color=""green"">P</font></p><br><br><p style=""font-size:30px"">Symmetry:<br><br><font color=""green"">100%</font></p><br><br>']",0,ospan,practice_feedback,oWLmhi7Tjbhvfjrcliu8AePS8Uy2,html-button-response,99,750216,0.0-46.0-2.0-2.0-2.0-1.0,,,,,,,,,,,,,,,606f1462c3fcfaeb5c52bec8,16:30:31,03/04/2024
12960.600000023842,"<div class = 'left_align' style='font-size: 3rem; line-height: 1.3;'><b>Great work! That is the end of practice.</b><br><br>The real trials will look just like the practice trials you just completed.<br><br><u>Here, you will not see feedback</u>. First, you will see an grid picture to judge,<br>then a letter to remember. When the recall screen appears, report the letters in the<br>order presented. If you forget a letter, remember to use the <b>blank</b> button to move to the<br>next letter. Some of the sets will have more symmetry grids and letters than others.<br><br>It is important that you do your best on both the symmetry judgments and the letter recall<br>parts of the experiment. For for the symmetry judgments, try to work as <b>quickly</b> and <br>as <b>accurately</b> as possible. Remember to keep your symmetry accuracy at 85% or above.<br><br><b>For the letters, do NOT use any external aid (e.g., writing on paper, electronic device).</b><br><br>It is <u>very important</u> to our experiment to have a <b>true</b> view of your real performance.<br><br>Do not worry if you miss some when it gets hard! This task is meant to be very challenging!<br><br>Click the button to begin.</div><br><br><br><br>",0,ospan,starting_real_here,oWLmhi7Tjbhvfjrcliu8AePS8Uy2,html-button-response,100,763180,0.0-46.0-2.0-3.0,,,,,,,,,,,,,,,606f1462c3fcfaeb5c52bec8,16:30:31,03/04/2024
,"<p style=""font-size:75px;"">...</p>",,ospan,iti,oWLmhi7Tjbhvfjrcliu8AePS8Uy2,html-keyboard-response,101,764435,0.0-46.0-3.0-0.0-0.0,,,,,,,,,,,,,,,606f1462c3fcfaeb5c52bec8,16:30:31,03/04/2024
1259.0,,,ospan,symmetry,oWLmhi7Tjbhvfjrcliu8AePS8Uy2,symmetry-judgement-task,102,766954,0.0-46.0-3.0-0.0-1.0-0.0,,,,,,,,,,1.0,1.0,,,,606f1462c3fcfaeb5c52bec8,16:30:31,03/04/2024
,"<div style=""font-size: 10rem; color: #0000FF"">N</div>",,ospan,letter,oWLmhi7Tjbhvfjrcliu8AePS8Uy2,html-keyboard-response,103,767957,0.0-46.0-3.0-0.0-1.0-1.0,,,,,,,,,,,,,,,606f1462c3fcfaeb5c52bec8,16:30:31,03/04/2024
1450.0,,,ospan,symmetry,oWLmhi7Tjbhvfjrcliu8AePS8Uy2,symmetry-judgement-task,104,771447,0.0-46.0-3.0-0.0-1.0-2.0,,,,,,,,,,1.0,1.0,,,,606f1462c3fcfaeb5c52bec8,16:30:31,03/04/2024
,"<div style=""font-size: 10rem; color: #0000FF"">K</div>",,ospan,letter,oWLmhi7Tjbhvfjrcliu8AePS8Uy2,html-keyboard-response,105,772450,0.0-46.0-3.0-0.0-1.0-3.0,,,,,,,,,,,,,,,606f1462c3fcfaeb5c52bec8,16:30:31,03/04/2024
813.0,,,ospan,symmetry,oWLmhi7Tjbhvfjrcliu8AePS8Uy2,symmetry-judgement-task,106,775262,0.0-46.0-3.0-0.0-1.0-4.0,,,,,,,,,,1.0,1.0,,,,606f1462c3fcfaeb5c52bec8,16:30:31,03/04/2024
,"<div style=""font-size: 10rem; color: #0000FF"">C</div>",,ospan,letter,oWLmhi7Tjbhvfjrcliu8AePS8Uy2,html-keyboard-response,107,776266,0.0-46.0-3.0-0.0-1.0-5.0,,,,,,,,,,,,,,,606f1462c3fcfaeb5c52bec8,16:30:31,03/04/2024
3913.0,"<div class = numbox><p style=""font-size: 2.4rem"">Please recall the letters you saw to the best of your ability. If you do not remember a particular letter, use the SKIP button.<br><b>(When you are ready to lock in your answer, press ENTER)</b></p><button id = button_1 class = ""square num-button"" onclick = ""recordClick(this)""><div class = content><div class = numbers>C</div></div></button><button id = button_2 class = ""square num-button"" onclick = ""recordClick(this)""><div class = content><div class = numbers>G</div></div></button><button id = button_3 class = ""square num-button"" onclick = ""recordClick(this)""><div class = content><div class = numbers>H</div></div></button><button id = button_4 class = ""square num-button"" onclick = ""recordClick(this)""><div class = content><div class = numbers>J</div></div></button><button id = button_5 class = ""square num-button"" onclick = ""recordClick(this)""><div class = content><div class = numbers>K</div></div></button><button id = button_6 class = ""square num-button"" onclick = ""recordClick(this)""><div class = content><div class = numbers>L</div></div></button><button id = button_7 class = ""square num-button"" onclick = ""recordClick(this)""><div class = content><div class = numbers>N</div></div></button><button id = button_8 class = ""square num-button"" onclick = ""recordClick(this)""><div class = content><div class = numbers>P</div></div></button><button id = button_9 class = ""square num-button"" onclick = ""recordClick(this)""><div class = content><div class = numbers>Q</div></div></button><button id = button_10 class = ""square num-button"" onclick = ""recordClick(this)""><div class = content><div class = numbers>R</div></div></button><button id = button_11 class = ""square num-button"" onclick = ""recordClick(this)""><div class = content><div class = numbers>S</div></div></button><button id = button_12 class = ""square num-button"" onclick = ""recordClick(this)""><div class = content><div class = numbers>Y</div></div></button><button class = clear_button id = ""ClearButton"" onclick = ""clearResponse()"">BACKSPACE</button><button class = blank_button id = ""BlankButton"" onclick = ""blankResponse()"">SKIP</button><p style=""font-size: 2.4rem""><u><b>Current Answer:</b></u></p><br><br><div id=echoed_txt style=""font-size: 5rem; color:blue;""><b></b></div></div>",enter,ospan,retrieval,oWLmhi7Tjbhvfjrcliu8AePS8Uy2,html-keyboard-response,108,780932,0.0-46.0-3.0-0.0-2.0,3,3,3,3.0,"[""N"",""K"",""C""]","[""N"",""K"",""C""]",1.0,3.0,,,,,,,606f1462c3fcfaeb5c52bec8,16:30:31,03/04/2024
972.8999999761581,[''],0,ospan,feedback,oWLmhi7Tjbhvfjrcliu8AePS8Uy2,html-button-response,109,782408,0.0-46.0-3.0-0.0-3.0,,,,,,,,,,,,100.0,0.0,,606f1462c3fcfaeb5c52bec8,16:30:31,03/04/2024
,"<p style=""font-size:75px;"">...</p>",,ospan,iti,oWLmhi7Tjbhvfjrcliu8AePS8Uy2,html-keyboard-response,110,783412,0.0-46.0-4.0-0.0-0.0,,,,,,,,,,,,,,,606f1462c3fcfaeb5c52bec8,16:30:31,03/04/2024
1279.0,,,ospan,symmetry,oWLmhi7Tjbhvfjrcliu8AePS8Uy2,symmetry-judgement-task,111,785960,0.0-46.0-4.0-0.0-1.0-0.0,,,,,,,,,,1.0,1.0,,,,606f1462c3fcfaeb5c52bec8,16:30:31,03/04/2024
,"<div style=""font-size: 10rem; color: #0000FF"">Q</div>",,ospan,letter,oWLmhi7Tjbhvfjrcliu8AePS8Uy2,html-keyboard-response,112,786963,0.0-46.0-4.0-0.0-1.0-1.0,,,,,,,,,,,,,,,606f1462c3fcfaeb5c52bec8,16:30:31,03/04/2024
953.0,,,ospan,symmetry,oWLmhi7Tjbhvfjrcliu8AePS8Uy2,symmetry-judgement-task,113,789890,0.0-46.0-4.0-0.0-1.0-2.0,,,,,,,,,,1.0,1.0,,,,606f1462c3fcfaeb5c52bec8,16:30:31,03/04/2024
,"<div style=""font-size: 10rem; color: #0000FF"">L</div>",,ospan,letter,oWLmhi7Tjbhvfjrcliu8AePS8Uy2,html-keyboard-response,114,790892,0.0-46.0-4.0-0.0-1.0-3.0,,,,,,,,,,,,,,,606f1462c3fcfaeb5c52bec8,16:30:31,03/04/2024
1181.0,,,ospan,symmetry,oWLmhi7Tjbhvfjrcliu8AePS8Uy2,symmetry-judgement-task,115,794052,0.0-46.0-4.0-0.0-1.0-4.0,,,,,,,,,,1.0,1.0,,,,606f1462c3fcfaeb5c52bec8,16:30:31,03/04/2024
,"<div style=""font-size: 10rem; color: #0000FF"">H</div>",,ospan,letter,oWLmhi7Tjbhvfjrcliu8AePS8Uy2,html-keyboard-response,116,795055,0.0-46.0-4.0-0.0-1.0-5.0,,,,,,,,,,,,,,,606f1462c3fcfaeb5c52bec8,16:30:31,03/04/2024
1538.0,,,ospan,symmetry,oWLmhi7Tjbhvfjrcliu8AePS8Uy2,symmetry-judgement-task,117,798602,0.0-46.0-4.0-0.0-1.0-6.0,,,,,,,,,,1.0,1.0,,,,606f1462c3fcfaeb5c52bec8,16:30:31,03/04/2024
,"<div style=""font-size: 10rem; color: #0000FF"">S</div>",,ospan,letter,oWLmhi7Tjbhvfjrcliu8AePS8Uy2,html-keyboard-response,118,799605,0.0-46.0-4.0-0.0-1.0-7.0,,,,,,,,,,,,,,,606f1462c3fcfaeb5c52bec8,16:30:31,03/04/2024
5088.300000071526,"<div class = numbox><p style=""font-size: 2.4rem"">Please recall the letters you saw to the best of your ability. If you do not remember a particular letter, use the SKIP button.<br><b>(When you are ready to lock in your answer, press ENTER)</b></p><button id = button_1 class = ""square num-button"" onclick = ""recordClick(this)""><div class = content><div class = numbers>C</div></div></button><button id = button_2 class = ""square num-button"" onclick = ""recordClick(this)""><div class = content><div class = numbers>G</div></div></button><button id = button_3 class = ""square num-button"" onclick = ""recordClick(this)""><div class = content><div class = numbers>H</div></div></button><button id = button_4 class = ""square num-button"" onclick = ""recordClick(this)""><div class = content><div class = numbers>J</div></div></button><button id = button_5 class = ""square num-button"" onclick = ""recordClick(this)""><div class = content><div class = numbers>K</div></div></button><button id = button_6 class = ""square num-button"" onclick = ""recordClick(this)""><div class = content><div class = numbers>L</div></div></button><button id = button_7 class = ""square num-button"" onclick = ""recordClick(this)""><div class = content><div class = numbers>N</div></div></button><button id = button_8 class = ""square num-button"" onclick = ""recordClick(this)""><div class = content><div class = numbers>P</div></div></button><button id = button_9 class = ""square num-button"" onclick = ""recordClick(this)""><div class = content><div class = numbers>Q</div></div></button><button id = button_10 class = ""square num-button"" onclick = ""recordClick(this)""><div class = content><div class = numbers>R</div></div></button><button id = button_11 class = ""square num-button"" onclick = ""recordClick(this)""><div class = content><div class = numbers>S</div></div></button><button id = button_12 class = ""square num-button"" onclick = ""recordClick(this)""><div class = content><div class = numbers>Y</div></div></button><button class = clear_button id = ""ClearButton"" onclick = ""clearResponse()"">BACKSPACE</button><button class = blank_button id = ""BlankButton"" onclick = ""blankResponse()"">SKIP</button><p style=""font-size: 2.4rem""><u><b>Current Answer:</b></u></p><br><br><div id=echoed_txt style=""font-size: 5rem; color:blue;""><b></b></div></div>",enter,ospan,retrieval,oWLmhi7Tjbhvfjrcliu8AePS8Uy2,html-keyboard-response,119,805447,0.0-46.0-4.0-0.0-2.0,7,7,7,4.0,"[""Q"",""L"",""H"",""S""]","[""Q"",""L"",""H"",""S""]",1.0,4.0,,,,,,,606f1462c3fcfaeb5c52bec8,16:30:31,03/04/2024
1091.3000000715256,[''],0,ospan,feedback,oWLmhi7Tjbhvfjrcliu8AePS8Uy2,html-button-response,120,807041,0.0-46.0-4.0-0.0-3.0,,,,,,,,,,,,100.0,0.0,,606f1462c3fcfaeb5c52bec8,16:30:31,03/04/2024
,"<p style=""font-size:75px;"">...</p>",,ospan,iti,oWLmhi7Tjbhvfjrcliu8AePS8Uy2,html-keyboard-response,121,808045,0.0-46.0-4.0-1.0-0.0,,,,,,,,,,,,,,,606f1462c3fcfaeb5c52bec8,16:30:31,03/04/2024
1269.0,,,ospan,symmetry,oWLmhi7Tjbhvfjrcliu8AePS8Uy2,symmetry-judgement-task,122,810375,0.0-46.0-4.0-1.0-1.0-0.0,,,,,,,,,,1.0,1.0,,,,606f1462c3fcfaeb5c52bec8,16:30:31,03/04/2024
,"<div style=""font-size: 10rem; color: #0000FF"">Q</div>",,ospan,letter,oWLmhi7Tjbhvfjrcliu8AePS8Uy2,html-keyboard-response,123,811378,0.0-46.0-4.0-1.0-1.0-1.0,,,,,,,,,,,,,,,606f1462c3fcfaeb5c52bec8,16:30:31,03/04/2024
1206.0,,,ospan,symmetry,oWLmhi7Tjbhvfjrcliu8AePS8Uy2,symmetry-judgement-task,124,814592,0.0-46.0-4.0-1.0-1.0-2.0,,,,,,,,,,1.0,1.0,,,,606f1462c3fcfaeb5c52bec8,16:30:31,03/04/2024
,"<div style=""font-size: 10rem; color: #0000FF"">C</div>",,ospan,letter,oWLmhi7Tjbhvfjrcliu8AePS8Uy2,html-keyboard-response,125,815595,0.0-46.0-4.0-1.0-1.0-3.0,,,,,,,,,,,,,,,606f1462c3fcfaeb5c52bec8,16:30:31,03/04/2024
1137.0,,,ospan,symmetry,oWLmhi7Tjbhvfjrcliu8AePS8Uy2,symmetry-judgement-task,126,818704,0.0-46.0-4.0-1.0-1.0-4.0,,,,,,,,,,1.0,1.0,,,,606f1462c3fcfaeb5c52bec8,16:30:31,03/04/2024
,"<div style=""font-size: 10rem; color: #0000FF"">N</div>",,ospan,letter,oWLmhi7Tjbhvfjrcliu8AePS8Uy2,html-keyboard-response,127,819707,0.0-46.0-4.0-1.0-1.0-5.0,,,,,,,,,,,,,,,606f1462c3fcfaeb5c52bec8,16:30:31,03/04/2024
981.0,,,ospan,symmetry,oWLmhi7Tjbhvfjrcliu8AePS8Uy2,symmetry-judgement-task,128,822689,0.0-46.0-4.0-1.0-1.0-6.0,,,,,,,,,,1.0,1.0,,,,606f1462c3fcfaeb5c52bec8,16:30:31,03/04/2024
,"<div style=""font-size: 10rem; color: #0000FF"">G</div>",,ospan,letter,oWLmhi7Tjbhvfjrcliu8AePS8Uy2,html-keyboard-response,129,823692,0.0-46.0-4.0-1.0-1.0-7.0,,,,,,,,,,,,,,,606f1462c3fcfaeb5c52bec8,16:30:31,03/04/2024
834.0,,,ospan,symmetry,oWLmhi7Tjbhvfjrcliu8AePS8Uy2,symmetry-judgement-task,130,826553,0.0-46.0-4.0-1.0-1.0-8.0,,,,,,,,,,1.0,1.0,,,,606f1462c3fcfaeb5c52bec8,16:30:31,03/04/2024
,"<div style=""font-size: 10rem; color: #0000FF"">K</div>",,ospan,letter,oWLmhi7Tjbhvfjrcliu8AePS8Uy2,html-keyboard-response,131,827555,0.0-46.0-4.0-1.0-1.0-9.0,,,,,,,,,,,,,,,606f1462c3fcfaeb5c52bec8,16:30:31,03/04/2024
6645.5,"<div class = numbox><p style=""font-size: 2.4rem"">Please recall the letters you saw to the best of your ability. If you do not remember a particular letter, use the SKIP button.<br><b>(When you are ready to lock in your answer, press ENTER)</b></p><button id = button_1 class = ""square num-button"" onclick = ""recordClick(this)""><div class = content><div class = numbers>C</div></div></button><button id = button_2 class = ""square num-button"" onclick = ""recordClick(this)""><div class = content><div class = numbers>G</div></div></button><button id = button_3 class = ""square num-button"" onclick = ""recordClick(this)""><div class = content><div class = numbers>H</div></div></button><button id = button_4 class = ""square num-button"" onclick = ""recordClick(this)""><div class = content><div class = numbers>J</div></div></button><button id = button_5 class = ""square num-button"" onclick = ""recordClick(this)""><div class = content><div class = numbers>K</div></div></button><button id = button_6 class = ""square num-button"" onclick = ""recordClick(this)""><div class = content><div class = numbers>L</div></div></button><button id = button_7 class = ""square num-button"" onclick = ""recordClick(this)""><div class = content><div class = numbers>N</div></div></button><button id = button_8 class = ""square num-button"" onclick = ""recordClick(this)""><div class = content><div class = numbers>P</div></div></button><button id = button_9 class = ""square num-button"" onclick = ""recordClick(this)""><div class = content><div class = numbers>Q</div></div></button><button id = button_10 class = ""square num-button"" onclick = ""recordClick(this)""><div class = content><div class = numbers>R</div></div></button><button id = button_11 class = ""square num-button"" onclick = ""recordClick(this)""><div class = content><div class = numbers>S</div></div></button><button id = button_12 class = ""square num-button"" onclick = ""recordClick(this)""><div class = content><div class = numbers>Y</div></div></button><button class = clear_button id = ""ClearButton"" onclick = ""clearResponse()"">BACKSPACE</button><button class = blank_button id = ""BlankButton"" onclick = ""blankResponse()"">SKIP</button><p style=""font-size: 2.4rem""><u><b>Current Answer:</b></u></p><br><br><div id=echoed_txt style=""font-size: 5rem; color:blue;""><b></b></div></div>",enter,ospan,retrieval,oWLmhi7Tjbhvfjrcliu8AePS8Uy2,html-keyboard-response,132,834954,0.0-46.0-4.0-1.0-2.0,12,12,12,5.0,"[""Q"",""C"",""N"",""G"",""K""]","[""Q"",""C"",""N"",""G"",""K""]",1.0,5.0,,,,,,,606f1462c3fcfaeb5c52bec8,16:30:31,03/04/2024
919.3999999761581,[''],0,ospan,feedback,oWLmhi7Tjbhvfjrcliu8AePS8Uy2,html-button-response,133,836376,0.0-46.0-4.0-1.0-3.0,,,,,,,,,,,,100.0,0.0,,606f1462c3fcfaeb5c52bec8,16:30:31,03/04/2024
,"<p style=""font-size:75px;"">...</p>",,ospan,iti,oWLmhi7Tjbhvfjrcliu8AePS8Uy2,html-keyboard-response,134,837379,0.0-46.0-4.0-2.0-0.0,,,,,,,,,,,,,,,606f1462c3fcfaeb5c52bec8,16:30:31,03/04/2024
1365.0,,,ospan,symmetry,oWLmhi7Tjbhvfjrcliu8AePS8Uy2,symmetry-judgement-task,135,839804,0.0-46.0-4.0-2.0-1.0-0.0,,,,,,,,,,1.0,1.0,,,,606f1462c3fcfaeb5c52bec8,16:30:31,03/04/2024
,"<div style=""font-size: 10rem; color: #0000FF"">G</div>",,ospan,letter,oWLmhi7Tjbhvfjrcliu8AePS8Uy2,html-keyboard-response,136,840807,0.0-46.0-4.0-2.0-1.0-1.0,,,,,,,,,,,,,,,606f1462c3fcfaeb5c52bec8,16:30:31,03/04/2024
1166.0,,,ospan,symmetry,oWLmhi7Tjbhvfjrcliu8AePS8Uy2,symmetry-judgement-task,137,843967,0.0-46.0-4.0-2.0-1.0-2.0,,,,,,,,,,1.0,1.0,,,,606f1462c3fcfaeb5c52bec8,16:30:31,03/04/2024
,"<div style=""font-size: 10rem; color: #0000FF"">N</div>",,ospan,letter,oWLmhi7Tjbhvfjrcliu8AePS8Uy2,html-keyboard-response,138,844969,0.0-46.0-4.0-2.0-1.0-3.0,,,,,,,,,,,,,,,606f1462c3fcfaeb5c52bec8,16:30:31,03/04/2024
1188.0,,,ospan,symmetry,oWLmhi7Tjbhvfjrcliu8AePS8Uy2,symmetry-judgement-task,139,848172,0.0-46.0-4.0-2.0-1.0-4.0,,,,,,,,,,1.0,1.0,,,,606f1462c3fcfaeb5c52bec8,16:30:31,03/04/2024
,"<div style=""font-size: 10rem; color: #0000FF"">L</div>",,ospan,letter,oWLmhi7Tjbhvfjrcliu8AePS8Uy2,html-keyboard-response,140,849175,0.0-46.0-4.0-2.0-1.0-5.0,,,,,,,,,,,,,,,606f1462c3fcfaeb5c52bec8,16:30:31,03/04/2024
3783.7999999523163,"<div class = numbox><p style=""font-size: 2.4rem"">Please recall the letters you saw to the best of your ability. If you do not remember a particular letter, use the SKIP button.<br><b>(When you are ready to lock in your answer, press ENTER)</b></p><button id = button_1 class = ""square num-button"" onclick = ""recordClick(this)""><div class = content><div class = numbers>C</div></div></button><button id = button_2 class = ""square num-button"" onclick = ""recordClick(this)""><div class = content><div class = numbers>G</div></div></button><button id = button_3 class = ""square num-button"" onclick = ""recordClick(this)""><div class = content><div class = numbers>H</div></div></button><button id = button_4 class = ""square num-button"" onclick = ""recordClick(this)""><div class = content><div class = numbers>J</div></div></button><button id = button_5 class = ""square num-button"" onclick = ""recordClick(this)""><div class = content><div class = numbers>K</div></div></button><button id = button_6 class = ""square num-button"" onclick = ""recordClick(this)""><div class = content><div class = numbers>L</div></div></button><button id = button_7 class = ""square num-button"" onclick = ""recordClick(this)""><div class = content><div class = numbers>N</div></div></button><button id = button_8 class = ""square num-button"" onclick = ""recordClick(this)""><div class = content><div class = numbers>P</div></div></button><button id = button_9 class = ""square num-button"" onclick = ""recordClick(this)""><div class = content><div class = numbers>Q</div></div></button><button id = button_10 class = ""square num-button"" onclick = ""recordClick(this)""><div class = content><div class = numbers>R</div></div></button><button id = button_11 class = ""square num-button"" onclick = ""recordClick(this)""><div class = content><div class = numbers>S</div></div></button><button id = button_12 class = ""square num-button"" onclick = ""recordClick(this)""><div class = content><div class = numbers>Y</div></div></button><button class = clear_button id = ""ClearButton"" onclick = ""clearResponse()"">BACKSPACE</button><button class = blank_button id = ""BlankButton"" onclick = ""blankResponse()"">SKIP</button><p style=""font-size: 2.4rem""><u><b>Current Answer:</b></u></p><br><br><div id=echoed_txt style=""font-size: 5rem; color:blue;""><b></b></div></div>",enter,ospan,retrieval,oWLmhi7Tjbhvfjrcliu8AePS8Uy2,html-keyboard-response,141,853711,0.0-46.0-4.0-2.0-2.0,15,15,15,3.0,"[""G"",""N"",""L""]","[""G"",""N"",""L""]",1.0,3.0,,,,,,,606f1462c3fcfaeb5c52bec8,16:30:31,03/04/2024
981.6000000238419,[''],0,ospan,feedback,oWLmhi7Tjbhvfjrcliu8AePS8Uy2,html-button-response,142,855195,0.0-46.0-4.0-2.0-3.0,,,,,,,,,,,,100.0,0.0,,606f1462c3fcfaeb5c52bec8,16:30:31,03/04/2024
,"<p style=""font-size:75px;"">...</p>",,ospan,iti,oWLmhi7Tjbhvfjrcliu8AePS8Uy2,html-keyboard-response,143,856199,0.0-46.0-5.0-0.0-0.0,,,,,,,,,,,,,,,606f1462c3fcfaeb5c52bec8,16:30:31,03/04/2024
1475.0,,,ospan,symmetry,oWLmhi7Tjbhvfjrcliu8AePS8Uy2,symmetry-judgement-task,144,858730,0.0-46.0-5.0-0.0-1.0-0.0,,,,,,,,,,1.0,1.0,,,,606f1462c3fcfaeb5c52bec8,16:30:31,03/04/2024
,"<div style=""font-size: 10rem; color: #0000FF"">S</div>",,ospan,letter,oWLmhi7Tjbhvfjrcliu8AePS8Uy2,html-keyboard-response,145,859734,0.0-46.0-5.0-0.0-1.0-1.0,,,,,,,,,,,,,,,606f1462c3fcfaeb5c52bec8,16:30:31,03/04/2024
1071.0,,,ospan,symmetry,oWLmhi7Tjbhvfjrcliu8AePS8Uy2,symmetry-judgement-task,146,862825,0.0-46.0-5.0-0.0-1.0-2.0,,,,,,,,,,1.0,1.0,,,,606f1462c3fcfaeb5c52bec8,16:30:31,03/04/2024
,"<div style=""font-size: 10rem; color: #0000FF"">J</div>",,ospan,letter,oWLmhi7Tjbhvfjrcliu8AePS8Uy2,html-keyboard-response,147,863828,0.0-46.0-5.0-0.0-1.0-3.0,,,,,,,,,,,,,,,606f1462c3fcfaeb5c52bec8,16:30:31,03/04/2024
1067.0,,,ospan,symmetry,oWLmhi7Tjbhvfjrcliu8AePS8Uy2,symmetry-judgement-task,148,866895,0.0-46.0-5.0-0.0-1.0-4.0,,,,,,,,,,1.0,1.0,,,,606f1462c3fcfaeb5c52bec8,16:30:31,03/04/2024
,"<div style=""font-size: 10rem; color: #0000FF"">G</div>",,ospan,letter,oWLmhi7Tjbhvfjrcliu8AePS8Uy2,html-keyboard-response,149,867897,0.0-46.0-5.0-0.0-1.0-5.0,,,,,,,,,,,,,,,606f1462c3fcfaeb5c52bec8,16:30:31,03/04/2024
1070.0,,,ospan,symmetry,oWLmhi7Tjbhvfjrcliu8AePS8Uy2,symmetry-judgement-task,150,870997,0.0-46.0-5.0-0.0-1.0-6.0,,,,,,,,,,1.0,1.0,,,,606f1462c3fcfaeb5c52bec8,16:30:31,03/04/2024
,"<div style=""font-size: 10rem; color: #0000FF"">R</div>",,ospan,letter,oWLmhi7Tjbhvfjrcliu8AePS8Uy2,html-keyboard-response,151,872000,0.0-46.0-5.0-0.0-1.0-7.0,,,,,,,,,,,,,,,606f1462c3fcfaeb5c52bec8,16:30:31,03/04/2024
1291.0,,,ospan,symmetry,oWLmhi7Tjbhvfjrcliu8AePS8Uy2,symmetry-judgement-task,152,875295,0.0-46.0-5.0-0.0-1.0-8.0,,,,,,,,,,1.0,1.0,,,,606f1462c3fcfaeb5c52bec8,16:30:31,03/04/2024
,"<div style=""font-size: 10rem; color: #0000FF"">K</div>",,ospan,letter,oWLmhi7Tjbhvfjrcliu8AePS8Uy2,html-keyboard-response,153,876297,0.0-46.0-5.0-0.0-1.0-9.0,,,,,,,,,,,,,,,606f1462c3fcfaeb5c52bec8,16:30:31,03/04/2024
1228.0,,,ospan,symmetry,oWLmhi7Tjbhvfjrcliu8AePS8Uy2,symmetry-judgement-task,154,879548,0.0-46.0-5.0-0.0-1.0-10.0,,,,,,,,,,1.0,1.0,,,,606f1462c3fcfaeb5c52bec8,16:30:31,03/04/2024
,"<div style=""font-size: 10rem; color: #0000FF"">L</div>",,ospan,letter,oWLmhi7Tjbhvfjrcliu8AePS8Uy2,html-keyboard-response,155,880550,0.0-46.0-5.0-0.0-1.0-11.0,,,,,,,,,,,,,,,606f1462c3fcfaeb5c52bec8,16:30:31,03/04/2024
32873.200000047684,"<div class = numbox><p style=""font-size: 2.4rem"">Please recall the letters you saw to the best of your ability. If you do not remember a particular letter, use the SKIP button.<br><b>(When you are ready to lock in your answer, press ENTER)</b></p><button id = button_1 class = ""square num-button"" onclick = ""recordClick(this)""><div class = content><div class = numbers>C</div></div></button><button id = button_2 class = ""square num-button"" onclick = ""recordClick(this)""><div class = content><div class = numbers>G</div></div></button><button id = button_3 class = ""square num-button"" onclick = ""recordClick(this)""><div class = content><div class = numbers>H</div></div></button><button id = button_4 class = ""square num-button"" onclick = ""recordClick(this)""><div class = content><div class = numbers>J</div></div></button><button id = button_5 class = ""square num-button"" onclick = ""recordClick(this)""><div class = content><div class = numbers>K</div></div></button><button id = button_6 class = ""square num-button"" onclick = ""recordClick(this)""><div class = content><div class = numbers>L</div></div></button><button id = button_7 class = ""square num-button"" onclick = ""recordClick(this)""><div class = content><div class = numbers>N</div></div></button><button id = button_8 class = ""square num-button"" onclick = ""recordClick(this)""><div class = content><div class = numbers>P</div></div></button><button id = button_9 class = ""square num-button"" onclick = ""recordClick(this)""><div class = content><div class = numbers>Q</div></div></button><button id = button_10 class = ""square num-button"" onclick = ""recordClick(this)""><div class = content><div class = numbers>R</div></div></button><button id = button_11 class = ""square num-button"" onclick = ""recordClick(this)""><div class = content><div class = numbers>S</div></div></button><button id = button_12 class = ""square num-button"" onclick = ""recordClick(this)""><div class = content><div class = numbers>Y</div></div></button><button class = clear_button id = ""ClearButton"" onclick = ""clearResponse()"">BACKSPACE</button><button class = blank_button id = ""BlankButton"" onclick = ""blankResponse()"">SKIP</button><p style=""font-size: 2.4rem""><u><b>Current Answer:</b></u></p><br><br><div id=echoed_txt style=""font-size: 5rem; color:blue;""><b></b></div></div>",enter,ospan,retrieval,oWLmhi7Tjbhvfjrcliu8AePS8Uy2,html-keyboard-response,156,914177,0.0-46.0-5.0-0.0-2.0,21,18,15,6.0,"[""S"",""J"",""G"",""N"",""C""]","[""S"",""J"",""G"",""R"",""K"",""L""]",0.0,3.0,,,,,,,606f1462c3fcfaeb5c52bec8,16:30:31,03/04/2024
1096.2000000476837,[''],0,ospan,feedback,oWLmhi7Tjbhvfjrcliu8AePS8Uy2,html-button-response,157,915775,0.0-46.0-5.0-0.0-3.0,,,,,,,,,,,,100.0,0.0,,606f1462c3fcfaeb5c52bec8,16:30:31,03/04/2024
,"<p style=""font-size:75px;"">...</p>",,ospan,iti,oWLmhi7Tjbhvfjrcliu8AePS8Uy2,html-keyboard-response,158,916779,0.0-46.0-5.0-1.0-0.0,,,,,,,,,,,,,,,606f1462c3fcfaeb5c52bec8,16:30:31,03/04/2024
1258.0,,,ospan,symmetry,oWLmhi7Tjbhvfjrcliu8AePS8Uy2,symmetry-judgement-task,159,919297,0.0-46.0-5.0-1.0-1.0-0.0,,,,,,,,,,1.0,1.0,,,,606f1462c3fcfaeb5c52bec8,16:30:31,03/04/2024
,"<div style=""font-size: 10rem; color: #0000FF"">R</div>",,ospan,letter,oWLmhi7Tjbhvfjrcliu8AePS8Uy2,html-keyboard-response,160,920300,0.0-46.0-5.0-1.0-1.0-1.0,,,,,,,,,,,,,,,606f1462c3fcfaeb5c52bec8,16:30:31,03/04/2024
1123.0,,,ospan,symmetry,oWLmhi7Tjbhvfjrcliu8AePS8Uy2,symmetry-judgement-task,161,923412,0.0-46.0-5.0-1.0-1.0-2.0,,,,,,,,,,1.0,1.0,,,,606f1462c3fcfaeb5c52bec8,16:30:31,03/04/2024
,"<div style=""font-size: 10rem; color: #0000FF"">P</div>",,ospan,letter,oWLmhi7Tjbhvfjrcliu8AePS8Uy2,html-keyboard-response,162,924414,0.0-46.0-5.0-1.0-1.0-3.0,,,,,,,,,,,,,,,606f1462c3fcfaeb5c52bec8,16:30:31,03/04/2024
1121.0,,,ospan,symmetry,oWLmhi7Tjbhvfjrcliu8AePS8Uy2,symmetry-judgement-task,163,927519,0.0-46.0-5.0-1.0-1.0-4.0,,,,,,,,,,1.0,1.0,,,,606f1462c3fcfaeb5c52bec8,16:30:31,03/04/2024
,"<div style=""font-size: 10rem; color: #0000FF"">J</div>",,ospan,letter,oWLmhi7Tjbhvfjrcliu8AePS8Uy2,html-keyboard-response,164,928522,0.0-46.0-5.0-1.0-1.0-5.0,,,,,,,,,,,,,,,606f1462c3fcfaeb5c52bec8,16:30:31,03/04/2024
1203.0,,,ospan,symmetry,oWLmhi7Tjbhvfjrcliu8AePS8Uy2,symmetry-judgement-task,165,931758,0.0-46.0-5.0-1.0-1.0-6.0,,,,,,,,,,1.0,1.0,,,,606f1462c3fcfaeb5c52bec8,16:30:31,03/04/2024
,"<div style=""font-size: 10rem; color: #0000FF"">L</div>",,ospan,letter,oWLmhi7Tjbhvfjrcliu8AePS8Uy2,html-keyboard-response,166,932761,0.0-46.0-5.0-1.0-1.0-7.0,,,,,,,,,,,,,,,606f1462c3fcfaeb5c52bec8,16:30:31,03/04/2024
1456.0,,,ospan,symmetry,oWLmhi7Tjbhvfjrcliu8AePS8Uy2,symmetry-judgement-task,167,936237,0.0-46.0-5.0-1.0-1.0-8.0,,,,,,,,,,1.0,1.0,,,,606f1462c3fcfaeb5c52bec8,16:30:31,03/04/2024
,"<div style=""font-size: 10rem; color: #0000FF"">Q</div>",,ospan,letter,oWLmhi7Tjbhvfjrcliu8AePS8Uy2,html-keyboard-response,168,937239,0.0-46.0-5.0-1.0-1.0-9.0,,,,,,,,,,,,,,,606f1462c3fcfaeb5c52bec8,16:30:31,03/04/2024
1127.0,,,ospan,symmetry,oWLmhi7Tjbhvfjrcliu8AePS8Uy2,symmetry-judgement-task,169,940348,0.0-46.0-5.0-1.0-1.0-10.0,,,,,,,,,,1.0,1.0,,,,606f1462c3fcfaeb5c52bec8,16:30:31,03/04/2024
,"<div style=""font-size: 10rem; color: #0000FF"">S</div>",,ospan,letter,oWLmhi7Tjbhvfjrcliu8AePS8Uy2,html-keyboard-response,170,941351,0.0-46.0-5.0-1.0-1.0-11.0,,,,,,,,,,,,,,,606f1462c3fcfaeb5c52bec8,16:30:31,03/04/2024
1097.0,,,ospan,symmetry,oWLmhi7Tjbhvfjrcliu8AePS8Uy2,symmetry-judgement-task,171,944469,0.0-46.0-5.0-1.0-1.0-12.0,,,,,,,,,,1.0,1.0,,,,606f1462c3fcfaeb5c52bec8,16:30:31,03/04/2024
,"<div style=""font-size: 10rem; color: #0000FF"">C</div>",,ospan,letter,oWLmhi7Tjbhvfjrcliu8AePS8Uy2,html-keyboard-response,172,945472,0.0-46.0-5.0-1.0-1.0-13.0,,,,,,,,,,,,,,,606f1462c3fcfaeb5c52bec8,16:30:31,03/04/2024
12835.299999952316,"<div class = numbox><p style=""font-size: 2.4rem"">Please recall the letters you saw to the best of your ability. If you do not remember a particular letter, use the SKIP button.<br><b>(When you are ready to lock in your answer, press ENTER)</b></p><button id = button_1 class = ""square num-button"" onclick = ""recordClick(this)""><div class = content><div class = numbers>C</div></div></button><button id = button_2 class = ""square num-button"" onclick = ""recordClick(this)""><div class = content><div class = numbers>G</div></div></button><button id = button_3 class = ""square num-button"" onclick = ""recordClick(this)""><div class = content><div class = numbers>H</div></div></button><button id = button_4 class = ""square num-button"" onclick = ""recordClick(this)""><div class = content><div class = numbers>J</div></div></button><button id = button_5 class = ""square num-button"" onclick = ""recordClick(this)""><div class = content><div class = numbers>K</div></div></button><button id = button_6 class = ""square num-button"" onclick = ""recordClick(this)""><div class = content><div class = numbers>L</div></div></button><button id = button_7 class = ""square num-button"" onclick = ""recordClick(this)""><div class = content><div class = numbers>N</div></div></button><button id = button_8 class = ""square num-button"" onclick = ""recordClick(this)""><div class = content><div class = numbers>P</div></div></button><button id = button_9 class = ""square num-button"" onclick = ""recordClick(this)""><div class = content><div class = numbers>Q</div></div></button><button id = button_10 class = ""square num-button"" onclick = ""recordClick(this)""><div class = content><div class = numbers>R</div></div></button><button id = button_11 class = ""square num-button"" onclick = ""recordClick(this)""><div class = content><div class = numbers>S</div></div></button><button id = button_12 class = ""square num-button"" onclick = ""recordClick(this)""><div class = content><div class = numbers>Y</div></div></button><button class = clear_button id = ""ClearButton"" onclick = ""clearResponse()"">BACKSPACE</button><button class = blank_button id = ""BlankButton"" onclick = ""blankResponse()"">SKIP</button><p style=""font-size: 2.4rem""><u><b>Current Answer:</b></u></p><br><br><div id=echoed_txt style=""font-size: 5rem; color:blue;""><b></b></div></div>",enter,ospan,retrieval,oWLmhi7Tjbhvfjrcliu8AePS8Uy2,html-keyboard-response,173,959061,0.0-46.0-5.0-1.0-2.0,28,22,15,7.0,"[""R"",""P"",""J"",""L"",""S"",""R""]","[""R"",""P"",""J"",""L"",""Q"",""S"",""C""]",0.0,4.0,,,,,,,606f1462c3fcfaeb5c52bec8,16:30:31,03/04/2024
1049.1000000238419,[''],0,ospan,feedback,oWLmhi7Tjbhvfjrcliu8AePS8Uy2,html-button-response,174,960613,0.0-46.0-5.0-1.0-3.0,,,,,,,,,,,,100.0,0.0,,606f1462c3fcfaeb5c52bec8,16:30:31,03/04/2024
,"<p style=""font-size:75px;"">...</p>",,ospan,iti,oWLmhi7Tjbhvfjrcliu8AePS8Uy2,html-keyboard-response,175,961616,0.0-46.0-6.0-0.0-0.0,,,,,,,,,,,,,,,606f1462c3fcfaeb5c52bec8,16:30:31,03/04/2024
1142.0,,,ospan,symmetry,oWLmhi7Tjbhvfjrcliu8AePS8Uy2,symmetry-judgement-task,176,964005,0.0-46.0-6.0-0.0-1.0-0.0,,,,,,,,,,1.0,1.0,,,,606f1462c3fcfaeb5c52bec8,16:30:31,03/04/2024
,"<div style=""font-size: 10rem; color: #0000FF"">H</div>",,ospan,letter,oWLmhi7Tjbhvfjrcliu8AePS8Uy2,html-keyboard-response,177,965008,0.0-46.0-6.0-0.0-1.0-1.0,,,,,,,,,,,,,,,606f1462c3fcfaeb5c52bec8,16:30:31,03/04/2024
898.0,,,ospan,symmetry,oWLmhi7Tjbhvfjrcliu8AePS8Uy2,symmetry-judgement-task,178,967922,0.0-46.0-6.0-0.0-1.0-2.0,,,,,,,,,,1.0,1.0,,,,606f1462c3fcfaeb5c52bec8,16:30:31,03/04/2024
,"<div style=""font-size: 10rem; color: #0000FF"">J</div>",,ospan,letter,oWLmhi7Tjbhvfjrcliu8AePS8Uy2,html-keyboard-response,179,968925,0.0-46.0-6.0-0.0-1.0-3.0,,,,,,,,,,,,,,,606f1462c3fcfaeb5c52bec8,16:30:31,03/04/2024
899.0,,,ospan,symmetry,oWLmhi7Tjbhvfjrcliu8AePS8Uy2,symmetry-judgement-task,180,971807,0.0-46.0-6.0-0.0-1.0-4.0,,,,,,,,,,1.0,1.0,,,,606f1462c3fcfaeb5c52bec8,16:30:31,03/04/2024
,"<div style=""font-size: 10rem; color: #0000FF"">Y</div>",,ospan,letter,oWLmhi7Tjbhvfjrcliu8AePS8Uy2,html-keyboard-response,181,972808,0.0-46.0-6.0-0.0-1.0-5.0,,,,,,,,,,,,,,,606f1462c3fcfaeb5c52bec8,16:30:31,03/04/2024
911.0,,,ospan,symmetry,oWLmhi7Tjbhvfjrcliu8AePS8Uy2,symmetry-judgement-task,182,975719,0.0-46.0-6.0-0.0-1.0-6.0,,,,,,,,,,1.0,1.0,,,,606f1462c3fcfaeb5c52bec8,16:30:31,03/04/2024
,"<div style=""font-size: 10rem; color: #0000FF"">N</div>",,ospan,letter,oWLmhi7Tjbhvfjrcliu8AePS8Uy2,html-keyboard-response,183,976722,0.0-46.0-6.0-0.0-1.0-7.0,,,,,,,,,,,,,,,606f1462c3fcfaeb5c52bec8,16:30:31,03/04/2024
1313.0,,,ospan,symmetry,oWLmhi7Tjbhvfjrcliu8AePS8Uy2,symmetry-judgement-task,184,980035,0.0-46.0-6.0-0.0-1.0-8.0,,,,,,,,,,1.0,1.0,,,,606f1462c3fcfaeb5c52bec8,16:30:31,03/04/2024
,"<div style=""font-size: 10rem; color: #0000FF"">Q</div>",,ospan,letter,oWLmhi7Tjbhvfjrcliu8AePS8Uy2,html-keyboard-response,185,981037,0.0-46.0-6.0-0.0-1.0-9.0,,,,,,,,,,,,,,,606f1462c3fcfaeb5c52bec8,16:30:31,03/04/2024
9461.0,"<div class = numbox><p style=""font-size: 2.4rem"">Please recall the letters you saw to the best of your ability. If you do not remember a particular letter, use the SKIP button.<br><b>(When you are ready to lock in your answer, press ENTER)</b></p><button id = button_1 class = ""square num-button"" onclick = ""recordClick(this)""><div class = content><div class = numbers>C</div></div></button><button id = button_2 class = ""square num-button"" onclick = ""recordClick(this)""><div class = content><div class = numbers>G</div></div></button><button id = button_3 class = ""square num-button"" onclick = ""recordClick(this)""><div class = content><div class = numbers>H</div></div></button><button id = button_4 class = ""square num-button"" onclick = ""recordClick(this)""><div class = content><div class = numbers>J</div></div></button><button id = button_5 class = ""square num-button"" onclick = ""recordClick(this)""><div class = content><div class = numbers>K</div></div></button><button id = button_6 class = ""square num-button"" onclick = ""recordClick(this)""><div class = content><div class = numbers>L</div></div></button><button id = button_7 class = ""square num-button"" onclick = ""recordClick(this)""><div class = content><div class = numbers>N</div></div></button><button id = button_8 class = ""square num-button"" onclick = ""recordClick(this)""><div class = content><div class = numbers>P</div></div></button><button id = button_9 class = ""square num-button"" onclick = ""recordClick(this)""><div class = content><div class = numbers>Q</div></div></button><button id = button_10 class = ""square num-button"" onclick = ""recordClick(this)""><div class = content><div class = numbers>R</div></div></button><button id = button_11 class = ""square num-button"" onclick = ""recordClick(this)""><div class = content><div class = numbers>S</div></div></button><button id = button_12 class = ""square num-button"" onclick = ""recordClick(this)""><div class = content><div class = numbers>Y</div></div></button><button class = clear_button id = ""ClearButton"" onclick = ""clearResponse()"">BACKSPACE</button><button class = blank_button id = ""BlankButton"" onclick = ""blankResponse()"">SKIP</button><p style=""font-size: 2.4rem""><u><b>Current Answer:</b></u></p><br><br><div id=echoed_txt style=""font-size: 5rem; color:blue;""><b></b></div></div>",enter,ospan,retrieval,oWLmhi7Tjbhvfjrcliu8AePS8Uy2,html-keyboard-response,186,991253,0.0-46.0-6.0-0.0-2.0,33,25,15,5.0,"[""H"",""J"",""Y"",""Q"",""N""]","[""H"",""J"",""Y"",""N"",""Q""]",0.0,3.0,,,,,,,606f1462c3fcfaeb5c52bec8,16:30:31,03/04/2024
923.5,[''],0,ospan,feedback,oWLmhi7Tjbhvfjrcliu8AePS8Uy2,html-button-response,187,992679,0.0-46.0-6.0-0.0-3.0,,,,,,,,,,,,100.0,0.0,,606f1462c3fcfaeb5c52bec8,16:30:31,03/04/2024
,"<p style=""font-size:75px;"">...</p>",,ospan,iti,oWLmhi7Tjbhvfjrcliu8AePS8Uy2,html-keyboard-response,188,993682,0.0-46.0-6.0-1.0-0.0,,,,,,,,,,,,,,,606f1462c3fcfaeb5c52bec8,16:30:31,03/04/2024
1187.0,,,ospan,symmetry,oWLmhi7Tjbhvfjrcliu8AePS8Uy2,symmetry-judgement-task,189,996145,0.0-46.0-6.0-1.0-1.0-0.0,,,,,,,,,,1.0,1.0,,,,606f1462c3fcfaeb5c52bec8,16:30:31,03/04/2024
,"<div style=""font-size: 10rem; color: #0000FF"">H</div>",,ospan,letter,oWLmhi7Tjbhvfjrcliu8AePS8Uy2,html-keyboard-response,190,997148,0.0-46.0-6.0-1.0-1.0-1.0,,,,,,,,,,,,,,,606f1462c3fcfaeb5c52bec8,16:30:31,03/04/2024
1022.0,,,ospan,symmetry,oWLmhi7Tjbhvfjrcliu8AePS8Uy2,symmetry-judgement-task,191,1000174,0.0-46.0-6.0-1.0-1.0-2.0,,,,,,,,,,1.0,1.0,,,,606f1462c3fcfaeb5c52bec8,16:30:31,03/04/2024
,"<div style=""font-size: 10rem; color: #0000FF"">N</div>",,ospan,letter,oWLmhi7Tjbhvfjrcliu8AePS8Uy2,html-keyboard-response,192,1001177,0.0-46.0-6.0-1.0-1.0-3.0,,,,,,,,,,,,,,,606f1462c3fcfaeb5c52bec8,16:30:31,03/04/2024
1148.0,,,ospan,symmetry,oWLmhi7Tjbhvfjrcliu8AePS8Uy2,symmetry-judgement-task,193,1004334,0.0-46.0-6.0-1.0-1.0-4.0,,,,,,,,,,1.0,1.0,,,,606f1462c3fcfaeb5c52bec8,16:30:31,03/04/2024
,"<div style=""font-size: 10rem; color: #0000FF"">Q</div>",,ospan,letter,oWLmhi7Tjbhvfjrcliu8AePS8Uy2,html-keyboard-response,194,1005338,0.0-46.0-6.0-1.0-1.0-5.0,,,,,,,,,,,,,,,606f1462c3fcfaeb5c52bec8,16:30:31,03/04/2024
838.0,,,ospan,symmetry,oWLmhi7Tjbhvfjrcliu8AePS8Uy2,symmetry-judgement-task,195,1008150,0.0-46.0-6.0-1.0-1.0-6.0,,,,,,,,,,1.0,1.0,,,,606f1462c3fcfaeb5c52bec8,16:30:31,03/04/2024
,"<div style=""font-size: 10rem; color: #0000FF"">P</div>",,ospan,letter,oWLmhi7Tjbhvfjrcliu8AePS8Uy2,html-keyboard-response,196,1009153,0.0-46.0-6.0-1.0-1.0-7.0,,,,,,,,,,,,,,,606f1462c3fcfaeb5c52bec8,16:30:31,03/04/2024
796.0,,,ospan,symmetry,oWLmhi7Tjbhvfjrcliu8AePS8Uy2,symmetry-judgement-task,197,1011950,0.0-46.0-6.0-1.0-1.0-8.0,,,,,,,,,,1.0,1.0,,,,606f1462c3fcfaeb5c52bec8,16:30:31,03/04/2024
,"<div style=""font-size: 10rem; color: #0000FF"">J</div>",,ospan,letter,oWLmhi7Tjbhvfjrcliu8AePS8Uy2,html-keyboard-response,198,1012954,0.0-46.0-6.0-1.0-1.0-9.0,,,,,,,,,,,,,,,606f1462c3fcfaeb5c52bec8,16:30:31,03/04/2024
1188.0,,,ospan,symmetry,oWLmhi7Tjbhvfjrcliu8AePS8Uy2,symmetry-judgement-task,199,1016122,0.0-46.0-6.0-1.0-1.0-10.0,,,,,,,,,,1.0,1.0,,,,606f1462c3fcfaeb5c52bec8,16:30:31,03/04/2024
,"<div style=""font-size: 10rem; color: #0000FF"">G</div>",,ospan,letter,oWLmhi7Tjbhvfjrcliu8AePS8Uy2,html-keyboard-response,200,1017124,0.0-46.0-6.0-1.0-1.0-11.0,,,,,,,,,,,,,,,606f1462c3fcfaeb5c52bec8,16:30:31,03/04/2024
1646.0,,,ospan,symmetry,oWLmhi7Tjbhvfjrcliu8AePS8Uy2,symmetry-judgement-task,201,1020786,0.0-46.0-6.0-1.0-1.0-12.0,,,,,,,,,,1.0,1.0,,,,606f1462c3fcfaeb5c52bec8,16:30:31,03/04/2024
,"<div style=""font-size: 10rem; color: #0000FF"">Y</div>",,ospan,letter,oWLmhi7Tjbhvfjrcliu8AePS8Uy2,html-keyboard-response,202,1021789,0.0-46.0-6.0-1.0-1.0-13.0,,,,,,,,,,,,,,,606f1462c3fcfaeb5c52bec8,16:30:31,03/04/2024
1155.0,,,ospan,symmetry,oWLmhi7Tjbhvfjrcliu8AePS8Uy2,symmetry-judgement-task,203,1024933,0.0-46.0-6.0-1.0-1.0-14.0,,,,,,,,,,1.0,1.0,,,,606f1462c3fcfaeb5c52bec8,16:30:31,03/04/2024
,"<div style=""font-size: 10rem; color: #0000FF"">R</div>",,ospan,letter,oWLmhi7Tjbhvfjrcliu8AePS8Uy2,html-keyboard-response,204,1025935,0.0-46.0-6.0-1.0-1.0-15.0,,,,,,,,,,,,,,,606f1462c3fcfaeb5c52bec8,16:30:31,03/04/2024
9713.700000047684,"<div class = numbox><p style=""font-size: 2.4rem"">Please recall the letters you saw to the best of your ability. If you do not remember a particular letter, use the SKIP button.<br><b>(When you are ready to lock in your answer, press ENTER)</b></p><button id = button_1 class = ""square num-button"" onclick = ""recordClick(this)""><div class = content><div class = numbers>C</div></div></button><button id = button_2 class = ""square num-button"" onclick = ""recordClick(this)""><div class = content><div class = numbers>G</div></div></button><button id = button_3 class = ""square num-button"" onclick = ""recordClick(this)""><div class = content><div class = numbers>H</div></div></button><button id = button_4 class = ""square num-button"" onclick = ""recordClick(this)""><div class = content><div class = numbers>J</div></div></button><button id = button_5 class = ""square num-button"" onclick = ""recordClick(this)""><div class = content><div class = numbers>K</div></div></button><button id = button_6 class = ""square num-button"" onclick = ""recordClick(this)""><div class = content><div class = numbers>L</div></div></button><button id = button_7 class = ""square num-button"" onclick = ""recordClick(this)""><div class = content><div class = numbers>N</div></div></button><button id = button_8 class = ""square num-button"" onclick = ""recordClick(this)""><div class = content><div class = numbers>P</div></div></button><button id = button_9 class = ""square num-button"" onclick = ""recordClick(this)""><div class = content><div class = numbers>Q</div></div></button><button id = button_10 class = ""square num-button"" onclick = ""recordClick(this)""><div class = content><div class = numbers>R</div></div></button><button id = button_11 class = ""square num-button"" onclick = ""recordClick(this)""><div class = content><div class = numbers>S</div></div></button><button id = button_12 class = ""square num-button"" onclick = ""recordClick(this)""><div class = content><div class = numbers>Y</div></div></button><button class = clear_button id = ""ClearButton"" onclick = ""clearResponse()"">BACKSPACE</button><button class = blank_button id = ""BlankButton"" onclick = ""blankResponse()"">SKIP</button><p style=""font-size: 2.4rem""><u><b>Current Answer:</b></u></p><br><br><div id=echoed_txt style=""font-size: 5rem; color:blue;""><b></b></div></div>",enter,ospan,retrieval,oWLmhi7Tjbhvfjrcliu8AePS8Uy2,html-keyboard-response,205,1036402,0.0-46.0-6.0-1.0-2.0,41,31,15,8.0,"[""H"",""N"",""Q"",""P"",""J"",""G"",""R""]","[""H"",""N"",""Q"",""P"",""J"",""G"",""Y"",""R""]",0.0,6.0,,,,,,,606f1462c3fcfaeb5c52bec8,16:30:31,03/04/2024
1788.8999999761581,[''],0,ospan,feedback,oWLmhi7Tjbhvfjrcliu8AePS8Uy2,html-button-response,206,1038695,0.0-46.0-6.0-1.0-3.0,,,,,,,,,,,,100.0,0.0,,606f1462c3fcfaeb5c52bec8,16:30:31,03/04/2024
11624.399999976158,,"{'Q0': 'this was a fun task, i enjoyed it'}",ospan,survey_ospan,oWLmhi7Tjbhvfjrcliu8AePS8Uy2,lmdlab-survey-text,207,1051077,0.0-46.0-7.0,,,,,,,,,,,,,,oWLmhi7Tjbhvfjrcliu8AePS8Uy2,606f1462c3fcfaeb5c52bec8,16:30:31,03/04/2024
1526.1999999284744,<p><p style='font-size: 3rem'>Great work!<br><br>This completes the symmetry and memory task.</p><br><br><br>,0,ospan,finish,oWLmhi7Tjbhvfjrcliu8AePS8Uy2,html-button-response,208,1052608,0.0-46.0-8.0,41,31,15,,,,,,,,,100.0,,,606f1462c3fcfaeb5c52bec8,16:30:31,03/04/2024
