rt,stimulus,response,exp_name,exp_stage,subjectID,trial_type,trial_index,time_elapsed,internal_node_id,ospan_shown,ospan_total,ospan_abs,length,resp_actual,resp_correct,full_correct,num_correct,feedback,accuracy,correct,math_acc,math_warning,databaseID,prolificID,start_time,date
3787.0,<div class = 'left_align' style='font-size: 3.25rem; line-height: 1.3;'><p class = 'center_align'><b>Welcome to the Symmetry and Memory Task</b><br><br><br><br></p>Press 'continue' to show the instructions.<br><br><br><br></div>,0,ospan,instruct,kqRmpj7c0hZKDnuiFgNXHfMRvn03,html-button-response,54,479256,0.0-46.0-0.0-0.0-0.0,,,,,,,,,,,,,,,5bf8a27021a4e1000194fc76,22:21:44,02/04/2024
13353.0,"<div class = 'left_align' style='font-size: 3.25rem; line-height: 1.3;'><p class = 'center_align'><b>Symmetry and Memory Task</b><br><br></p>In this task, you will try to memorize letters you see on the screen<br>while you also view black and white grid pictures.<br><br>In the next few minutes, you will have some practice to get you familiar<br>with how the task works.<br><br>It may be difficult sometimes, but please do not worry about making mistakes!<br><br>We will begin by practicing the letter part of the task.<br><br><br><br></div>",0,ospan,instruct,kqRmpj7c0hZKDnuiFgNXHfMRvn03,html-button-response,55,492865,0.0-46.0-0.0-0.0-1.0,,,,,,,,,,,,,,,5bf8a27021a4e1000194fc76,22:21:44,02/04/2024
9857.0,"<div class = 'left_align' style='font-size: 3.25rem; line-height: 1.3;'>For this practice part, letters will appear on the screen one at a time.<br><br>Try to remember each letter in the order presented.<br><br>After some letters have been shown, you will see a response screen. Your<br>goal is to report the letters you saw <b>in order</b>. If you do not remember<br>a particular letter, you will have the option to leave it blank.<br><br><br><br></div>",0,ospan,instruct,kqRmpj7c0hZKDnuiFgNXHfMRvn03,html-button-response,56,502981,0.0-46.0-0.0-0.0-2.0,,,,,,,,,,,,,,,5bf8a27021a4e1000194fc76,22:21:44,02/04/2024
4212.0,"<div class = 'left_align' style='font-size: 3.25rem; line-height: 1.3;'>Remember, it is very important to get the letters in the same<br>order as you see them.<br><br>When you are ready, you may begin the letter practice.</div><br><br><br><br>",0,ospan,instruct,kqRmpj7c0hZKDnuiFgNXHfMRvn03,html-button-response,57,507451,0.0-46.0-0.0-0.0-3.0,,,,,,,,,,,,,,,5bf8a27021a4e1000194fc76,22:21:44,02/04/2024
,"<p style=""font-size:75px;"">...</p>",,ospan,iti,kqRmpj7c0hZKDnuiFgNXHfMRvn03,html-keyboard-response,58,508711,0.0-46.0-0.0-1.0-0.0,,,,,,,,,,,,,,,5bf8a27021a4e1000194fc76,22:21:44,02/04/2024
,"<div style=""font-size: 10rem; color: #0000FF"">C</div>",,ospan,letter,kqRmpj7c0hZKDnuiFgNXHfMRvn03,html-keyboard-response,59,509718,0.0-46.0-0.0-1.0-1.0,,,,,,,,,,,,,,,5bf8a27021a4e1000194fc76,22:21:44,02/04/2024
,"<div style=""font-size: 10rem; color: #0000FF"">H</div>",,ospan,letter,kqRmpj7c0hZKDnuiFgNXHfMRvn03,html-keyboard-response,60,511478,0.0-46.0-0.0-1.0-2.0,,,,,,,,,,,,,,,5bf8a27021a4e1000194fc76,22:21:44,02/04/2024
9887.0,"<div class = numbox><p style=""font-size: 2.4rem"">Please recall the letters you saw to the best of your ability. If you do not remember a particular letter, use the SKIP button.<br><b>(When you are ready to lock in your answer, press ENTER)</b></p><button id = button_1 class = ""square num-button"" onclick = ""recordClick(this)""><div class = content><div class = numbers>C</div></div></button><button id = button_2 class = ""square num-button"" onclick = ""recordClick(this)""><div class = content><div class = numbers>G</div></div></button><button id = button_3 class = ""square num-button"" onclick = ""recordClick(this)""><div class = content><div class = numbers>H</div></div></button><button id = button_4 class = ""square num-button"" onclick = ""recordClick(this)""><div class = content><div class = numbers>J</div></div></button><button id = button_5 class = ""square num-button"" onclick = ""recordClick(this)""><div class = content><div class = numbers>K</div></div></button><button id = button_6 class = ""square num-button"" onclick = ""recordClick(this)""><div class = content><div class = numbers>L</div></div></button><button id = button_7 class = ""square num-button"" onclick = ""recordClick(this)""><div class = content><div class = numbers>N</div></div></button><button id = button_8 class = ""square num-button"" onclick = ""recordClick(this)""><div class = content><div class = numbers>P</div></div></button><button id = button_9 class = ""square num-button"" onclick = ""recordClick(this)""><div class = content><div class = numbers>Q</div></div></button><button id = button_10 class = ""square num-button"" onclick = ""recordClick(this)""><div class = content><div class = numbers>R</div></div></button><button id = button_11 class = ""square num-button"" onclick = ""recordClick(this)""><div class = content><div class = numbers>S</div></div></button><button id = button_12 class = ""square num-button"" onclick = ""recordClick(this)""><div class = content><div class = numbers>Y</div></div></button><button class = clear_button id = ""ClearButton"" onclick = ""clearResponse()"">BACKSPACE</button><button class = blank_button id = ""BlankButton"" onclick = ""blankResponse()"">SKIP</button><p style=""font-size: 2.4rem""><u><b>Current Answer:</b></u></p><br><br><div id=echoed_txt style=""font-size: 5rem; color:blue;""><b></b></div></div>",enter,ospan,retrieval,kqRmpj7c0hZKDnuiFgNXHfMRvn03,html-keyboard-response,61,522124,0.0-46.0-0.0-1.0-3.0,NA,NA,NA,2.0,"[""C"",""H""]","[""C"",""H""]",1.0,2.0,"['<font color=""green"">C</font>', '<font color=""green"">H</font>']",,,,,,5bf8a27021a4e1000194fc76,22:21:44,02/04/2024
1652.0,"['<p style=""font-size:44px"">Letters:<br><br><br><font color=""green"">C</font> <font color=""green"">H</font></p><br><br>']",0,ospan,practice_feedback,kqRmpj7c0hZKDnuiFgNXHfMRvn03,html-button-response,62,524284,0.0-46.0-0.0-1.0-4.0,,,,,,,,,,,,,,,5bf8a27021a4e1000194fc76,22:21:44,02/04/2024
,"<p style=""font-size:75px;"">...</p>",,ospan,iti,kqRmpj7c0hZKDnuiFgNXHfMRvn03,html-keyboard-response,63,525292,0.0-46.0-0.0-2.0-0.0,,,,,,,,,,,,,,,5bf8a27021a4e1000194fc76,22:21:44,02/04/2024
,"<div style=""font-size: 10rem; color: #0000FF"">K</div>",,ospan,letter,kqRmpj7c0hZKDnuiFgNXHfMRvn03,html-keyboard-response,64,526297,0.0-46.0-0.0-2.0-1.0,,,,,,,,,,,,,,,5bf8a27021a4e1000194fc76,22:21:44,02/04/2024
,"<div style=""font-size: 10rem; color: #0000FF"">R</div>",,ospan,letter,kqRmpj7c0hZKDnuiFgNXHfMRvn03,html-keyboard-response,65,528057,0.0-46.0-0.0-2.0-2.0,,,,,,,,,,,,,,,5bf8a27021a4e1000194fc76,22:21:44,02/04/2024
,"<div style=""font-size: 10rem; color: #0000FF"">Q</div>",,ospan,letter,kqRmpj7c0hZKDnuiFgNXHfMRvn03,html-keyboard-response,66,529817,0.0-46.0-0.0-2.0-3.0,,,,,,,,,,,,,,,5bf8a27021a4e1000194fc76,22:21:44,02/04/2024
4739.0,"<div class = numbox><p style=""font-size: 2.4rem"">Please recall the letters you saw to the best of your ability. If you do not remember a particular letter, use the SKIP button.<br><b>(When you are ready to lock in your answer, press ENTER)</b></p><button id = button_1 class = ""square num-button"" onclick = ""recordClick(this)""><div class = content><div class = numbers>C</div></div></button><button id = button_2 class = ""square num-button"" onclick = ""recordClick(this)""><div class = content><div class = numbers>G</div></div></button><button id = button_3 class = ""square num-button"" onclick = ""recordClick(this)""><div class = content><div class = numbers>H</div></div></button><button id = button_4 class = ""square num-button"" onclick = ""recordClick(this)""><div class = content><div class = numbers>J</div></div></button><button id = button_5 class = ""square num-button"" onclick = ""recordClick(this)""><div class = content><div class = numbers>K</div></div></button><button id = button_6 class = ""square num-button"" onclick = ""recordClick(this)""><div class = content><div class = numbers>L</div></div></button><button id = button_7 class = ""square num-button"" onclick = ""recordClick(this)""><div class = content><div class = numbers>N</div></div></button><button id = button_8 class = ""square num-button"" onclick = ""recordClick(this)""><div class = content><div class = numbers>P</div></div></button><button id = button_9 class = ""square num-button"" onclick = ""recordClick(this)""><div class = content><div class = numbers>Q</div></div></button><button id = button_10 class = ""square num-button"" onclick = ""recordClick(this)""><div class = content><div class = numbers>R</div></div></button><button id = button_11 class = ""square num-button"" onclick = ""recordClick(this)""><div class = content><div class = numbers>S</div></div></button><button id = button_12 class = ""square num-button"" onclick = ""recordClick(this)""><div class = content><div class = numbers>Y</div></div></button><button class = clear_button id = ""ClearButton"" onclick = ""clearResponse()"">BACKSPACE</button><button class = blank_button id = ""BlankButton"" onclick = ""blankResponse()"">SKIP</button><p style=""font-size: 2.4rem""><u><b>Current Answer:</b></u></p><br><br><div id=echoed_txt style=""font-size: 5rem; color:blue;""><b></b></div></div>",enter,ospan,retrieval,kqRmpj7c0hZKDnuiFgNXHfMRvn03,html-keyboard-response,67,535308,0.0-46.0-0.0-2.0-4.0,NA,NA,NA,3.0,"[""K"",""R"",""Q""]","[""K"",""R"",""Q""]",1.0,3.0,"['<font color=""green"">K</font>', '<font color=""green"">R</font>', '<font color=""green"">Q</font>']",,,,,,5bf8a27021a4e1000194fc76,22:21:44,02/04/2024
1032.0,"['<p style=""font-size:44px"">Letters:<br><br><br><font color=""green"">K</font> <font color=""green"">R</font> <font color=""green"">Q</font></p><br><br>']",0,ospan,practice_feedback,kqRmpj7c0hZKDnuiFgNXHfMRvn03,html-button-response,68,536848,0.0-46.0-0.0-2.0-5.0,,,,,,,,,,,,,,,5bf8a27021a4e1000194fc76,22:21:44,02/04/2024
12055.0,"<div class = 'left_align' style='font-size: 3.25rem; line-height: 1.3;'>Now you will practice doing the <b>symmetry judgment part</b> of the experiment.<br><br>A black and white grid picture will appear on the screen and you have to judge if it is <br>symmetrical or asymetrical.<br><br>A picture is 'mirror' symmetrical if its left half is identical to the right half when flipped.<br>Here are examples of a symmetrical and an asymetrical picture:<br><br><center><img src='Stimuli/img/symm_instructions_extra.png' style='height:420px; width:900'></img></center><br>To judge symmetry, imagine you were to fold each picture down the middle, like a book –<br>would the left half match the right half when folded onto each other?<br><br></div><br>",0,ospan,instruct,kqRmpj7c0hZKDnuiFgNXHfMRvn03,html-button-response,69,548906,0.0-46.0-1.0-0.0-0.0,,,,,,,,,,,,,,,5bf8a27021a4e1000194fc76,22:21:44,02/04/2024
8734.0,"<div class = 'left_align' style='font-size: 3.25rem; line-height: 1.3;'>When you have viewed the picture and determined whether it is symmetrical or not,<br>you can <b>click the Yes or No button</b> below to answer.<br><br>If you take longer than 15 seconds, it will continue automatically<br>and record the answer as an error.</div><br>",0,ospan,instruct,kqRmpj7c0hZKDnuiFgNXHfMRvn03,html-button-response,70,557898,0.0-46.0-1.0-0.0-1.0,,,,,,,,,,,,,,,5bf8a27021a4e1000194fc76,22:21:44,02/04/2024
5686.0,"<div class = 'left_align' style='font-size: 3.25rem; line-height: 1.3;'>It is <b>very</b> important that you make the symmetry judgment correctly.<br><br>It is also important that you try and judge the picture as quickly as you can.<br><br>When you are ready, click on the button below to try some practice problems.</div><br><br><br><br>",0,ospan,instruct,kqRmpj7c0hZKDnuiFgNXHfMRvn03,html-button-response,71,563837,0.0-46.0-1.0-0.0-2.0,,,,,,,,,,,,,,,5bf8a27021a4e1000194fc76,22:21:44,02/04/2024
3372.0,,,ospan,symmetry,kqRmpj7c0hZKDnuiFgNXHfMRvn03,symmetry-judgement-task,72,568056,0.0-46.0-1.0-1.0-0.0,,,,,,,,,,1.0,1.0,,,,5bf8a27021a4e1000194fc76,22:21:44,02/04/2024
,"<p style=""color:green; font-size: 35px"">Correct</p>",,ospan,feedback,kqRmpj7c0hZKDnuiFgNXHfMRvn03,html-keyboard-response,73,568809,0.0-46.0-1.0-1.0-1.0,,,,,,,,,,,,,,,5bf8a27021a4e1000194fc76,22:21:44,02/04/2024
3039.0,,,ospan,symmetry,kqRmpj7c0hZKDnuiFgNXHfMRvn03,symmetry-judgement-task,74,574426,0.0-46.0-1.0-1.0-2.0,,,,,,,,,,1.0,1.0,,,,5bf8a27021a4e1000194fc76,22:21:44,02/04/2024
,"<p style=""color:green; font-size: 35px"">Correct</p>",,ospan,feedback,kqRmpj7c0hZKDnuiFgNXHfMRvn03,html-keyboard-response,75,575179,0.0-46.0-1.0-1.0-3.0,,,,,,,,,,,,,,,5bf8a27021a4e1000194fc76,22:21:44,02/04/2024
2404.0,,,ospan,symmetry,kqRmpj7c0hZKDnuiFgNXHfMRvn03,symmetry-judgement-task,76,580164,0.0-46.0-1.0-1.0-4.0,,,,,,,,,,1.0,1.0,,,,5bf8a27021a4e1000194fc76,22:21:44,02/04/2024
,"<p style=""color:green; font-size: 35px"">Correct</p>",,ospan,feedback,kqRmpj7c0hZKDnuiFgNXHfMRvn03,html-keyboard-response,77,580917,0.0-46.0-1.0-1.0-5.0,,,,,,,,,,,,,,,5bf8a27021a4e1000194fc76,22:21:44,02/04/2024
2357.0,"<p style=""font-size: 3rem;"">You responded correctly on 3 of 3 symmetry judgments. Good job!</p><br><br>",0,ospan,practice,kqRmpj7c0hZKDnuiFgNXHfMRvn03,html-button-response,78,585281,0.0-46.0-1.0-2.0,,,,,,,,,,,,,,,5bf8a27021a4e1000194fc76,22:21:44,02/04/2024
16643.0,"<div class = 'left_align' style='font-size: 3.25rem; line-height: 1.3;'>Now you will practice doing both parts of the experiment at the same time.<br><br>In the next practice set, you will be given one grid picture to judge.<br>Then letter will appear on the screen. Try to remember the letter.<br><br>It is <b>very important</b> to make the symmetry judgment as quickly and accurately as possible.<br><br>Just as before, once you have make the symmetry judgment, you can click Yes or No.<br><b>Note that you will no longer see Correct or Incorrect feedback.</div><br><br><br><br>",0,ospan,instruct,kqRmpj7c0hZKDnuiFgNXHfMRvn03,html-button-response,79,602177,0.0-46.0-2.0-0.0-0.0,,,,,,,,,,,,,,,5bf8a27021a4e1000194fc76,22:21:44,02/04/2024
15928.0,"<div class = 'left_align' style='font-size: 3.25rem; line-height: 1.3;'>After the letter goes away, another grid picture will appear, and then<br>another letter.<br><br>At the end of each set of letters and grids, you will recall the letters to the best<br>of your ability. Remember, try your best to get the letters in the correct order.<br><br>It is important to <b>quickly</b> and <b>accurately</b> make the symmetry judgments.</div><br><br><br><br>",0,ospan,instruct,kqRmpj7c0hZKDnuiFgNXHfMRvn03,html-button-response,80,618364,0.0-46.0-2.0-0.0-1.0,,,,,,,,,,,,,,,5bf8a27021a4e1000194fc76,22:21:44,02/04/2024
16961.0,"<div class = 'left_align' style='font-size: 3.25rem; line-height: 1.3;'>On the feedback screen, if you are not doing well at the symmetry judgments,<br>you will also see a warning in the middle. This indicates your percent <br>correct for the grid pictures for the entire experiment.<br><br>It is <b>very</b> important for you to keep accuracy at least at 85%: <u>We can only use<br>data where the participant was at least 85% accurate on the judgments.</u> Therefore,<br> please try your best to perform well on the symmetry judgments, <b>at the same time</b><br>doing your best to recall as many letters as possible.<br><br>Click the button to try some practice problems.</div><br><br><br><br>",0,ospan,instruct,kqRmpj7c0hZKDnuiFgNXHfMRvn03,html-button-response,81,635582,0.0-46.0-2.0-0.0-2.0,,,,,,,,,,,,,,,5bf8a27021a4e1000194fc76,22:21:44,02/04/2024
,"<p style=""font-size:75px;"">...</p>",,ospan,iti,kqRmpj7c0hZKDnuiFgNXHfMRvn03,html-keyboard-response,82,636837,0.0-46.0-2.0-1.0-0.0,,,,,,,,,,,,,,,5bf8a27021a4e1000194fc76,22:21:44,02/04/2024
2206.0,,,ospan,symmetry,kqRmpj7c0hZKDnuiFgNXHfMRvn03,symmetry-judgement-task,83,640122,0.0-46.0-2.0-1.0-1.0-0.0,,,,,,,,,,1.0,1.0,,,,5bf8a27021a4e1000194fc76,22:21:44,02/04/2024
,"<div style=""font-size: 10rem; color: #0000FF"">Q</div>",,ospan,letter,kqRmpj7c0hZKDnuiFgNXHfMRvn03,html-keyboard-response,84,641127,0.0-46.0-2.0-1.0-1.0-1.0,,,,,,,,,,,,,,,5bf8a27021a4e1000194fc76,22:21:44,02/04/2024
1488.0,,,ospan,symmetry,kqRmpj7c0hZKDnuiFgNXHfMRvn03,symmetry-judgement-task,85,644536,0.0-46.0-2.0-1.0-1.0-2.0,,,,,,,,,,1.0,1.0,,,,5bf8a27021a4e1000194fc76,22:21:44,02/04/2024
,"<div style=""font-size: 10rem; color: #0000FF"">S</div>",,ospan,letter,kqRmpj7c0hZKDnuiFgNXHfMRvn03,html-keyboard-response,86,645543,0.0-46.0-2.0-1.0-1.0-3.0,,,,,,,,,,,,,,,5bf8a27021a4e1000194fc76,22:21:44,02/04/2024
1307.0,,,ospan,symmetry,kqRmpj7c0hZKDnuiFgNXHfMRvn03,symmetry-judgement-task,87,648675,0.0-46.0-2.0-1.0-1.0-4.0,,,,,,,,,,1.0,1.0,,,,5bf8a27021a4e1000194fc76,22:21:44,02/04/2024
,"<div style=""font-size: 10rem; color: #0000FF"">R</div>",,ospan,letter,kqRmpj7c0hZKDnuiFgNXHfMRvn03,html-keyboard-response,88,649683,0.0-46.0-2.0-1.0-1.0-5.0,,,,,,,,,,,,,,,5bf8a27021a4e1000194fc76,22:21:44,02/04/2024
3279.0,"<div class = numbox><p style=""font-size: 2.4rem"">Please recall the letters you saw to the best of your ability. If you do not remember a particular letter, use the SKIP button.<br><b>(When you are ready to lock in your answer, press ENTER)</b></p><button id = button_1 class = ""square num-button"" onclick = ""recordClick(this)""><div class = content><div class = numbers>C</div></div></button><button id = button_2 class = ""square num-button"" onclick = ""recordClick(this)""><div class = content><div class = numbers>G</div></div></button><button id = button_3 class = ""square num-button"" onclick = ""recordClick(this)""><div class = content><div class = numbers>H</div></div></button><button id = button_4 class = ""square num-button"" onclick = ""recordClick(this)""><div class = content><div class = numbers>J</div></div></button><button id = button_5 class = ""square num-button"" onclick = ""recordClick(this)""><div class = content><div class = numbers>K</div></div></button><button id = button_6 class = ""square num-button"" onclick = ""recordClick(this)""><div class = content><div class = numbers>L</div></div></button><button id = button_7 class = ""square num-button"" onclick = ""recordClick(this)""><div class = content><div class = numbers>N</div></div></button><button id = button_8 class = ""square num-button"" onclick = ""recordClick(this)""><div class = content><div class = numbers>P</div></div></button><button id = button_9 class = ""square num-button"" onclick = ""recordClick(this)""><div class = content><div class = numbers>Q</div></div></button><button id = button_10 class = ""square num-button"" onclick = ""recordClick(this)""><div class = content><div class = numbers>R</div></div></button><button id = button_11 class = ""square num-button"" onclick = ""recordClick(this)""><div class = content><div class = numbers>S</div></div></button><button id = button_12 class = ""square num-button"" onclick = ""recordClick(this)""><div class = content><div class = numbers>Y</div></div></button><button class = clear_button id = ""ClearButton"" onclick = ""clearResponse()"">BACKSPACE</button><button class = blank_button id = ""BlankButton"" onclick = ""blankResponse()"">SKIP</button><p style=""font-size: 2.4rem""><u><b>Current Answer:</b></u></p><br><br><div id=echoed_txt style=""font-size: 5rem; color:blue;""><b></b></div></div>",enter,ospan,retrieval,kqRmpj7c0hZKDnuiFgNXHfMRvn03,html-keyboard-response,89,653715,0.0-46.0-2.0-1.0-2.0-0.0,NA,NA,NA,3.0,"[""Q"",""S"",""R""]","[""Q"",""S"",""R""]",1.0,3.0,"['<font color=""green"">Q</font>', '<font color=""green"">S</font>', '<font color=""green"">R</font>']",,,,,,5bf8a27021a4e1000194fc76,22:21:44,02/04/2024
1365.0,"['<p style=""font-size:44px"">Letters:<br><br><br><font color=""green"">Q</font> <font color=""green"">S</font> <font color=""green"">R</font></p><br><br><p style=""font-size:30px"">Symmetry:<br><br><font color=""green"">100%</font></p><br><br>']",0,ospan,practice_feedback,kqRmpj7c0hZKDnuiFgNXHfMRvn03,html-button-response,90,655583,0.0-46.0-2.0-1.0-2.0-1.0,,,,,,,,,,,,,,,5bf8a27021a4e1000194fc76,22:21:44,02/04/2024
,"<p style=""font-size:75px;"">...</p>",,ospan,iti,kqRmpj7c0hZKDnuiFgNXHfMRvn03,html-keyboard-response,91,656591,0.0-46.0-2.0-2.0-0.0,,,,,,,,,,,,,,,5bf8a27021a4e1000194fc76,22:21:44,02/04/2024
1274.0,,,ospan,symmetry,kqRmpj7c0hZKDnuiFgNXHfMRvn03,symmetry-judgement-task,92,658941,0.0-46.0-2.0-2.0-1.0-0.0,,,,,,,,,,1.0,1.0,,,,5bf8a27021a4e1000194fc76,22:21:44,02/04/2024
,"<div style=""font-size: 10rem; color: #0000FF"">J</div>",,ospan,letter,kqRmpj7c0hZKDnuiFgNXHfMRvn03,html-keyboard-response,93,659947,0.0-46.0-2.0-2.0-1.0-1.0,,,,,,,,,,,,,,,5bf8a27021a4e1000194fc76,22:21:44,02/04/2024
998.0,,,ospan,symmetry,kqRmpj7c0hZKDnuiFgNXHfMRvn03,symmetry-judgement-task,94,662768,0.0-46.0-2.0-2.0-1.0-2.0,,,,,,,,,,1.0,1.0,,,,5bf8a27021a4e1000194fc76,22:21:44,02/04/2024
,"<div style=""font-size: 10rem; color: #0000FF"">L</div>",,ospan,letter,kqRmpj7c0hZKDnuiFgNXHfMRvn03,html-keyboard-response,95,663776,0.0-46.0-2.0-2.0-1.0-3.0,,,,,,,,,,,,,,,5bf8a27021a4e1000194fc76,22:21:44,02/04/2024
1381.0,,,ospan,symmetry,kqRmpj7c0hZKDnuiFgNXHfMRvn03,symmetry-judgement-task,96,666986,0.0-46.0-2.0-2.0-1.0-4.0,,,,,,,,,,1.0,1.0,,,,5bf8a27021a4e1000194fc76,22:21:44,02/04/2024
,"<div style=""font-size: 10rem; color: #0000FF"">P</div>",,ospan,letter,kqRmpj7c0hZKDnuiFgNXHfMRvn03,html-keyboard-response,97,667990,0.0-46.0-2.0-2.0-1.0-5.0,,,,,,,,,,,,,,,5bf8a27021a4e1000194fc76,22:21:44,02/04/2024
3548.0,"<div class = numbox><p style=""font-size: 2.4rem"">Please recall the letters you saw to the best of your ability. If you do not remember a particular letter, use the SKIP button.<br><b>(When you are ready to lock in your answer, press ENTER)</b></p><button id = button_1 class = ""square num-button"" onclick = ""recordClick(this)""><div class = content><div class = numbers>C</div></div></button><button id = button_2 class = ""square num-button"" onclick = ""recordClick(this)""><div class = content><div class = numbers>G</div></div></button><button id = button_3 class = ""square num-button"" onclick = ""recordClick(this)""><div class = content><div class = numbers>H</div></div></button><button id = button_4 class = ""square num-button"" onclick = ""recordClick(this)""><div class = content><div class = numbers>J</div></div></button><button id = button_5 class = ""square num-button"" onclick = ""recordClick(this)""><div class = content><div class = numbers>K</div></div></button><button id = button_6 class = ""square num-button"" onclick = ""recordClick(this)""><div class = content><div class = numbers>L</div></div></button><button id = button_7 class = ""square num-button"" onclick = ""recordClick(this)""><div class = content><div class = numbers>N</div></div></button><button id = button_8 class = ""square num-button"" onclick = ""recordClick(this)""><div class = content><div class = numbers>P</div></div></button><button id = button_9 class = ""square num-button"" onclick = ""recordClick(this)""><div class = content><div class = numbers>Q</div></div></button><button id = button_10 class = ""square num-button"" onclick = ""recordClick(this)""><div class = content><div class = numbers>R</div></div></button><button id = button_11 class = ""square num-button"" onclick = ""recordClick(this)""><div class = content><div class = numbers>S</div></div></button><button id = button_12 class = ""square num-button"" onclick = ""recordClick(this)""><div class = content><div class = numbers>Y</div></div></button><button class = clear_button id = ""ClearButton"" onclick = ""clearResponse()"">BACKSPACE</button><button class = blank_button id = ""BlankButton"" onclick = ""blankResponse()"">SKIP</button><p style=""font-size: 2.4rem""><u><b>Current Answer:</b></u></p><br><br><div id=echoed_txt style=""font-size: 5rem; color:blue;""><b></b></div></div>",enter,ospan,retrieval,kqRmpj7c0hZKDnuiFgNXHfMRvn03,html-keyboard-response,98,672298,0.0-46.0-2.0-2.0-2.0-0.0,NA,NA,NA,3.0,"[""J"",""L"",""P""]","[""J"",""L"",""P""]",1.0,3.0,"['<font color=""green"">J</font>', '<font color=""green"">L</font>', '<font color=""green"">P</font>']",,,,,,5bf8a27021a4e1000194fc76,22:21:44,02/04/2024
1087.0,"['<p style=""font-size:44px"">Letters:<br><br><br><font color=""green"">J</font> <font color=""green"">L</font> <font color=""green"">P</font></p><br><br><p style=""font-size:30px"">Symmetry:<br><br><font color=""green"">100%</font></p><br><br>']",0,ospan,practice_feedback,kqRmpj7c0hZKDnuiFgNXHfMRvn03,html-button-response,99,673887,0.0-46.0-2.0-2.0-2.0-1.0,,,,,,,,,,,,,,,5bf8a27021a4e1000194fc76,22:21:44,02/04/2024
19847.0,"<div class = 'left_align' style='font-size: 3rem; line-height: 1.3;'><b>Great work! That is the end of practice.</b><br><br>The real trials will look just like the practice trials you just completed.<br><br><u>Here, you will not see feedback</u>. First, you will see an grid picture to judge,<br>then a letter to remember. When the recall screen appears, report the letters in the<br>order presented. If you forget a letter, remember to use the <b>blank</b> button to move to the<br>next letter. Some of the sets will have more symmetry grids and letters than others.<br><br>It is important that you do your best on both the symmetry judgments and the letter recall<br>parts of the experiment. For for the symmetry judgments, try to work as <b>quickly</b> and <br>as <b>accurately</b> as possible. Remember to keep your symmetry accuracy at 85% or above.<br><br><b>For the letters, do NOT use any external aid (e.g., writing on paper, electronic device).</b><br><br>It is <u>very important</u> to our experiment to have a <b>true</b> view of your real performance.<br><br>Do not worry if you miss some when it gets hard! This task is meant to be very challenging!<br><br>Click the button to begin.</div><br><br><br><br>",0,ospan,starting_real_here,kqRmpj7c0hZKDnuiFgNXHfMRvn03,html-button-response,100,693739,0.0-46.0-2.0-3.0,,,,,,,,,,,,,,,5bf8a27021a4e1000194fc76,22:21:44,02/04/2024
,"<p style=""font-size:75px;"">...</p>",,ospan,iti,kqRmpj7c0hZKDnuiFgNXHfMRvn03,html-keyboard-response,101,694997,0.0-46.0-3.0-0.0-0.0,,,,,,,,,,,,,,,5bf8a27021a4e1000194fc76,22:21:44,02/04/2024
1256.0,,,ospan,symmetry,kqRmpj7c0hZKDnuiFgNXHfMRvn03,symmetry-judgement-task,102,697340,0.0-46.0-3.0-0.0-1.0-0.0,,,,,,,,,,1.0,1.0,,,,5bf8a27021a4e1000194fc76,22:21:44,02/04/2024
,"<div style=""font-size: 10rem; color: #0000FF"">H</div>",,ospan,letter,kqRmpj7c0hZKDnuiFgNXHfMRvn03,html-keyboard-response,103,698347,0.0-46.0-3.0-0.0-1.0-1.0,,,,,,,,,,,,,,,5bf8a27021a4e1000194fc76,22:21:44,02/04/2024
1349.0,,,ospan,symmetry,kqRmpj7c0hZKDnuiFgNXHfMRvn03,symmetry-judgement-task,104,701524,0.0-46.0-3.0-0.0-1.0-2.0,,,,,,,,,,1.0,1.0,,,,5bf8a27021a4e1000194fc76,22:21:44,02/04/2024
,"<div style=""font-size: 10rem; color: #0000FF"">S</div>",,ospan,letter,kqRmpj7c0hZKDnuiFgNXHfMRvn03,html-keyboard-response,105,702527,0.0-46.0-3.0-0.0-1.0-3.0,,,,,,,,,,,,,,,5bf8a27021a4e1000194fc76,22:21:44,02/04/2024
2590.0,,,ospan,symmetry,kqRmpj7c0hZKDnuiFgNXHfMRvn03,symmetry-judgement-task,106,707006,0.0-46.0-3.0-0.0-1.0-4.0,,,,,,,,,,1.0,1.0,,,,5bf8a27021a4e1000194fc76,22:21:44,02/04/2024
,"<div style=""font-size: 10rem; color: #0000FF"">Q</div>",,ospan,letter,kqRmpj7c0hZKDnuiFgNXHfMRvn03,html-keyboard-response,107,708010,0.0-46.0-3.0-0.0-1.0-5.0,,,,,,,,,,,,,,,5bf8a27021a4e1000194fc76,22:21:44,02/04/2024
3880.0,"<div class = numbox><p style=""font-size: 2.4rem"">Please recall the letters you saw to the best of your ability. If you do not remember a particular letter, use the SKIP button.<br><b>(When you are ready to lock in your answer, press ENTER)</b></p><button id = button_1 class = ""square num-button"" onclick = ""recordClick(this)""><div class = content><div class = numbers>C</div></div></button><button id = button_2 class = ""square num-button"" onclick = ""recordClick(this)""><div class = content><div class = numbers>G</div></div></button><button id = button_3 class = ""square num-button"" onclick = ""recordClick(this)""><div class = content><div class = numbers>H</div></div></button><button id = button_4 class = ""square num-button"" onclick = ""recordClick(this)""><div class = content><div class = numbers>J</div></div></button><button id = button_5 class = ""square num-button"" onclick = ""recordClick(this)""><div class = content><div class = numbers>K</div></div></button><button id = button_6 class = ""square num-button"" onclick = ""recordClick(this)""><div class = content><div class = numbers>L</div></div></button><button id = button_7 class = ""square num-button"" onclick = ""recordClick(this)""><div class = content><div class = numbers>N</div></div></button><button id = button_8 class = ""square num-button"" onclick = ""recordClick(this)""><div class = content><div class = numbers>P</div></div></button><button id = button_9 class = ""square num-button"" onclick = ""recordClick(this)""><div class = content><div class = numbers>Q</div></div></button><button id = button_10 class = ""square num-button"" onclick = ""recordClick(this)""><div class = content><div class = numbers>R</div></div></button><button id = button_11 class = ""square num-button"" onclick = ""recordClick(this)""><div class = content><div class = numbers>S</div></div></button><button id = button_12 class = ""square num-button"" onclick = ""recordClick(this)""><div class = content><div class = numbers>Y</div></div></button><button class = clear_button id = ""ClearButton"" onclick = ""clearResponse()"">BACKSPACE</button><button class = blank_button id = ""BlankButton"" onclick = ""blankResponse()"">SKIP</button><p style=""font-size: 2.4rem""><u><b>Current Answer:</b></u></p><br><br><div id=echoed_txt style=""font-size: 5rem; color:blue;""><b></b></div></div>",enter,ospan,retrieval,kqRmpj7c0hZKDnuiFgNXHfMRvn03,html-keyboard-response,108,712647,0.0-46.0-3.0-0.0-2.0,3,3,3,3.0,"[""H"",""S"",""Q""]","[""H"",""S"",""Q""]",1.0,3.0,,,,,,,5bf8a27021a4e1000194fc76,22:21:44,02/04/2024
1333.0,[''],0,ospan,feedback,kqRmpj7c0hZKDnuiFgNXHfMRvn03,html-button-response,109,714485,0.0-46.0-3.0-0.0-3.0,,,,,,,,,,,,100.0,0.0,,5bf8a27021a4e1000194fc76,22:21:44,02/04/2024
,"<p style=""font-size:75px;"">...</p>",,ospan,iti,kqRmpj7c0hZKDnuiFgNXHfMRvn03,html-keyboard-response,110,715488,0.0-46.0-4.0-0.0-0.0,,,,,,,,,,,,,,,5bf8a27021a4e1000194fc76,22:21:44,02/04/2024
1525.0,,,ospan,symmetry,kqRmpj7c0hZKDnuiFgNXHfMRvn03,symmetry-judgement-task,111,718086,0.0-46.0-4.0-0.0-1.0-0.0,,,,,,,,,,1.0,1.0,,,,5bf8a27021a4e1000194fc76,22:21:44,02/04/2024
,"<div style=""font-size: 10rem; color: #0000FF"">Y</div>",,ospan,letter,kqRmpj7c0hZKDnuiFgNXHfMRvn03,html-keyboard-response,112,719090,0.0-46.0-4.0-0.0-1.0-1.0,,,,,,,,,,,,,,,5bf8a27021a4e1000194fc76,22:21:44,02/04/2024
1113.0,,,ospan,symmetry,kqRmpj7c0hZKDnuiFgNXHfMRvn03,symmetry-judgement-task,113,722034,0.0-46.0-4.0-0.0-1.0-2.0,,,,,,,,,,1.0,1.0,,,,5bf8a27021a4e1000194fc76,22:21:44,02/04/2024
,"<div style=""font-size: 10rem; color: #0000FF"">N</div>",,ospan,letter,kqRmpj7c0hZKDnuiFgNXHfMRvn03,html-keyboard-response,114,723041,0.0-46.0-4.0-0.0-1.0-3.0,,,,,,,,,,,,,,,5bf8a27021a4e1000194fc76,22:21:44,02/04/2024
1587.0,,,ospan,symmetry,kqRmpj7c0hZKDnuiFgNXHfMRvn03,symmetry-judgement-task,115,726468,0.0-46.0-4.0-0.0-1.0-4.0,,,,,,,,,,1.0,1.0,,,,5bf8a27021a4e1000194fc76,22:21:44,02/04/2024
,"<div style=""font-size: 10rem; color: #0000FF"">S</div>",,ospan,letter,kqRmpj7c0hZKDnuiFgNXHfMRvn03,html-keyboard-response,116,727474,0.0-46.0-4.0-0.0-1.0-5.0,,,,,,,,,,,,,,,5bf8a27021a4e1000194fc76,22:21:44,02/04/2024
1680.0,,,ospan,symmetry,kqRmpj7c0hZKDnuiFgNXHfMRvn03,symmetry-judgement-task,117,730983,0.0-46.0-4.0-0.0-1.0-6.0,,,,,,,,,,1.0,1.0,,,,5bf8a27021a4e1000194fc76,22:21:44,02/04/2024
,"<div style=""font-size: 10rem; color: #0000FF"">K</div>",,ospan,letter,kqRmpj7c0hZKDnuiFgNXHfMRvn03,html-keyboard-response,118,732011,0.0-46.0-4.0-0.0-1.0-7.0,,,,,,,,,,,,,,,5bf8a27021a4e1000194fc76,22:21:44,02/04/2024
4624.0,"<div class = numbox><p style=""font-size: 2.4rem"">Please recall the letters you saw to the best of your ability. If you do not remember a particular letter, use the SKIP button.<br><b>(When you are ready to lock in your answer, press ENTER)</b></p><button id = button_1 class = ""square num-button"" onclick = ""recordClick(this)""><div class = content><div class = numbers>C</div></div></button><button id = button_2 class = ""square num-button"" onclick = ""recordClick(this)""><div class = content><div class = numbers>G</div></div></button><button id = button_3 class = ""square num-button"" onclick = ""recordClick(this)""><div class = content><div class = numbers>H</div></div></button><button id = button_4 class = ""square num-button"" onclick = ""recordClick(this)""><div class = content><div class = numbers>J</div></div></button><button id = button_5 class = ""square num-button"" onclick = ""recordClick(this)""><div class = content><div class = numbers>K</div></div></button><button id = button_6 class = ""square num-button"" onclick = ""recordClick(this)""><div class = content><div class = numbers>L</div></div></button><button id = button_7 class = ""square num-button"" onclick = ""recordClick(this)""><div class = content><div class = numbers>N</div></div></button><button id = button_8 class = ""square num-button"" onclick = ""recordClick(this)""><div class = content><div class = numbers>P</div></div></button><button id = button_9 class = ""square num-button"" onclick = ""recordClick(this)""><div class = content><div class = numbers>Q</div></div></button><button id = button_10 class = ""square num-button"" onclick = ""recordClick(this)""><div class = content><div class = numbers>R</div></div></button><button id = button_11 class = ""square num-button"" onclick = ""recordClick(this)""><div class = content><div class = numbers>S</div></div></button><button id = button_12 class = ""square num-button"" onclick = ""recordClick(this)""><div class = content><div class = numbers>Y</div></div></button><button class = clear_button id = ""ClearButton"" onclick = ""clearResponse()"">BACKSPACE</button><button class = blank_button id = ""BlankButton"" onclick = ""blankResponse()"">SKIP</button><p style=""font-size: 2.4rem""><u><b>Current Answer:</b></u></p><br><br><div id=echoed_txt style=""font-size: 5rem; color:blue;""><b></b></div></div>",enter,ospan,retrieval,kqRmpj7c0hZKDnuiFgNXHfMRvn03,html-keyboard-response,119,737390,0.0-46.0-4.0-0.0-2.0,7,7,7,4.0,"[""Y"",""N"",""S"",""K""]","[""Y"",""N"",""S"",""K""]",1.0,4.0,,,,,,,5bf8a27021a4e1000194fc76,22:21:44,02/04/2024
1097.0,[''],0,ospan,feedback,kqRmpj7c0hZKDnuiFgNXHfMRvn03,html-button-response,120,738996,0.0-46.0-4.0-0.0-3.0,,,,,,,,,,,,100.0,0.0,,5bf8a27021a4e1000194fc76,22:21:44,02/04/2024
,"<p style=""font-size:75px;"">...</p>",,ospan,iti,kqRmpj7c0hZKDnuiFgNXHfMRvn03,html-keyboard-response,121,740004,0.0-46.0-4.0-1.0-0.0,,,,,,,,,,,,,,,5bf8a27021a4e1000194fc76,22:21:44,02/04/2024
1457.0,,,ospan,symmetry,kqRmpj7c0hZKDnuiFgNXHfMRvn03,symmetry-judgement-task,122,742537,0.0-46.0-4.0-1.0-1.0-0.0,,,,,,,,,,1.0,1.0,,,,5bf8a27021a4e1000194fc76,22:21:44,02/04/2024
,"<div style=""font-size: 10rem; color: #0000FF"">R</div>",,ospan,letter,kqRmpj7c0hZKDnuiFgNXHfMRvn03,html-keyboard-response,123,743544,0.0-46.0-4.0-1.0-1.0-1.0,,,,,,,,,,,,,,,5bf8a27021a4e1000194fc76,22:21:44,02/04/2024
1110.0,,,ospan,symmetry,kqRmpj7c0hZKDnuiFgNXHfMRvn03,symmetry-judgement-task,124,746479,0.0-46.0-4.0-1.0-1.0-2.0,,,,,,,,,,1.0,1.0,,,,5bf8a27021a4e1000194fc76,22:21:44,02/04/2024
,"<div style=""font-size: 10rem; color: #0000FF"">N</div>",,ospan,letter,kqRmpj7c0hZKDnuiFgNXHfMRvn03,html-keyboard-response,125,747481,0.0-46.0-4.0-1.0-1.0-3.0,,,,,,,,,,,,,,,5bf8a27021a4e1000194fc76,22:21:44,02/04/2024
1188.0,,,ospan,symmetry,kqRmpj7c0hZKDnuiFgNXHfMRvn03,symmetry-judgement-task,126,750509,0.0-46.0-4.0-1.0-1.0-4.0,,,,,,,,,,1.0,1.0,,,,5bf8a27021a4e1000194fc76,22:21:44,02/04/2024
,"<div style=""font-size: 10rem; color: #0000FF"">S</div>",,ospan,letter,kqRmpj7c0hZKDnuiFgNXHfMRvn03,html-keyboard-response,127,751515,0.0-46.0-4.0-1.0-1.0-5.0,,,,,,,,,,,,,,,5bf8a27021a4e1000194fc76,22:21:44,02/04/2024
1000.0,,,ospan,symmetry,kqRmpj7c0hZKDnuiFgNXHfMRvn03,symmetry-judgement-task,128,754338,0.0-46.0-4.0-1.0-1.0-6.0,,,,,,,,,,1.0,1.0,,,,5bf8a27021a4e1000194fc76,22:21:44,02/04/2024
,"<div style=""font-size: 10rem; color: #0000FF"">J</div>",,ospan,letter,kqRmpj7c0hZKDnuiFgNXHfMRvn03,html-keyboard-response,129,755339,0.0-46.0-4.0-1.0-1.0-7.0,,,,,,,,,,,,,,,5bf8a27021a4e1000194fc76,22:21:44,02/04/2024
1245.0,,,ospan,symmetry,kqRmpj7c0hZKDnuiFgNXHfMRvn03,symmetry-judgement-task,130,758404,0.0-46.0-4.0-1.0-1.0-8.0,,,,,,,,,,1.0,1.0,,,,5bf8a27021a4e1000194fc76,22:21:44,02/04/2024
,"<div style=""font-size: 10rem; color: #0000FF"">Y</div>",,ospan,letter,kqRmpj7c0hZKDnuiFgNXHfMRvn03,html-keyboard-response,131,759410,0.0-46.0-4.0-1.0-1.0-9.0,,,,,,,,,,,,,,,5bf8a27021a4e1000194fc76,22:21:44,02/04/2024
6126.0,"<div class = numbox><p style=""font-size: 2.4rem"">Please recall the letters you saw to the best of your ability. If you do not remember a particular letter, use the SKIP button.<br><b>(When you are ready to lock in your answer, press ENTER)</b></p><button id = button_1 class = ""square num-button"" onclick = ""recordClick(this)""><div class = content><div class = numbers>C</div></div></button><button id = button_2 class = ""square num-button"" onclick = ""recordClick(this)""><div class = content><div class = numbers>G</div></div></button><button id = button_3 class = ""square num-button"" onclick = ""recordClick(this)""><div class = content><div class = numbers>H</div></div></button><button id = button_4 class = ""square num-button"" onclick = ""recordClick(this)""><div class = content><div class = numbers>J</div></div></button><button id = button_5 class = ""square num-button"" onclick = ""recordClick(this)""><div class = content><div class = numbers>K</div></div></button><button id = button_6 class = ""square num-button"" onclick = ""recordClick(this)""><div class = content><div class = numbers>L</div></div></button><button id = button_7 class = ""square num-button"" onclick = ""recordClick(this)""><div class = content><div class = numbers>N</div></div></button><button id = button_8 class = ""square num-button"" onclick = ""recordClick(this)""><div class = content><div class = numbers>P</div></div></button><button id = button_9 class = ""square num-button"" onclick = ""recordClick(this)""><div class = content><div class = numbers>Q</div></div></button><button id = button_10 class = ""square num-button"" onclick = ""recordClick(this)""><div class = content><div class = numbers>R</div></div></button><button id = button_11 class = ""square num-button"" onclick = ""recordClick(this)""><div class = content><div class = numbers>S</div></div></button><button id = button_12 class = ""square num-button"" onclick = ""recordClick(this)""><div class = content><div class = numbers>Y</div></div></button><button class = clear_button id = ""ClearButton"" onclick = ""clearResponse()"">BACKSPACE</button><button class = blank_button id = ""BlankButton"" onclick = ""blankResponse()"">SKIP</button><p style=""font-size: 2.4rem""><u><b>Current Answer:</b></u></p><br><br><div id=echoed_txt style=""font-size: 5rem; color:blue;""><b></b></div></div>",enter,ospan,retrieval,kqRmpj7c0hZKDnuiFgNXHfMRvn03,html-keyboard-response,132,766293,0.0-46.0-4.0-1.0-2.0,12,11,7,5.0,"[""R"",""N"",""S"",""J""]","[""R"",""N"",""S"",""J"",""Y""]",0.0,4.0,,,,,,,5bf8a27021a4e1000194fc76,22:21:44,02/04/2024
1070.0,[''],0,ospan,feedback,kqRmpj7c0hZKDnuiFgNXHfMRvn03,html-button-response,133,767869,0.0-46.0-4.0-1.0-3.0,,,,,,,,,,,,100.0,0.0,,5bf8a27021a4e1000194fc76,22:21:44,02/04/2024
,"<p style=""font-size:75px;"">...</p>",,ospan,iti,kqRmpj7c0hZKDnuiFgNXHfMRvn03,html-keyboard-response,134,768873,0.0-46.0-4.0-2.0-0.0,,,,,,,,,,,,,,,5bf8a27021a4e1000194fc76,22:21:44,02/04/2024
1225.0,,,ospan,symmetry,kqRmpj7c0hZKDnuiFgNXHfMRvn03,symmetry-judgement-task,135,771169,0.0-46.0-4.0-2.0-1.0-0.0,,,,,,,,,,1.0,1.0,,,,5bf8a27021a4e1000194fc76,22:21:44,02/04/2024
,"<div style=""font-size: 10rem; color: #0000FF"">Y</div>",,ospan,letter,kqRmpj7c0hZKDnuiFgNXHfMRvn03,html-keyboard-response,136,772261,0.0-46.0-4.0-2.0-1.0-1.0,,,,,,,,,,,,,,,5bf8a27021a4e1000194fc76,22:21:44,02/04/2024
1146.0,,,ospan,symmetry,kqRmpj7c0hZKDnuiFgNXHfMRvn03,symmetry-judgement-task,137,775238,0.0-46.0-4.0-2.0-1.0-2.0,,,,,,,,,,1.0,1.0,,,,5bf8a27021a4e1000194fc76,22:21:44,02/04/2024
,"<div style=""font-size: 10rem; color: #0000FF"">H</div>",,ospan,letter,kqRmpj7c0hZKDnuiFgNXHfMRvn03,html-keyboard-response,138,776240,0.0-46.0-4.0-2.0-1.0-3.0,,,,,,,,,,,,,,,5bf8a27021a4e1000194fc76,22:21:44,02/04/2024
928.0,,,ospan,symmetry,kqRmpj7c0hZKDnuiFgNXHfMRvn03,symmetry-judgement-task,139,778993,0.0-46.0-4.0-2.0-1.0-4.0,,,,,,,,,,1.0,1.0,,,,5bf8a27021a4e1000194fc76,22:21:44,02/04/2024
,"<div style=""font-size: 10rem; color: #0000FF"">G</div>",,ospan,letter,kqRmpj7c0hZKDnuiFgNXHfMRvn03,html-keyboard-response,140,779995,0.0-46.0-4.0-2.0-1.0-5.0,,,,,,,,,,,,,,,5bf8a27021a4e1000194fc76,22:21:44,02/04/2024
4174.0,"<div class = numbox><p style=""font-size: 2.4rem"">Please recall the letters you saw to the best of your ability. If you do not remember a particular letter, use the SKIP button.<br><b>(When you are ready to lock in your answer, press ENTER)</b></p><button id = button_1 class = ""square num-button"" onclick = ""recordClick(this)""><div class = content><div class = numbers>C</div></div></button><button id = button_2 class = ""square num-button"" onclick = ""recordClick(this)""><div class = content><div class = numbers>G</div></div></button><button id = button_3 class = ""square num-button"" onclick = ""recordClick(this)""><div class = content><div class = numbers>H</div></div></button><button id = button_4 class = ""square num-button"" onclick = ""recordClick(this)""><div class = content><div class = numbers>J</div></div></button><button id = button_5 class = ""square num-button"" onclick = ""recordClick(this)""><div class = content><div class = numbers>K</div></div></button><button id = button_6 class = ""square num-button"" onclick = ""recordClick(this)""><div class = content><div class = numbers>L</div></div></button><button id = button_7 class = ""square num-button"" onclick = ""recordClick(this)""><div class = content><div class = numbers>N</div></div></button><button id = button_8 class = ""square num-button"" onclick = ""recordClick(this)""><div class = content><div class = numbers>P</div></div></button><button id = button_9 class = ""square num-button"" onclick = ""recordClick(this)""><div class = content><div class = numbers>Q</div></div></button><button id = button_10 class = ""square num-button"" onclick = ""recordClick(this)""><div class = content><div class = numbers>R</div></div></button><button id = button_11 class = ""square num-button"" onclick = ""recordClick(this)""><div class = content><div class = numbers>S</div></div></button><button id = button_12 class = ""square num-button"" onclick = ""recordClick(this)""><div class = content><div class = numbers>Y</div></div></button><button class = clear_button id = ""ClearButton"" onclick = ""clearResponse()"">BACKSPACE</button><button class = blank_button id = ""BlankButton"" onclick = ""blankResponse()"">SKIP</button><p style=""font-size: 2.4rem""><u><b>Current Answer:</b></u></p><br><br><div id=echoed_txt style=""font-size: 5rem; color:blue;""><b></b></div></div>",enter,ospan,retrieval,kqRmpj7c0hZKDnuiFgNXHfMRvn03,html-keyboard-response,141,784926,0.0-46.0-4.0-2.0-2.0,15,14,10,3.0,"[""Y"",""H"",""G""]","[""Y"",""H"",""G""]",1.0,3.0,,,,,,,5bf8a27021a4e1000194fc76,22:21:44,02/04/2024
1047.0,[''],0,ospan,feedback,kqRmpj7c0hZKDnuiFgNXHfMRvn03,html-button-response,142,786478,0.0-46.0-4.0-2.0-3.0,,,,,,,,,,,,100.0,0.0,,5bf8a27021a4e1000194fc76,22:21:44,02/04/2024
,"<p style=""font-size:75px;"">...</p>",,ospan,iti,kqRmpj7c0hZKDnuiFgNXHfMRvn03,html-keyboard-response,143,787485,0.0-46.0-5.0-0.0-0.0,,,,,,,,,,,,,,,5bf8a27021a4e1000194fc76,22:21:44,02/04/2024
1531.0,,,ospan,symmetry,kqRmpj7c0hZKDnuiFgNXHfMRvn03,symmetry-judgement-task,144,790090,0.0-46.0-5.0-0.0-1.0-0.0,,,,,,,,,,1.0,1.0,,,,5bf8a27021a4e1000194fc76,22:21:44,02/04/2024
,"<div style=""font-size: 10rem; color: #0000FF"">R</div>",,ospan,letter,kqRmpj7c0hZKDnuiFgNXHfMRvn03,html-keyboard-response,145,791095,0.0-46.0-5.0-0.0-1.0-1.0,,,,,,,,,,,,,,,5bf8a27021a4e1000194fc76,22:21:44,02/04/2024
1105.0,,,ospan,symmetry,kqRmpj7c0hZKDnuiFgNXHfMRvn03,symmetry-judgement-task,146,794025,0.0-46.0-5.0-0.0-1.0-2.0,,,,,,,,,,1.0,1.0,,,,5bf8a27021a4e1000194fc76,22:21:44,02/04/2024
,"<div style=""font-size: 10rem; color: #0000FF"">L</div>",,ospan,letter,kqRmpj7c0hZKDnuiFgNXHfMRvn03,html-keyboard-response,147,795028,0.0-46.0-5.0-0.0-1.0-3.0,,,,,,,,,,,,,,,5bf8a27021a4e1000194fc76,22:21:44,02/04/2024
1046.0,,,ospan,symmetry,kqRmpj7c0hZKDnuiFgNXHfMRvn03,symmetry-judgement-task,148,797900,0.0-46.0-5.0-0.0-1.0-4.0,,,,,,,,,,1.0,1.0,,,,5bf8a27021a4e1000194fc76,22:21:44,02/04/2024
,"<div style=""font-size: 10rem; color: #0000FF"">G</div>",,ospan,letter,kqRmpj7c0hZKDnuiFgNXHfMRvn03,html-keyboard-response,149,798904,0.0-46.0-5.0-0.0-1.0-5.0,,,,,,,,,,,,,,,5bf8a27021a4e1000194fc76,22:21:44,02/04/2024
1500.0,,,ospan,symmetry,kqRmpj7c0hZKDnuiFgNXHfMRvn03,symmetry-judgement-task,150,802237,0.0-46.0-5.0-0.0-1.0-6.0,,,,,,,,,,1.0,1.0,,,,5bf8a27021a4e1000194fc76,22:21:44,02/04/2024
,"<div style=""font-size: 10rem; color: #0000FF"">H</div>",,ospan,letter,kqRmpj7c0hZKDnuiFgNXHfMRvn03,html-keyboard-response,151,803244,0.0-46.0-5.0-0.0-1.0-7.0,,,,,,,,,,,,,,,5bf8a27021a4e1000194fc76,22:21:44,02/04/2024
1629.0,,,ospan,symmetry,kqRmpj7c0hZKDnuiFgNXHfMRvn03,symmetry-judgement-task,152,806705,0.0-46.0-5.0-0.0-1.0-8.0,,,,,,,,,,1.0,1.0,,,,5bf8a27021a4e1000194fc76,22:21:44,02/04/2024
,"<div style=""font-size: 10rem; color: #0000FF"">N</div>",,ospan,letter,kqRmpj7c0hZKDnuiFgNXHfMRvn03,html-keyboard-response,153,807708,0.0-46.0-5.0-0.0-1.0-9.0,,,,,,,,,,,,,,,5bf8a27021a4e1000194fc76,22:21:44,02/04/2024
1360.0,,,ospan,symmetry,kqRmpj7c0hZKDnuiFgNXHfMRvn03,symmetry-judgement-task,154,810896,0.0-46.0-5.0-0.0-1.0-10.0,,,,,,,,,,1.0,1.0,,,,5bf8a27021a4e1000194fc76,22:21:44,02/04/2024
,"<div style=""font-size: 10rem; color: #0000FF"">Y</div>",,ospan,letter,kqRmpj7c0hZKDnuiFgNXHfMRvn03,html-keyboard-response,155,811900,0.0-46.0-5.0-0.0-1.0-11.0,,,,,,,,,,,,,,,5bf8a27021a4e1000194fc76,22:21:44,02/04/2024
6056.0,"<div class = numbox><p style=""font-size: 2.4rem"">Please recall the letters you saw to the best of your ability. If you do not remember a particular letter, use the SKIP button.<br><b>(When you are ready to lock in your answer, press ENTER)</b></p><button id = button_1 class = ""square num-button"" onclick = ""recordClick(this)""><div class = content><div class = numbers>C</div></div></button><button id = button_2 class = ""square num-button"" onclick = ""recordClick(this)""><div class = content><div class = numbers>G</div></div></button><button id = button_3 class = ""square num-button"" onclick = ""recordClick(this)""><div class = content><div class = numbers>H</div></div></button><button id = button_4 class = ""square num-button"" onclick = ""recordClick(this)""><div class = content><div class = numbers>J</div></div></button><button id = button_5 class = ""square num-button"" onclick = ""recordClick(this)""><div class = content><div class = numbers>K</div></div></button><button id = button_6 class = ""square num-button"" onclick = ""recordClick(this)""><div class = content><div class = numbers>L</div></div></button><button id = button_7 class = ""square num-button"" onclick = ""recordClick(this)""><div class = content><div class = numbers>N</div></div></button><button id = button_8 class = ""square num-button"" onclick = ""recordClick(this)""><div class = content><div class = numbers>P</div></div></button><button id = button_9 class = ""square num-button"" onclick = ""recordClick(this)""><div class = content><div class = numbers>Q</div></div></button><button id = button_10 class = ""square num-button"" onclick = ""recordClick(this)""><div class = content><div class = numbers>R</div></div></button><button id = button_11 class = ""square num-button"" onclick = ""recordClick(this)""><div class = content><div class = numbers>S</div></div></button><button id = button_12 class = ""square num-button"" onclick = ""recordClick(this)""><div class = content><div class = numbers>Y</div></div></button><button class = clear_button id = ""ClearButton"" onclick = ""clearResponse()"">BACKSPACE</button><button class = blank_button id = ""BlankButton"" onclick = ""blankResponse()"">SKIP</button><p style=""font-size: 2.4rem""><u><b>Current Answer:</b></u></p><br><br><div id=echoed_txt style=""font-size: 5rem; color:blue;""><b></b></div></div>",enter,ospan,retrieval,kqRmpj7c0hZKDnuiFgNXHfMRvn03,html-keyboard-response,156,818713,0.0-46.0-5.0-0.0-2.0,21,20,16,6.0,"[""R"",""L"",""G"",""H"",""N"",""Y""]","[""R"",""L"",""G"",""H"",""N"",""Y""]",1.0,6.0,,,,,,,5bf8a27021a4e1000194fc76,22:21:44,02/04/2024
1243.0,[''],0,ospan,feedback,kqRmpj7c0hZKDnuiFgNXHfMRvn03,html-button-response,157,820459,0.0-46.0-5.0-0.0-3.0,,,,,,,,,,,,100.0,0.0,,5bf8a27021a4e1000194fc76,22:21:44,02/04/2024
,"<p style=""font-size:75px;"">...</p>",,ospan,iti,kqRmpj7c0hZKDnuiFgNXHfMRvn03,html-keyboard-response,158,821465,0.0-46.0-5.0-1.0-0.0,,,,,,,,,,,,,,,5bf8a27021a4e1000194fc76,22:21:44,02/04/2024
1241.0,,,ospan,symmetry,kqRmpj7c0hZKDnuiFgNXHfMRvn03,symmetry-judgement-task,159,823787,0.0-46.0-5.0-1.0-1.0-0.0,,,,,,,,,,1.0,1.0,,,,5bf8a27021a4e1000194fc76,22:21:44,02/04/2024
,"<div style=""font-size: 10rem; color: #0000FF"">H</div>",,ospan,letter,kqRmpj7c0hZKDnuiFgNXHfMRvn03,html-keyboard-response,160,824790,0.0-46.0-5.0-1.0-1.0-1.0,,,,,,,,,,,,,,,5bf8a27021a4e1000194fc76,22:21:44,02/04/2024
1206.0,,,ospan,symmetry,kqRmpj7c0hZKDnuiFgNXHfMRvn03,symmetry-judgement-task,161,827827,0.0-46.0-5.0-1.0-1.0-2.0,,,,,,,,,,1.0,1.0,,,,5bf8a27021a4e1000194fc76,22:21:44,02/04/2024
,"<div style=""font-size: 10rem; color: #0000FF"">Q</div>",,ospan,letter,kqRmpj7c0hZKDnuiFgNXHfMRvn03,html-keyboard-response,162,828832,0.0-46.0-5.0-1.0-1.0-3.0,,,,,,,,,,,,,,,5bf8a27021a4e1000194fc76,22:21:44,02/04/2024
838.0,,,ospan,symmetry,kqRmpj7c0hZKDnuiFgNXHfMRvn03,symmetry-judgement-task,163,831493,0.0-46.0-5.0-1.0-1.0-4.0,,,,,,,,,,1.0,1.0,,,,5bf8a27021a4e1000194fc76,22:21:44,02/04/2024
,"<div style=""font-size: 10rem; color: #0000FF"">J</div>",,ospan,letter,kqRmpj7c0hZKDnuiFgNXHfMRvn03,html-keyboard-response,164,832499,0.0-46.0-5.0-1.0-1.0-5.0,,,,,,,,,,,,,,,5bf8a27021a4e1000194fc76,22:21:44,02/04/2024
1156.0,,,ospan,symmetry,kqRmpj7c0hZKDnuiFgNXHfMRvn03,symmetry-judgement-task,165,835476,0.0-46.0-5.0-1.0-1.0-6.0,,,,,,,,,,1.0,1.0,,,,5bf8a27021a4e1000194fc76,22:21:44,02/04/2024
,"<div style=""font-size: 10rem; color: #0000FF"">G</div>",,ospan,letter,kqRmpj7c0hZKDnuiFgNXHfMRvn03,html-keyboard-response,166,836522,0.0-46.0-5.0-1.0-1.0-7.0,,,,,,,,,,,,,,,5bf8a27021a4e1000194fc76,22:21:44,02/04/2024
991.0,,,ospan,symmetry,kqRmpj7c0hZKDnuiFgNXHfMRvn03,symmetry-judgement-task,167,839341,0.0-46.0-5.0-1.0-1.0-8.0,,,,,,,,,,1.0,1.0,,,,5bf8a27021a4e1000194fc76,22:21:44,02/04/2024
,"<div style=""font-size: 10rem; color: #0000FF"">S</div>",,ospan,letter,kqRmpj7c0hZKDnuiFgNXHfMRvn03,html-keyboard-response,168,840346,0.0-46.0-5.0-1.0-1.0-9.0,,,,,,,,,,,,,,,5bf8a27021a4e1000194fc76,22:21:44,02/04/2024
1050.0,,,ospan,symmetry,kqRmpj7c0hZKDnuiFgNXHfMRvn03,symmetry-judgement-task,169,843226,0.0-46.0-5.0-1.0-1.0-10.0,,,,,,,,,,1.0,1.0,,,,5bf8a27021a4e1000194fc76,22:21:44,02/04/2024
,"<div style=""font-size: 10rem; color: #0000FF"">N</div>",,ospan,letter,kqRmpj7c0hZKDnuiFgNXHfMRvn03,html-keyboard-response,170,844228,0.0-46.0-5.0-1.0-1.0-11.0,,,,,,,,,,,,,,,5bf8a27021a4e1000194fc76,22:21:44,02/04/2024
1030.0,,,ospan,symmetry,kqRmpj7c0hZKDnuiFgNXHfMRvn03,symmetry-judgement-task,171,847088,0.0-46.0-5.0-1.0-1.0-12.0,,,,,,,,,,1.0,1.0,,,,5bf8a27021a4e1000194fc76,22:21:44,02/04/2024
,"<div style=""font-size: 10rem; color: #0000FF"">L</div>",,ospan,letter,kqRmpj7c0hZKDnuiFgNXHfMRvn03,html-keyboard-response,172,848090,0.0-46.0-5.0-1.0-1.0-13.0,,,,,,,,,,,,,,,5bf8a27021a4e1000194fc76,22:21:44,02/04/2024
31929.0,"<div class = numbox><p style=""font-size: 2.4rem"">Please recall the letters you saw to the best of your ability. If you do not remember a particular letter, use the SKIP button.<br><b>(When you are ready to lock in your answer, press ENTER)</b></p><button id = button_1 class = ""square num-button"" onclick = ""recordClick(this)""><div class = content><div class = numbers>C</div></div></button><button id = button_2 class = ""square num-button"" onclick = ""recordClick(this)""><div class = content><div class = numbers>G</div></div></button><button id = button_3 class = ""square num-button"" onclick = ""recordClick(this)""><div class = content><div class = numbers>H</div></div></button><button id = button_4 class = ""square num-button"" onclick = ""recordClick(this)""><div class = content><div class = numbers>J</div></div></button><button id = button_5 class = ""square num-button"" onclick = ""recordClick(this)""><div class = content><div class = numbers>K</div></div></button><button id = button_6 class = ""square num-button"" onclick = ""recordClick(this)""><div class = content><div class = numbers>L</div></div></button><button id = button_7 class = ""square num-button"" onclick = ""recordClick(this)""><div class = content><div class = numbers>N</div></div></button><button id = button_8 class = ""square num-button"" onclick = ""recordClick(this)""><div class = content><div class = numbers>P</div></div></button><button id = button_9 class = ""square num-button"" onclick = ""recordClick(this)""><div class = content><div class = numbers>Q</div></div></button><button id = button_10 class = ""square num-button"" onclick = ""recordClick(this)""><div class = content><div class = numbers>R</div></div></button><button id = button_11 class = ""square num-button"" onclick = ""recordClick(this)""><div class = content><div class = numbers>S</div></div></button><button id = button_12 class = ""square num-button"" onclick = ""recordClick(this)""><div class = content><div class = numbers>Y</div></div></button><button class = clear_button id = ""ClearButton"" onclick = ""clearResponse()"">BACKSPACE</button><button class = blank_button id = ""BlankButton"" onclick = ""blankResponse()"">SKIP</button><p style=""font-size: 2.4rem""><u><b>Current Answer:</b></u></p><br><br><div id=echoed_txt style=""font-size: 5rem; color:blue;""><b></b></div></div>",enter,ospan,retrieval,kqRmpj7c0hZKDnuiFgNXHfMRvn03,html-keyboard-response,173,880782,0.0-46.0-5.0-1.0-2.0,28,27,23,7.0,"[""H"",""Q"",""J"",""G"",""S"",""N"",""L""]","[""H"",""Q"",""J"",""G"",""S"",""N"",""L""]",1.0,7.0,,,,,,,5bf8a27021a4e1000194fc76,22:21:44,02/04/2024
855.0,[''],0,ospan,feedback,kqRmpj7c0hZKDnuiFgNXHfMRvn03,html-button-response,174,882144,0.0-46.0-5.0-1.0-3.0,,,,,,,,,,,,100.0,0.0,,5bf8a27021a4e1000194fc76,22:21:44,02/04/2024
,"<p style=""font-size:75px;"">...</p>",,ospan,iti,kqRmpj7c0hZKDnuiFgNXHfMRvn03,html-keyboard-response,175,883148,0.0-46.0-6.0-0.0-0.0,,,,,,,,,,,,,,,5bf8a27021a4e1000194fc76,22:21:44,02/04/2024
1125.0,,,ospan,symmetry,kqRmpj7c0hZKDnuiFgNXHfMRvn03,symmetry-judgement-task,176,885354,0.0-46.0-6.0-0.0-1.0-0.0,,,,,,,,,,1.0,1.0,,,,5bf8a27021a4e1000194fc76,22:21:44,02/04/2024
,"<div style=""font-size: 10rem; color: #0000FF"">Q</div>",,ospan,letter,kqRmpj7c0hZKDnuiFgNXHfMRvn03,html-keyboard-response,177,886361,0.0-46.0-6.0-0.0-1.0-1.0,,,,,,,,,,,,,,,5bf8a27021a4e1000194fc76,22:21:44,02/04/2024
1096.0,,,ospan,symmetry,kqRmpj7c0hZKDnuiFgNXHfMRvn03,symmetry-judgement-task,178,889280,0.0-46.0-6.0-0.0-1.0-2.0,,,,,,,,,,1.0,1.0,,,,5bf8a27021a4e1000194fc76,22:21:44,02/04/2024
,"<div style=""font-size: 10rem; color: #0000FF"">L</div>",,ospan,letter,kqRmpj7c0hZKDnuiFgNXHfMRvn03,html-keyboard-response,179,890284,0.0-46.0-6.0-0.0-1.0-3.0,,,,,,,,,,,,,,,5bf8a27021a4e1000194fc76,22:21:44,02/04/2024
811.0,,,ospan,symmetry,kqRmpj7c0hZKDnuiFgNXHfMRvn03,symmetry-judgement-task,180,892929,0.0-46.0-6.0-0.0-1.0-4.0,,,,,,,,,,1.0,1.0,,,,5bf8a27021a4e1000194fc76,22:21:44,02/04/2024
,"<div style=""font-size: 10rem; color: #0000FF"">P</div>",,ospan,letter,kqRmpj7c0hZKDnuiFgNXHfMRvn03,html-keyboard-response,181,893932,0.0-46.0-6.0-0.0-1.0-5.0,,,,,,,,,,,,,,,5bf8a27021a4e1000194fc76,22:21:44,02/04/2024
1089.0,,,ospan,symmetry,kqRmpj7c0hZKDnuiFgNXHfMRvn03,symmetry-judgement-task,182,896912,0.0-46.0-6.0-0.0-1.0-6.0,,,,,,,,,,1.0,1.0,,,,5bf8a27021a4e1000194fc76,22:21:44,02/04/2024
,"<div style=""font-size: 10rem; color: #0000FF"">C</div>",,ospan,letter,kqRmpj7c0hZKDnuiFgNXHfMRvn03,html-keyboard-response,183,897919,0.0-46.0-6.0-0.0-1.0-7.0,,,,,,,,,,,,,,,5bf8a27021a4e1000194fc76,22:21:44,02/04/2024
1189.0,,,ospan,symmetry,kqRmpj7c0hZKDnuiFgNXHfMRvn03,symmetry-judgement-task,184,901015,0.0-46.0-6.0-0.0-1.0-8.0,,,,,,,,,,1.0,1.0,,,,5bf8a27021a4e1000194fc76,22:21:44,02/04/2024
,"<div style=""font-size: 10rem; color: #0000FF"">H</div>",,ospan,letter,kqRmpj7c0hZKDnuiFgNXHfMRvn03,html-keyboard-response,185,902017,0.0-46.0-6.0-0.0-1.0-9.0,,,,,,,,,,,,,,,5bf8a27021a4e1000194fc76,22:21:44,02/04/2024
6669.0,"<div class = numbox><p style=""font-size: 2.4rem"">Please recall the letters you saw to the best of your ability. If you do not remember a particular letter, use the SKIP button.<br><b>(When you are ready to lock in your answer, press ENTER)</b></p><button id = button_1 class = ""square num-button"" onclick = ""recordClick(this)""><div class = content><div class = numbers>C</div></div></button><button id = button_2 class = ""square num-button"" onclick = ""recordClick(this)""><div class = content><div class = numbers>G</div></div></button><button id = button_3 class = ""square num-button"" onclick = ""recordClick(this)""><div class = content><div class = numbers>H</div></div></button><button id = button_4 class = ""square num-button"" onclick = ""recordClick(this)""><div class = content><div class = numbers>J</div></div></button><button id = button_5 class = ""square num-button"" onclick = ""recordClick(this)""><div class = content><div class = numbers>K</div></div></button><button id = button_6 class = ""square num-button"" onclick = ""recordClick(this)""><div class = content><div class = numbers>L</div></div></button><button id = button_7 class = ""square num-button"" onclick = ""recordClick(this)""><div class = content><div class = numbers>N</div></div></button><button id = button_8 class = ""square num-button"" onclick = ""recordClick(this)""><div class = content><div class = numbers>P</div></div></button><button id = button_9 class = ""square num-button"" onclick = ""recordClick(this)""><div class = content><div class = numbers>Q</div></div></button><button id = button_10 class = ""square num-button"" onclick = ""recordClick(this)""><div class = content><div class = numbers>R</div></div></button><button id = button_11 class = ""square num-button"" onclick = ""recordClick(this)""><div class = content><div class = numbers>S</div></div></button><button id = button_12 class = ""square num-button"" onclick = ""recordClick(this)""><div class = content><div class = numbers>Y</div></div></button><button class = clear_button id = ""ClearButton"" onclick = ""clearResponse()"">BACKSPACE</button><button class = blank_button id = ""BlankButton"" onclick = ""blankResponse()"">SKIP</button><p style=""font-size: 2.4rem""><u><b>Current Answer:</b></u></p><br><br><div id=echoed_txt style=""font-size: 5rem; color:blue;""><b></b></div></div>",enter,ospan,retrieval,kqRmpj7c0hZKDnuiFgNXHfMRvn03,html-keyboard-response,186,909439,0.0-46.0-6.0-0.0-2.0,33,32,28,5.0,"[""Q"",""L"",""P"",""C"",""H""]","[""Q"",""L"",""P"",""C"",""H""]",1.0,5.0,,,,,,,5bf8a27021a4e1000194fc76,22:21:44,02/04/2024
820.0,[''],0,ospan,feedback,kqRmpj7c0hZKDnuiFgNXHfMRvn03,html-button-response,187,910766,0.0-46.0-6.0-0.0-3.0,,,,,,,,,,,,100.0,0.0,,5bf8a27021a4e1000194fc76,22:21:44,02/04/2024
,"<p style=""font-size:75px;"">...</p>",,ospan,iti,kqRmpj7c0hZKDnuiFgNXHfMRvn03,html-keyboard-response,188,911771,0.0-46.0-6.0-1.0-0.0,,,,,,,,,,,,,,,5bf8a27021a4e1000194fc76,22:21:44,02/04/2024
1384.0,,,ospan,symmetry,kqRmpj7c0hZKDnuiFgNXHfMRvn03,symmetry-judgement-task,189,914233,0.0-46.0-6.0-1.0-1.0-0.0,,,,,,,,,,1.0,1.0,,,,5bf8a27021a4e1000194fc76,22:21:44,02/04/2024
,"<div style=""font-size: 10rem; color: #0000FF"">N</div>",,ospan,letter,kqRmpj7c0hZKDnuiFgNXHfMRvn03,html-keyboard-response,190,915235,0.0-46.0-6.0-1.0-1.0-1.0,,,,,,,,,,,,,,,5bf8a27021a4e1000194fc76,22:21:44,02/04/2024
1590.0,,,ospan,symmetry,kqRmpj7c0hZKDnuiFgNXHfMRvn03,symmetry-judgement-task,191,918656,0.0-46.0-6.0-1.0-1.0-2.0,,,,,,,,,,1.0,1.0,,,,5bf8a27021a4e1000194fc76,22:21:44,02/04/2024
,"<div style=""font-size: 10rem; color: #0000FF"">C</div>",,ospan,letter,kqRmpj7c0hZKDnuiFgNXHfMRvn03,html-keyboard-response,192,919659,0.0-46.0-6.0-1.0-1.0-3.0,,,,,,,,,,,,,,,5bf8a27021a4e1000194fc76,22:21:44,02/04/2024
1449.0,,,ospan,symmetry,kqRmpj7c0hZKDnuiFgNXHfMRvn03,symmetry-judgement-task,193,922932,0.0-46.0-6.0-1.0-1.0-4.0,,,,,,,,,,1.0,1.0,,,,5bf8a27021a4e1000194fc76,22:21:44,02/04/2024
,"<div style=""font-size: 10rem; color: #0000FF"">P</div>",,ospan,letter,kqRmpj7c0hZKDnuiFgNXHfMRvn03,html-keyboard-response,194,923984,0.0-46.0-6.0-1.0-1.0-5.0,,,,,,,,,,,,,,,5bf8a27021a4e1000194fc76,22:21:44,02/04/2024
1210.0,,,ospan,symmetry,kqRmpj7c0hZKDnuiFgNXHfMRvn03,symmetry-judgement-task,195,927053,0.0-46.0-6.0-1.0-1.0-6.0,,,,,,,,,,1.0,1.0,,,,5bf8a27021a4e1000194fc76,22:21:44,02/04/2024
,"<div style=""font-size: 10rem; color: #0000FF"">J</div>",,ospan,letter,kqRmpj7c0hZKDnuiFgNXHfMRvn03,html-keyboard-response,196,928056,0.0-46.0-6.0-1.0-1.0-7.0,,,,,,,,,,,,,,,5bf8a27021a4e1000194fc76,22:21:44,02/04/2024
945.0,,,ospan,symmetry,kqRmpj7c0hZKDnuiFgNXHfMRvn03,symmetry-judgement-task,197,930826,0.0-46.0-6.0-1.0-1.0-8.0,,,,,,,,,,1.0,1.0,,,,5bf8a27021a4e1000194fc76,22:21:44,02/04/2024
,"<div style=""font-size: 10rem; color: #0000FF"">L</div>",,ospan,letter,kqRmpj7c0hZKDnuiFgNXHfMRvn03,html-keyboard-response,198,931834,0.0-46.0-6.0-1.0-1.0-9.0,,,,,,,,,,,,,,,5bf8a27021a4e1000194fc76,22:21:44,02/04/2024
1570.0,,,ospan,symmetry,kqRmpj7c0hZKDnuiFgNXHfMRvn03,symmetry-judgement-task,199,935231,0.0-46.0-6.0-1.0-1.0-10.0,,,,,,,,,,1.0,1.0,,,,5bf8a27021a4e1000194fc76,22:21:44,02/04/2024
,"<div style=""font-size: 10rem; color: #0000FF"">S</div>",,ospan,letter,kqRmpj7c0hZKDnuiFgNXHfMRvn03,html-keyboard-response,200,936238,0.0-46.0-6.0-1.0-1.0-11.0,,,,,,,,,,,,,,,5bf8a27021a4e1000194fc76,22:21:44,02/04/2024
1169.0,,,ospan,symmetry,kqRmpj7c0hZKDnuiFgNXHfMRvn03,symmetry-judgement-task,201,939236,0.0-46.0-6.0-1.0-1.0-12.0,,,,,,,,,,1.0,1.0,,,,5bf8a27021a4e1000194fc76,22:21:44,02/04/2024
,"<div style=""font-size: 10rem; color: #0000FF"">Y</div>",,ospan,letter,kqRmpj7c0hZKDnuiFgNXHfMRvn03,html-keyboard-response,202,940244,0.0-46.0-6.0-1.0-1.0-13.0,,,,,,,,,,,,,,,5bf8a27021a4e1000194fc76,22:21:44,02/04/2024
2607.0,,,ospan,symmetry,kqRmpj7c0hZKDnuiFgNXHfMRvn03,symmetry-judgement-task,203,944681,0.0-46.0-6.0-1.0-1.0-14.0,,,,,,,,,,1.0,1.0,,,,5bf8a27021a4e1000194fc76,22:21:44,02/04/2024
,"<div style=""font-size: 10rem; color: #0000FF"">Q</div>",,ospan,letter,kqRmpj7c0hZKDnuiFgNXHfMRvn03,html-keyboard-response,204,945685,0.0-46.0-6.0-1.0-1.0-15.0,,,,,,,,,,,,,,,5bf8a27021a4e1000194fc76,22:21:44,02/04/2024
19314.0,"<div class = numbox><p style=""font-size: 2.4rem"">Please recall the letters you saw to the best of your ability. If you do not remember a particular letter, use the SKIP button.<br><b>(When you are ready to lock in your answer, press ENTER)</b></p><button id = button_1 class = ""square num-button"" onclick = ""recordClick(this)""><div class = content><div class = numbers>C</div></div></button><button id = button_2 class = ""square num-button"" onclick = ""recordClick(this)""><div class = content><div class = numbers>G</div></div></button><button id = button_3 class = ""square num-button"" onclick = ""recordClick(this)""><div class = content><div class = numbers>H</div></div></button><button id = button_4 class = ""square num-button"" onclick = ""recordClick(this)""><div class = content><div class = numbers>J</div></div></button><button id = button_5 class = ""square num-button"" onclick = ""recordClick(this)""><div class = content><div class = numbers>K</div></div></button><button id = button_6 class = ""square num-button"" onclick = ""recordClick(this)""><div class = content><div class = numbers>L</div></div></button><button id = button_7 class = ""square num-button"" onclick = ""recordClick(this)""><div class = content><div class = numbers>N</div></div></button><button id = button_8 class = ""square num-button"" onclick = ""recordClick(this)""><div class = content><div class = numbers>P</div></div></button><button id = button_9 class = ""square num-button"" onclick = ""recordClick(this)""><div class = content><div class = numbers>Q</div></div></button><button id = button_10 class = ""square num-button"" onclick = ""recordClick(this)""><div class = content><div class = numbers>R</div></div></button><button id = button_11 class = ""square num-button"" onclick = ""recordClick(this)""><div class = content><div class = numbers>S</div></div></button><button id = button_12 class = ""square num-button"" onclick = ""recordClick(this)""><div class = content><div class = numbers>Y</div></div></button><button class = clear_button id = ""ClearButton"" onclick = ""clearResponse()"">BACKSPACE</button><button class = blank_button id = ""BlankButton"" onclick = ""blankResponse()"">SKIP</button><p style=""font-size: 2.4rem""><u><b>Current Answer:</b></u></p><br><br><div id=echoed_txt style=""font-size: 5rem; color:blue;""><b></b></div></div>",enter,ospan,retrieval,kqRmpj7c0hZKDnuiFgNXHfMRvn03,html-keyboard-response,205,965757,0.0-46.0-6.0-1.0-2.0,41,39,28,8.0,"[""N"",""C"",""P"",""J"",""L"",""S"",""Y""]","[""N"",""C"",""P"",""J"",""L"",""S"",""Y"",""Q""]",0.0,7.0,,,,,,,5bf8a27021a4e1000194fc76,22:21:44,02/04/2024
1743.0,[''],0,ospan,feedback,kqRmpj7c0hZKDnuiFgNXHfMRvn03,html-button-response,206,968005,0.0-46.0-6.0-1.0-3.0,,,,,,,,,,,,100.0,0.0,,5bf8a27021a4e1000194fc76,22:21:44,02/04/2024
7572.0,,{'Q0': 'not applicable'},ospan,survey_ospan,kqRmpj7c0hZKDnuiFgNXHfMRvn03,lmdlab-survey-text,207,976353,0.0-46.0-7.0,,,,,,,,,,,,,,kqRmpj7c0hZKDnuiFgNXHfMRvn03,5bf8a27021a4e1000194fc76,22:21:44,02/04/2024
1348.0,<p><p style='font-size: 3rem'>Great work!<br><br>This completes the symmetry and memory task.</p><br><br><br>,0,ospan,finish,kqRmpj7c0hZKDnuiFgNXHfMRvn03,html-button-response,208,977706,0.0-46.0-8.0,41,39,28,,,,,,,,,100.0,,,5bf8a27021a4e1000194fc76,22:21:44,02/04/2024
