rt,stimulus,response,exp_name,exp_stage,subjectID,trial_type,trial_index,time_elapsed,internal_node_id,ospan_shown,ospan_total,ospan_abs,length,resp_actual,resp_correct,full_correct,num_correct,feedback,accuracy,correct,math_acc,math_warning,databaseID,prolificID,start_time,date
2291.39999999851,<div class = 'left_align' style='font-size: 3.25rem; line-height: 1.3;'><p class = 'center_align'><b>Welcome to the Symmetry and Memory Task</b><br><br><br><br></p>Press 'continue' to show the instructions.<br><br><br><br></div>,0,ospan,instruct,SuAdtjUSOxRStrtwANhZizWi2Fa2,html-button-response,51,608996,0.0-43.0-0.0-0.0-0.0,,,,,,,,,,,,,,,5e836f61445b1c0761ae6a76,15:35:31,04/03/2024
25065.699999999255,"<div class = 'left_align' style='font-size: 3.25rem; line-height: 1.3;'><p class = 'center_align'><b>Symmetry and Memory Task</b><br><br></p>In this task, you will try to memorize letters you see on the screen<br>while you also view black and white grid pictures.<br><br>In the next few minutes, you will have some practice to get you familiar<br>with how the task works.<br><br>It may be difficult sometimes, but please do not worry about making mistakes!<br><br>We will begin by practicing the letter part of the task.<br><br><br><br></div>",0,ospan,instruct,SuAdtjUSOxRStrtwANhZizWi2Fa2,html-button-response,52,634322,0.0-43.0-0.0-0.0-1.0,,,,,,,,,,,,,,,5e836f61445b1c0761ae6a76,15:35:31,04/03/2024
22828.699999999255,"<div class = 'left_align' style='font-size: 3.25rem; line-height: 1.3;'>For this practice part, letters will appear on the screen one at a time.<br><br>Try to remember each letter in the order presented.<br><br>After some letters have been shown, you will see a response screen. Your<br>goal is to report the letters you saw <b>in order</b>. If you do not remember<br>a particular letter, you will have the option to leave it blank.<br><br><br><br></div>",0,ospan,instruct,SuAdtjUSOxRStrtwANhZizWi2Fa2,html-button-response,53,657403,0.0-43.0-0.0-0.0-2.0,,,,,,,,,,,,,,,5e836f61445b1c0761ae6a76,15:35:31,04/03/2024
3403.699999999255,"<div class = 'left_align' style='font-size: 3.25rem; line-height: 1.3;'>Remember, it is very important to get the letters in the same<br>order as you see them.<br><br>When you are ready, you may begin the letter practice.</div><br><br><br><br>",0,ospan,instruct,SuAdtjUSOxRStrtwANhZizWi2Fa2,html-button-response,54,661059,0.0-43.0-0.0-0.0-3.0,,,,,,,,,,,,,,,5e836f61445b1c0761ae6a76,15:35:31,04/03/2024
,"<p style=""font-size:75px;"">...</p>",,ospan,iti,SuAdtjUSOxRStrtwANhZizWi2Fa2,html-keyboard-response,55,662329,0.0-43.0-0.0-1.0-0.0,,,,,,,,,,,,,,,5e836f61445b1c0761ae6a76,15:35:31,04/03/2024
,"<div style=""font-size: 10rem; color: #0000FF"">Y</div>",,ospan,letter,SuAdtjUSOxRStrtwANhZizWi2Fa2,html-keyboard-response,56,663344,0.0-43.0-0.0-1.0-1.0,,,,,,,,,,,,,,,5e836f61445b1c0761ae6a76,15:35:31,04/03/2024
,"<div style=""font-size: 10rem; color: #0000FF"">N</div>",,ospan,letter,SuAdtjUSOxRStrtwANhZizWi2Fa2,html-keyboard-response,57,665109,0.0-43.0-0.0-1.0-2.0,,,,,,,,,,,,,,,5e836f61445b1c0761ae6a76,15:35:31,04/03/2024
8019.39999999851,"<div class = numbox><p style=""font-size: 2.4rem"">Please recall the letters you saw to the best of your ability. If you do not remember a particular letter, use the SKIP button.<br><b>(When you are ready to lock in your answer, press ENTER)</b></p><button id = button_1 class = ""square num-button"" onclick = ""recordClick(this)""><div class = content><div class = numbers>C</div></div></button><button id = button_2 class = ""square num-button"" onclick = ""recordClick(this)""><div class = content><div class = numbers>G</div></div></button><button id = button_3 class = ""square num-button"" onclick = ""recordClick(this)""><div class = content><div class = numbers>H</div></div></button><button id = button_4 class = ""square num-button"" onclick = ""recordClick(this)""><div class = content><div class = numbers>J</div></div></button><button id = button_5 class = ""square num-button"" onclick = ""recordClick(this)""><div class = content><div class = numbers>K</div></div></button><button id = button_6 class = ""square num-button"" onclick = ""recordClick(this)""><div class = content><div class = numbers>L</div></div></button><button id = button_7 class = ""square num-button"" onclick = ""recordClick(this)""><div class = content><div class = numbers>N</div></div></button><button id = button_8 class = ""square num-button"" onclick = ""recordClick(this)""><div class = content><div class = numbers>P</div></div></button><button id = button_9 class = ""square num-button"" onclick = ""recordClick(this)""><div class = content><div class = numbers>Q</div></div></button><button id = button_10 class = ""square num-button"" onclick = ""recordClick(this)""><div class = content><div class = numbers>R</div></div></button><button id = button_11 class = ""square num-button"" onclick = ""recordClick(this)""><div class = content><div class = numbers>S</div></div></button><button id = button_12 class = ""square num-button"" onclick = ""recordClick(this)""><div class = content><div class = numbers>Y</div></div></button><button class = clear_button id = ""ClearButton"" onclick = ""clearResponse()"">BACKSPACE</button><button class = blank_button id = ""BlankButton"" onclick = ""blankResponse()"">SKIP</button><p style=""font-size: 2.4rem""><u><b>Current Answer:</b></u></p><br><br><div id=echoed_txt style=""font-size: 5rem; color:blue;""><b></b></div></div>",enter,ospan,retrieval,SuAdtjUSOxRStrtwANhZizWi2Fa2,html-keyboard-response,58,673885,0.0-43.0-0.0-1.0-3.0,NA,NA,NA,2.0,"[""Y"",""N""]","[""Y"",""N""]",1.0,2.0,"['<font color=""green"">Y</font>', '<font color=""green"">N</font>']",,,,,,5e836f61445b1c0761ae6a76,15:35:31,04/03/2024
1829.8999999985099,"['<p style=""font-size:44px"">Letters:<br><br><br><font color=""green"">Y</font> <font color=""green"">N</font></p><br><br>']",0,ospan,practice_feedback,SuAdtjUSOxRStrtwANhZizWi2Fa2,html-button-response,59,676225,0.0-43.0-0.0-1.0-4.0,,,,,,,,,,,,,,,5e836f61445b1c0761ae6a76,15:35:31,04/03/2024
,"<p style=""font-size:75px;"">...</p>",,ospan,iti,SuAdtjUSOxRStrtwANhZizWi2Fa2,html-keyboard-response,60,677237,0.0-43.0-0.0-2.0-0.0,,,,,,,,,,,,,,,5e836f61445b1c0761ae6a76,15:35:31,04/03/2024
,"<div style=""font-size: 10rem; color: #0000FF"">J</div>",,ospan,letter,SuAdtjUSOxRStrtwANhZizWi2Fa2,html-keyboard-response,61,678249,0.0-43.0-0.0-2.0-1.0,,,,,,,,,,,,,,,5e836f61445b1c0761ae6a76,15:35:31,04/03/2024
,"<div style=""font-size: 10rem; color: #0000FF"">C</div>",,ospan,letter,SuAdtjUSOxRStrtwANhZizWi2Fa2,html-keyboard-response,62,680010,0.0-43.0-0.0-2.0-2.0,,,,,,,,,,,,,,,5e836f61445b1c0761ae6a76,15:35:31,04/03/2024
,"<div style=""font-size: 10rem; color: #0000FF"">Y</div>",,ospan,letter,SuAdtjUSOxRStrtwANhZizWi2Fa2,html-keyboard-response,63,681788,0.0-43.0-0.0-2.0-3.0,,,,,,,,,,,,,,,5e836f61445b1c0761ae6a76,15:35:31,04/03/2024
3058.5,"<div class = numbox><p style=""font-size: 2.4rem"">Please recall the letters you saw to the best of your ability. If you do not remember a particular letter, use the SKIP button.<br><b>(When you are ready to lock in your answer, press ENTER)</b></p><button id = button_1 class = ""square num-button"" onclick = ""recordClick(this)""><div class = content><div class = numbers>C</div></div></button><button id = button_2 class = ""square num-button"" onclick = ""recordClick(this)""><div class = content><div class = numbers>G</div></div></button><button id = button_3 class = ""square num-button"" onclick = ""recordClick(this)""><div class = content><div class = numbers>H</div></div></button><button id = button_4 class = ""square num-button"" onclick = ""recordClick(this)""><div class = content><div class = numbers>J</div></div></button><button id = button_5 class = ""square num-button"" onclick = ""recordClick(this)""><div class = content><div class = numbers>K</div></div></button><button id = button_6 class = ""square num-button"" onclick = ""recordClick(this)""><div class = content><div class = numbers>L</div></div></button><button id = button_7 class = ""square num-button"" onclick = ""recordClick(this)""><div class = content><div class = numbers>N</div></div></button><button id = button_8 class = ""square num-button"" onclick = ""recordClick(this)""><div class = content><div class = numbers>P</div></div></button><button id = button_9 class = ""square num-button"" onclick = ""recordClick(this)""><div class = content><div class = numbers>Q</div></div></button><button id = button_10 class = ""square num-button"" onclick = ""recordClick(this)""><div class = content><div class = numbers>R</div></div></button><button id = button_11 class = ""square num-button"" onclick = ""recordClick(this)""><div class = content><div class = numbers>S</div></div></button><button id = button_12 class = ""square num-button"" onclick = ""recordClick(this)""><div class = content><div class = numbers>Y</div></div></button><button class = clear_button id = ""ClearButton"" onclick = ""clearResponse()"">BACKSPACE</button><button class = blank_button id = ""BlankButton"" onclick = ""blankResponse()"">SKIP</button><p style=""font-size: 2.4rem""><u><b>Current Answer:</b></u></p><br><br><div id=echoed_txt style=""font-size: 5rem; color:blue;""><b></b></div></div>",enter,ospan,retrieval,SuAdtjUSOxRStrtwANhZizWi2Fa2,html-keyboard-response,64,685601,0.0-43.0-0.0-2.0-4.0,NA,NA,NA,3.0,"[""J"",""C"",""Y""]","[""J"",""C"",""Y""]",1.0,3.0,"['<font color=""green"">J</font>', '<font color=""green"">C</font>', '<font color=""green"">Y</font>']",,,,,,5e836f61445b1c0761ae6a76,15:35:31,04/03/2024
681.3999999985099,"['<p style=""font-size:44px"">Letters:<br><br><br><font color=""green"">J</font> <font color=""green"">C</font> <font color=""green"">Y</font></p><br><br>']",0,ospan,practice_feedback,SuAdtjUSOxRStrtwANhZizWi2Fa2,html-button-response,65,686789,0.0-43.0-0.0-2.0-5.0,,,,,,,,,,,,,,,5e836f61445b1c0761ae6a76,15:35:31,04/03/2024
32454.900000002235,"<div class = 'left_align' style='font-size: 3.25rem; line-height: 1.3;'>Now you will practice doing the <b>symmetry judgment part</b> of the experiment.<br><br>A black and white grid picture will appear on the screen and you have to judge if it is <br>symmetrical or asymetrical.<br><br>A picture is 'mirror' symmetrical if its left half is identical to the right half when flipped.<br>Here are examples of a symmetrical and an asymetrical picture:<br><br><center><img src='Stimuli/img/symm_instructions_extra.png' style='height:420px; width:900'></img></center><br>To judge symmetry, imagine you were to fold each picture down the middle, like a book –<br>would the left half match the right half when folded onto each other?<br><br></div><br>",0,ospan,instruct,SuAdtjUSOxRStrtwANhZizWi2Fa2,html-button-response,66,719245,0.0-43.0-1.0-0.0-0.0,,,,,,,,,,,,,,,5e836f61445b1c0761ae6a76,15:35:31,04/03/2024
12302.5,"<div class = 'left_align' style='font-size: 3.25rem; line-height: 1.3;'>When you have viewed the picture and determined whether it is symmetrical or not,<br>you can <b>click the Yes or No button</b> below to answer.<br><br>If you take longer than 15 seconds, it will continue automatically<br>and record the answer as an error.</div><br>",0,ospan,instruct,SuAdtjUSOxRStrtwANhZizWi2Fa2,html-button-response,67,731810,0.0-43.0-1.0-0.0-1.0,,,,,,,,,,,,,,,5e836f61445b1c0761ae6a76,15:35:31,04/03/2024
5954.20000000298,"<div class = 'left_align' style='font-size: 3.25rem; line-height: 1.3;'>It is <b>very</b> important that you make the symmetry judgment correctly.<br><br>It is also important that you try and judge the picture as quickly as you can.<br><br>When you are ready, click on the button below to try some practice problems.</div><br><br><br><br>",0,ospan,instruct,SuAdtjUSOxRStrtwANhZizWi2Fa2,html-button-response,68,738018,0.0-43.0-1.0-0.0-2.0,,,,,,,,,,,,,,,5e836f61445b1c0761ae6a76,15:35:31,04/03/2024
2386.0,,,ospan,symmetry,SuAdtjUSOxRStrtwANhZizWi2Fa2,symmetry-judgement-task,69,741201,0.0-43.0-1.0-1.0-0.0,,,,,,,,,,1.0,1.0,,,,5e836f61445b1c0761ae6a76,15:35:31,04/03/2024
,"<p style=""color:green; font-size: 35px"">Correct</p>",,ospan,feedback,SuAdtjUSOxRStrtwANhZizWi2Fa2,html-keyboard-response,70,741953,0.0-43.0-1.0-1.0-1.0,,,,,,,,,,,,,,,5e836f61445b1c0761ae6a76,15:35:31,04/03/2024
1674.0,,,ospan,symmetry,SuAdtjUSOxRStrtwANhZizWi2Fa2,symmetry-judgement-task,71,746268,0.0-43.0-1.0-1.0-2.0,,,,,,,,,,1.0,1.0,,,,5e836f61445b1c0761ae6a76,15:35:31,04/03/2024
,"<p style=""color:green; font-size: 35px"">Correct</p>",,ospan,feedback,SuAdtjUSOxRStrtwANhZizWi2Fa2,html-keyboard-response,72,747019,0.0-43.0-1.0-1.0-3.0,,,,,,,,,,,,,,,5e836f61445b1c0761ae6a76,15:35:31,04/03/2024
1607.0,,,ospan,symmetry,SuAdtjUSOxRStrtwANhZizWi2Fa2,symmetry-judgement-task,73,751259,0.0-43.0-1.0-1.0-4.0,,,,,,,,,,1.0,1.0,,,,5e836f61445b1c0761ae6a76,15:35:31,04/03/2024
,"<p style=""color:green; font-size: 35px"">Correct</p>",,ospan,feedback,SuAdtjUSOxRStrtwANhZizWi2Fa2,html-keyboard-response,74,752010,0.0-43.0-1.0-1.0-5.0,,,,,,,,,,,,,,,5e836f61445b1c0761ae6a76,15:35:31,04/03/2024
2344.699999999255,"<p style=""font-size: 3rem;"">You responded correctly on 3 of 3 symmetry judgments. Good job!</p><br><br>",0,ospan,practice,SuAdtjUSOxRStrtwANhZizWi2Fa2,html-button-response,75,756368,0.0-43.0-1.0-2.0,,,,,,,,,,,,,,,5e836f61445b1c0761ae6a76,15:35:31,04/03/2024
31120.89999999851,"<div class = 'left_align' style='font-size: 3.25rem; line-height: 1.3;'>Now you will practice doing both parts of the experiment at the same time.<br><br>In the next practice set, you will be given one grid picture to judge.<br>Then letter will appear on the screen. Try to remember the letter.<br><br>It is <b>very important</b> to make the symmetry judgment as quickly and accurately as possible.<br><br>Just as before, once you have make the symmetry judgment, you can click Yes or No.<br><b>Note that you will no longer see Correct or Incorrect feedback.</div><br><br><br><br>",0,ospan,instruct,SuAdtjUSOxRStrtwANhZizWi2Fa2,html-button-response,76,787742,0.0-43.0-2.0-0.0-0.0,,,,,,,,,,,,,,,5e836f61445b1c0761ae6a76,15:35:31,04/03/2024
20226.10000000149,"<div class = 'left_align' style='font-size: 3.25rem; line-height: 1.3;'>After the letter goes away, another grid picture will appear, and then<br>another letter.<br><br>At the end of each set of letters and grids, you will recall the letters to the best<br>of your ability. Remember, try your best to get the letters in the correct order.<br><br>It is important to <b>quickly</b> and <b>accurately</b> make the symmetry judgments.</div><br><br><br><br>",0,ospan,instruct,SuAdtjUSOxRStrtwANhZizWi2Fa2,html-button-response,77,808226,0.0-43.0-2.0-0.0-1.0,,,,,,,,,,,,,,,5e836f61445b1c0761ae6a76,15:35:31,04/03/2024
25912.400000002235,"<div class = 'left_align' style='font-size: 3.25rem; line-height: 1.3;'>On the feedback screen, if you are not doing well at the symmetry judgments,<br>you will also see a warning in the middle. This indicates your percent <br>correct for the grid pictures for the entire experiment.<br><br>It is <b>very</b> important for you to keep accuracy at least at 85%: <u>We can only use<br>data where the participant was at least 85% accurate on the judgments.</u> Therefore,<br> please try your best to perform well on the symmetry judgments, <b>at the same time</b><br>doing your best to recall as many letters as possible.<br><br>Click the button to try some practice problems.</div><br><br><br><br>",0,ospan,instruct,SuAdtjUSOxRStrtwANhZizWi2Fa2,html-button-response,78,834391,0.0-43.0-2.0-0.0-2.0,,,,,,,,,,,,,,,5e836f61445b1c0761ae6a76,15:35:31,04/03/2024
,"<p style=""font-size:75px;"">...</p>",,ospan,iti,SuAdtjUSOxRStrtwANhZizWi2Fa2,html-keyboard-response,79,835655,0.0-43.0-2.0-1.0-0.0,,,,,,,,,,,,,,,5e836f61445b1c0761ae6a76,15:35:31,04/03/2024
2451.0,,,ospan,symmetry,SuAdtjUSOxRStrtwANhZizWi2Fa2,symmetry-judgement-task,80,839139,0.0-43.0-2.0-1.0-1.0-0.0,,,,,,,,,,0.0,0.0,,,,5e836f61445b1c0761ae6a76,15:35:31,04/03/2024
,"<div style=""font-size: 10rem; color: #0000FF"">Y</div>",,ospan,letter,SuAdtjUSOxRStrtwANhZizWi2Fa2,html-keyboard-response,81,840142,0.0-43.0-2.0-1.0-1.0-1.0,,,,,,,,,,,,,,,5e836f61445b1c0761ae6a76,15:35:31,04/03/2024
1735.0,,,ospan,symmetry,SuAdtjUSOxRStrtwANhZizWi2Fa2,symmetry-judgement-task,82,843748,0.0-43.0-2.0-1.0-1.0-2.0,,,,,,,,,,1.0,1.0,,,,5e836f61445b1c0761ae6a76,15:35:31,04/03/2024
,"<div style=""font-size: 10rem; color: #0000FF"">N</div>",,ospan,letter,SuAdtjUSOxRStrtwANhZizWi2Fa2,html-keyboard-response,83,844759,0.0-43.0-2.0-1.0-1.0-3.0,,,,,,,,,,,,,,,5e836f61445b1c0761ae6a76,15:35:31,04/03/2024
1540.0,,,ospan,symmetry,SuAdtjUSOxRStrtwANhZizWi2Fa2,symmetry-judgement-task,84,848170,0.0-43.0-2.0-1.0-1.0-4.0,,,,,,,,,,1.0,1.0,,,,5e836f61445b1c0761ae6a76,15:35:31,04/03/2024
,"<div style=""font-size: 10rem; color: #0000FF"">G</div>",,ospan,letter,SuAdtjUSOxRStrtwANhZizWi2Fa2,html-keyboard-response,85,849177,0.0-43.0-2.0-1.0-1.0-5.0,,,,,,,,,,,,,,,5e836f61445b1c0761ae6a76,15:35:31,04/03/2024
5971.199999999255,"<div class = numbox><p style=""font-size: 2.4rem"">Please recall the letters you saw to the best of your ability. If you do not remember a particular letter, use the SKIP button.<br><b>(When you are ready to lock in your answer, press ENTER)</b></p><button id = button_1 class = ""square num-button"" onclick = ""recordClick(this)""><div class = content><div class = numbers>C</div></div></button><button id = button_2 class = ""square num-button"" onclick = ""recordClick(this)""><div class = content><div class = numbers>G</div></div></button><button id = button_3 class = ""square num-button"" onclick = ""recordClick(this)""><div class = content><div class = numbers>H</div></div></button><button id = button_4 class = ""square num-button"" onclick = ""recordClick(this)""><div class = content><div class = numbers>J</div></div></button><button id = button_5 class = ""square num-button"" onclick = ""recordClick(this)""><div class = content><div class = numbers>K</div></div></button><button id = button_6 class = ""square num-button"" onclick = ""recordClick(this)""><div class = content><div class = numbers>L</div></div></button><button id = button_7 class = ""square num-button"" onclick = ""recordClick(this)""><div class = content><div class = numbers>N</div></div></button><button id = button_8 class = ""square num-button"" onclick = ""recordClick(this)""><div class = content><div class = numbers>P</div></div></button><button id = button_9 class = ""square num-button"" onclick = ""recordClick(this)""><div class = content><div class = numbers>Q</div></div></button><button id = button_10 class = ""square num-button"" onclick = ""recordClick(this)""><div class = content><div class = numbers>R</div></div></button><button id = button_11 class = ""square num-button"" onclick = ""recordClick(this)""><div class = content><div class = numbers>S</div></div></button><button id = button_12 class = ""square num-button"" onclick = ""recordClick(this)""><div class = content><div class = numbers>Y</div></div></button><button class = clear_button id = ""ClearButton"" onclick = ""clearResponse()"">BACKSPACE</button><button class = blank_button id = ""BlankButton"" onclick = ""blankResponse()"">SKIP</button><p style=""font-size: 2.4rem""><u><b>Current Answer:</b></u></p><br><br><div id=echoed_txt style=""font-size: 5rem; color:blue;""><b></b></div></div>",enter,ospan,retrieval,SuAdtjUSOxRStrtwANhZizWi2Fa2,html-keyboard-response,86,855914,0.0-43.0-2.0-1.0-2.0-0.0,NA,NA,NA,3.0,"[""Y"",""N"",""G""]","[""Y"",""N"",""G""]",1.0,3.0,"['<font color=""green"">Y</font>', '<font color=""green"">N</font>', '<font color=""green"">G</font>']",,,,,,5e836f61445b1c0761ae6a76,15:35:31,04/03/2024
3471.5,"['<p style=""font-size:44px"">Letters:<br><br><br><font color=""green"">Y</font> <font color=""green"">N</font> <font color=""green"">G</font></p><br><br><p style=""font-size:30px"">Symmetry:<br><br><font color=""red"">67%</font></p><br><br>']",0,ospan,practice_feedback,SuAdtjUSOxRStrtwANhZizWi2Fa2,html-button-response,87,859895,0.0-43.0-2.0-1.0-2.0-1.0,,,,,,,,,,,,,,,5e836f61445b1c0761ae6a76,15:35:31,04/03/2024
,"<p style=""font-size:75px;"">...</p>",,ospan,iti,SuAdtjUSOxRStrtwANhZizWi2Fa2,html-keyboard-response,88,860897,0.0-43.0-2.0-2.0-0.0,,,,,,,,,,,,,,,5e836f61445b1c0761ae6a76,15:35:31,04/03/2024
1426.0,,,ospan,symmetry,SuAdtjUSOxRStrtwANhZizWi2Fa2,symmetry-judgement-task,89,863458,0.0-43.0-2.0-2.0-1.0-0.0,,,,,,,,,,1.0,1.0,,,,5e836f61445b1c0761ae6a76,15:35:31,04/03/2024
,"<div style=""font-size: 10rem; color: #0000FF"">P</div>",,ospan,letter,SuAdtjUSOxRStrtwANhZizWi2Fa2,html-keyboard-response,90,864466,0.0-43.0-2.0-2.0-1.0-1.0,,,,,,,,,,,,,,,5e836f61445b1c0761ae6a76,15:35:31,04/03/2024
1606.0,,,ospan,symmetry,SuAdtjUSOxRStrtwANhZizWi2Fa2,symmetry-judgement-task,91,867960,0.0-43.0-2.0-2.0-1.0-2.0,,,,,,,,,,1.0,1.0,,,,5e836f61445b1c0761ae6a76,15:35:31,04/03/2024
,"<div style=""font-size: 10rem; color: #0000FF"">N</div>",,ospan,letter,SuAdtjUSOxRStrtwANhZizWi2Fa2,html-keyboard-response,92,868968,0.0-43.0-2.0-2.0-1.0-3.0,,,,,,,,,,,,,,,5e836f61445b1c0761ae6a76,15:35:31,04/03/2024
1174.0,,,ospan,symmetry,SuAdtjUSOxRStrtwANhZizWi2Fa2,symmetry-judgement-task,93,872018,0.0-43.0-2.0-2.0-1.0-4.0,,,,,,,,,,1.0,1.0,,,,5e836f61445b1c0761ae6a76,15:35:31,04/03/2024
,"<div style=""font-size: 10rem; color: #0000FF"">K</div>",,ospan,letter,SuAdtjUSOxRStrtwANhZizWi2Fa2,html-keyboard-response,94,873028,0.0-43.0-2.0-2.0-1.0-5.0,,,,,,,,,,,,,,,5e836f61445b1c0761ae6a76,15:35:31,04/03/2024
3988.199999999255,"<div class = numbox><p style=""font-size: 2.4rem"">Please recall the letters you saw to the best of your ability. If you do not remember a particular letter, use the SKIP button.<br><b>(When you are ready to lock in your answer, press ENTER)</b></p><button id = button_1 class = ""square num-button"" onclick = ""recordClick(this)""><div class = content><div class = numbers>C</div></div></button><button id = button_2 class = ""square num-button"" onclick = ""recordClick(this)""><div class = content><div class = numbers>G</div></div></button><button id = button_3 class = ""square num-button"" onclick = ""recordClick(this)""><div class = content><div class = numbers>H</div></div></button><button id = button_4 class = ""square num-button"" onclick = ""recordClick(this)""><div class = content><div class = numbers>J</div></div></button><button id = button_5 class = ""square num-button"" onclick = ""recordClick(this)""><div class = content><div class = numbers>K</div></div></button><button id = button_6 class = ""square num-button"" onclick = ""recordClick(this)""><div class = content><div class = numbers>L</div></div></button><button id = button_7 class = ""square num-button"" onclick = ""recordClick(this)""><div class = content><div class = numbers>N</div></div></button><button id = button_8 class = ""square num-button"" onclick = ""recordClick(this)""><div class = content><div class = numbers>P</div></div></button><button id = button_9 class = ""square num-button"" onclick = ""recordClick(this)""><div class = content><div class = numbers>Q</div></div></button><button id = button_10 class = ""square num-button"" onclick = ""recordClick(this)""><div class = content><div class = numbers>R</div></div></button><button id = button_11 class = ""square num-button"" onclick = ""recordClick(this)""><div class = content><div class = numbers>S</div></div></button><button id = button_12 class = ""square num-button"" onclick = ""recordClick(this)""><div class = content><div class = numbers>Y</div></div></button><button class = clear_button id = ""ClearButton"" onclick = ""clearResponse()"">BACKSPACE</button><button class = blank_button id = ""BlankButton"" onclick = ""blankResponse()"">SKIP</button><p style=""font-size: 2.4rem""><u><b>Current Answer:</b></u></p><br><br><div id=echoed_txt style=""font-size: 5rem; color:blue;""><b></b></div></div>",enter,ospan,retrieval,SuAdtjUSOxRStrtwANhZizWi2Fa2,html-keyboard-response,95,877778,0.0-43.0-2.0-2.0-2.0-0.0,NA,NA,NA,3.0,"[""P"",""N"",""K""]","[""P"",""N"",""K""]",1.0,3.0,"['<font color=""green"">P</font>', '<font color=""green"">N</font>', '<font color=""green"">K</font>']",,,,,,5e836f61445b1c0761ae6a76,15:35:31,04/03/2024
6463.39999999851,"['<p style=""font-size:44px"">Letters:<br><br><br><font color=""green"">P</font> <font color=""green"">N</font> <font color=""green"">K</font></p><br><br><p style=""font-size:30px"">Symmetry:<br><br><font color=""red"">83%</font></p><br><br>']",0,ospan,practice_feedback,SuAdtjUSOxRStrtwANhZizWi2Fa2,html-button-response,96,884745,0.0-43.0-2.0-2.0-2.0-1.0,,,,,,,,,,,,,,,5e836f61445b1c0761ae6a76,15:35:31,04/03/2024
78132.30000000075,"<div class = 'left_align' style='font-size: 3rem; line-height: 1.3;'><b>Great work! That is the end of practice.</b><br><br>The real trials will look just like the practice trials you just completed.<br><br><u>Here, you will not see feedback</u>. First, you will see an grid picture to judge,<br>then a letter to remember. When the recall screen appears, report the letters in the<br>order presented. If you forget a letter, remember to use the <b>blank</b> button to move to the<br>next letter. Some of the sets will have more symmetry grids and letters than others.<br><br>It is important that you do your best on both the symmetry judgments and the letter recall<br>parts of the experiment. For for the symmetry judgments, try to work as <b>quickly</b> and <br>as <b>accurately</b> as possible. Remember to keep your symmetry accuracy at 85% or above.<br><br><b>For the letters, do NOT use any external aid (e.g., writing on paper, electronic device).</b><br><br>It is <u>very important</u> to our experiment to have a <b>true</b> view of your real performance.<br><br>Do not worry if you miss some when it gets hard! This task is meant to be very challenging!<br><br>Click the button to begin.</div><br><br><br><br>",0,ospan,starting_real_here,SuAdtjUSOxRStrtwANhZizWi2Fa2,html-button-response,97,962879,0.0-43.0-2.0-3.0,,,,,,,,,,,,,,,5e836f61445b1c0761ae6a76,15:35:31,04/03/2024
,"<p style=""font-size:75px;"">...</p>",,ospan,iti,SuAdtjUSOxRStrtwANhZizWi2Fa2,html-keyboard-response,98,964140,0.0-43.0-3.0-0.0-0.0,,,,,,,,,,,,,,,5e836f61445b1c0761ae6a76,15:35:31,04/03/2024
1901.0,,,ospan,symmetry,SuAdtjUSOxRStrtwANhZizWi2Fa2,symmetry-judgement-task,99,967066,0.0-43.0-3.0-0.0-1.0-0.0,,,,,,,,,,1.0,1.0,,,,5e836f61445b1c0761ae6a76,15:35:31,04/03/2024
,"<div style=""font-size: 10rem; color: #0000FF"">Y</div>",,ospan,letter,SuAdtjUSOxRStrtwANhZizWi2Fa2,html-keyboard-response,100,968081,0.0-43.0-3.0-0.0-1.0-1.0,,,,,,,,,,,,,,,5e836f61445b1c0761ae6a76,15:35:31,04/03/2024
2189.0,,,ospan,symmetry,SuAdtjUSOxRStrtwANhZizWi2Fa2,symmetry-judgement-task,101,972155,0.0-43.0-3.0-0.0-1.0-2.0,,,,,,,,,,1.0,1.0,,,,5e836f61445b1c0761ae6a76,15:35:31,04/03/2024
,"<div style=""font-size: 10rem; color: #0000FF"">Q</div>",,ospan,letter,SuAdtjUSOxRStrtwANhZizWi2Fa2,html-keyboard-response,102,973169,0.0-43.0-3.0-0.0-1.0-3.0,,,,,,,,,,,,,,,5e836f61445b1c0761ae6a76,15:35:31,04/03/2024
1775.0,,,ospan,symmetry,SuAdtjUSOxRStrtwANhZizWi2Fa2,symmetry-judgement-task,103,976809,0.0-43.0-3.0-0.0-1.0-4.0,,,,,,,,,,1.0,1.0,,,,5e836f61445b1c0761ae6a76,15:35:31,04/03/2024
,"<div style=""font-size: 10rem; color: #0000FF"">L</div>",,ospan,letter,SuAdtjUSOxRStrtwANhZizWi2Fa2,html-keyboard-response,104,977819,0.0-43.0-3.0-0.0-1.0-5.0,,,,,,,,,,,,,,,5e836f61445b1c0761ae6a76,15:35:31,04/03/2024
20147.699999999255,"<div class = numbox><p style=""font-size: 2.4rem"">Please recall the letters you saw to the best of your ability. If you do not remember a particular letter, use the SKIP button.<br><b>(When you are ready to lock in your answer, press ENTER)</b></p><button id = button_1 class = ""square num-button"" onclick = ""recordClick(this)""><div class = content><div class = numbers>C</div></div></button><button id = button_2 class = ""square num-button"" onclick = ""recordClick(this)""><div class = content><div class = numbers>G</div></div></button><button id = button_3 class = ""square num-button"" onclick = ""recordClick(this)""><div class = content><div class = numbers>H</div></div></button><button id = button_4 class = ""square num-button"" onclick = ""recordClick(this)""><div class = content><div class = numbers>J</div></div></button><button id = button_5 class = ""square num-button"" onclick = ""recordClick(this)""><div class = content><div class = numbers>K</div></div></button><button id = button_6 class = ""square num-button"" onclick = ""recordClick(this)""><div class = content><div class = numbers>L</div></div></button><button id = button_7 class = ""square num-button"" onclick = ""recordClick(this)""><div class = content><div class = numbers>N</div></div></button><button id = button_8 class = ""square num-button"" onclick = ""recordClick(this)""><div class = content><div class = numbers>P</div></div></button><button id = button_9 class = ""square num-button"" onclick = ""recordClick(this)""><div class = content><div class = numbers>Q</div></div></button><button id = button_10 class = ""square num-button"" onclick = ""recordClick(this)""><div class = content><div class = numbers>R</div></div></button><button id = button_11 class = ""square num-button"" onclick = ""recordClick(this)""><div class = content><div class = numbers>S</div></div></button><button id = button_12 class = ""square num-button"" onclick = ""recordClick(this)""><div class = content><div class = numbers>Y</div></div></button><button class = clear_button id = ""ClearButton"" onclick = ""clearResponse()"">BACKSPACE</button><button class = blank_button id = ""BlankButton"" onclick = ""blankResponse()"">SKIP</button><p style=""font-size: 2.4rem""><u><b>Current Answer:</b></u></p><br><br><div id=echoed_txt style=""font-size: 5rem; color:blue;""><b></b></div></div>",enter,ospan,retrieval,SuAdtjUSOxRStrtwANhZizWi2Fa2,html-keyboard-response,105,998726,0.0-43.0-3.0-0.0-2.0,3,3,3,3.0,"[""Y"",""Q"",""L""]","[""Y"",""Q"",""L""]",1.0,3.0,,,,,,,5e836f61445b1c0761ae6a76,15:35:31,04/03/2024
870.7000000029802,[''],0,ospan,feedback,SuAdtjUSOxRStrtwANhZizWi2Fa2,html-button-response,106,1000101,0.0-43.0-3.0-0.0-3.0,,,,,,,,,,,,100.0,0.0,,5e836f61445b1c0761ae6a76,15:35:31,04/03/2024
,"<p style=""font-size:75px;"">...</p>",,ospan,iti,SuAdtjUSOxRStrtwANhZizWi2Fa2,html-keyboard-response,107,1001116,0.0-43.0-4.0-0.0-0.0,,,,,,,,,,,,,,,5e836f61445b1c0761ae6a76,15:35:31,04/03/2024
2757.0,,,ospan,symmetry,SuAdtjUSOxRStrtwANhZizWi2Fa2,symmetry-judgement-task,108,1004902,0.0-43.0-4.0-0.0-1.0-0.0,,,,,,,,,,1.0,1.0,,,,5e836f61445b1c0761ae6a76,15:35:31,04/03/2024
,"<div style=""font-size: 10rem; color: #0000FF"">C</div>",,ospan,letter,SuAdtjUSOxRStrtwANhZizWi2Fa2,html-keyboard-response,109,1005906,0.0-43.0-4.0-0.0-1.0-1.0,,,,,,,,,,,,,,,5e836f61445b1c0761ae6a76,15:35:31,04/03/2024
2600.0,,,ospan,symmetry,SuAdtjUSOxRStrtwANhZizWi2Fa2,symmetry-judgement-task,110,1010408,0.0-43.0-4.0-0.0-1.0-2.0,,,,,,,,,,1.0,1.0,,,,5e836f61445b1c0761ae6a76,15:35:31,04/03/2024
,"<div style=""font-size: 10rem; color: #0000FF"">G</div>",,ospan,letter,SuAdtjUSOxRStrtwANhZizWi2Fa2,html-keyboard-response,111,1011416,0.0-43.0-4.0-0.0-1.0-3.0,,,,,,,,,,,,,,,5e836f61445b1c0761ae6a76,15:35:31,04/03/2024
1791.0,,,ospan,symmetry,SuAdtjUSOxRStrtwANhZizWi2Fa2,symmetry-judgement-task,112,1015090,0.0-43.0-4.0-0.0-1.0-4.0,,,,,,,,,,1.0,1.0,,,,5e836f61445b1c0761ae6a76,15:35:31,04/03/2024
,"<div style=""font-size: 10rem; color: #0000FF"">Y</div>",,ospan,letter,SuAdtjUSOxRStrtwANhZizWi2Fa2,html-keyboard-response,113,1016096,0.0-43.0-4.0-0.0-1.0-5.0,,,,,,,,,,,,,,,5e836f61445b1c0761ae6a76,15:35:31,04/03/2024
1375.0,,,ospan,symmetry,SuAdtjUSOxRStrtwANhZizWi2Fa2,symmetry-judgement-task,114,1019357,0.0-43.0-4.0-0.0-1.0-6.0,,,,,,,,,,1.0,1.0,,,,5e836f61445b1c0761ae6a76,15:35:31,04/03/2024
,"<div style=""font-size: 10rem; color: #0000FF"">J</div>",,ospan,letter,SuAdtjUSOxRStrtwANhZizWi2Fa2,html-keyboard-response,115,1020367,0.0-43.0-4.0-0.0-1.0-7.0,,,,,,,,,,,,,,,5e836f61445b1c0761ae6a76,15:35:31,04/03/2024
8209.29999999702,"<div class = numbox><p style=""font-size: 2.4rem"">Please recall the letters you saw to the best of your ability. If you do not remember a particular letter, use the SKIP button.<br><b>(When you are ready to lock in your answer, press ENTER)</b></p><button id = button_1 class = ""square num-button"" onclick = ""recordClick(this)""><div class = content><div class = numbers>C</div></div></button><button id = button_2 class = ""square num-button"" onclick = ""recordClick(this)""><div class = content><div class = numbers>G</div></div></button><button id = button_3 class = ""square num-button"" onclick = ""recordClick(this)""><div class = content><div class = numbers>H</div></div></button><button id = button_4 class = ""square num-button"" onclick = ""recordClick(this)""><div class = content><div class = numbers>J</div></div></button><button id = button_5 class = ""square num-button"" onclick = ""recordClick(this)""><div class = content><div class = numbers>K</div></div></button><button id = button_6 class = ""square num-button"" onclick = ""recordClick(this)""><div class = content><div class = numbers>L</div></div></button><button id = button_7 class = ""square num-button"" onclick = ""recordClick(this)""><div class = content><div class = numbers>N</div></div></button><button id = button_8 class = ""square num-button"" onclick = ""recordClick(this)""><div class = content><div class = numbers>P</div></div></button><button id = button_9 class = ""square num-button"" onclick = ""recordClick(this)""><div class = content><div class = numbers>Q</div></div></button><button id = button_10 class = ""square num-button"" onclick = ""recordClick(this)""><div class = content><div class = numbers>R</div></div></button><button id = button_11 class = ""square num-button"" onclick = ""recordClick(this)""><div class = content><div class = numbers>S</div></div></button><button id = button_12 class = ""square num-button"" onclick = ""recordClick(this)""><div class = content><div class = numbers>Y</div></div></button><button class = clear_button id = ""ClearButton"" onclick = ""clearResponse()"">BACKSPACE</button><button class = blank_button id = ""BlankButton"" onclick = ""blankResponse()"">SKIP</button><p style=""font-size: 2.4rem""><u><b>Current Answer:</b></u></p><br><br><div id=echoed_txt style=""font-size: 5rem; color:blue;""><b></b></div></div>",enter,ospan,retrieval,SuAdtjUSOxRStrtwANhZizWi2Fa2,html-keyboard-response,116,1029334,0.0-43.0-4.0-0.0-2.0,7,7,7,4.0,"[""C"",""G"",""Y"",""J""]","[""C"",""G"",""Y"",""J""]",1.0,4.0,,,,,,,5e836f61445b1c0761ae6a76,15:35:31,04/03/2024
5732.800000000745,[''],0,ospan,feedback,SuAdtjUSOxRStrtwANhZizWi2Fa2,html-button-response,117,1035582,0.0-43.0-4.0-0.0-3.0,,,,,,,,,,,,100.0,0.0,,5e836f61445b1c0761ae6a76,15:35:31,04/03/2024
,"<p style=""font-size:75px;"">...</p>",,ospan,iti,SuAdtjUSOxRStrtwANhZizWi2Fa2,html-keyboard-response,118,1036593,0.0-43.0-4.0-1.0-0.0,,,,,,,,,,,,,,,5e836f61445b1c0761ae6a76,15:35:31,04/03/2024
2586.0,,,ospan,symmetry,SuAdtjUSOxRStrtwANhZizWi2Fa2,symmetry-judgement-task,119,1040305,0.0-43.0-4.0-1.0-1.0-0.0,,,,,,,,,,1.0,1.0,,,,5e836f61445b1c0761ae6a76,15:35:31,04/03/2024
,"<div style=""font-size: 10rem; color: #0000FF"">H</div>",,ospan,letter,SuAdtjUSOxRStrtwANhZizWi2Fa2,html-keyboard-response,120,1041315,0.0-43.0-4.0-1.0-1.0-1.0,,,,,,,,,,,,,,,5e836f61445b1c0761ae6a76,15:35:31,04/03/2024
2617.0,,,ospan,symmetry,SuAdtjUSOxRStrtwANhZizWi2Fa2,symmetry-judgement-task,121,1045809,0.0-43.0-4.0-1.0-1.0-2.0,,,,,,,,,,1.0,1.0,,,,5e836f61445b1c0761ae6a76,15:35:31,04/03/2024
,"<div style=""font-size: 10rem; color: #0000FF"">P</div>",,ospan,letter,SuAdtjUSOxRStrtwANhZizWi2Fa2,html-keyboard-response,122,1046818,0.0-43.0-4.0-1.0-1.0-3.0,,,,,,,,,,,,,,,5e836f61445b1c0761ae6a76,15:35:31,04/03/2024
1585.0,,,ospan,symmetry,SuAdtjUSOxRStrtwANhZizWi2Fa2,symmetry-judgement-task,123,1050295,0.0-43.0-4.0-1.0-1.0-4.0,,,,,,,,,,1.0,1.0,,,,5e836f61445b1c0761ae6a76,15:35:31,04/03/2024
,"<div style=""font-size: 10rem; color: #0000FF"">R</div>",,ospan,letter,SuAdtjUSOxRStrtwANhZizWi2Fa2,html-keyboard-response,124,1051305,0.0-43.0-4.0-1.0-1.0-5.0,,,,,,,,,,,,,,,5e836f61445b1c0761ae6a76,15:35:31,04/03/2024
3404.800000000745,"<div class = numbox><p style=""font-size: 2.4rem"">Please recall the letters you saw to the best of your ability. If you do not remember a particular letter, use the SKIP button.<br><b>(When you are ready to lock in your answer, press ENTER)</b></p><button id = button_1 class = ""square num-button"" onclick = ""recordClick(this)""><div class = content><div class = numbers>C</div></div></button><button id = button_2 class = ""square num-button"" onclick = ""recordClick(this)""><div class = content><div class = numbers>G</div></div></button><button id = button_3 class = ""square num-button"" onclick = ""recordClick(this)""><div class = content><div class = numbers>H</div></div></button><button id = button_4 class = ""square num-button"" onclick = ""recordClick(this)""><div class = content><div class = numbers>J</div></div></button><button id = button_5 class = ""square num-button"" onclick = ""recordClick(this)""><div class = content><div class = numbers>K</div></div></button><button id = button_6 class = ""square num-button"" onclick = ""recordClick(this)""><div class = content><div class = numbers>L</div></div></button><button id = button_7 class = ""square num-button"" onclick = ""recordClick(this)""><div class = content><div class = numbers>N</div></div></button><button id = button_8 class = ""square num-button"" onclick = ""recordClick(this)""><div class = content><div class = numbers>P</div></div></button><button id = button_9 class = ""square num-button"" onclick = ""recordClick(this)""><div class = content><div class = numbers>Q</div></div></button><button id = button_10 class = ""square num-button"" onclick = ""recordClick(this)""><div class = content><div class = numbers>R</div></div></button><button id = button_11 class = ""square num-button"" onclick = ""recordClick(this)""><div class = content><div class = numbers>S</div></div></button><button id = button_12 class = ""square num-button"" onclick = ""recordClick(this)""><div class = content><div class = numbers>Y</div></div></button><button class = clear_button id = ""ClearButton"" onclick = ""clearResponse()"">BACKSPACE</button><button class = blank_button id = ""BlankButton"" onclick = ""blankResponse()"">SKIP</button><p style=""font-size: 2.4rem""><u><b>Current Answer:</b></u></p><br><br><div id=echoed_txt style=""font-size: 5rem; color:blue;""><b></b></div></div>",enter,ospan,retrieval,SuAdtjUSOxRStrtwANhZizWi2Fa2,html-keyboard-response,125,1055469,0.0-43.0-4.0-1.0-2.0,10,10,10,3.0,"[""H"",""P"",""R""]","[""H"",""P"",""R""]",1.0,3.0,,,,,,,5e836f61445b1c0761ae6a76,15:35:31,04/03/2024
579.8999999985099,[''],0,ospan,feedback,SuAdtjUSOxRStrtwANhZizWi2Fa2,html-button-response,126,1056553,0.0-43.0-4.0-1.0-3.0,,,,,,,,,,,,100.0,0.0,,5e836f61445b1c0761ae6a76,15:35:31,04/03/2024
,"<p style=""font-size:75px;"">...</p>",,ospan,iti,SuAdtjUSOxRStrtwANhZizWi2Fa2,html-keyboard-response,127,1057554,0.0-43.0-4.0-2.0-0.0,,,,,,,,,,,,,,,5e836f61445b1c0761ae6a76,15:35:31,04/03/2024
1928.0,,,ospan,symmetry,SuAdtjUSOxRStrtwANhZizWi2Fa2,symmetry-judgement-task,128,1060507,0.0-43.0-4.0-2.0-1.0-0.0,,,,,,,,,,1.0,1.0,,,,5e836f61445b1c0761ae6a76,15:35:31,04/03/2024
,"<div style=""font-size: 10rem; color: #0000FF"">H</div>",,ospan,letter,SuAdtjUSOxRStrtwANhZizWi2Fa2,html-keyboard-response,129,1061522,0.0-43.0-4.0-2.0-1.0-1.0,,,,,,,,,,,,,,,5e836f61445b1c0761ae6a76,15:35:31,04/03/2024
1611.0,,,ospan,symmetry,SuAdtjUSOxRStrtwANhZizWi2Fa2,symmetry-judgement-task,130,1065007,0.0-43.0-4.0-2.0-1.0-2.0,,,,,,,,,,1.0,1.0,,,,5e836f61445b1c0761ae6a76,15:35:31,04/03/2024
,"<div style=""font-size: 10rem; color: #0000FF"">C</div>",,ospan,letter,SuAdtjUSOxRStrtwANhZizWi2Fa2,html-keyboard-response,131,1066012,0.0-43.0-4.0-2.0-1.0-3.0,,,,,,,,,,,,,,,5e836f61445b1c0761ae6a76,15:35:31,04/03/2024
1172.0,,,ospan,symmetry,SuAdtjUSOxRStrtwANhZizWi2Fa2,symmetry-judgement-task,132,1069063,0.0-43.0-4.0-2.0-1.0-4.0,,,,,,,,,,1.0,1.0,,,,5e836f61445b1c0761ae6a76,15:35:31,04/03/2024
,"<div style=""font-size: 10rem; color: #0000FF"">S</div>",,ospan,letter,SuAdtjUSOxRStrtwANhZizWi2Fa2,html-keyboard-response,133,1070066,0.0-43.0-4.0-2.0-1.0-5.0,,,,,,,,,,,,,,,5e836f61445b1c0761ae6a76,15:35:31,04/03/2024
2334.0,,,ospan,symmetry,SuAdtjUSOxRStrtwANhZizWi2Fa2,symmetry-judgement-task,134,1074289,0.0-43.0-4.0-2.0-1.0-6.0,,,,,,,,,,1.0,1.0,,,,5e836f61445b1c0761ae6a76,15:35:31,04/03/2024
,"<div style=""font-size: 10rem; color: #0000FF"">R</div>",,ospan,letter,SuAdtjUSOxRStrtwANhZizWi2Fa2,html-keyboard-response,135,1075293,0.0-43.0-4.0-2.0-1.0-7.0,,,,,,,,,,,,,,,5e836f61445b1c0761ae6a76,15:35:31,04/03/2024
1309.0,,,ospan,symmetry,SuAdtjUSOxRStrtwANhZizWi2Fa2,symmetry-judgement-task,136,1078486,0.0-43.0-4.0-2.0-1.0-8.0,,,,,,,,,,1.0,1.0,,,,5e836f61445b1c0761ae6a76,15:35:31,04/03/2024
,"<div style=""font-size: 10rem; color: #0000FF"">K</div>",,ospan,letter,SuAdtjUSOxRStrtwANhZizWi2Fa2,html-keyboard-response,137,1079495,0.0-43.0-4.0-2.0-1.0-9.0,,,,,,,,,,,,,,,5e836f61445b1c0761ae6a76,15:35:31,04/03/2024
6009.800000000745,"<div class = numbox><p style=""font-size: 2.4rem"">Please recall the letters you saw to the best of your ability. If you do not remember a particular letter, use the SKIP button.<br><b>(When you are ready to lock in your answer, press ENTER)</b></p><button id = button_1 class = ""square num-button"" onclick = ""recordClick(this)""><div class = content><div class = numbers>C</div></div></button><button id = button_2 class = ""square num-button"" onclick = ""recordClick(this)""><div class = content><div class = numbers>G</div></div></button><button id = button_3 class = ""square num-button"" onclick = ""recordClick(this)""><div class = content><div class = numbers>H</div></div></button><button id = button_4 class = ""square num-button"" onclick = ""recordClick(this)""><div class = content><div class = numbers>J</div></div></button><button id = button_5 class = ""square num-button"" onclick = ""recordClick(this)""><div class = content><div class = numbers>K</div></div></button><button id = button_6 class = ""square num-button"" onclick = ""recordClick(this)""><div class = content><div class = numbers>L</div></div></button><button id = button_7 class = ""square num-button"" onclick = ""recordClick(this)""><div class = content><div class = numbers>N</div></div></button><button id = button_8 class = ""square num-button"" onclick = ""recordClick(this)""><div class = content><div class = numbers>P</div></div></button><button id = button_9 class = ""square num-button"" onclick = ""recordClick(this)""><div class = content><div class = numbers>Q</div></div></button><button id = button_10 class = ""square num-button"" onclick = ""recordClick(this)""><div class = content><div class = numbers>R</div></div></button><button id = button_11 class = ""square num-button"" onclick = ""recordClick(this)""><div class = content><div class = numbers>S</div></div></button><button id = button_12 class = ""square num-button"" onclick = ""recordClick(this)""><div class = content><div class = numbers>Y</div></div></button><button class = clear_button id = ""ClearButton"" onclick = ""clearResponse()"">BACKSPACE</button><button class = blank_button id = ""BlankButton"" onclick = ""blankResponse()"">SKIP</button><p style=""font-size: 2.4rem""><u><b>Current Answer:</b></u></p><br><br><div id=echoed_txt style=""font-size: 5rem; color:blue;""><b></b></div></div>",enter,ospan,retrieval,SuAdtjUSOxRStrtwANhZizWi2Fa2,html-keyboard-response,138,1086257,0.0-43.0-4.0-2.0-2.0,15,15,15,5.0,"[""H"",""C"",""S"",""R"",""K""]","[""H"",""C"",""S"",""R"",""K""]",1.0,5.0,,,,,,,5e836f61445b1c0761ae6a76,15:35:31,04/03/2024
4970.800000000745,[''],0,ospan,feedback,SuAdtjUSOxRStrtwANhZizWi2Fa2,html-button-response,139,1091741,0.0-43.0-4.0-2.0-3.0,,,,,,,,,,,,100.0,0.0,,5e836f61445b1c0761ae6a76,15:35:31,04/03/2024
,"<p style=""font-size:75px;"">...</p>",,ospan,iti,SuAdtjUSOxRStrtwANhZizWi2Fa2,html-keyboard-response,140,1092747,0.0-43.0-5.0-0.0-0.0,,,,,,,,,,,,,,,5e836f61445b1c0761ae6a76,15:35:31,04/03/2024
1601.0,,,ospan,symmetry,SuAdtjUSOxRStrtwANhZizWi2Fa2,symmetry-judgement-task,141,1095380,0.0-43.0-5.0-0.0-1.0-0.0,,,,,,,,,,1.0,1.0,,,,5e836f61445b1c0761ae6a76,15:35:31,04/03/2024
,"<div style=""font-size: 10rem; color: #0000FF"">Y</div>",,ospan,letter,SuAdtjUSOxRStrtwANhZizWi2Fa2,html-keyboard-response,142,1096385,0.0-43.0-5.0-0.0-1.0-1.0,,,,,,,,,,,,,,,5e836f61445b1c0761ae6a76,15:35:31,04/03/2024
2068.0,,,ospan,symmetry,SuAdtjUSOxRStrtwANhZizWi2Fa2,symmetry-judgement-task,143,1100333,0.0-43.0-5.0-0.0-1.0-2.0,,,,,,,,,,1.0,1.0,,,,5e836f61445b1c0761ae6a76,15:35:31,04/03/2024
,"<div style=""font-size: 10rem; color: #0000FF"">P</div>",,ospan,letter,SuAdtjUSOxRStrtwANhZizWi2Fa2,html-keyboard-response,144,1101338,0.0-43.0-5.0-0.0-1.0-3.0,,,,,,,,,,,,,,,5e836f61445b1c0761ae6a76,15:35:31,04/03/2024
1753.0,,,ospan,symmetry,SuAdtjUSOxRStrtwANhZizWi2Fa2,symmetry-judgement-task,145,1104967,0.0-43.0-5.0-0.0-1.0-4.0,,,,,,,,,,1.0,1.0,,,,5e836f61445b1c0761ae6a76,15:35:31,04/03/2024
,"<div style=""font-size: 10rem; color: #0000FF"">N</div>",,ospan,letter,SuAdtjUSOxRStrtwANhZizWi2Fa2,html-keyboard-response,146,1105969,0.0-43.0-5.0-0.0-1.0-5.0,,,,,,,,,,,,,,,5e836f61445b1c0761ae6a76,15:35:31,04/03/2024
1514.0,,,ospan,symmetry,SuAdtjUSOxRStrtwANhZizWi2Fa2,symmetry-judgement-task,147,1109351,0.0-43.0-5.0-0.0-1.0-6.0,,,,,,,,,,1.0,1.0,,,,5e836f61445b1c0761ae6a76,15:35:31,04/03/2024
,"<div style=""font-size: 10rem; color: #0000FF"">J</div>",,ospan,letter,SuAdtjUSOxRStrtwANhZizWi2Fa2,html-keyboard-response,148,1110356,0.0-43.0-5.0-0.0-1.0-7.0,,,,,,,,,,,,,,,5e836f61445b1c0761ae6a76,15:35:31,04/03/2024
2480.0,,,ospan,symmetry,SuAdtjUSOxRStrtwANhZizWi2Fa2,symmetry-judgement-task,149,1114718,0.0-43.0-5.0-0.0-1.0-8.0,,,,,,,,,,1.0,1.0,,,,5e836f61445b1c0761ae6a76,15:35:31,04/03/2024
,"<div style=""font-size: 10rem; color: #0000FF"">L</div>",,ospan,letter,SuAdtjUSOxRStrtwANhZizWi2Fa2,html-keyboard-response,150,1115719,0.0-43.0-5.0-0.0-1.0-9.0,,,,,,,,,,,,,,,5e836f61445b1c0761ae6a76,15:35:31,04/03/2024
2585.0,,,ospan,symmetry,SuAdtjUSOxRStrtwANhZizWi2Fa2,symmetry-judgement-task,151,1120174,0.0-43.0-5.0-0.0-1.0-10.0,,,,,,,,,,1.0,1.0,,,,5e836f61445b1c0761ae6a76,15:35:31,04/03/2024
,"<div style=""font-size: 10rem; color: #0000FF"">G</div>",,ospan,letter,SuAdtjUSOxRStrtwANhZizWi2Fa2,html-keyboard-response,152,1121180,0.0-43.0-5.0-0.0-1.0-11.0,,,,,,,,,,,,,,,5e836f61445b1c0761ae6a76,15:35:31,04/03/2024
9472.800000000745,"<div class = numbox><p style=""font-size: 2.4rem"">Please recall the letters you saw to the best of your ability. If you do not remember a particular letter, use the SKIP button.<br><b>(When you are ready to lock in your answer, press ENTER)</b></p><button id = button_1 class = ""square num-button"" onclick = ""recordClick(this)""><div class = content><div class = numbers>C</div></div></button><button id = button_2 class = ""square num-button"" onclick = ""recordClick(this)""><div class = content><div class = numbers>G</div></div></button><button id = button_3 class = ""square num-button"" onclick = ""recordClick(this)""><div class = content><div class = numbers>H</div></div></button><button id = button_4 class = ""square num-button"" onclick = ""recordClick(this)""><div class = content><div class = numbers>J</div></div></button><button id = button_5 class = ""square num-button"" onclick = ""recordClick(this)""><div class = content><div class = numbers>K</div></div></button><button id = button_6 class = ""square num-button"" onclick = ""recordClick(this)""><div class = content><div class = numbers>L</div></div></button><button id = button_7 class = ""square num-button"" onclick = ""recordClick(this)""><div class = content><div class = numbers>N</div></div></button><button id = button_8 class = ""square num-button"" onclick = ""recordClick(this)""><div class = content><div class = numbers>P</div></div></button><button id = button_9 class = ""square num-button"" onclick = ""recordClick(this)""><div class = content><div class = numbers>Q</div></div></button><button id = button_10 class = ""square num-button"" onclick = ""recordClick(this)""><div class = content><div class = numbers>R</div></div></button><button id = button_11 class = ""square num-button"" onclick = ""recordClick(this)""><div class = content><div class = numbers>S</div></div></button><button id = button_12 class = ""square num-button"" onclick = ""recordClick(this)""><div class = content><div class = numbers>Y</div></div></button><button class = clear_button id = ""ClearButton"" onclick = ""clearResponse()"">BACKSPACE</button><button class = blank_button id = ""BlankButton"" onclick = ""blankResponse()"">SKIP</button><p style=""font-size: 2.4rem""><u><b>Current Answer:</b></u></p><br><br><div id=echoed_txt style=""font-size: 5rem; color:blue;""><b></b></div></div>",enter,ospan,retrieval,SuAdtjUSOxRStrtwANhZizWi2Fa2,html-keyboard-response,153,1131410,0.0-43.0-5.0-0.0-2.0,21,21,21,6.0,"[""Y"",""P"",""N"",""J"",""L"",""G""]","[""Y"",""P"",""N"",""J"",""L"",""G""]",1.0,6.0,,,,,,,5e836f61445b1c0761ae6a76,15:35:31,04/03/2024
1551.199999999255,[''],0,ospan,feedback,SuAdtjUSOxRStrtwANhZizWi2Fa2,html-button-response,154,1133474,0.0-43.0-5.0-0.0-3.0,,,,,,,,,,,,100.0,0.0,,5e836f61445b1c0761ae6a76,15:35:31,04/03/2024
,"<p style=""font-size:75px;"">...</p>",,ospan,iti,SuAdtjUSOxRStrtwANhZizWi2Fa2,html-keyboard-response,155,1134478,0.0-43.0-5.0-1.0-0.0,,,,,,,,,,,,,,,5e836f61445b1c0761ae6a76,15:35:31,04/03/2024
2464.0,,,ospan,symmetry,SuAdtjUSOxRStrtwANhZizWi2Fa2,symmetry-judgement-task,156,1137981,0.0-43.0-5.0-1.0-1.0-0.0,,,,,,,,,,1.0,1.0,,,,5e836f61445b1c0761ae6a76,15:35:31,04/03/2024
,"<div style=""font-size: 10rem; color: #0000FF"">Y</div>",,ospan,letter,SuAdtjUSOxRStrtwANhZizWi2Fa2,html-keyboard-response,157,1138991,0.0-43.0-5.0-1.0-1.0-1.0,,,,,,,,,,,,,,,5e836f61445b1c0761ae6a76,15:35:31,04/03/2024
1333.0,,,ospan,symmetry,SuAdtjUSOxRStrtwANhZizWi2Fa2,symmetry-judgement-task,158,1142194,0.0-43.0-5.0-1.0-1.0-2.0,,,,,,,,,,1.0,1.0,,,,5e836f61445b1c0761ae6a76,15:35:31,04/03/2024
,"<div style=""font-size: 10rem; color: #0000FF"">J</div>",,ospan,letter,SuAdtjUSOxRStrtwANhZizWi2Fa2,html-keyboard-response,159,1143199,0.0-43.0-5.0-1.0-1.0-3.0,,,,,,,,,,,,,,,5e836f61445b1c0761ae6a76,15:35:31,04/03/2024
2209.0,,,ospan,symmetry,SuAdtjUSOxRStrtwANhZizWi2Fa2,symmetry-judgement-task,160,1147289,0.0-43.0-5.0-1.0-1.0-4.0,,,,,,,,,,1.0,1.0,,,,5e836f61445b1c0761ae6a76,15:35:31,04/03/2024
,"<div style=""font-size: 10rem; color: #0000FF"">P</div>",,ospan,letter,SuAdtjUSOxRStrtwANhZizWi2Fa2,html-keyboard-response,161,1148294,0.0-43.0-5.0-1.0-1.0-5.0,,,,,,,,,,,,,,,5e836f61445b1c0761ae6a76,15:35:31,04/03/2024
1223.0,,,ospan,symmetry,SuAdtjUSOxRStrtwANhZizWi2Fa2,symmetry-judgement-task,162,1151410,0.0-43.0-5.0-1.0-1.0-6.0,,,,,,,,,,1.0,1.0,,,,5e836f61445b1c0761ae6a76,15:35:31,04/03/2024
,"<div style=""font-size: 10rem; color: #0000FF"">G</div>",,ospan,letter,SuAdtjUSOxRStrtwANhZizWi2Fa2,html-keyboard-response,163,1152416,0.0-43.0-5.0-1.0-1.0-7.0,,,,,,,,,,,,,,,5e836f61445b1c0761ae6a76,15:35:31,04/03/2024
2047.0,,,ospan,symmetry,SuAdtjUSOxRStrtwANhZizWi2Fa2,symmetry-judgement-task,164,1156329,0.0-43.0-5.0-1.0-1.0-8.0,,,,,,,,,,1.0,1.0,,,,5e836f61445b1c0761ae6a76,15:35:31,04/03/2024
,"<div style=""font-size: 10rem; color: #0000FF"">Q</div>",,ospan,letter,SuAdtjUSOxRStrtwANhZizWi2Fa2,html-keyboard-response,165,1157330,0.0-43.0-5.0-1.0-1.0-9.0,,,,,,,,,,,,,,,5e836f61445b1c0761ae6a76,15:35:31,04/03/2024
1725.0,,,ospan,symmetry,SuAdtjUSOxRStrtwANhZizWi2Fa2,symmetry-judgement-task,166,1160932,0.0-43.0-5.0-1.0-1.0-10.0,,,,,,,,,,1.0,1.0,,,,5e836f61445b1c0761ae6a76,15:35:31,04/03/2024
,"<div style=""font-size: 10rem; color: #0000FF"">C</div>",,ospan,letter,SuAdtjUSOxRStrtwANhZizWi2Fa2,html-keyboard-response,167,1161936,0.0-43.0-5.0-1.0-1.0-11.0,,,,,,,,,,,,,,,5e836f61445b1c0761ae6a76,15:35:31,04/03/2024
1406.0,,,ospan,symmetry,SuAdtjUSOxRStrtwANhZizWi2Fa2,symmetry-judgement-task,168,1165230,0.0-43.0-5.0-1.0-1.0-12.0,,,,,,,,,,1.0,1.0,,,,5e836f61445b1c0761ae6a76,15:35:31,04/03/2024
,"<div style=""font-size: 10rem; color: #0000FF"">S</div>",,ospan,letter,SuAdtjUSOxRStrtwANhZizWi2Fa2,html-keyboard-response,169,1166238,0.0-43.0-5.0-1.0-1.0-13.0,,,,,,,,,,,,,,,5e836f61445b1c0761ae6a76,15:35:31,04/03/2024
7680.60000000149,"<div class = numbox><p style=""font-size: 2.4rem"">Please recall the letters you saw to the best of your ability. If you do not remember a particular letter, use the SKIP button.<br><b>(When you are ready to lock in your answer, press ENTER)</b></p><button id = button_1 class = ""square num-button"" onclick = ""recordClick(this)""><div class = content><div class = numbers>C</div></div></button><button id = button_2 class = ""square num-button"" onclick = ""recordClick(this)""><div class = content><div class = numbers>G</div></div></button><button id = button_3 class = ""square num-button"" onclick = ""recordClick(this)""><div class = content><div class = numbers>H</div></div></button><button id = button_4 class = ""square num-button"" onclick = ""recordClick(this)""><div class = content><div class = numbers>J</div></div></button><button id = button_5 class = ""square num-button"" onclick = ""recordClick(this)""><div class = content><div class = numbers>K</div></div></button><button id = button_6 class = ""square num-button"" onclick = ""recordClick(this)""><div class = content><div class = numbers>L</div></div></button><button id = button_7 class = ""square num-button"" onclick = ""recordClick(this)""><div class = content><div class = numbers>N</div></div></button><button id = button_8 class = ""square num-button"" onclick = ""recordClick(this)""><div class = content><div class = numbers>P</div></div></button><button id = button_9 class = ""square num-button"" onclick = ""recordClick(this)""><div class = content><div class = numbers>Q</div></div></button><button id = button_10 class = ""square num-button"" onclick = ""recordClick(this)""><div class = content><div class = numbers>R</div></div></button><button id = button_11 class = ""square num-button"" onclick = ""recordClick(this)""><div class = content><div class = numbers>S</div></div></button><button id = button_12 class = ""square num-button"" onclick = ""recordClick(this)""><div class = content><div class = numbers>Y</div></div></button><button class = clear_button id = ""ClearButton"" onclick = ""clearResponse()"">BACKSPACE</button><button class = blank_button id = ""BlankButton"" onclick = ""blankResponse()"">SKIP</button><p style=""font-size: 2.4rem""><u><b>Current Answer:</b></u></p><br><br><div id=echoed_txt style=""font-size: 5rem; color:blue;""><b></b></div></div>",enter,ospan,retrieval,SuAdtjUSOxRStrtwANhZizWi2Fa2,html-keyboard-response,170,1174671,0.0-43.0-5.0-1.0-2.0,28,28,28,7.0,"[""Y"",""J"",""P"",""G"",""Q"",""C"",""S""]","[""Y"",""J"",""P"",""G"",""Q"",""C"",""S""]",1.0,7.0,,,,,,,5e836f61445b1c0761ae6a76,15:35:31,04/03/2024
6540.699999999255,[''],0,ospan,feedback,SuAdtjUSOxRStrtwANhZizWi2Fa2,html-button-response,171,1181728,0.0-43.0-5.0-1.0-3.0,,,,,,,,,,,,100.0,0.0,,5e836f61445b1c0761ae6a76,15:35:31,04/03/2024
,"<p style=""font-size:75px;"">...</p>",,ospan,iti,SuAdtjUSOxRStrtwANhZizWi2Fa2,html-keyboard-response,172,1182745,0.0-43.0-6.0-0.0-0.0,,,,,,,,,,,,,,,5e836f61445b1c0761ae6a76,15:35:31,04/03/2024
2264.0,,,ospan,symmetry,SuAdtjUSOxRStrtwANhZizWi2Fa2,symmetry-judgement-task,173,1186043,0.0-43.0-6.0-0.0-1.0-0.0,,,,,,,,,,1.0,1.0,,,,5e836f61445b1c0761ae6a76,15:35:31,04/03/2024
,"<div style=""font-size: 10rem; color: #0000FF"">N</div>",,ospan,letter,SuAdtjUSOxRStrtwANhZizWi2Fa2,html-keyboard-response,174,1187046,0.0-43.0-6.0-0.0-1.0-1.0,,,,,,,,,,,,,,,5e836f61445b1c0761ae6a76,15:35:31,04/03/2024
2436.0,,,ospan,symmetry,SuAdtjUSOxRStrtwANhZizWi2Fa2,symmetry-judgement-task,175,1191371,0.0-43.0-6.0-0.0-1.0-2.0,,,,,,,,,,1.0,1.0,,,,5e836f61445b1c0761ae6a76,15:35:31,04/03/2024
,"<div style=""font-size: 10rem; color: #0000FF"">P</div>",,ospan,letter,SuAdtjUSOxRStrtwANhZizWi2Fa2,html-keyboard-response,176,1192381,0.0-43.0-6.0-0.0-1.0-3.0,,,,,,,,,,,,,,,5e836f61445b1c0761ae6a76,15:35:31,04/03/2024
2188.0,,,ospan,symmetry,SuAdtjUSOxRStrtwANhZizWi2Fa2,symmetry-judgement-task,177,1196446,0.0-43.0-6.0-0.0-1.0-4.0,,,,,,,,,,1.0,1.0,,,,5e836f61445b1c0761ae6a76,15:35:31,04/03/2024
,"<div style=""font-size: 10rem; color: #0000FF"">L</div>",,ospan,letter,SuAdtjUSOxRStrtwANhZizWi2Fa2,html-keyboard-response,178,1197452,0.0-43.0-6.0-0.0-1.0-5.0,,,,,,,,,,,,,,,5e836f61445b1c0761ae6a76,15:35:31,04/03/2024
2556.0,,,ospan,symmetry,SuAdtjUSOxRStrtwANhZizWi2Fa2,symmetry-judgement-task,179,1201897,0.0-43.0-6.0-0.0-1.0-6.0,,,,,,,,,,1.0,1.0,,,,5e836f61445b1c0761ae6a76,15:35:31,04/03/2024
,"<div style=""font-size: 10rem; color: #0000FF"">Q</div>",,ospan,letter,SuAdtjUSOxRStrtwANhZizWi2Fa2,html-keyboard-response,180,1202900,0.0-43.0-6.0-0.0-1.0-7.0,,,,,,,,,,,,,,,5e836f61445b1c0761ae6a76,15:35:31,04/03/2024
2388.0,,,ospan,symmetry,SuAdtjUSOxRStrtwANhZizWi2Fa2,symmetry-judgement-task,181,1207195,0.0-43.0-6.0-0.0-1.0-8.0,,,,,,,,,,1.0,1.0,,,,5e836f61445b1c0761ae6a76,15:35:31,04/03/2024
,"<div style=""font-size: 10rem; color: #0000FF"">S</div>",,ospan,letter,SuAdtjUSOxRStrtwANhZizWi2Fa2,html-keyboard-response,182,1208199,0.0-43.0-6.0-0.0-1.0-9.0,,,,,,,,,,,,,,,5e836f61445b1c0761ae6a76,15:35:31,04/03/2024
5655.5,"<div class = numbox><p style=""font-size: 2.4rem"">Please recall the letters you saw to the best of your ability. If you do not remember a particular letter, use the SKIP button.<br><b>(When you are ready to lock in your answer, press ENTER)</b></p><button id = button_1 class = ""square num-button"" onclick = ""recordClick(this)""><div class = content><div class = numbers>C</div></div></button><button id = button_2 class = ""square num-button"" onclick = ""recordClick(this)""><div class = content><div class = numbers>G</div></div></button><button id = button_3 class = ""square num-button"" onclick = ""recordClick(this)""><div class = content><div class = numbers>H</div></div></button><button id = button_4 class = ""square num-button"" onclick = ""recordClick(this)""><div class = content><div class = numbers>J</div></div></button><button id = button_5 class = ""square num-button"" onclick = ""recordClick(this)""><div class = content><div class = numbers>K</div></div></button><button id = button_6 class = ""square num-button"" onclick = ""recordClick(this)""><div class = content><div class = numbers>L</div></div></button><button id = button_7 class = ""square num-button"" onclick = ""recordClick(this)""><div class = content><div class = numbers>N</div></div></button><button id = button_8 class = ""square num-button"" onclick = ""recordClick(this)""><div class = content><div class = numbers>P</div></div></button><button id = button_9 class = ""square num-button"" onclick = ""recordClick(this)""><div class = content><div class = numbers>Q</div></div></button><button id = button_10 class = ""square num-button"" onclick = ""recordClick(this)""><div class = content><div class = numbers>R</div></div></button><button id = button_11 class = ""square num-button"" onclick = ""recordClick(this)""><div class = content><div class = numbers>S</div></div></button><button id = button_12 class = ""square num-button"" onclick = ""recordClick(this)""><div class = content><div class = numbers>Y</div></div></button><button class = clear_button id = ""ClearButton"" onclick = ""clearResponse()"">BACKSPACE</button><button class = blank_button id = ""BlankButton"" onclick = ""blankResponse()"">SKIP</button><p style=""font-size: 2.4rem""><u><b>Current Answer:</b></u></p><br><br><div id=echoed_txt style=""font-size: 5rem; color:blue;""><b></b></div></div>",enter,ospan,retrieval,SuAdtjUSOxRStrtwANhZizWi2Fa2,html-keyboard-response,183,1214605,0.0-43.0-6.0-0.0-2.0,33,28,28,5.0,"[""Y"",""N"",""P"",""L"",""Q"",""S""]","[""N"",""P"",""L"",""Q"",""S""]",0.0,0.0,,,,,,,5e836f61445b1c0761ae6a76,15:35:31,04/03/2024
706.7999999970198,[''],0,ospan,feedback,SuAdtjUSOxRStrtwANhZizWi2Fa2,html-button-response,184,1215813,0.0-43.0-6.0-0.0-3.0,,,,,,,,,,,,100.0,0.0,,5e836f61445b1c0761ae6a76,15:35:31,04/03/2024
,"<p style=""font-size:75px;"">...</p>",,ospan,iti,SuAdtjUSOxRStrtwANhZizWi2Fa2,html-keyboard-response,185,1216818,0.0-43.0-6.0-1.0-0.0,,,,,,,,,,,,,,,5e836f61445b1c0761ae6a76,15:35:31,04/03/2024
2471.0,,,ospan,symmetry,SuAdtjUSOxRStrtwANhZizWi2Fa2,symmetry-judgement-task,186,1220322,0.0-43.0-6.0-1.0-1.0-0.0,,,,,,,,,,1.0,1.0,,,,5e836f61445b1c0761ae6a76,15:35:31,04/03/2024
,"<div style=""font-size: 10rem; color: #0000FF"">L</div>",,ospan,letter,SuAdtjUSOxRStrtwANhZizWi2Fa2,html-keyboard-response,187,1221330,0.0-43.0-6.0-1.0-1.0-1.0,,,,,,,,,,,,,,,5e836f61445b1c0761ae6a76,15:35:31,04/03/2024
1146.0,,,ospan,symmetry,SuAdtjUSOxRStrtwANhZizWi2Fa2,symmetry-judgement-task,188,1224352,0.0-43.0-6.0-1.0-1.0-2.0,,,,,,,,,,1.0,1.0,,,,5e836f61445b1c0761ae6a76,15:35:31,04/03/2024
,"<div style=""font-size: 10rem; color: #0000FF"">Y</div>",,ospan,letter,SuAdtjUSOxRStrtwANhZizWi2Fa2,html-keyboard-response,189,1225357,0.0-43.0-6.0-1.0-1.0-3.0,,,,,,,,,,,,,,,5e836f61445b1c0761ae6a76,15:35:31,04/03/2024
1238.0,,,ospan,symmetry,SuAdtjUSOxRStrtwANhZizWi2Fa2,symmetry-judgement-task,190,1228470,0.0-43.0-6.0-1.0-1.0-4.0,,,,,,,,,,1.0,1.0,,,,5e836f61445b1c0761ae6a76,15:35:31,04/03/2024
,"<div style=""font-size: 10rem; color: #0000FF"">S</div>",,ospan,letter,SuAdtjUSOxRStrtwANhZizWi2Fa2,html-keyboard-response,191,1229479,0.0-43.0-6.0-1.0-1.0-5.0,,,,,,,,,,,,,,,5e836f61445b1c0761ae6a76,15:35:31,04/03/2024
1811.0,,,ospan,symmetry,SuAdtjUSOxRStrtwANhZizWi2Fa2,symmetry-judgement-task,192,1233160,0.0-43.0-6.0-1.0-1.0-6.0,,,,,,,,,,1.0,1.0,,,,5e836f61445b1c0761ae6a76,15:35:31,04/03/2024
,"<div style=""font-size: 10rem; color: #0000FF"">K</div>",,ospan,letter,SuAdtjUSOxRStrtwANhZizWi2Fa2,html-keyboard-response,193,1234164,0.0-43.0-6.0-1.0-1.0-7.0,,,,,,,,,,,,,,,5e836f61445b1c0761ae6a76,15:35:31,04/03/2024
1797.0,,,ospan,symmetry,SuAdtjUSOxRStrtwANhZizWi2Fa2,symmetry-judgement-task,194,1237829,0.0-43.0-6.0-1.0-1.0-8.0,,,,,,,,,,1.0,1.0,,,,5e836f61445b1c0761ae6a76,15:35:31,04/03/2024
,"<div style=""font-size: 10rem; color: #0000FF"">J</div>",,ospan,letter,SuAdtjUSOxRStrtwANhZizWi2Fa2,html-keyboard-response,195,1238839,0.0-43.0-6.0-1.0-1.0-9.0,,,,,,,,,,,,,,,5e836f61445b1c0761ae6a76,15:35:31,04/03/2024
1057.0,,,ospan,symmetry,SuAdtjUSOxRStrtwANhZizWi2Fa2,symmetry-judgement-task,196,1241775,0.0-43.0-6.0-1.0-1.0-10.0,,,,,,,,,,1.0,1.0,,,,5e836f61445b1c0761ae6a76,15:35:31,04/03/2024
,"<div style=""font-size: 10rem; color: #0000FF"">P</div>",,ospan,letter,SuAdtjUSOxRStrtwANhZizWi2Fa2,html-keyboard-response,197,1242778,0.0-43.0-6.0-1.0-1.0-11.0,,,,,,,,,,,,,,,5e836f61445b1c0761ae6a76,15:35:31,04/03/2024
1770.0,,,ospan,symmetry,SuAdtjUSOxRStrtwANhZizWi2Fa2,symmetry-judgement-task,198,1246424,0.0-43.0-6.0-1.0-1.0-12.0,,,,,,,,,,1.0,1.0,,,,5e836f61445b1c0761ae6a76,15:35:31,04/03/2024
,"<div style=""font-size: 10rem; color: #0000FF"">C</div>",,ospan,letter,SuAdtjUSOxRStrtwANhZizWi2Fa2,html-keyboard-response,199,1247433,0.0-43.0-6.0-1.0-1.0-13.0,,,,,,,,,,,,,,,5e836f61445b1c0761ae6a76,15:35:31,04/03/2024
1775.0,,,ospan,symmetry,SuAdtjUSOxRStrtwANhZizWi2Fa2,symmetry-judgement-task,200,1251086,0.0-43.0-6.0-1.0-1.0-14.0,,,,,,,,,,1.0,1.0,,,,5e836f61445b1c0761ae6a76,15:35:31,04/03/2024
,"<div style=""font-size: 10rem; color: #0000FF"">N</div>",,ospan,letter,SuAdtjUSOxRStrtwANhZizWi2Fa2,html-keyboard-response,201,1252092,0.0-43.0-6.0-1.0-1.0-15.0,,,,,,,,,,,,,,,5e836f61445b1c0761ae6a76,15:35:31,04/03/2024
26977.300000000745,"<div class = numbox><p style=""font-size: 2.4rem"">Please recall the letters you saw to the best of your ability. If you do not remember a particular letter, use the SKIP button.<br><b>(When you are ready to lock in your answer, press ENTER)</b></p><button id = button_1 class = ""square num-button"" onclick = ""recordClick(this)""><div class = content><div class = numbers>C</div></div></button><button id = button_2 class = ""square num-button"" onclick = ""recordClick(this)""><div class = content><div class = numbers>G</div></div></button><button id = button_3 class = ""square num-button"" onclick = ""recordClick(this)""><div class = content><div class = numbers>H</div></div></button><button id = button_4 class = ""square num-button"" onclick = ""recordClick(this)""><div class = content><div class = numbers>J</div></div></button><button id = button_5 class = ""square num-button"" onclick = ""recordClick(this)""><div class = content><div class = numbers>K</div></div></button><button id = button_6 class = ""square num-button"" onclick = ""recordClick(this)""><div class = content><div class = numbers>L</div></div></button><button id = button_7 class = ""square num-button"" onclick = ""recordClick(this)""><div class = content><div class = numbers>N</div></div></button><button id = button_8 class = ""square num-button"" onclick = ""recordClick(this)""><div class = content><div class = numbers>P</div></div></button><button id = button_9 class = ""square num-button"" onclick = ""recordClick(this)""><div class = content><div class = numbers>Q</div></div></button><button id = button_10 class = ""square num-button"" onclick = ""recordClick(this)""><div class = content><div class = numbers>R</div></div></button><button id = button_11 class = ""square num-button"" onclick = ""recordClick(this)""><div class = content><div class = numbers>S</div></div></button><button id = button_12 class = ""square num-button"" onclick = ""recordClick(this)""><div class = content><div class = numbers>Y</div></div></button><button class = clear_button id = ""ClearButton"" onclick = ""clearResponse()"">BACKSPACE</button><button class = blank_button id = ""BlankButton"" onclick = ""blankResponse()"">SKIP</button><p style=""font-size: 2.4rem""><u><b>Current Answer:</b></u></p><br><br><div id=echoed_txt style=""font-size: 5rem; color:blue;""><b></b></div></div>",enter,ospan,retrieval,SuAdtjUSOxRStrtwANhZizWi2Fa2,html-keyboard-response,202,1279828,0.0-43.0-6.0-1.0-2.0,41,28,28,8.0,"[""Y"",""L"",""Y"",""S"",""K"",""J"",""P"",""L"",""C""]","[""L"",""Y"",""S"",""K"",""J"",""P"",""C"",""N""]",0.0,0.0,,,,,,,5e836f61445b1c0761ae6a76,15:35:31,04/03/2024
683.5999999977648,[''],0,ospan,feedback,SuAdtjUSOxRStrtwANhZizWi2Fa2,html-button-response,203,1281021,0.0-43.0-6.0-1.0-3.0,,,,,,,,,,,,100.0,0.0,,5e836f61445b1c0761ae6a76,15:35:31,04/03/2024
94425.0,,"{'Q0': 'Very challenging and very rewarding. I feel very good after forcing my brain to do something like that, nice experience. I think instructions were a bit unclear at first but then they became ease to understand.'}",ospan,survey,SuAdtjUSOxRStrtwANhZizWi2Fa2,lmdlab-survey-text,204,1376212,0.0-43.0-7.0,,,,,,,,,,,,,,SuAdtjUSOxRStrtwANhZizWi2Fa2,5e836f61445b1c0761ae6a76,15:35:31,04/03/2024
1918.7000000029802,<p><p style='font-size: 3rem'>Great work!<br><br>This completes the symmetry and memory task.</p><br><br><br>,0,ospan,finish,SuAdtjUSOxRStrtwANhZizWi2Fa2,html-button-response,205,1378133,0.0-43.0-8.0,41,28,28,,,,,,,,,100.0,,,5e836f61445b1c0761ae6a76,15:35:31,04/03/2024
