rt,stimulus,response,exp_name,exp_stage,subjectID,trial_type,trial_index,time_elapsed,internal_node_id,ospan_shown,ospan_total,ospan_abs,length,resp_actual,resp_correct,full_correct,num_correct,feedback,accuracy,correct,math_acc,math_warning,databaseID,prolificID,start_time,date
2560.5,<div class = 'left_align' style='font-size: 3.25rem; line-height: 1.3;'><p class = 'center_align'><b>Welcome to the Symmetry and Memory Task</b><br><br><br><br></p>Press 'continue' to show the instructions.<br><br><br><br></div>,0,ospan,instruct,TWWqV8AuEXVRIggwsQLL4sb3Qvo1,html-button-response,54,478978,0.0-46.0-0.0-0.0-0.0,,,,,,,,,,,,,,,5d21d969adb5ab00159cd083,22:42:47,03/04/2024
7940.20000000298,"<div class = 'left_align' style='font-size: 3.25rem; line-height: 1.3;'><p class = 'center_align'><b>Symmetry and Memory Task</b><br><br></p>In this task, you will try to memorize letters you see on the screen<br>while you also view black and white grid pictures.<br><br>In the next few minutes, you will have some practice to get you familiar<br>with how the task works.<br><br>It may be difficult sometimes, but please do not worry about making mistakes!<br><br>We will begin by practicing the letter part of the task.<br><br><br><br></div>",0,ospan,instruct,TWWqV8AuEXVRIggwsQLL4sb3Qvo1,html-button-response,55,487177,0.0-46.0-0.0-0.0-1.0,,,,,,,,,,,,,,,5d21d969adb5ab00159cd083,22:42:47,03/04/2024
17437.20000000298,"<div class = 'left_align' style='font-size: 3.25rem; line-height: 1.3;'>For this practice part, letters will appear on the screen one at a time.<br><br>Try to remember each letter in the order presented.<br><br>After some letters have been shown, you will see a response screen. Your<br>goal is to report the letters you saw <b>in order</b>. If you do not remember<br>a particular letter, you will have the option to leave it blank.<br><br><br><br></div>",0,ospan,instruct,TWWqV8AuEXVRIggwsQLL4sb3Qvo1,html-button-response,56,504874,0.0-46.0-0.0-0.0-2.0,,,,,,,,,,,,,,,5d21d969adb5ab00159cd083,22:42:47,03/04/2024
2979.0999999940395,"<div class = 'left_align' style='font-size: 3.25rem; line-height: 1.3;'>Remember, it is very important to get the letters in the same<br>order as you see them.<br><br>When you are ready, you may begin the letter practice.</div><br><br><br><br>",0,ospan,instruct,TWWqV8AuEXVRIggwsQLL4sb3Qvo1,html-button-response,57,508106,0.0-46.0-0.0-0.0-3.0,,,,,,,,,,,,,,,5d21d969adb5ab00159cd083,22:42:47,03/04/2024
,"<p style=""font-size:75px;"">...</p>",,ospan,iti,TWWqV8AuEXVRIggwsQLL4sb3Qvo1,html-keyboard-response,58,509369,0.0-46.0-0.0-1.0-0.0,,,,,,,,,,,,,,,5d21d969adb5ab00159cd083,22:42:47,03/04/2024
,"<div style=""font-size: 10rem; color: #0000FF"">H</div>",,ospan,letter,TWWqV8AuEXVRIggwsQLL4sb3Qvo1,html-keyboard-response,59,510378,0.0-46.0-0.0-1.0-1.0,,,,,,,,,,,,,,,5d21d969adb5ab00159cd083,22:42:47,03/04/2024
,"<div style=""font-size: 10rem; color: #0000FF"">L</div>",,ospan,letter,TWWqV8AuEXVRIggwsQLL4sb3Qvo1,html-keyboard-response,60,512142,0.0-46.0-0.0-1.0-2.0,,,,,,,,,,,,,,,5d21d969adb5ab00159cd083,22:42:47,03/04/2024
5145.39999999851,"<div class = numbox><p style=""font-size: 2.4rem"">Please recall the letters you saw to the best of your ability. If you do not remember a particular letter, use the SKIP button.<br><b>(When you are ready to lock in your answer, press ENTER)</b></p><button id = button_1 class = ""square num-button"" onclick = ""recordClick(this)""><div class = content><div class = numbers>C</div></div></button><button id = button_2 class = ""square num-button"" onclick = ""recordClick(this)""><div class = content><div class = numbers>G</div></div></button><button id = button_3 class = ""square num-button"" onclick = ""recordClick(this)""><div class = content><div class = numbers>H</div></div></button><button id = button_4 class = ""square num-button"" onclick = ""recordClick(this)""><div class = content><div class = numbers>J</div></div></button><button id = button_5 class = ""square num-button"" onclick = ""recordClick(this)""><div class = content><div class = numbers>K</div></div></button><button id = button_6 class = ""square num-button"" onclick = ""recordClick(this)""><div class = content><div class = numbers>L</div></div></button><button id = button_7 class = ""square num-button"" onclick = ""recordClick(this)""><div class = content><div class = numbers>N</div></div></button><button id = button_8 class = ""square num-button"" onclick = ""recordClick(this)""><div class = content><div class = numbers>P</div></div></button><button id = button_9 class = ""square num-button"" onclick = ""recordClick(this)""><div class = content><div class = numbers>Q</div></div></button><button id = button_10 class = ""square num-button"" onclick = ""recordClick(this)""><div class = content><div class = numbers>R</div></div></button><button id = button_11 class = ""square num-button"" onclick = ""recordClick(this)""><div class = content><div class = numbers>S</div></div></button><button id = button_12 class = ""square num-button"" onclick = ""recordClick(this)""><div class = content><div class = numbers>Y</div></div></button><button class = clear_button id = ""ClearButton"" onclick = ""clearResponse()"">BACKSPACE</button><button class = blank_button id = ""BlankButton"" onclick = ""blankResponse()"">SKIP</button><p style=""font-size: 2.4rem""><u><b>Current Answer:</b></u></p><br><br><div id=echoed_txt style=""font-size: 5rem; color:blue;""><b></b></div></div>",enter,ospan,retrieval,TWWqV8AuEXVRIggwsQLL4sb3Qvo1,html-keyboard-response,61,518039,0.0-46.0-0.0-1.0-3.0,NA,NA,NA,2.0,"[""H"",""L""]","[""H"",""L""]",1.0,2.0,"['<font color=""green"">H</font>', '<font color=""green"">L</font>']",,,,,,5d21d969adb5ab00159cd083,22:42:47,03/04/2024
1188.1000000014901,"['<p style=""font-size:44px"">Letters:<br><br><br><font color=""green"">H</font> <font color=""green"">L</font></p><br><br>']",0,ospan,practice_feedback,TWWqV8AuEXVRIggwsQLL4sb3Qvo1,html-button-response,62,519730,0.0-46.0-0.0-1.0-4.0,,,,,,,,,,,,,,,5d21d969adb5ab00159cd083,22:42:47,03/04/2024
,"<p style=""font-size:75px;"">...</p>",,ospan,iti,TWWqV8AuEXVRIggwsQLL4sb3Qvo1,html-keyboard-response,63,520741,0.0-46.0-0.0-2.0-0.0,,,,,,,,,,,,,,,5d21d969adb5ab00159cd083,22:42:47,03/04/2024
,"<div style=""font-size: 10rem; color: #0000FF"">C</div>",,ospan,letter,TWWqV8AuEXVRIggwsQLL4sb3Qvo1,html-keyboard-response,64,521742,0.0-46.0-0.0-2.0-1.0,,,,,,,,,,,,,,,5d21d969adb5ab00159cd083,22:42:47,03/04/2024
,"<div style=""font-size: 10rem; color: #0000FF"">Q</div>",,ospan,letter,TWWqV8AuEXVRIggwsQLL4sb3Qvo1,html-keyboard-response,65,523503,0.0-46.0-0.0-2.0-2.0,,,,,,,,,,,,,,,5d21d969adb5ab00159cd083,22:42:47,03/04/2024
,"<div style=""font-size: 10rem; color: #0000FF"">H</div>",,ospan,letter,TWWqV8AuEXVRIggwsQLL4sb3Qvo1,html-keyboard-response,66,525278,0.0-46.0-0.0-2.0-3.0,,,,,,,,,,,,,,,5d21d969adb5ab00159cd083,22:42:47,03/04/2024
3928.60000000149,"<div class = numbox><p style=""font-size: 2.4rem"">Please recall the letters you saw to the best of your ability. If you do not remember a particular letter, use the SKIP button.<br><b>(When you are ready to lock in your answer, press ENTER)</b></p><button id = button_1 class = ""square num-button"" onclick = ""recordClick(this)""><div class = content><div class = numbers>C</div></div></button><button id = button_2 class = ""square num-button"" onclick = ""recordClick(this)""><div class = content><div class = numbers>G</div></div></button><button id = button_3 class = ""square num-button"" onclick = ""recordClick(this)""><div class = content><div class = numbers>H</div></div></button><button id = button_4 class = ""square num-button"" onclick = ""recordClick(this)""><div class = content><div class = numbers>J</div></div></button><button id = button_5 class = ""square num-button"" onclick = ""recordClick(this)""><div class = content><div class = numbers>K</div></div></button><button id = button_6 class = ""square num-button"" onclick = ""recordClick(this)""><div class = content><div class = numbers>L</div></div></button><button id = button_7 class = ""square num-button"" onclick = ""recordClick(this)""><div class = content><div class = numbers>N</div></div></button><button id = button_8 class = ""square num-button"" onclick = ""recordClick(this)""><div class = content><div class = numbers>P</div></div></button><button id = button_9 class = ""square num-button"" onclick = ""recordClick(this)""><div class = content><div class = numbers>Q</div></div></button><button id = button_10 class = ""square num-button"" onclick = ""recordClick(this)""><div class = content><div class = numbers>R</div></div></button><button id = button_11 class = ""square num-button"" onclick = ""recordClick(this)""><div class = content><div class = numbers>S</div></div></button><button id = button_12 class = ""square num-button"" onclick = ""recordClick(this)""><div class = content><div class = numbers>Y</div></div></button><button class = clear_button id = ""ClearButton"" onclick = ""clearResponse()"">BACKSPACE</button><button class = blank_button id = ""BlankButton"" onclick = ""blankResponse()"">SKIP</button><p style=""font-size: 2.4rem""><u><b>Current Answer:</b></u></p><br><br><div id=echoed_txt style=""font-size: 5rem; color:blue;""><b></b></div></div>",enter,ospan,retrieval,TWWqV8AuEXVRIggwsQLL4sb3Qvo1,html-keyboard-response,67,529969,0.0-46.0-0.0-2.0-4.0,NA,NA,NA,3.0,"[""C"",""Q"",""H""]","[""C"",""Q"",""H""]",1.0,3.0,"['<font color=""green"">C</font>', '<font color=""green"">Q</font>', '<font color=""green"">H</font>']",,,,,,5d21d969adb5ab00159cd083,22:42:47,03/04/2024
1327.6000000014901,"['<p style=""font-size:44px"">Letters:<br><br><br><font color=""green"">C</font> <font color=""green"">Q</font> <font color=""green"">H</font></p><br><br>']",0,ospan,practice_feedback,TWWqV8AuEXVRIggwsQLL4sb3Qvo1,html-button-response,68,531803,0.0-46.0-0.0-2.0-5.0,,,,,,,,,,,,,,,5d21d969adb5ab00159cd083,22:42:47,03/04/2024
10751.5,"<div class = 'left_align' style='font-size: 3.25rem; line-height: 1.3;'>Now you will practice doing the <b>symmetry judgment part</b> of the experiment.<br><br>A black and white grid picture will appear on the screen and you have to judge if it is <br>symmetrical or asymetrical.<br><br>A picture is 'mirror' symmetrical if its left half is identical to the right half when flipped.<br>Here are examples of a symmetrical and an asymetrical picture:<br><br><center><img src='Stimuli/img/symm_instructions_extra.png' style='height:420px; width:900'></img></center><br>To judge symmetry, imagine you were to fold each picture down the middle, like a book –<br>would the left half match the right half when folded onto each other?<br><br></div><br>",0,ospan,instruct,TWWqV8AuEXVRIggwsQLL4sb3Qvo1,html-button-response,69,542555,0.0-46.0-1.0-0.0-0.0,,,,,,,,,,,,,,,5d21d969adb5ab00159cd083,22:42:47,03/04/2024
4123.39999999851,"<div class = 'left_align' style='font-size: 3.25rem; line-height: 1.3;'>When you have viewed the picture and determined whether it is symmetrical or not,<br>you can <b>click the Yes or No button</b> below to answer.<br><br>If you take longer than 15 seconds, it will continue automatically<br>and record the answer as an error.</div><br>",0,ospan,instruct,TWWqV8AuEXVRIggwsQLL4sb3Qvo1,html-button-response,70,546931,0.0-46.0-1.0-0.0-1.0,,,,,,,,,,,,,,,5d21d969adb5ab00159cd083,22:42:47,03/04/2024
991.1000000014901,"<div class = 'left_align' style='font-size: 3.25rem; line-height: 1.3;'>It is <b>very</b> important that you make the symmetry judgment correctly.<br><br>It is also important that you try and judge the picture as quickly as you can.<br><br>When you are ready, click on the button below to try some practice problems.</div><br><br><br><br>",0,ospan,instruct,TWWqV8AuEXVRIggwsQLL4sb3Qvo1,html-button-response,71,548179,0.0-46.0-1.0-0.0-2.0,,,,,,,,,,,,,,,5d21d969adb5ab00159cd083,22:42:47,03/04/2024
2158.0,,,ospan,symmetry,TWWqV8AuEXVRIggwsQLL4sb3Qvo1,symmetry-judgement-task,72,551139,0.0-46.0-1.0-1.0-0.0,,,,,,,,,,1.0,1.0,,,,5d21d969adb5ab00159cd083,22:42:47,03/04/2024
,"<p style=""color:green; font-size: 35px"">Correct</p>",,ospan,feedback,TWWqV8AuEXVRIggwsQLL4sb3Qvo1,html-keyboard-response,73,551897,0.0-46.0-1.0-1.0-1.0,,,,,,,,,,,,,,,5d21d969adb5ab00159cd083,22:42:47,03/04/2024
1352.0,,,ospan,symmetry,TWWqV8AuEXVRIggwsQLL4sb3Qvo1,symmetry-judgement-task,74,555969,0.0-46.0-1.0-1.0-2.0,,,,,,,,,,1.0,1.0,,,,5d21d969adb5ab00159cd083,22:42:47,03/04/2024
,"<p style=""color:green; font-size: 35px"">Correct</p>",,ospan,feedback,TWWqV8AuEXVRIggwsQLL4sb3Qvo1,html-keyboard-response,75,556727,0.0-46.0-1.0-1.0-3.0,,,,,,,,,,,,,,,5d21d969adb5ab00159cd083,22:42:47,03/04/2024
1835.0,,,ospan,symmetry,TWWqV8AuEXVRIggwsQLL4sb3Qvo1,symmetry-judgement-task,76,561296,0.0-46.0-1.0-1.0-4.0,,,,,,,,,,1.0,1.0,,,,5d21d969adb5ab00159cd083,22:42:47,03/04/2024
,"<p style=""color:green; font-size: 35px"">Correct</p>",,ospan,feedback,TWWqV8AuEXVRIggwsQLL4sb3Qvo1,html-keyboard-response,77,562059,0.0-46.0-1.0-1.0-5.0,,,,,,,,,,,,,,,5d21d969adb5ab00159cd083,22:42:47,03/04/2024
1488.7000000029802,"<p style=""font-size: 3rem;"">You responded correctly on 3 of 3 symmetry judgments. Good job!</p><br><br>",0,ospan,practice,TWWqV8AuEXVRIggwsQLL4sb3Qvo1,html-button-response,78,565564,0.0-46.0-1.0-2.0,,,,,,,,,,,,,,,5d21d969adb5ab00159cd083,22:42:47,03/04/2024
7115.39999999851,"<div class = 'left_align' style='font-size: 3.25rem; line-height: 1.3;'>Now you will practice doing both parts of the experiment at the same time.<br><br>In the next practice set, you will be given one grid picture to judge.<br>Then letter will appear on the screen. Try to remember the letter.<br><br>It is <b>very important</b> to make the symmetry judgment as quickly and accurately as possible.<br><br>Just as before, once you have make the symmetry judgment, you can click Yes or No.<br><b>Note that you will no longer see Correct or Incorrect feedback.</div><br><br><br><br>",0,ospan,instruct,TWWqV8AuEXVRIggwsQLL4sb3Qvo1,html-button-response,79,572932,0.0-46.0-2.0-0.0-0.0,,,,,,,,,,,,,,,5d21d969adb5ab00159cd083,22:42:47,03/04/2024
1047.2999999970198,"<div class = 'left_align' style='font-size: 3.25rem; line-height: 1.3;'>After the letter goes away, another grid picture will appear, and then<br>another letter.<br><br>At the end of each set of letters and grids, you will recall the letters to the best<br>of your ability. Remember, try your best to get the letters in the correct order.<br><br>It is important to <b>quickly</b> and <b>accurately</b> make the symmetry judgments.</div><br><br><br><br>",0,ospan,instruct,TWWqV8AuEXVRIggwsQLL4sb3Qvo1,html-button-response,80,574244,0.0-46.0-2.0-0.0-1.0,,,,,,,,,,,,,,,5d21d969adb5ab00159cd083,22:42:47,03/04/2024
7400.20000000298,"<div class = 'left_align' style='font-size: 3.25rem; line-height: 1.3;'>On the feedback screen, if you are not doing well at the symmetry judgments,<br>you will also see a warning in the middle. This indicates your percent <br>correct for the grid pictures for the entire experiment.<br><br>It is <b>very</b> important for you to keep accuracy at least at 85%: <u>We can only use<br>data where the participant was at least 85% accurate on the judgments.</u> Therefore,<br> please try your best to perform well on the symmetry judgments, <b>at the same time</b><br>doing your best to recall as many letters as possible.<br><br>Click the button to try some practice problems.</div><br><br><br><br>",0,ospan,instruct,TWWqV8AuEXVRIggwsQLL4sb3Qvo1,html-button-response,81,581901,0.0-46.0-2.0-0.0-2.0,,,,,,,,,,,,,,,5d21d969adb5ab00159cd083,22:42:47,03/04/2024
,"<p style=""font-size:75px;"">...</p>",,ospan,iti,TWWqV8AuEXVRIggwsQLL4sb3Qvo1,html-keyboard-response,82,583165,0.0-46.0-2.0-1.0-0.0,,,,,,,,,,,,,,,5d21d969adb5ab00159cd083,22:42:47,03/04/2024
2783.0,,,ospan,symmetry,TWWqV8AuEXVRIggwsQLL4sb3Qvo1,symmetry-judgement-task,83,587174,0.0-46.0-2.0-1.0-1.0-0.0,,,,,,,,,,1.0,1.0,,,,5d21d969adb5ab00159cd083,22:42:47,03/04/2024
,"<div style=""font-size: 10rem; color: #0000FF"">J</div>",,ospan,letter,TWWqV8AuEXVRIggwsQLL4sb3Qvo1,html-keyboard-response,84,588175,0.0-46.0-2.0-1.0-1.0-1.0,,,,,,,,,,,,,,,5d21d969adb5ab00159cd083,22:42:47,03/04/2024
2164.0,,,ospan,symmetry,TWWqV8AuEXVRIggwsQLL4sb3Qvo1,symmetry-judgement-task,85,592271,0.0-46.0-2.0-1.0-1.0-2.0,,,,,,,,,,1.0,1.0,,,,5d21d969adb5ab00159cd083,22:42:47,03/04/2024
,"<div style=""font-size: 10rem; color: #0000FF"">H</div>",,ospan,letter,TWWqV8AuEXVRIggwsQLL4sb3Qvo1,html-keyboard-response,86,593274,0.0-46.0-2.0-1.0-1.0-3.0,,,,,,,,,,,,,,,5d21d969adb5ab00159cd083,22:42:47,03/04/2024
2085.0,,,ospan,symmetry,TWWqV8AuEXVRIggwsQLL4sb3Qvo1,symmetry-judgement-task,87,597297,0.0-46.0-2.0-1.0-1.0-4.0,,,,,,,,,,1.0,1.0,,,,5d21d969adb5ab00159cd083,22:42:47,03/04/2024
,"<div style=""font-size: 10rem; color: #0000FF"">N</div>",,ospan,letter,TWWqV8AuEXVRIggwsQLL4sb3Qvo1,html-keyboard-response,88,598303,0.0-46.0-2.0-1.0-1.0-5.0,,,,,,,,,,,,,,,5d21d969adb5ab00159cd083,22:42:47,03/04/2024
3871.7999999970198,"<div class = numbox><p style=""font-size: 2.4rem"">Please recall the letters you saw to the best of your ability. If you do not remember a particular letter, use the SKIP button.<br><b>(When you are ready to lock in your answer, press ENTER)</b></p><button id = button_1 class = ""square num-button"" onclick = ""recordClick(this)""><div class = content><div class = numbers>C</div></div></button><button id = button_2 class = ""square num-button"" onclick = ""recordClick(this)""><div class = content><div class = numbers>G</div></div></button><button id = button_3 class = ""square num-button"" onclick = ""recordClick(this)""><div class = content><div class = numbers>H</div></div></button><button id = button_4 class = ""square num-button"" onclick = ""recordClick(this)""><div class = content><div class = numbers>J</div></div></button><button id = button_5 class = ""square num-button"" onclick = ""recordClick(this)""><div class = content><div class = numbers>K</div></div></button><button id = button_6 class = ""square num-button"" onclick = ""recordClick(this)""><div class = content><div class = numbers>L</div></div></button><button id = button_7 class = ""square num-button"" onclick = ""recordClick(this)""><div class = content><div class = numbers>N</div></div></button><button id = button_8 class = ""square num-button"" onclick = ""recordClick(this)""><div class = content><div class = numbers>P</div></div></button><button id = button_9 class = ""square num-button"" onclick = ""recordClick(this)""><div class = content><div class = numbers>Q</div></div></button><button id = button_10 class = ""square num-button"" onclick = ""recordClick(this)""><div class = content><div class = numbers>R</div></div></button><button id = button_11 class = ""square num-button"" onclick = ""recordClick(this)""><div class = content><div class = numbers>S</div></div></button><button id = button_12 class = ""square num-button"" onclick = ""recordClick(this)""><div class = content><div class = numbers>Y</div></div></button><button class = clear_button id = ""ClearButton"" onclick = ""clearResponse()"">BACKSPACE</button><button class = blank_button id = ""BlankButton"" onclick = ""blankResponse()"">SKIP</button><p style=""font-size: 2.4rem""><u><b>Current Answer:</b></u></p><br><br><div id=echoed_txt style=""font-size: 5rem; color:blue;""><b></b></div></div>",enter,ospan,retrieval,TWWqV8AuEXVRIggwsQLL4sb3Qvo1,html-keyboard-response,89,602934,0.0-46.0-2.0-1.0-2.0-0.0,NA,NA,NA,3.0,"[""J"",""H"",""N""]","[""J"",""H"",""N""]",1.0,3.0,"['<font color=""green"">J</font>', '<font color=""green"">H</font>', '<font color=""green"">N</font>']",,,,,,5d21d969adb5ab00159cd083,22:42:47,03/04/2024
1225.6000000014901,"['<p style=""font-size:44px"">Letters:<br><br><br><font color=""green"">J</font> <font color=""green"">H</font> <font color=""green"">N</font></p><br><br><p style=""font-size:30px"">Symmetry:<br><br><font color=""green"">100%</font></p><br><br>']",0,ospan,practice_feedback,TWWqV8AuEXVRIggwsQLL4sb3Qvo1,html-button-response,90,604661,0.0-46.0-2.0-1.0-2.0-1.0,,,,,,,,,,,,,,,5d21d969adb5ab00159cd083,22:42:47,03/04/2024
,"<p style=""font-size:75px;"">...</p>",,ospan,iti,TWWqV8AuEXVRIggwsQLL4sb3Qvo1,html-keyboard-response,91,605665,0.0-46.0-2.0-2.0-0.0,,,,,,,,,,,,,,,5d21d969adb5ab00159cd083,22:42:47,03/04/2024
1274.0,,,ospan,symmetry,TWWqV8AuEXVRIggwsQLL4sb3Qvo1,symmetry-judgement-task,92,608183,0.0-46.0-2.0-2.0-1.0-0.0,,,,,,,,,,1.0,1.0,,,,5d21d969adb5ab00159cd083,22:42:47,03/04/2024
,"<div style=""font-size: 10rem; color: #0000FF"">L</div>",,ospan,letter,TWWqV8AuEXVRIggwsQLL4sb3Qvo1,html-keyboard-response,93,609188,0.0-46.0-2.0-2.0-1.0-1.0,,,,,,,,,,,,,,,5d21d969adb5ab00159cd083,22:42:47,03/04/2024
1564.0,,,ospan,symmetry,TWWqV8AuEXVRIggwsQLL4sb3Qvo1,symmetry-judgement-task,94,612711,0.0-46.0-2.0-2.0-1.0-2.0,,,,,,,,,,1.0,1.0,,,,5d21d969adb5ab00159cd083,22:42:47,03/04/2024
,"<div style=""font-size: 10rem; color: #0000FF"">K</div>",,ospan,letter,TWWqV8AuEXVRIggwsQLL4sb3Qvo1,html-keyboard-response,95,613722,0.0-46.0-2.0-2.0-1.0-3.0,,,,,,,,,,,,,,,5d21d969adb5ab00159cd083,22:42:47,03/04/2024
1634.0,,,ospan,symmetry,TWWqV8AuEXVRIggwsQLL4sb3Qvo1,symmetry-judgement-task,96,617334,0.0-46.0-2.0-2.0-1.0-4.0,,,,,,,,,,1.0,1.0,,,,5d21d969adb5ab00159cd083,22:42:47,03/04/2024
,"<div style=""font-size: 10rem; color: #0000FF"">N</div>",,ospan,letter,TWWqV8AuEXVRIggwsQLL4sb3Qvo1,html-keyboard-response,97,618343,0.0-46.0-2.0-2.0-1.0-5.0,,,,,,,,,,,,,,,5d21d969adb5ab00159cd083,22:42:47,03/04/2024
3903.2000000029802,"<div class = numbox><p style=""font-size: 2.4rem"">Please recall the letters you saw to the best of your ability. If you do not remember a particular letter, use the SKIP button.<br><b>(When you are ready to lock in your answer, press ENTER)</b></p><button id = button_1 class = ""square num-button"" onclick = ""recordClick(this)""><div class = content><div class = numbers>C</div></div></button><button id = button_2 class = ""square num-button"" onclick = ""recordClick(this)""><div class = content><div class = numbers>G</div></div></button><button id = button_3 class = ""square num-button"" onclick = ""recordClick(this)""><div class = content><div class = numbers>H</div></div></button><button id = button_4 class = ""square num-button"" onclick = ""recordClick(this)""><div class = content><div class = numbers>J</div></div></button><button id = button_5 class = ""square num-button"" onclick = ""recordClick(this)""><div class = content><div class = numbers>K</div></div></button><button id = button_6 class = ""square num-button"" onclick = ""recordClick(this)""><div class = content><div class = numbers>L</div></div></button><button id = button_7 class = ""square num-button"" onclick = ""recordClick(this)""><div class = content><div class = numbers>N</div></div></button><button id = button_8 class = ""square num-button"" onclick = ""recordClick(this)""><div class = content><div class = numbers>P</div></div></button><button id = button_9 class = ""square num-button"" onclick = ""recordClick(this)""><div class = content><div class = numbers>Q</div></div></button><button id = button_10 class = ""square num-button"" onclick = ""recordClick(this)""><div class = content><div class = numbers>R</div></div></button><button id = button_11 class = ""square num-button"" onclick = ""recordClick(this)""><div class = content><div class = numbers>S</div></div></button><button id = button_12 class = ""square num-button"" onclick = ""recordClick(this)""><div class = content><div class = numbers>Y</div></div></button><button class = clear_button id = ""ClearButton"" onclick = ""clearResponse()"">BACKSPACE</button><button class = blank_button id = ""BlankButton"" onclick = ""blankResponse()"">SKIP</button><p style=""font-size: 2.4rem""><u><b>Current Answer:</b></u></p><br><br><div id=echoed_txt style=""font-size: 5rem; color:blue;""><b></b></div></div>",enter,ospan,retrieval,TWWqV8AuEXVRIggwsQLL4sb3Qvo1,html-keyboard-response,98,623007,0.0-46.0-2.0-2.0-2.0-0.0,NA,NA,NA,3.0,"[""L"",""K"",""N""]","[""L"",""K"",""N""]",1.0,3.0,"['<font color=""green"">L</font>', '<font color=""green"">K</font>', '<font color=""green"">N</font>']",,,,,,5d21d969adb5ab00159cd083,22:42:47,03/04/2024
904.0,"['<p style=""font-size:44px"">Letters:<br><br><br><font color=""green"">L</font> <font color=""green"">K</font> <font color=""green"">N</font></p><br><br><p style=""font-size:30px"">Symmetry:<br><br><font color=""green"">100%</font></p><br><br>']",0,ospan,practice_feedback,TWWqV8AuEXVRIggwsQLL4sb3Qvo1,html-button-response,99,624414,0.0-46.0-2.0-2.0-2.0-1.0,,,,,,,,,,,,,,,5d21d969adb5ab00159cd083,22:42:47,03/04/2024
9799.20000000298,"<div class = 'left_align' style='font-size: 3rem; line-height: 1.3;'><b>Great work! That is the end of practice.</b><br><br>The real trials will look just like the practice trials you just completed.<br><br><u>Here, you will not see feedback</u>. First, you will see an grid picture to judge,<br>then a letter to remember. When the recall screen appears, report the letters in the<br>order presented. If you forget a letter, remember to use the <b>blank</b> button to move to the<br>next letter. Some of the sets will have more symmetry grids and letters than others.<br><br>It is important that you do your best on both the symmetry judgments and the letter recall<br>parts of the experiment. For for the symmetry judgments, try to work as <b>quickly</b> and <br>as <b>accurately</b> as possible. Remember to keep your symmetry accuracy at 85% or above.<br><br><b>For the letters, do NOT use any external aid (e.g., writing on paper, electronic device).</b><br><br>It is <u>very important</u> to our experiment to have a <b>true</b> view of your real performance.<br><br>Do not worry if you miss some when it gets hard! This task is meant to be very challenging!<br><br>Click the button to begin.</div><br><br><br><br>",0,ospan,starting_real_here,TWWqV8AuEXVRIggwsQLL4sb3Qvo1,html-button-response,100,634214,0.0-46.0-2.0-3.0,,,,,,,,,,,,,,,5d21d969adb5ab00159cd083,22:42:47,03/04/2024
,"<p style=""font-size:75px;"">...</p>",,ospan,iti,TWWqV8AuEXVRIggwsQLL4sb3Qvo1,html-keyboard-response,101,635475,0.0-46.0-3.0-0.0-0.0,,,,,,,,,,,,,,,5d21d969adb5ab00159cd083,22:42:47,03/04/2024
1648.0,,,ospan,symmetry,TWWqV8AuEXVRIggwsQLL4sb3Qvo1,symmetry-judgement-task,102,638296,0.0-46.0-3.0-0.0-1.0-0.0,,,,,,,,,,1.0,1.0,,,,5d21d969adb5ab00159cd083,22:42:47,03/04/2024
,"<div style=""font-size: 10rem; color: #0000FF"">H</div>",,ospan,letter,TWWqV8AuEXVRIggwsQLL4sb3Qvo1,html-keyboard-response,103,639304,0.0-46.0-3.0-0.0-1.0-1.0,,,,,,,,,,,,,,,5d21d969adb5ab00159cd083,22:42:47,03/04/2024
1327.0,,,ospan,symmetry,TWWqV8AuEXVRIggwsQLL4sb3Qvo1,symmetry-judgement-task,104,642570,0.0-46.0-3.0-0.0-1.0-2.0,,,,,,,,,,1.0,1.0,,,,5d21d969adb5ab00159cd083,22:42:47,03/04/2024
,"<div style=""font-size: 10rem; color: #0000FF"">K</div>",,ospan,letter,TWWqV8AuEXVRIggwsQLL4sb3Qvo1,html-keyboard-response,105,643582,0.0-46.0-3.0-0.0-1.0-3.0,,,,,,,,,,,,,,,5d21d969adb5ab00159cd083,22:42:47,03/04/2024
1334.0,,,ospan,symmetry,TWWqV8AuEXVRIggwsQLL4sb3Qvo1,symmetry-judgement-task,106,646896,0.0-46.0-3.0-0.0-1.0-4.0,,,,,,,,,,1.0,1.0,,,,5d21d969adb5ab00159cd083,22:42:47,03/04/2024
,"<div style=""font-size: 10rem; color: #0000FF"">R</div>",,ospan,letter,TWWqV8AuEXVRIggwsQLL4sb3Qvo1,html-keyboard-response,107,647905,0.0-46.0-3.0-0.0-1.0-5.0,,,,,,,,,,,,,,,5d21d969adb5ab00159cd083,22:42:47,03/04/2024
6004.5,"<div class = numbox><p style=""font-size: 2.4rem"">Please recall the letters you saw to the best of your ability. If you do not remember a particular letter, use the SKIP button.<br><b>(When you are ready to lock in your answer, press ENTER)</b></p><button id = button_1 class = ""square num-button"" onclick = ""recordClick(this)""><div class = content><div class = numbers>C</div></div></button><button id = button_2 class = ""square num-button"" onclick = ""recordClick(this)""><div class = content><div class = numbers>G</div></div></button><button id = button_3 class = ""square num-button"" onclick = ""recordClick(this)""><div class = content><div class = numbers>H</div></div></button><button id = button_4 class = ""square num-button"" onclick = ""recordClick(this)""><div class = content><div class = numbers>J</div></div></button><button id = button_5 class = ""square num-button"" onclick = ""recordClick(this)""><div class = content><div class = numbers>K</div></div></button><button id = button_6 class = ""square num-button"" onclick = ""recordClick(this)""><div class = content><div class = numbers>L</div></div></button><button id = button_7 class = ""square num-button"" onclick = ""recordClick(this)""><div class = content><div class = numbers>N</div></div></button><button id = button_8 class = ""square num-button"" onclick = ""recordClick(this)""><div class = content><div class = numbers>P</div></div></button><button id = button_9 class = ""square num-button"" onclick = ""recordClick(this)""><div class = content><div class = numbers>Q</div></div></button><button id = button_10 class = ""square num-button"" onclick = ""recordClick(this)""><div class = content><div class = numbers>R</div></div></button><button id = button_11 class = ""square num-button"" onclick = ""recordClick(this)""><div class = content><div class = numbers>S</div></div></button><button id = button_12 class = ""square num-button"" onclick = ""recordClick(this)""><div class = content><div class = numbers>Y</div></div></button><button class = clear_button id = ""ClearButton"" onclick = ""clearResponse()"">BACKSPACE</button><button class = blank_button id = ""BlankButton"" onclick = ""blankResponse()"">SKIP</button><p style=""font-size: 2.4rem""><u><b>Current Answer:</b></u></p><br><br><div id=echoed_txt style=""font-size: 5rem; color:blue;""><b></b></div></div>",enter,ospan,retrieval,TWWqV8AuEXVRIggwsQLL4sb3Qvo1,html-keyboard-response,108,654670,0.0-46.0-3.0-0.0-2.0,3,3,3,3.0,"[""H"",""K"",""R""]","[""H"",""K"",""R""]",1.0,3.0,,,,,,,5d21d969adb5ab00159cd083,22:42:47,03/04/2024
9975.89999999851,[''],0,ospan,feedback,TWWqV8AuEXVRIggwsQLL4sb3Qvo1,html-button-response,109,665151,0.0-46.0-3.0-0.0-3.0,,,,,,,,,,,,100.0,0.0,,5d21d969adb5ab00159cd083,22:42:47,03/04/2024
,"<p style=""font-size:75px;"">...</p>",,ospan,iti,TWWqV8AuEXVRIggwsQLL4sb3Qvo1,html-keyboard-response,110,666155,0.0-46.0-4.0-0.0-0.0,,,,,,,,,,,,,,,5d21d969adb5ab00159cd083,22:42:47,03/04/2024
1513.0,,,ospan,symmetry,TWWqV8AuEXVRIggwsQLL4sb3Qvo1,symmetry-judgement-task,111,668880,0.0-46.0-4.0-0.0-1.0-0.0,,,,,,,,,,1.0,1.0,,,,5d21d969adb5ab00159cd083,22:42:47,03/04/2024
,"<div style=""font-size: 10rem; color: #0000FF"">L</div>",,ospan,letter,TWWqV8AuEXVRIggwsQLL4sb3Qvo1,html-keyboard-response,112,669881,0.0-46.0-4.0-0.0-1.0-1.0,,,,,,,,,,,,,,,5d21d969adb5ab00159cd083,22:42:47,03/04/2024
1147.0,,,ospan,symmetry,TWWqV8AuEXVRIggwsQLL4sb3Qvo1,symmetry-judgement-task,113,672995,0.0-46.0-4.0-0.0-1.0-2.0,,,,,,,,,,1.0,1.0,,,,5d21d969adb5ab00159cd083,22:42:47,03/04/2024
,"<div style=""font-size: 10rem; color: #0000FF"">R</div>",,ospan,letter,TWWqV8AuEXVRIggwsQLL4sb3Qvo1,html-keyboard-response,114,674004,0.0-46.0-4.0-0.0-1.0-3.0,,,,,,,,,,,,,,,5d21d969adb5ab00159cd083,22:42:47,03/04/2024
1147.0,,,ospan,symmetry,TWWqV8AuEXVRIggwsQLL4sb3Qvo1,symmetry-judgement-task,115,677114,0.0-46.0-4.0-0.0-1.0-4.0,,,,,,,,,,1.0,1.0,,,,5d21d969adb5ab00159cd083,22:42:47,03/04/2024
,"<div style=""font-size: 10rem; color: #0000FF"">C</div>",,ospan,letter,TWWqV8AuEXVRIggwsQLL4sb3Qvo1,html-keyboard-response,116,678125,0.0-46.0-4.0-0.0-1.0-5.0,,,,,,,,,,,,,,,5d21d969adb5ab00159cd083,22:42:47,03/04/2024
1378.0,,,ospan,symmetry,TWWqV8AuEXVRIggwsQLL4sb3Qvo1,symmetry-judgement-task,117,681487,0.0-46.0-4.0-0.0-1.0-6.0,,,,,,,,,,1.0,1.0,,,,5d21d969adb5ab00159cd083,22:42:47,03/04/2024
,"<div style=""font-size: 10rem; color: #0000FF"">N</div>",,ospan,letter,TWWqV8AuEXVRIggwsQLL4sb3Qvo1,html-keyboard-response,118,682490,0.0-46.0-4.0-0.0-1.0-7.0,,,,,,,,,,,,,,,5d21d969adb5ab00159cd083,22:42:47,03/04/2024
3743.7000000029802,"<div class = numbox><p style=""font-size: 2.4rem"">Please recall the letters you saw to the best of your ability. If you do not remember a particular letter, use the SKIP button.<br><b>(When you are ready to lock in your answer, press ENTER)</b></p><button id = button_1 class = ""square num-button"" onclick = ""recordClick(this)""><div class = content><div class = numbers>C</div></div></button><button id = button_2 class = ""square num-button"" onclick = ""recordClick(this)""><div class = content><div class = numbers>G</div></div></button><button id = button_3 class = ""square num-button"" onclick = ""recordClick(this)""><div class = content><div class = numbers>H</div></div></button><button id = button_4 class = ""square num-button"" onclick = ""recordClick(this)""><div class = content><div class = numbers>J</div></div></button><button id = button_5 class = ""square num-button"" onclick = ""recordClick(this)""><div class = content><div class = numbers>K</div></div></button><button id = button_6 class = ""square num-button"" onclick = ""recordClick(this)""><div class = content><div class = numbers>L</div></div></button><button id = button_7 class = ""square num-button"" onclick = ""recordClick(this)""><div class = content><div class = numbers>N</div></div></button><button id = button_8 class = ""square num-button"" onclick = ""recordClick(this)""><div class = content><div class = numbers>P</div></div></button><button id = button_9 class = ""square num-button"" onclick = ""recordClick(this)""><div class = content><div class = numbers>Q</div></div></button><button id = button_10 class = ""square num-button"" onclick = ""recordClick(this)""><div class = content><div class = numbers>R</div></div></button><button id = button_11 class = ""square num-button"" onclick = ""recordClick(this)""><div class = content><div class = numbers>S</div></div></button><button id = button_12 class = ""square num-button"" onclick = ""recordClick(this)""><div class = content><div class = numbers>Y</div></div></button><button class = clear_button id = ""ClearButton"" onclick = ""clearResponse()"">BACKSPACE</button><button class = blank_button id = ""BlankButton"" onclick = ""blankResponse()"">SKIP</button><p style=""font-size: 2.4rem""><u><b>Current Answer:</b></u></p><br><br><div id=echoed_txt style=""font-size: 5rem; color:blue;""><b></b></div></div>",enter,ospan,retrieval,TWWqV8AuEXVRIggwsQLL4sb3Qvo1,html-keyboard-response,119,686985,0.0-46.0-4.0-0.0-2.0,7,7,7,4.0,"[""L"",""R"",""C"",""N""]","[""L"",""R"",""C"",""N""]",1.0,4.0,,,,,,,5d21d969adb5ab00159cd083,22:42:47,03/04/2024
854.4000000059605,[''],0,ospan,feedback,TWWqV8AuEXVRIggwsQLL4sb3Qvo1,html-button-response,120,688352,0.0-46.0-4.0-0.0-3.0,,,,,,,,,,,,100.0,0.0,,5d21d969adb5ab00159cd083,22:42:47,03/04/2024
,"<p style=""font-size:75px;"">...</p>",,ospan,iti,TWWqV8AuEXVRIggwsQLL4sb3Qvo1,html-keyboard-response,121,689353,0.0-46.0-4.0-1.0-0.0,,,,,,,,,,,,,,,5d21d969adb5ab00159cd083,22:42:47,03/04/2024
1794.0,,,ospan,symmetry,TWWqV8AuEXVRIggwsQLL4sb3Qvo1,symmetry-judgement-task,122,692190,0.0-46.0-4.0-1.0-1.0-0.0,,,,,,,,,,1.0,1.0,,,,5d21d969adb5ab00159cd083,22:42:47,03/04/2024
,"<div style=""font-size: 10rem; color: #0000FF"">G</div>",,ospan,letter,TWWqV8AuEXVRIggwsQLL4sb3Qvo1,html-keyboard-response,123,693198,0.0-46.0-4.0-1.0-1.0-1.0,,,,,,,,,,,,,,,5d21d969adb5ab00159cd083,22:42:47,03/04/2024
1467.0,,,ospan,symmetry,TWWqV8AuEXVRIggwsQLL4sb3Qvo1,symmetry-judgement-task,124,696641,0.0-46.0-4.0-1.0-1.0-2.0,,,,,,,,,,1.0,1.0,,,,5d21d969adb5ab00159cd083,22:42:47,03/04/2024
,"<div style=""font-size: 10rem; color: #0000FF"">P</div>",,ospan,letter,TWWqV8AuEXVRIggwsQLL4sb3Qvo1,html-keyboard-response,125,697646,0.0-46.0-4.0-1.0-1.0-3.0,,,,,,,,,,,,,,,5d21d969adb5ab00159cd083,22:42:47,03/04/2024
1034.0,,,ospan,symmetry,TWWqV8AuEXVRIggwsQLL4sb3Qvo1,symmetry-judgement-task,126,700616,0.0-46.0-4.0-1.0-1.0-4.0,,,,,,,,,,1.0,1.0,,,,5d21d969adb5ab00159cd083,22:42:47,03/04/2024
,"<div style=""font-size: 10rem; color: #0000FF"">Q</div>",,ospan,letter,TWWqV8AuEXVRIggwsQLL4sb3Qvo1,html-keyboard-response,127,701623,0.0-46.0-4.0-1.0-1.0-5.0,,,,,,,,,,,,,,,5d21d969adb5ab00159cd083,22:42:47,03/04/2024
1259.0,,,ospan,symmetry,TWWqV8AuEXVRIggwsQLL4sb3Qvo1,symmetry-judgement-task,128,704671,0.0-46.0-4.0-1.0-1.0-6.0,,,,,,,,,,1.0,1.0,,,,5d21d969adb5ab00159cd083,22:42:47,03/04/2024
,"<div style=""font-size: 10rem; color: #0000FF"">J</div>",,ospan,letter,TWWqV8AuEXVRIggwsQLL4sb3Qvo1,html-keyboard-response,129,705685,0.0-46.0-4.0-1.0-1.0-7.0,,,,,,,,,,,,,,,5d21d969adb5ab00159cd083,22:42:47,03/04/2024
1644.0,,,ospan,symmetry,TWWqV8AuEXVRIggwsQLL4sb3Qvo1,symmetry-judgement-task,130,709297,0.0-46.0-4.0-1.0-1.0-8.0,,,,,,,,,,1.0,1.0,,,,5d21d969adb5ab00159cd083,22:42:47,03/04/2024
,"<div style=""font-size: 10rem; color: #0000FF"">H</div>",,ospan,letter,TWWqV8AuEXVRIggwsQLL4sb3Qvo1,html-keyboard-response,131,710299,0.0-46.0-4.0-1.0-1.0-9.0,,,,,,,,,,,,,,,5d21d969adb5ab00159cd083,22:42:47,03/04/2024
5196.70000000298,"<div class = numbox><p style=""font-size: 2.4rem"">Please recall the letters you saw to the best of your ability. If you do not remember a particular letter, use the SKIP button.<br><b>(When you are ready to lock in your answer, press ENTER)</b></p><button id = button_1 class = ""square num-button"" onclick = ""recordClick(this)""><div class = content><div class = numbers>C</div></div></button><button id = button_2 class = ""square num-button"" onclick = ""recordClick(this)""><div class = content><div class = numbers>G</div></div></button><button id = button_3 class = ""square num-button"" onclick = ""recordClick(this)""><div class = content><div class = numbers>H</div></div></button><button id = button_4 class = ""square num-button"" onclick = ""recordClick(this)""><div class = content><div class = numbers>J</div></div></button><button id = button_5 class = ""square num-button"" onclick = ""recordClick(this)""><div class = content><div class = numbers>K</div></div></button><button id = button_6 class = ""square num-button"" onclick = ""recordClick(this)""><div class = content><div class = numbers>L</div></div></button><button id = button_7 class = ""square num-button"" onclick = ""recordClick(this)""><div class = content><div class = numbers>N</div></div></button><button id = button_8 class = ""square num-button"" onclick = ""recordClick(this)""><div class = content><div class = numbers>P</div></div></button><button id = button_9 class = ""square num-button"" onclick = ""recordClick(this)""><div class = content><div class = numbers>Q</div></div></button><button id = button_10 class = ""square num-button"" onclick = ""recordClick(this)""><div class = content><div class = numbers>R</div></div></button><button id = button_11 class = ""square num-button"" onclick = ""recordClick(this)""><div class = content><div class = numbers>S</div></div></button><button id = button_12 class = ""square num-button"" onclick = ""recordClick(this)""><div class = content><div class = numbers>Y</div></div></button><button class = clear_button id = ""ClearButton"" onclick = ""clearResponse()"">BACKSPACE</button><button class = blank_button id = ""BlankButton"" onclick = ""blankResponse()"">SKIP</button><p style=""font-size: 2.4rem""><u><b>Current Answer:</b></u></p><br><br><div id=echoed_txt style=""font-size: 5rem; color:blue;""><b></b></div></div>",enter,ospan,retrieval,TWWqV8AuEXVRIggwsQLL4sb3Qvo1,html-keyboard-response,132,716259,0.0-46.0-4.0-1.0-2.0,12,12,12,5.0,"[""G"",""P"",""Q"",""J"",""H""]","[""G"",""P"",""Q"",""J"",""H""]",1.0,5.0,,,,,,,5d21d969adb5ab00159cd083,22:42:47,03/04/2024
666.3000000044703,[''],0,ospan,feedback,TWWqV8AuEXVRIggwsQLL4sb3Qvo1,html-button-response,133,717433,0.0-46.0-4.0-1.0-3.0,,,,,,,,,,,,100.0,0.0,,5d21d969adb5ab00159cd083,22:42:47,03/04/2024
,"<p style=""font-size:75px;"">...</p>",,ospan,iti,TWWqV8AuEXVRIggwsQLL4sb3Qvo1,html-keyboard-response,134,718434,0.0-46.0-4.0-2.0-0.0,,,,,,,,,,,,,,,5d21d969adb5ab00159cd083,22:42:47,03/04/2024
1823.0,,,ospan,symmetry,TWWqV8AuEXVRIggwsQLL4sb3Qvo1,symmetry-judgement-task,135,721476,0.0-46.0-4.0-2.0-1.0-0.0,,,,,,,,,,1.0,1.0,,,,5d21d969adb5ab00159cd083,22:42:47,03/04/2024
,"<div style=""font-size: 10rem; color: #0000FF"">S</div>",,ospan,letter,TWWqV8AuEXVRIggwsQLL4sb3Qvo1,html-keyboard-response,136,722488,0.0-46.0-4.0-2.0-1.0-1.0,,,,,,,,,,,,,,,5d21d969adb5ab00159cd083,22:42:47,03/04/2024
1221.0,,,ospan,symmetry,TWWqV8AuEXVRIggwsQLL4sb3Qvo1,symmetry-judgement-task,137,725677,0.0-46.0-4.0-2.0-1.0-2.0,,,,,,,,,,1.0,1.0,,,,5d21d969adb5ab00159cd083,22:42:47,03/04/2024
,"<div style=""font-size: 10rem; color: #0000FF"">N</div>",,ospan,letter,TWWqV8AuEXVRIggwsQLL4sb3Qvo1,html-keyboard-response,138,726678,0.0-46.0-4.0-2.0-1.0-3.0,,,,,,,,,,,,,,,5d21d969adb5ab00159cd083,22:42:47,03/04/2024
1331.0,,,ospan,symmetry,TWWqV8AuEXVRIggwsQLL4sb3Qvo1,symmetry-judgement-task,139,729955,0.0-46.0-4.0-2.0-1.0-4.0,,,,,,,,,,1.0,1.0,,,,5d21d969adb5ab00159cd083,22:42:47,03/04/2024
,"<div style=""font-size: 10rem; color: #0000FF"">C</div>",,ospan,letter,TWWqV8AuEXVRIggwsQLL4sb3Qvo1,html-keyboard-response,140,730968,0.0-46.0-4.0-2.0-1.0-5.0,,,,,,,,,,,,,,,5d21d969adb5ab00159cd083,22:42:47,03/04/2024
2922.89999999851,"<div class = numbox><p style=""font-size: 2.4rem"">Please recall the letters you saw to the best of your ability. If you do not remember a particular letter, use the SKIP button.<br><b>(When you are ready to lock in your answer, press ENTER)</b></p><button id = button_1 class = ""square num-button"" onclick = ""recordClick(this)""><div class = content><div class = numbers>C</div></div></button><button id = button_2 class = ""square num-button"" onclick = ""recordClick(this)""><div class = content><div class = numbers>G</div></div></button><button id = button_3 class = ""square num-button"" onclick = ""recordClick(this)""><div class = content><div class = numbers>H</div></div></button><button id = button_4 class = ""square num-button"" onclick = ""recordClick(this)""><div class = content><div class = numbers>J</div></div></button><button id = button_5 class = ""square num-button"" onclick = ""recordClick(this)""><div class = content><div class = numbers>K</div></div></button><button id = button_6 class = ""square num-button"" onclick = ""recordClick(this)""><div class = content><div class = numbers>L</div></div></button><button id = button_7 class = ""square num-button"" onclick = ""recordClick(this)""><div class = content><div class = numbers>N</div></div></button><button id = button_8 class = ""square num-button"" onclick = ""recordClick(this)""><div class = content><div class = numbers>P</div></div></button><button id = button_9 class = ""square num-button"" onclick = ""recordClick(this)""><div class = content><div class = numbers>Q</div></div></button><button id = button_10 class = ""square num-button"" onclick = ""recordClick(this)""><div class = content><div class = numbers>R</div></div></button><button id = button_11 class = ""square num-button"" onclick = ""recordClick(this)""><div class = content><div class = numbers>S</div></div></button><button id = button_12 class = ""square num-button"" onclick = ""recordClick(this)""><div class = content><div class = numbers>Y</div></div></button><button class = clear_button id = ""ClearButton"" onclick = ""clearResponse()"">BACKSPACE</button><button class = blank_button id = ""BlankButton"" onclick = ""blankResponse()"">SKIP</button><p style=""font-size: 2.4rem""><u><b>Current Answer:</b></u></p><br><br><div id=echoed_txt style=""font-size: 5rem; color:blue;""><b></b></div></div>",enter,ospan,retrieval,TWWqV8AuEXVRIggwsQLL4sb3Qvo1,html-keyboard-response,141,734657,0.0-46.0-4.0-2.0-2.0,15,15,15,3.0,"[""S"",""N"",""C""]","[""S"",""N"",""C""]",1.0,3.0,,,,,,,5d21d969adb5ab00159cd083,22:42:47,03/04/2024
1183.0,[''],0,ospan,feedback,TWWqV8AuEXVRIggwsQLL4sb3Qvo1,html-button-response,142,736346,0.0-46.0-4.0-2.0-3.0,,,,,,,,,,,,100.0,0.0,,5d21d969adb5ab00159cd083,22:42:47,03/04/2024
,"<p style=""font-size:75px;"">...</p>",,ospan,iti,TWWqV8AuEXVRIggwsQLL4sb3Qvo1,html-keyboard-response,143,737352,0.0-46.0-5.0-0.0-0.0,,,,,,,,,,,,,,,5d21d969adb5ab00159cd083,22:42:47,03/04/2024
1277.0,,,ospan,symmetry,TWWqV8AuEXVRIggwsQLL4sb3Qvo1,symmetry-judgement-task,144,739851,0.0-46.0-5.0-0.0-1.0-0.0,,,,,,,,,,1.0,1.0,,,,5d21d969adb5ab00159cd083,22:42:47,03/04/2024
,"<div style=""font-size: 10rem; color: #0000FF"">H</div>",,ospan,letter,TWWqV8AuEXVRIggwsQLL4sb3Qvo1,html-keyboard-response,145,740852,0.0-46.0-5.0-0.0-1.0-1.0,,,,,,,,,,,,,,,5d21d969adb5ab00159cd083,22:42:47,03/04/2024
1063.0,,,ospan,symmetry,TWWqV8AuEXVRIggwsQLL4sb3Qvo1,symmetry-judgement-task,146,743907,0.0-46.0-5.0-0.0-1.0-2.0,,,,,,,,,,1.0,1.0,,,,5d21d969adb5ab00159cd083,22:42:47,03/04/2024
,"<div style=""font-size: 10rem; color: #0000FF"">K</div>",,ospan,letter,TWWqV8AuEXVRIggwsQLL4sb3Qvo1,html-keyboard-response,147,744909,0.0-46.0-5.0-0.0-1.0-3.0,,,,,,,,,,,,,,,5d21d969adb5ab00159cd083,22:42:47,03/04/2024
1363.0,,,ospan,symmetry,TWWqV8AuEXVRIggwsQLL4sb3Qvo1,symmetry-judgement-task,148,748242,0.0-46.0-5.0-0.0-1.0-4.0,,,,,,,,,,1.0,1.0,,,,5d21d969adb5ab00159cd083,22:42:47,03/04/2024
,"<div style=""font-size: 10rem; color: #0000FF"">J</div>",,ospan,letter,TWWqV8AuEXVRIggwsQLL4sb3Qvo1,html-keyboard-response,149,749252,0.0-46.0-5.0-0.0-1.0-5.0,,,,,,,,,,,,,,,5d21d969adb5ab00159cd083,22:42:47,03/04/2024
1530.0,,,ospan,symmetry,TWWqV8AuEXVRIggwsQLL4sb3Qvo1,symmetry-judgement-task,150,752787,0.0-46.0-5.0-0.0-1.0-6.0,,,,,,,,,,1.0,1.0,,,,5d21d969adb5ab00159cd083,22:42:47,03/04/2024
,"<div style=""font-size: 10rem; color: #0000FF"">N</div>",,ospan,letter,TWWqV8AuEXVRIggwsQLL4sb3Qvo1,html-keyboard-response,151,753801,0.0-46.0-5.0-0.0-1.0-7.0,,,,,,,,,,,,,,,5d21d969adb5ab00159cd083,22:42:47,03/04/2024
1414.0,,,ospan,symmetry,TWWqV8AuEXVRIggwsQLL4sb3Qvo1,symmetry-judgement-task,152,757204,0.0-46.0-5.0-0.0-1.0-8.0,,,,,,,,,,1.0,1.0,,,,5d21d969adb5ab00159cd083,22:42:47,03/04/2024
,"<div style=""font-size: 10rem; color: #0000FF"">P</div>",,ospan,letter,TWWqV8AuEXVRIggwsQLL4sb3Qvo1,html-keyboard-response,153,758207,0.0-46.0-5.0-0.0-1.0-9.0,,,,,,,,,,,,,,,5d21d969adb5ab00159cd083,22:42:47,03/04/2024
1208.0,,,ospan,symmetry,TWWqV8AuEXVRIggwsQLL4sb3Qvo1,symmetry-judgement-task,154,761394,0.0-46.0-5.0-0.0-1.0-10.0,,,,,,,,,,1.0,1.0,,,,5d21d969adb5ab00159cd083,22:42:47,03/04/2024
,"<div style=""font-size: 10rem; color: #0000FF"">S</div>",,ospan,letter,TWWqV8AuEXVRIggwsQLL4sb3Qvo1,html-keyboard-response,155,762404,0.0-46.0-5.0-0.0-1.0-11.0,,,,,,,,,,,,,,,5d21d969adb5ab00159cd083,22:42:47,03/04/2024
6679.69999999553,"<div class = numbox><p style=""font-size: 2.4rem"">Please recall the letters you saw to the best of your ability. If you do not remember a particular letter, use the SKIP button.<br><b>(When you are ready to lock in your answer, press ENTER)</b></p><button id = button_1 class = ""square num-button"" onclick = ""recordClick(this)""><div class = content><div class = numbers>C</div></div></button><button id = button_2 class = ""square num-button"" onclick = ""recordClick(this)""><div class = content><div class = numbers>G</div></div></button><button id = button_3 class = ""square num-button"" onclick = ""recordClick(this)""><div class = content><div class = numbers>H</div></div></button><button id = button_4 class = ""square num-button"" onclick = ""recordClick(this)""><div class = content><div class = numbers>J</div></div></button><button id = button_5 class = ""square num-button"" onclick = ""recordClick(this)""><div class = content><div class = numbers>K</div></div></button><button id = button_6 class = ""square num-button"" onclick = ""recordClick(this)""><div class = content><div class = numbers>L</div></div></button><button id = button_7 class = ""square num-button"" onclick = ""recordClick(this)""><div class = content><div class = numbers>N</div></div></button><button id = button_8 class = ""square num-button"" onclick = ""recordClick(this)""><div class = content><div class = numbers>P</div></div></button><button id = button_9 class = ""square num-button"" onclick = ""recordClick(this)""><div class = content><div class = numbers>Q</div></div></button><button id = button_10 class = ""square num-button"" onclick = ""recordClick(this)""><div class = content><div class = numbers>R</div></div></button><button id = button_11 class = ""square num-button"" onclick = ""recordClick(this)""><div class = content><div class = numbers>S</div></div></button><button id = button_12 class = ""square num-button"" onclick = ""recordClick(this)""><div class = content><div class = numbers>Y</div></div></button><button class = clear_button id = ""ClearButton"" onclick = ""clearResponse()"">BACKSPACE</button><button class = blank_button id = ""BlankButton"" onclick = ""blankResponse()"">SKIP</button><p style=""font-size: 2.4rem""><u><b>Current Answer:</b></u></p><br><br><div id=echoed_txt style=""font-size: 5rem; color:blue;""><b></b></div></div>",enter,ospan,retrieval,TWWqV8AuEXVRIggwsQLL4sb3Qvo1,html-keyboard-response,156,769847,0.0-46.0-5.0-0.0-2.0,21,21,21,6.0,"[""H"",""K"",""J"",""N"",""P"",""S""]","[""H"",""K"",""J"",""N"",""P"",""S""]",1.0,6.0,,,,,,,5d21d969adb5ab00159cd083,22:42:47,03/04/2024
739.1000000014901,[''],0,ospan,feedback,TWWqV8AuEXVRIggwsQLL4sb3Qvo1,html-button-response,157,771090,0.0-46.0-5.0-0.0-3.0,,,,,,,,,,,,100.0,0.0,,5d21d969adb5ab00159cd083,22:42:47,03/04/2024
,"<p style=""font-size:75px;"">...</p>",,ospan,iti,TWWqV8AuEXVRIggwsQLL4sb3Qvo1,html-keyboard-response,158,772091,0.0-46.0-5.0-1.0-0.0,,,,,,,,,,,,,,,5d21d969adb5ab00159cd083,22:42:47,03/04/2024
1334.0,,,ospan,symmetry,TWWqV8AuEXVRIggwsQLL4sb3Qvo1,symmetry-judgement-task,159,774466,0.0-46.0-5.0-1.0-1.0-0.0,,,,,,,,,,1.0,1.0,,,,5d21d969adb5ab00159cd083,22:42:47,03/04/2024
,"<div style=""font-size: 10rem; color: #0000FF"">J</div>",,ospan,letter,TWWqV8AuEXVRIggwsQLL4sb3Qvo1,html-keyboard-response,160,775474,0.0-46.0-5.0-1.0-1.0-1.0,,,,,,,,,,,,,,,5d21d969adb5ab00159cd083,22:42:47,03/04/2024
1115.0,,,ospan,symmetry,TWWqV8AuEXVRIggwsQLL4sb3Qvo1,symmetry-judgement-task,161,778576,0.0-46.0-5.0-1.0-1.0-2.0,,,,,,,,,,1.0,1.0,,,,5d21d969adb5ab00159cd083,22:42:47,03/04/2024
,"<div style=""font-size: 10rem; color: #0000FF"">P</div>",,ospan,letter,TWWqV8AuEXVRIggwsQLL4sb3Qvo1,html-keyboard-response,162,779579,0.0-46.0-5.0-1.0-1.0-3.0,,,,,,,,,,,,,,,5d21d969adb5ab00159cd083,22:42:47,03/04/2024
1045.0,,,ospan,symmetry,TWWqV8AuEXVRIggwsQLL4sb3Qvo1,symmetry-judgement-task,163,782588,0.0-46.0-5.0-1.0-1.0-4.0,,,,,,,,,,1.0,1.0,,,,5d21d969adb5ab00159cd083,22:42:47,03/04/2024
,"<div style=""font-size: 10rem; color: #0000FF"">R</div>",,ospan,letter,TWWqV8AuEXVRIggwsQLL4sb3Qvo1,html-keyboard-response,164,783591,0.0-46.0-5.0-1.0-1.0-5.0,,,,,,,,,,,,,,,5d21d969adb5ab00159cd083,22:42:47,03/04/2024
1365.0,,,ospan,symmetry,TWWqV8AuEXVRIggwsQLL4sb3Qvo1,symmetry-judgement-task,165,786920,0.0-46.0-5.0-1.0-1.0-6.0,,,,,,,,,,1.0,1.0,,,,5d21d969adb5ab00159cd083,22:42:47,03/04/2024
,"<div style=""font-size: 10rem; color: #0000FF"">L</div>",,ospan,letter,TWWqV8AuEXVRIggwsQLL4sb3Qvo1,html-keyboard-response,166,787923,0.0-46.0-5.0-1.0-1.0-7.0,,,,,,,,,,,,,,,5d21d969adb5ab00159cd083,22:42:47,03/04/2024
1606.0,,,ospan,symmetry,TWWqV8AuEXVRIggwsQLL4sb3Qvo1,symmetry-judgement-task,167,791519,0.0-46.0-5.0-1.0-1.0-8.0,,,,,,,,,,1.0,1.0,,,,5d21d969adb5ab00159cd083,22:42:47,03/04/2024
,"<div style=""font-size: 10rem; color: #0000FF"">G</div>",,ospan,letter,TWWqV8AuEXVRIggwsQLL4sb3Qvo1,html-keyboard-response,168,792530,0.0-46.0-5.0-1.0-1.0-9.0,,,,,,,,,,,,,,,5d21d969adb5ab00159cd083,22:42:47,03/04/2024
2849.0,,,ospan,symmetry,TWWqV8AuEXVRIggwsQLL4sb3Qvo1,symmetry-judgement-task,169,797338,0.0-46.0-5.0-1.0-1.0-10.0,,,,,,,,,,1.0,1.0,,,,5d21d969adb5ab00159cd083,22:42:47,03/04/2024
,"<div style=""font-size: 10rem; color: #0000FF"">N</div>",,ospan,letter,TWWqV8AuEXVRIggwsQLL4sb3Qvo1,html-keyboard-response,170,798346,0.0-46.0-5.0-1.0-1.0-11.0,,,,,,,,,,,,,,,5d21d969adb5ab00159cd083,22:42:47,03/04/2024
3648.0,,,ospan,symmetry,TWWqV8AuEXVRIggwsQLL4sb3Qvo1,symmetry-judgement-task,171,803983,0.0-46.0-5.0-1.0-1.0-12.0,,,,,,,,,,1.0,1.0,,,,5d21d969adb5ab00159cd083,22:42:47,03/04/2024
,"<div style=""font-size: 10rem; color: #0000FF"">S</div>",,ospan,letter,TWWqV8AuEXVRIggwsQLL4sb3Qvo1,html-keyboard-response,172,804987,0.0-46.0-5.0-1.0-1.0-13.0,,,,,,,,,,,,,,,5d21d969adb5ab00159cd083,22:42:47,03/04/2024
10404.5,"<div class = numbox><p style=""font-size: 2.4rem"">Please recall the letters you saw to the best of your ability. If you do not remember a particular letter, use the SKIP button.<br><b>(When you are ready to lock in your answer, press ENTER)</b></p><button id = button_1 class = ""square num-button"" onclick = ""recordClick(this)""><div class = content><div class = numbers>C</div></div></button><button id = button_2 class = ""square num-button"" onclick = ""recordClick(this)""><div class = content><div class = numbers>G</div></div></button><button id = button_3 class = ""square num-button"" onclick = ""recordClick(this)""><div class = content><div class = numbers>H</div></div></button><button id = button_4 class = ""square num-button"" onclick = ""recordClick(this)""><div class = content><div class = numbers>J</div></div></button><button id = button_5 class = ""square num-button"" onclick = ""recordClick(this)""><div class = content><div class = numbers>K</div></div></button><button id = button_6 class = ""square num-button"" onclick = ""recordClick(this)""><div class = content><div class = numbers>L</div></div></button><button id = button_7 class = ""square num-button"" onclick = ""recordClick(this)""><div class = content><div class = numbers>N</div></div></button><button id = button_8 class = ""square num-button"" onclick = ""recordClick(this)""><div class = content><div class = numbers>P</div></div></button><button id = button_9 class = ""square num-button"" onclick = ""recordClick(this)""><div class = content><div class = numbers>Q</div></div></button><button id = button_10 class = ""square num-button"" onclick = ""recordClick(this)""><div class = content><div class = numbers>R</div></div></button><button id = button_11 class = ""square num-button"" onclick = ""recordClick(this)""><div class = content><div class = numbers>S</div></div></button><button id = button_12 class = ""square num-button"" onclick = ""recordClick(this)""><div class = content><div class = numbers>Y</div></div></button><button class = clear_button id = ""ClearButton"" onclick = ""clearResponse()"">BACKSPACE</button><button class = blank_button id = ""BlankButton"" onclick = ""blankResponse()"">SKIP</button><p style=""font-size: 2.4rem""><u><b>Current Answer:</b></u></p><br><br><div id=echoed_txt style=""font-size: 5rem; color:blue;""><b></b></div></div>",enter,ospan,retrieval,TWWqV8AuEXVRIggwsQLL4sb3Qvo1,html-keyboard-response,173,816144,0.0-46.0-5.0-1.0-2.0,28,26,21,7.0,"[""J"",""P"",""R"",""L"",""N"",""G"",""S""]","[""J"",""P"",""R"",""L"",""G"",""N"",""S""]",0.0,5.0,,,,,,,5d21d969adb5ab00159cd083,22:42:47,03/04/2024
815.1000000014901,[''],0,ospan,feedback,TWWqV8AuEXVRIggwsQLL4sb3Qvo1,html-button-response,174,817460,0.0-46.0-5.0-1.0-3.0,,,,,,,,,,,,100.0,0.0,,5d21d969adb5ab00159cd083,22:42:47,03/04/2024
,"<p style=""font-size:75px;"">...</p>",,ospan,iti,TWWqV8AuEXVRIggwsQLL4sb3Qvo1,html-keyboard-response,175,818468,0.0-46.0-6.0-0.0-0.0,,,,,,,,,,,,,,,5d21d969adb5ab00159cd083,22:42:47,03/04/2024
1568.0,,,ospan,symmetry,TWWqV8AuEXVRIggwsQLL4sb3Qvo1,symmetry-judgement-task,176,821267,0.0-46.0-6.0-0.0-1.0-0.0,,,,,,,,,,1.0,1.0,,,,5d21d969adb5ab00159cd083,22:42:47,03/04/2024
,"<div style=""font-size: 10rem; color: #0000FF"">L</div>",,ospan,letter,TWWqV8AuEXVRIggwsQLL4sb3Qvo1,html-keyboard-response,177,822274,0.0-46.0-6.0-0.0-1.0-1.0,,,,,,,,,,,,,,,5d21d969adb5ab00159cd083,22:42:47,03/04/2024
1928.0,,,ospan,symmetry,TWWqV8AuEXVRIggwsQLL4sb3Qvo1,symmetry-judgement-task,178,826156,0.0-46.0-6.0-0.0-1.0-2.0,,,,,,,,,,1.0,1.0,,,,5d21d969adb5ab00159cd083,22:42:47,03/04/2024
,"<div style=""font-size: 10rem; color: #0000FF"">H</div>",,ospan,letter,TWWqV8AuEXVRIggwsQLL4sb3Qvo1,html-keyboard-response,179,827159,0.0-46.0-6.0-0.0-1.0-3.0,,,,,,,,,,,,,,,5d21d969adb5ab00159cd083,22:42:47,03/04/2024
1406.0,,,ospan,symmetry,TWWqV8AuEXVRIggwsQLL4sb3Qvo1,symmetry-judgement-task,180,830560,0.0-46.0-6.0-0.0-1.0-4.0,,,,,,,,,,1.0,1.0,,,,5d21d969adb5ab00159cd083,22:42:47,03/04/2024
,"<div style=""font-size: 10rem; color: #0000FF"">K</div>",,ospan,letter,TWWqV8AuEXVRIggwsQLL4sb3Qvo1,html-keyboard-response,181,831566,0.0-46.0-6.0-0.0-1.0-5.0,,,,,,,,,,,,,,,5d21d969adb5ab00159cd083,22:42:47,03/04/2024
967.0,,,ospan,symmetry,TWWqV8AuEXVRIggwsQLL4sb3Qvo1,symmetry-judgement-task,182,834512,0.0-46.0-6.0-0.0-1.0-6.0,,,,,,,,,,1.0,1.0,,,,5d21d969adb5ab00159cd083,22:42:47,03/04/2024
,"<div style=""font-size: 10rem; color: #0000FF"">Y</div>",,ospan,letter,TWWqV8AuEXVRIggwsQLL4sb3Qvo1,html-keyboard-response,183,835515,0.0-46.0-6.0-0.0-1.0-7.0,,,,,,,,,,,,,,,5d21d969adb5ab00159cd083,22:42:47,03/04/2024
1244.0,,,ospan,symmetry,TWWqV8AuEXVRIggwsQLL4sb3Qvo1,symmetry-judgement-task,184,838742,0.0-46.0-6.0-0.0-1.0-8.0,,,,,,,,,,1.0,1.0,,,,5d21d969adb5ab00159cd083,22:42:47,03/04/2024
,"<div style=""font-size: 10rem; color: #0000FF"">C</div>",,ospan,letter,TWWqV8AuEXVRIggwsQLL4sb3Qvo1,html-keyboard-response,185,839753,0.0-46.0-6.0-0.0-1.0-9.0,,,,,,,,,,,,,,,5d21d969adb5ab00159cd083,22:42:47,03/04/2024
4260.0,"<div class = numbox><p style=""font-size: 2.4rem"">Please recall the letters you saw to the best of your ability. If you do not remember a particular letter, use the SKIP button.<br><b>(When you are ready to lock in your answer, press ENTER)</b></p><button id = button_1 class = ""square num-button"" onclick = ""recordClick(this)""><div class = content><div class = numbers>C</div></div></button><button id = button_2 class = ""square num-button"" onclick = ""recordClick(this)""><div class = content><div class = numbers>G</div></div></button><button id = button_3 class = ""square num-button"" onclick = ""recordClick(this)""><div class = content><div class = numbers>H</div></div></button><button id = button_4 class = ""square num-button"" onclick = ""recordClick(this)""><div class = content><div class = numbers>J</div></div></button><button id = button_5 class = ""square num-button"" onclick = ""recordClick(this)""><div class = content><div class = numbers>K</div></div></button><button id = button_6 class = ""square num-button"" onclick = ""recordClick(this)""><div class = content><div class = numbers>L</div></div></button><button id = button_7 class = ""square num-button"" onclick = ""recordClick(this)""><div class = content><div class = numbers>N</div></div></button><button id = button_8 class = ""square num-button"" onclick = ""recordClick(this)""><div class = content><div class = numbers>P</div></div></button><button id = button_9 class = ""square num-button"" onclick = ""recordClick(this)""><div class = content><div class = numbers>Q</div></div></button><button id = button_10 class = ""square num-button"" onclick = ""recordClick(this)""><div class = content><div class = numbers>R</div></div></button><button id = button_11 class = ""square num-button"" onclick = ""recordClick(this)""><div class = content><div class = numbers>S</div></div></button><button id = button_12 class = ""square num-button"" onclick = ""recordClick(this)""><div class = content><div class = numbers>Y</div></div></button><button class = clear_button id = ""ClearButton"" onclick = ""clearResponse()"">BACKSPACE</button><button class = blank_button id = ""BlankButton"" onclick = ""blankResponse()"">SKIP</button><p style=""font-size: 2.4rem""><u><b>Current Answer:</b></u></p><br><br><div id=echoed_txt style=""font-size: 5rem; color:blue;""><b></b></div></div>",enter,ospan,retrieval,TWWqV8AuEXVRIggwsQLL4sb3Qvo1,html-keyboard-response,186,844779,0.0-46.0-6.0-0.0-2.0,33,31,26,5.0,"[""L"",""H"",""K"",""Y"",""C""]","[""L"",""H"",""K"",""Y"",""C""]",1.0,5.0,,,,,,,5d21d969adb5ab00159cd083,22:42:47,03/04/2024
1323.1000000014901,[''],0,ospan,feedback,TWWqV8AuEXVRIggwsQLL4sb3Qvo1,html-button-response,187,846605,0.0-46.0-6.0-0.0-3.0,,,,,,,,,,,,100.0,0.0,,5d21d969adb5ab00159cd083,22:42:47,03/04/2024
,"<p style=""font-size:75px;"">...</p>",,ospan,iti,TWWqV8AuEXVRIggwsQLL4sb3Qvo1,html-keyboard-response,188,847607,0.0-46.0-6.0-1.0-0.0,,,,,,,,,,,,,,,5d21d969adb5ab00159cd083,22:42:47,03/04/2024
2149.0,,,ospan,symmetry,TWWqV8AuEXVRIggwsQLL4sb3Qvo1,symmetry-judgement-task,189,850798,0.0-46.0-6.0-1.0-1.0-0.0,,,,,,,,,,1.0,1.0,,,,5d21d969adb5ab00159cd083,22:42:47,03/04/2024
,"<div style=""font-size: 10rem; color: #0000FF"">J</div>",,ospan,letter,TWWqV8AuEXVRIggwsQLL4sb3Qvo1,html-keyboard-response,190,851800,0.0-46.0-6.0-1.0-1.0-1.0,,,,,,,,,,,,,,,5d21d969adb5ab00159cd083,22:42:47,03/04/2024
1661.0,,,ospan,symmetry,TWWqV8AuEXVRIggwsQLL4sb3Qvo1,symmetry-judgement-task,191,855460,0.0-46.0-6.0-1.0-1.0-2.0,,,,,,,,,,1.0,1.0,,,,5d21d969adb5ab00159cd083,22:42:47,03/04/2024
,"<div style=""font-size: 10rem; color: #0000FF"">L</div>",,ospan,letter,TWWqV8AuEXVRIggwsQLL4sb3Qvo1,html-keyboard-response,192,856475,0.0-46.0-6.0-1.0-1.0-3.0,,,,,,,,,,,,,,,5d21d969adb5ab00159cd083,22:42:47,03/04/2024
1328.0,,,ospan,symmetry,TWWqV8AuEXVRIggwsQLL4sb3Qvo1,symmetry-judgement-task,193,859800,0.0-46.0-6.0-1.0-1.0-4.0,,,,,,,,,,1.0,1.0,,,,5d21d969adb5ab00159cd083,22:42:47,03/04/2024
,"<div style=""font-size: 10rem; color: #0000FF"">C</div>",,ospan,letter,TWWqV8AuEXVRIggwsQLL4sb3Qvo1,html-keyboard-response,194,860814,0.0-46.0-6.0-1.0-1.0-5.0,,,,,,,,,,,,,,,5d21d969adb5ab00159cd083,22:42:47,03/04/2024
2500.0,,,ospan,symmetry,TWWqV8AuEXVRIggwsQLL4sb3Qvo1,symmetry-judgement-task,195,865267,0.0-46.0-6.0-1.0-1.0-6.0,,,,,,,,,,1.0,1.0,,,,5d21d969adb5ab00159cd083,22:42:47,03/04/2024
,"<div style=""font-size: 10rem; color: #0000FF"">P</div>",,ospan,letter,TWWqV8AuEXVRIggwsQLL4sb3Qvo1,html-keyboard-response,196,866278,0.0-46.0-6.0-1.0-1.0-7.0,,,,,,,,,,,,,,,5d21d969adb5ab00159cd083,22:42:47,03/04/2024
1264.0,,,ospan,symmetry,TWWqV8AuEXVRIggwsQLL4sb3Qvo1,symmetry-judgement-task,197,869514,0.0-46.0-6.0-1.0-1.0-8.0,,,,,,,,,,1.0,1.0,,,,5d21d969adb5ab00159cd083,22:42:47,03/04/2024
,"<div style=""font-size: 10rem; color: #0000FF"">N</div>",,ospan,letter,TWWqV8AuEXVRIggwsQLL4sb3Qvo1,html-keyboard-response,198,870524,0.0-46.0-6.0-1.0-1.0-9.0,,,,,,,,,,,,,,,5d21d969adb5ab00159cd083,22:42:47,03/04/2024
2218.0,,,ospan,symmetry,TWWqV8AuEXVRIggwsQLL4sb3Qvo1,symmetry-judgement-task,199,874709,0.0-46.0-6.0-1.0-1.0-10.0,,,,,,,,,,1.0,1.0,,,,5d21d969adb5ab00159cd083,22:42:47,03/04/2024
,"<div style=""font-size: 10rem; color: #0000FF"">S</div>",,ospan,letter,TWWqV8AuEXVRIggwsQLL4sb3Qvo1,html-keyboard-response,200,875710,0.0-46.0-6.0-1.0-1.0-11.0,,,,,,,,,,,,,,,5d21d969adb5ab00159cd083,22:42:47,03/04/2024
3109.0,,,ospan,symmetry,TWWqV8AuEXVRIggwsQLL4sb3Qvo1,symmetry-judgement-task,201,880761,0.0-46.0-6.0-1.0-1.0-12.0,,,,,,,,,,1.0,1.0,,,,5d21d969adb5ab00159cd083,22:42:47,03/04/2024
,"<div style=""font-size: 10rem; color: #0000FF"">K</div>",,ospan,letter,TWWqV8AuEXVRIggwsQLL4sb3Qvo1,html-keyboard-response,202,881771,0.0-46.0-6.0-1.0-1.0-13.0,,,,,,,,,,,,,,,5d21d969adb5ab00159cd083,22:42:47,03/04/2024
2129.0,,,ospan,symmetry,TWWqV8AuEXVRIggwsQLL4sb3Qvo1,symmetry-judgement-task,203,885859,0.0-46.0-6.0-1.0-1.0-14.0,,,,,,,,,,1.0,1.0,,,,5d21d969adb5ab00159cd083,22:42:47,03/04/2024
,"<div style=""font-size: 10rem; color: #0000FF"">R</div>",,ospan,letter,TWWqV8AuEXVRIggwsQLL4sb3Qvo1,html-keyboard-response,204,886862,0.0-46.0-6.0-1.0-1.0-15.0,,,,,,,,,,,,,,,5d21d969adb5ab00159cd083,22:42:47,03/04/2024
27677.19999999553,"<div class = numbox><p style=""font-size: 2.4rem"">Please recall the letters you saw to the best of your ability. If you do not remember a particular letter, use the SKIP button.<br><b>(When you are ready to lock in your answer, press ENTER)</b></p><button id = button_1 class = ""square num-button"" onclick = ""recordClick(this)""><div class = content><div class = numbers>C</div></div></button><button id = button_2 class = ""square num-button"" onclick = ""recordClick(this)""><div class = content><div class = numbers>G</div></div></button><button id = button_3 class = ""square num-button"" onclick = ""recordClick(this)""><div class = content><div class = numbers>H</div></div></button><button id = button_4 class = ""square num-button"" onclick = ""recordClick(this)""><div class = content><div class = numbers>J</div></div></button><button id = button_5 class = ""square num-button"" onclick = ""recordClick(this)""><div class = content><div class = numbers>K</div></div></button><button id = button_6 class = ""square num-button"" onclick = ""recordClick(this)""><div class = content><div class = numbers>L</div></div></button><button id = button_7 class = ""square num-button"" onclick = ""recordClick(this)""><div class = content><div class = numbers>N</div></div></button><button id = button_8 class = ""square num-button"" onclick = ""recordClick(this)""><div class = content><div class = numbers>P</div></div></button><button id = button_9 class = ""square num-button"" onclick = ""recordClick(this)""><div class = content><div class = numbers>Q</div></div></button><button id = button_10 class = ""square num-button"" onclick = ""recordClick(this)""><div class = content><div class = numbers>R</div></div></button><button id = button_11 class = ""square num-button"" onclick = ""recordClick(this)""><div class = content><div class = numbers>S</div></div></button><button id = button_12 class = ""square num-button"" onclick = ""recordClick(this)""><div class = content><div class = numbers>Y</div></div></button><button class = clear_button id = ""ClearButton"" onclick = ""clearResponse()"">BACKSPACE</button><button class = blank_button id = ""BlankButton"" onclick = ""blankResponse()"">SKIP</button><p style=""font-size: 2.4rem""><u><b>Current Answer:</b></u></p><br><br><div id=echoed_txt style=""font-size: 5rem; color:blue;""><b></b></div></div>",enter,ospan,retrieval,TWWqV8AuEXVRIggwsQLL4sb3Qvo1,html-keyboard-response,205,915298,0.0-46.0-6.0-1.0-2.0,41,38,26,8.0,"[""J"",""L"",""C"",""P"",""N"",""S"",""K""]","[""J"",""L"",""C"",""P"",""N"",""S"",""K"",""R""]",0.0,7.0,,,,,,,5d21d969adb5ab00159cd083,22:42:47,03/04/2024
958.8999999985099,[''],0,ospan,feedback,TWWqV8AuEXVRIggwsQLL4sb3Qvo1,html-button-response,206,916759,0.0-46.0-6.0-1.0-3.0,,,,,,,,,,,,100.0,0.0,,5d21d969adb5ab00159cd083,22:42:47,03/04/2024
7245.89999999851,,{'Q0': 'all was fine'},ospan,survey_ospan,TWWqV8AuEXVRIggwsQLL4sb3Qvo1,lmdlab-survey-text,207,924758,0.0-46.0-7.0,,,,,,,,,,,,,,TWWqV8AuEXVRIggwsQLL4sb3Qvo1,5d21d969adb5ab00159cd083,22:42:47,03/04/2024
1095.1000000014901,<p><p style='font-size: 3rem'>Great work!<br><br>This completes the symmetry and memory task.</p><br><br><br>,0,ospan,finish,TWWqV8AuEXVRIggwsQLL4sb3Qvo1,html-button-response,208,925855,0.0-46.0-8.0,41,38,26,,,,,,,,,100.0,,,5d21d969adb5ab00159cd083,22:42:47,03/04/2024
