rt,stimulus,response,exp_name,exp_stage,subjectID,trial_type,trial_index,time_elapsed,internal_node_id,ospan_shown,ospan_total,ospan_abs,length,resp_actual,resp_correct,full_correct,num_correct,feedback,accuracy,correct,math_acc,math_warning,databaseID,prolificID,start_time,date
1883.1999998092651,<div class = 'left_align' style='font-size: 3.25rem; line-height: 1.3;'><p class = 'center_align'><b>Welcome to the Symmetry and Memory Task</b><br><br><br><br></p>Press 'continue' to show the instructions.<br><br><br><br></div>,0,ospan,instruct,sA4xw4Tsd4Xt4hWV5RXQqejqBhg2,html-button-response,54,1599208,0.0-46.0-0.0-0.0-0.0,,,,,,,,,,,,,,,5f71bba655ed56021e62625b,09:26:48,03/04/2024
7128.799999713898,"<div class = 'left_align' style='font-size: 3.25rem; line-height: 1.3;'><p class = 'center_align'><b>Symmetry and Memory Task</b><br><br></p>In this task, you will try to memorize letters you see on the screen<br>while you also view black and white grid pictures.<br><br>In the next few minutes, you will have some practice to get you familiar<br>with how the task works.<br><br>It may be difficult sometimes, but please do not worry about making mistakes!<br><br>We will begin by practicing the letter part of the task.<br><br><br><br></div>",0,ospan,instruct,sA4xw4Tsd4Xt4hWV5RXQqejqBhg2,html-button-response,55,1606608,0.0-46.0-0.0-0.0-1.0,,,,,,,,,,,,,,,5f71bba655ed56021e62625b,09:26:48,03/04/2024
5234.0,"<div class = 'left_align' style='font-size: 3.25rem; line-height: 1.3;'>For this practice part, letters will appear on the screen one at a time.<br><br>Try to remember each letter in the order presented.<br><br>After some letters have been shown, you will see a response screen. Your<br>goal is to report the letters you saw <b>in order</b>. If you do not remember<br>a particular letter, you will have the option to leave it blank.<br><br><br><br></div>",0,ospan,instruct,sA4xw4Tsd4Xt4hWV5RXQqejqBhg2,html-button-response,56,1612111,0.0-46.0-0.0-0.0-2.0,,,,,,,,,,,,,,,5f71bba655ed56021e62625b,09:26:48,03/04/2024
1913.8000001907349,"<div class = 'left_align' style='font-size: 3.25rem; line-height: 1.3;'>Remember, it is very important to get the letters in the same<br>order as you see them.<br><br>When you are ready, you may begin the letter practice.</div><br><br><br><br>",0,ospan,instruct,sA4xw4Tsd4Xt4hWV5RXQqejqBhg2,html-button-response,57,1614295,0.0-46.0-0.0-0.0-3.0,,,,,,,,,,,,,,,5f71bba655ed56021e62625b,09:26:48,03/04/2024
,"<p style=""font-size:75px;"">...</p>",,ospan,iti,sA4xw4Tsd4Xt4hWV5RXQqejqBhg2,html-keyboard-response,58,1615583,0.0-46.0-0.0-1.0-0.0,,,,,,,,,,,,,,,5f71bba655ed56021e62625b,09:26:48,03/04/2024
,"<div style=""font-size: 10rem; color: #0000FF"">K</div>",,ospan,letter,sA4xw4Tsd4Xt4hWV5RXQqejqBhg2,html-keyboard-response,59,1616598,0.0-46.0-0.0-1.0-1.0,,,,,,,,,,,,,,,5f71bba655ed56021e62625b,09:26:48,03/04/2024
,"<div style=""font-size: 10rem; color: #0000FF"">J</div>",,ospan,letter,sA4xw4Tsd4Xt4hWV5RXQqejqBhg2,html-keyboard-response,60,1618381,0.0-46.0-0.0-1.0-2.0,,,,,,,,,,,,,,,5f71bba655ed56021e62625b,09:26:48,03/04/2024
6064.900000095367,"<div class = numbox><p style=""font-size: 2.4rem"">Please recall the letters you saw to the best of your ability. If you do not remember a particular letter, use the SKIP button.<br><b>(When you are ready to lock in your answer, press ENTER)</b></p><button id = button_1 class = ""square num-button"" onclick = ""recordClick(this)""><div class = content><div class = numbers>C</div></div></button><button id = button_2 class = ""square num-button"" onclick = ""recordClick(this)""><div class = content><div class = numbers>G</div></div></button><button id = button_3 class = ""square num-button"" onclick = ""recordClick(this)""><div class = content><div class = numbers>H</div></div></button><button id = button_4 class = ""square num-button"" onclick = ""recordClick(this)""><div class = content><div class = numbers>J</div></div></button><button id = button_5 class = ""square num-button"" onclick = ""recordClick(this)""><div class = content><div class = numbers>K</div></div></button><button id = button_6 class = ""square num-button"" onclick = ""recordClick(this)""><div class = content><div class = numbers>L</div></div></button><button id = button_7 class = ""square num-button"" onclick = ""recordClick(this)""><div class = content><div class = numbers>N</div></div></button><button id = button_8 class = ""square num-button"" onclick = ""recordClick(this)""><div class = content><div class = numbers>P</div></div></button><button id = button_9 class = ""square num-button"" onclick = ""recordClick(this)""><div class = content><div class = numbers>Q</div></div></button><button id = button_10 class = ""square num-button"" onclick = ""recordClick(this)""><div class = content><div class = numbers>R</div></div></button><button id = button_11 class = ""square num-button"" onclick = ""recordClick(this)""><div class = content><div class = numbers>S</div></div></button><button id = button_12 class = ""square num-button"" onclick = ""recordClick(this)""><div class = content><div class = numbers>Y</div></div></button><button class = clear_button id = ""ClearButton"" onclick = ""clearResponse()"">BACKSPACE</button><button class = blank_button id = ""BlankButton"" onclick = ""blankResponse()"">SKIP</button><p style=""font-size: 2.4rem""><u><b>Current Answer:</b></u></p><br><br><div id=echoed_txt style=""font-size: 5rem; color:blue;""><b></b></div></div>",enter,ospan,retrieval,sA4xw4Tsd4Xt4hWV5RXQqejqBhg2,html-keyboard-response,61,1625213,0.0-46.0-0.0-1.0-3.0,NA,NA,NA,2.0,"[""K"",""J""]","[""K"",""J""]",1.0,2.0,"['<font color=""green"">K</font>', '<font color=""green"">J</font>']",,,,,,5f71bba655ed56021e62625b,09:26:48,03/04/2024
3998.0,"['<p style=""font-size:44px"">Letters:<br><br><br><font color=""green"">K</font> <font color=""green"">J</font></p><br><br>']",0,ospan,practice_feedback,sA4xw4Tsd4Xt4hWV5RXQqejqBhg2,html-button-response,62,1629727,0.0-46.0-0.0-1.0-4.0,,,,,,,,,,,,,,,5f71bba655ed56021e62625b,09:26:48,03/04/2024
,"<p style=""font-size:75px;"">...</p>",,ospan,iti,sA4xw4Tsd4Xt4hWV5RXQqejqBhg2,html-keyboard-response,63,1630731,0.0-46.0-0.0-2.0-0.0,,,,,,,,,,,,,,,5f71bba655ed56021e62625b,09:26:48,03/04/2024
,"<div style=""font-size: 10rem; color: #0000FF"">G</div>",,ospan,letter,sA4xw4Tsd4Xt4hWV5RXQqejqBhg2,html-keyboard-response,64,1631743,0.0-46.0-0.0-2.0-1.0,,,,,,,,,,,,,,,5f71bba655ed56021e62625b,09:26:48,03/04/2024
,"<div style=""font-size: 10rem; color: #0000FF"">Y</div>",,ospan,letter,sA4xw4Tsd4Xt4hWV5RXQqejqBhg2,html-keyboard-response,65,1633525,0.0-46.0-0.0-2.0-2.0,,,,,,,,,,,,,,,5f71bba655ed56021e62625b,09:26:48,03/04/2024
,"<div style=""font-size: 10rem; color: #0000FF"">C</div>",,ospan,letter,sA4xw4Tsd4Xt4hWV5RXQqejqBhg2,html-keyboard-response,66,1635310,0.0-46.0-0.0-2.0-3.0,,,,,,,,,,,,,,,5f71bba655ed56021e62625b,09:26:48,03/04/2024
3899.2000002861023,"<div class = numbox><p style=""font-size: 2.4rem"">Please recall the letters you saw to the best of your ability. If you do not remember a particular letter, use the SKIP button.<br><b>(When you are ready to lock in your answer, press ENTER)</b></p><button id = button_1 class = ""square num-button"" onclick = ""recordClick(this)""><div class = content><div class = numbers>C</div></div></button><button id = button_2 class = ""square num-button"" onclick = ""recordClick(this)""><div class = content><div class = numbers>G</div></div></button><button id = button_3 class = ""square num-button"" onclick = ""recordClick(this)""><div class = content><div class = numbers>H</div></div></button><button id = button_4 class = ""square num-button"" onclick = ""recordClick(this)""><div class = content><div class = numbers>J</div></div></button><button id = button_5 class = ""square num-button"" onclick = ""recordClick(this)""><div class = content><div class = numbers>K</div></div></button><button id = button_6 class = ""square num-button"" onclick = ""recordClick(this)""><div class = content><div class = numbers>L</div></div></button><button id = button_7 class = ""square num-button"" onclick = ""recordClick(this)""><div class = content><div class = numbers>N</div></div></button><button id = button_8 class = ""square num-button"" onclick = ""recordClick(this)""><div class = content><div class = numbers>P</div></div></button><button id = button_9 class = ""square num-button"" onclick = ""recordClick(this)""><div class = content><div class = numbers>Q</div></div></button><button id = button_10 class = ""square num-button"" onclick = ""recordClick(this)""><div class = content><div class = numbers>R</div></div></button><button id = button_11 class = ""square num-button"" onclick = ""recordClick(this)""><div class = content><div class = numbers>S</div></div></button><button id = button_12 class = ""square num-button"" onclick = ""recordClick(this)""><div class = content><div class = numbers>Y</div></div></button><button class = clear_button id = ""ClearButton"" onclick = ""clearResponse()"">BACKSPACE</button><button class = blank_button id = ""BlankButton"" onclick = ""blankResponse()"">SKIP</button><p style=""font-size: 2.4rem""><u><b>Current Answer:</b></u></p><br><br><div id=echoed_txt style=""font-size: 5rem; color:blue;""><b></b></div></div>",enter,ospan,retrieval,sA4xw4Tsd4Xt4hWV5RXQqejqBhg2,html-keyboard-response,67,1639976,0.0-46.0-0.0-2.0-4.0,NA,NA,NA,3.0,"[""G"",""Y"",""C""]","[""G"",""Y"",""C""]",1.0,3.0,"['<font color=""green"">G</font>', '<font color=""green"">Y</font>', '<font color=""green"">C</font>']",,,,,,5f71bba655ed56021e62625b,09:26:48,03/04/2024
19133.400000095367,"['<p style=""font-size:44px"">Letters:<br><br><br><font color=""green"">G</font> <font color=""green"">Y</font> <font color=""green"">C</font></p><br><br>']",0,ospan,practice_feedback,sA4xw4Tsd4Xt4hWV5RXQqejqBhg2,html-button-response,68,1659623,0.0-46.0-0.0-2.0-5.0,,,,,,,,,,,,,,,5f71bba655ed56021e62625b,09:26:48,03/04/2024
7622.900000095367,"<div class = 'left_align' style='font-size: 3.25rem; line-height: 1.3;'>Now you will practice doing the <b>symmetry judgment part</b> of the experiment.<br><br>A black and white grid picture will appear on the screen and you have to judge if it is <br>symmetrical or asymetrical.<br><br>A picture is 'mirror' symmetrical if its left half is identical to the right half when flipped.<br>Here are examples of a symmetrical and an asymetrical picture:<br><br><center><img src='Stimuli/img/symm_instructions_extra.png' style='height:420px; width:900'></img></center><br>To judge symmetry, imagine you were to fold each picture down the middle, like a book –<br>would the left half match the right half when folded onto each other?<br><br></div><br>",0,ospan,instruct,sA4xw4Tsd4Xt4hWV5RXQqejqBhg2,html-button-response,69,1667247,0.0-46.0-1.0-0.0-0.0,,,,,,,,,,,,,,,5f71bba655ed56021e62625b,09:26:48,03/04/2024
2277.0999999046326,"<div class = 'left_align' style='font-size: 3.25rem; line-height: 1.3;'>When you have viewed the picture and determined whether it is symmetrical or not,<br>you can <b>click the Yes or No button</b> below to answer.<br><br>If you take longer than 15 seconds, it will continue automatically<br>and record the answer as an error.</div><br>",0,ospan,instruct,sA4xw4Tsd4Xt4hWV5RXQqejqBhg2,html-button-response,70,1669783,0.0-46.0-1.0-0.0-1.0,,,,,,,,,,,,,,,5f71bba655ed56021e62625b,09:26:48,03/04/2024
4672.099999904633,"<div class = 'left_align' style='font-size: 3.25rem; line-height: 1.3;'>It is <b>very</b> important that you make the symmetry judgment correctly.<br><br>It is also important that you try and judge the picture as quickly as you can.<br><br>When you are ready, click on the button below to try some practice problems.</div><br><br><br><br>",0,ospan,instruct,sA4xw4Tsd4Xt4hWV5RXQqejqBhg2,html-button-response,71,1674719,0.0-46.0-1.0-0.0-2.0,,,,,,,,,,,,,,,5f71bba655ed56021e62625b,09:26:48,03/04/2024
2527.0,,,ospan,symmetry,sA4xw4Tsd4Xt4hWV5RXQqejqBhg2,symmetry-judgement-task,72,1678104,0.0-46.0-1.0-1.0-0.0,,,,,,,,,,1.0,1.0,,,,5f71bba655ed56021e62625b,09:26:48,03/04/2024
,"<p style=""color:green; font-size: 35px"">Correct</p>",,ospan,feedback,sA4xw4Tsd4Xt4hWV5RXQqejqBhg2,html-keyboard-response,73,1678864,0.0-46.0-1.0-1.0-1.0,,,,,,,,,,,,,,,5f71bba655ed56021e62625b,09:26:48,03/04/2024
1292.0,,,ospan,symmetry,sA4xw4Tsd4Xt4hWV5RXQqejqBhg2,symmetry-judgement-task,74,1682892,0.0-46.0-1.0-1.0-2.0,,,,,,,,,,1.0,1.0,,,,5f71bba655ed56021e62625b,09:26:48,03/04/2024
,"<p style=""color:green; font-size: 35px"">Correct</p>",,ospan,feedback,sA4xw4Tsd4Xt4hWV5RXQqejqBhg2,html-keyboard-response,75,1683659,0.0-46.0-1.0-1.0-3.0,,,,,,,,,,,,,,,5f71bba655ed56021e62625b,09:26:48,03/04/2024
1251.0,,,ospan,symmetry,sA4xw4Tsd4Xt4hWV5RXQqejqBhg2,symmetry-judgement-task,76,1687657,0.0-46.0-1.0-1.0-4.0,,,,,,,,,,1.0,1.0,,,,5f71bba655ed56021e62625b,09:26:48,03/04/2024
,"<p style=""color:green; font-size: 35px"">Correct</p>",,ospan,feedback,sA4xw4Tsd4Xt4hWV5RXQqejqBhg2,html-keyboard-response,77,1688424,0.0-46.0-1.0-1.0-5.0,,,,,,,,,,,,,,,5f71bba655ed56021e62625b,09:26:48,03/04/2024
823.8999996185303,"<p style=""font-size: 3rem;"">You responded correctly on 3 of 3 symmetry judgments. Good job!</p><br><br>",0,ospan,practice,sA4xw4Tsd4Xt4hWV5RXQqejqBhg2,html-button-response,78,1691263,0.0-46.0-1.0-2.0,,,,,,,,,,,,,,,5f71bba655ed56021e62625b,09:26:48,03/04/2024
2316.3999996185303,"<div class = 'left_align' style='font-size: 3.25rem; line-height: 1.3;'>Now you will practice doing both parts of the experiment at the same time.<br><br>In the next practice set, you will be given one grid picture to judge.<br>Then letter will appear on the screen. Try to remember the letter.<br><br>It is <b>very important</b> to make the symmetry judgment as quickly and accurately as possible.<br><br>Just as before, once you have make the symmetry judgment, you can click Yes or No.<br><b>Note that you will no longer see Correct or Incorrect feedback.</div><br><br><br><br>",0,ospan,instruct,sA4xw4Tsd4Xt4hWV5RXQqejqBhg2,html-button-response,79,1693839,0.0-46.0-2.0-0.0-0.0,,,,,,,,,,,,,,,5f71bba655ed56021e62625b,09:26:48,03/04/2024
1837.1999998092651,"<div class = 'left_align' style='font-size: 3.25rem; line-height: 1.3;'>After the letter goes away, another grid picture will appear, and then<br>another letter.<br><br>At the end of each set of letters and grids, you will recall the letters to the best<br>of your ability. Remember, try your best to get the letters in the correct order.<br><br>It is important to <b>quickly</b> and <b>accurately</b> make the symmetry judgments.</div><br><br><br><br>",0,ospan,instruct,sA4xw4Tsd4Xt4hWV5RXQqejqBhg2,html-button-response,80,1695943,0.0-46.0-2.0-0.0-1.0,,,,,,,,,,,,,,,5f71bba655ed56021e62625b,09:26:48,03/04/2024
10618.199999809265,"<div class = 'left_align' style='font-size: 3.25rem; line-height: 1.3;'>On the feedback screen, if you are not doing well at the symmetry judgments,<br>you will also see a warning in the middle. This indicates your percent <br>correct for the grid pictures for the entire experiment.<br><br>It is <b>very</b> important for you to keep accuracy at least at 85%: <u>We can only use<br>data where the participant was at least 85% accurate on the judgments.</u> Therefore,<br> please try your best to perform well on the symmetry judgments, <b>at the same time</b><br>doing your best to recall as many letters as possible.<br><br>Click the button to try some practice problems.</div><br><br><br><br>",0,ospan,instruct,sA4xw4Tsd4Xt4hWV5RXQqejqBhg2,html-button-response,81,1706831,0.0-46.0-2.0-0.0-2.0,,,,,,,,,,,,,,,5f71bba655ed56021e62625b,09:26:48,03/04/2024
,"<p style=""font-size:75px;"">...</p>",,ospan,iti,sA4xw4Tsd4Xt4hWV5RXQqejqBhg2,html-keyboard-response,82,1708100,0.0-46.0-2.0-1.0-0.0,,,,,,,,,,,,,,,5f71bba655ed56021e62625b,09:26:48,03/04/2024
1479.0,,,ospan,symmetry,sA4xw4Tsd4Xt4hWV5RXQqejqBhg2,symmetry-judgement-task,83,1710801,0.0-46.0-2.0-1.0-1.0-0.0,,,,,,,,,,1.0,1.0,,,,5f71bba655ed56021e62625b,09:26:48,03/04/2024
,"<div style=""font-size: 10rem; color: #0000FF"">L</div>",,ospan,letter,sA4xw4Tsd4Xt4hWV5RXQqejqBhg2,html-keyboard-response,84,1711820,0.0-46.0-2.0-1.0-1.0-1.0,,,,,,,,,,,,,,,5f71bba655ed56021e62625b,09:26:48,03/04/2024
2166.0,,,ospan,symmetry,sA4xw4Tsd4Xt4hWV5RXQqejqBhg2,symmetry-judgement-task,85,1715964,0.0-46.0-2.0-1.0-1.0-2.0,,,,,,,,,,1.0,1.0,,,,5f71bba655ed56021e62625b,09:26:48,03/04/2024
,"<div style=""font-size: 10rem; color: #0000FF"">K</div>",,ospan,letter,sA4xw4Tsd4Xt4hWV5RXQqejqBhg2,html-keyboard-response,86,1716981,0.0-46.0-2.0-1.0-1.0-3.0,,,,,,,,,,,,,,,5f71bba655ed56021e62625b,09:26:48,03/04/2024
1118.0,,,ospan,symmetry,sA4xw4Tsd4Xt4hWV5RXQqejqBhg2,symmetry-judgement-task,87,1720075,0.0-46.0-2.0-1.0-1.0-4.0,,,,,,,,,,1.0,1.0,,,,5f71bba655ed56021e62625b,09:26:48,03/04/2024
,"<div style=""font-size: 10rem; color: #0000FF"">Y</div>",,ospan,letter,sA4xw4Tsd4Xt4hWV5RXQqejqBhg2,html-keyboard-response,88,1721084,0.0-46.0-2.0-1.0-1.0-5.0,,,,,,,,,,,,,,,5f71bba655ed56021e62625b,09:26:48,03/04/2024
3582.3999996185303,"<div class = numbox><p style=""font-size: 2.4rem"">Please recall the letters you saw to the best of your ability. If you do not remember a particular letter, use the SKIP button.<br><b>(When you are ready to lock in your answer, press ENTER)</b></p><button id = button_1 class = ""square num-button"" onclick = ""recordClick(this)""><div class = content><div class = numbers>C</div></div></button><button id = button_2 class = ""square num-button"" onclick = ""recordClick(this)""><div class = content><div class = numbers>G</div></div></button><button id = button_3 class = ""square num-button"" onclick = ""recordClick(this)""><div class = content><div class = numbers>H</div></div></button><button id = button_4 class = ""square num-button"" onclick = ""recordClick(this)""><div class = content><div class = numbers>J</div></div></button><button id = button_5 class = ""square num-button"" onclick = ""recordClick(this)""><div class = content><div class = numbers>K</div></div></button><button id = button_6 class = ""square num-button"" onclick = ""recordClick(this)""><div class = content><div class = numbers>L</div></div></button><button id = button_7 class = ""square num-button"" onclick = ""recordClick(this)""><div class = content><div class = numbers>N</div></div></button><button id = button_8 class = ""square num-button"" onclick = ""recordClick(this)""><div class = content><div class = numbers>P</div></div></button><button id = button_9 class = ""square num-button"" onclick = ""recordClick(this)""><div class = content><div class = numbers>Q</div></div></button><button id = button_10 class = ""square num-button"" onclick = ""recordClick(this)""><div class = content><div class = numbers>R</div></div></button><button id = button_11 class = ""square num-button"" onclick = ""recordClick(this)""><div class = content><div class = numbers>S</div></div></button><button id = button_12 class = ""square num-button"" onclick = ""recordClick(this)""><div class = content><div class = numbers>Y</div></div></button><button class = clear_button id = ""ClearButton"" onclick = ""clearResponse()"">BACKSPACE</button><button class = blank_button id = ""BlankButton"" onclick = ""blankResponse()"">SKIP</button><p style=""font-size: 2.4rem""><u><b>Current Answer:</b></u></p><br><br><div id=echoed_txt style=""font-size: 5rem; color:blue;""><b></b></div></div>",enter,ospan,retrieval,sA4xw4Tsd4Xt4hWV5RXQqejqBhg2,html-keyboard-response,89,1725424,0.0-46.0-2.0-1.0-2.0-0.0,NA,NA,NA,3.0,"[""L"",""K"",""Y""]","[""L"",""K"",""Y""]",1.0,3.0,"['<font color=""green"">L</font>', '<font color=""green"">K</font>', '<font color=""green"">Y</font>']",,,,,,5f71bba655ed56021e62625b,09:26:48,03/04/2024
1253.6000003814697,"['<p style=""font-size:44px"">Letters:<br><br><br><font color=""green"">L</font> <font color=""green"">K</font> <font color=""green"">Y</font></p><br><br><p style=""font-size:30px"">Symmetry:<br><br><font color=""green"">100%</font></p><br><br>']",0,ospan,practice_feedback,sA4xw4Tsd4Xt4hWV5RXQqejqBhg2,html-button-response,90,1727198,0.0-46.0-2.0-1.0-2.0-1.0,,,,,,,,,,,,,,,5f71bba655ed56021e62625b,09:26:48,03/04/2024
,"<p style=""font-size:75px;"">...</p>",,ospan,iti,sA4xw4Tsd4Xt4hWV5RXQqejqBhg2,html-keyboard-response,91,1728210,0.0-46.0-2.0-2.0-0.0,,,,,,,,,,,,,,,5f71bba655ed56021e62625b,09:26:48,03/04/2024
1086.0,,,ospan,symmetry,sA4xw4Tsd4Xt4hWV5RXQqejqBhg2,symmetry-judgement-task,92,1730526,0.0-46.0-2.0-2.0-1.0-0.0,,,,,,,,,,1.0,1.0,,,,5f71bba655ed56021e62625b,09:26:48,03/04/2024
,"<div style=""font-size: 10rem; color: #0000FF"">P</div>",,ospan,letter,sA4xw4Tsd4Xt4hWV5RXQqejqBhg2,html-keyboard-response,93,1731542,0.0-46.0-2.0-2.0-1.0-1.0,,,,,,,,,,,,,,,5f71bba655ed56021e62625b,09:26:48,03/04/2024
959.0,,,ospan,symmetry,sA4xw4Tsd4Xt4hWV5RXQqejqBhg2,symmetry-judgement-task,94,1734524,0.0-46.0-2.0-2.0-1.0-2.0,,,,,,,,,,1.0,1.0,,,,5f71bba655ed56021e62625b,09:26:48,03/04/2024
,"<div style=""font-size: 10rem; color: #0000FF"">Y</div>",,ospan,letter,sA4xw4Tsd4Xt4hWV5RXQqejqBhg2,html-keyboard-response,95,1735541,0.0-46.0-2.0-2.0-1.0-3.0,,,,,,,,,,,,,,,5f71bba655ed56021e62625b,09:26:48,03/04/2024
962.0,,,ospan,symmetry,sA4xw4Tsd4Xt4hWV5RXQqejqBhg2,symmetry-judgement-task,96,1738474,0.0-46.0-2.0-2.0-1.0-4.0,,,,,,,,,,1.0,1.0,,,,5f71bba655ed56021e62625b,09:26:48,03/04/2024
,"<div style=""font-size: 10rem; color: #0000FF"">K</div>",,ospan,letter,sA4xw4Tsd4Xt4hWV5RXQqejqBhg2,html-keyboard-response,97,1739489,0.0-46.0-2.0-2.0-1.0-5.0,,,,,,,,,,,,,,,5f71bba655ed56021e62625b,09:26:48,03/04/2024
8318.099999904633,"<div class = numbox><p style=""font-size: 2.4rem"">Please recall the letters you saw to the best of your ability. If you do not remember a particular letter, use the SKIP button.<br><b>(When you are ready to lock in your answer, press ENTER)</b></p><button id = button_1 class = ""square num-button"" onclick = ""recordClick(this)""><div class = content><div class = numbers>C</div></div></button><button id = button_2 class = ""square num-button"" onclick = ""recordClick(this)""><div class = content><div class = numbers>G</div></div></button><button id = button_3 class = ""square num-button"" onclick = ""recordClick(this)""><div class = content><div class = numbers>H</div></div></button><button id = button_4 class = ""square num-button"" onclick = ""recordClick(this)""><div class = content><div class = numbers>J</div></div></button><button id = button_5 class = ""square num-button"" onclick = ""recordClick(this)""><div class = content><div class = numbers>K</div></div></button><button id = button_6 class = ""square num-button"" onclick = ""recordClick(this)""><div class = content><div class = numbers>L</div></div></button><button id = button_7 class = ""square num-button"" onclick = ""recordClick(this)""><div class = content><div class = numbers>N</div></div></button><button id = button_8 class = ""square num-button"" onclick = ""recordClick(this)""><div class = content><div class = numbers>P</div></div></button><button id = button_9 class = ""square num-button"" onclick = ""recordClick(this)""><div class = content><div class = numbers>Q</div></div></button><button id = button_10 class = ""square num-button"" onclick = ""recordClick(this)""><div class = content><div class = numbers>R</div></div></button><button id = button_11 class = ""square num-button"" onclick = ""recordClick(this)""><div class = content><div class = numbers>S</div></div></button><button id = button_12 class = ""square num-button"" onclick = ""recordClick(this)""><div class = content><div class = numbers>Y</div></div></button><button class = clear_button id = ""ClearButton"" onclick = ""clearResponse()"">BACKSPACE</button><button class = blank_button id = ""BlankButton"" onclick = ""blankResponse()"">SKIP</button><p style=""font-size: 2.4rem""><u><b>Current Answer:</b></u></p><br><br><div id=echoed_txt style=""font-size: 5rem; color:blue;""><b></b></div></div>",enter,ospan,retrieval,sA4xw4Tsd4Xt4hWV5RXQqejqBhg2,html-keyboard-response,98,1748575,0.0-46.0-2.0-2.0-2.0-0.0,NA,NA,NA,3.0,"[""P"",""Y"",""K""]","[""P"",""Y"",""K""]",1.0,3.0,"['<font color=""green"">P</font>', '<font color=""green"">Y</font>', '<font color=""green"">K</font>']",,,,,,5f71bba655ed56021e62625b,09:26:48,03/04/2024
1016.0999999046326,"['<p style=""font-size:44px"">Letters:<br><br><br><font color=""green"">P</font> <font color=""green"">Y</font> <font color=""green"">K</font></p><br><br><p style=""font-size:30px"">Symmetry:<br><br><font color=""green"">100%</font></p><br><br>']",0,ospan,practice_feedback,sA4xw4Tsd4Xt4hWV5RXQqejqBhg2,html-button-response,99,1750103,0.0-46.0-2.0-2.0-2.0-1.0,,,,,,,,,,,,,,,5f71bba655ed56021e62625b,09:26:48,03/04/2024
22334.900000095367,"<div class = 'left_align' style='font-size: 3rem; line-height: 1.3;'><b>Great work! That is the end of practice.</b><br><br>The real trials will look just like the practice trials you just completed.<br><br><u>Here, you will not see feedback</u>. First, you will see an grid picture to judge,<br>then a letter to remember. When the recall screen appears, report the letters in the<br>order presented. If you forget a letter, remember to use the <b>blank</b> button to move to the<br>next letter. Some of the sets will have more symmetry grids and letters than others.<br><br>It is important that you do your best on both the symmetry judgments and the letter recall<br>parts of the experiment. For for the symmetry judgments, try to work as <b>quickly</b> and <br>as <b>accurately</b> as possible. Remember to keep your symmetry accuracy at 85% or above.<br><br><b>For the letters, do NOT use any external aid (e.g., writing on paper, electronic device).</b><br><br>It is <u>very important</u> to our experiment to have a <b>true</b> view of your real performance.<br><br>Do not worry if you miss some when it gets hard! This task is meant to be very challenging!<br><br>Click the button to begin.</div><br><br><br><br>",0,ospan,starting_real_here,sA4xw4Tsd4Xt4hWV5RXQqejqBhg2,html-button-response,100,1772439,0.0-46.0-2.0-3.0,,,,,,,,,,,,,,,5f71bba655ed56021e62625b,09:26:48,03/04/2024
,"<p style=""font-size:75px;"">...</p>",,ospan,iti,sA4xw4Tsd4Xt4hWV5RXQqejqBhg2,html-keyboard-response,101,1773728,0.0-46.0-3.0-0.0-0.0,,,,,,,,,,,,,,,5f71bba655ed56021e62625b,09:26:48,03/04/2024
1824.0,,,ospan,symmetry,sA4xw4Tsd4Xt4hWV5RXQqejqBhg2,symmetry-judgement-task,102,1776792,0.0-46.0-3.0-0.0-1.0-0.0,,,,,,,,,,1.0,1.0,,,,5f71bba655ed56021e62625b,09:26:48,03/04/2024
,"<div style=""font-size: 10rem; color: #0000FF"">Y</div>",,ospan,letter,sA4xw4Tsd4Xt4hWV5RXQqejqBhg2,html-keyboard-response,103,1777794,0.0-46.0-3.0-0.0-1.0-1.0,,,,,,,,,,,,,,,5f71bba655ed56021e62625b,09:26:48,03/04/2024
1288.0,,,ospan,symmetry,sA4xw4Tsd4Xt4hWV5RXQqejqBhg2,symmetry-judgement-task,104,1781050,0.0-46.0-3.0-0.0-1.0-2.0,,,,,,,,,,1.0,1.0,,,,5f71bba655ed56021e62625b,09:26:48,03/04/2024
,"<div style=""font-size: 10rem; color: #0000FF"">R</div>",,ospan,letter,sA4xw4Tsd4Xt4hWV5RXQqejqBhg2,html-keyboard-response,105,1782062,0.0-46.0-3.0-0.0-1.0-3.0,,,,,,,,,,,,,,,5f71bba655ed56021e62625b,09:26:48,03/04/2024
1129.0,,,ospan,symmetry,sA4xw4Tsd4Xt4hWV5RXQqejqBhg2,symmetry-judgement-task,106,1785190,0.0-46.0-3.0-0.0-1.0-4.0,,,,,,,,,,1.0,1.0,,,,5f71bba655ed56021e62625b,09:26:48,03/04/2024
,"<div style=""font-size: 10rem; color: #0000FF"">J</div>",,ospan,letter,sA4xw4Tsd4Xt4hWV5RXQqejqBhg2,html-keyboard-response,107,1786207,0.0-46.0-3.0-0.0-1.0-5.0,,,,,,,,,,,,,,,5f71bba655ed56021e62625b,09:26:48,03/04/2024
4494.0,"<div class = numbox><p style=""font-size: 2.4rem"">Please recall the letters you saw to the best of your ability. If you do not remember a particular letter, use the SKIP button.<br><b>(When you are ready to lock in your answer, press ENTER)</b></p><button id = button_1 class = ""square num-button"" onclick = ""recordClick(this)""><div class = content><div class = numbers>C</div></div></button><button id = button_2 class = ""square num-button"" onclick = ""recordClick(this)""><div class = content><div class = numbers>G</div></div></button><button id = button_3 class = ""square num-button"" onclick = ""recordClick(this)""><div class = content><div class = numbers>H</div></div></button><button id = button_4 class = ""square num-button"" onclick = ""recordClick(this)""><div class = content><div class = numbers>J</div></div></button><button id = button_5 class = ""square num-button"" onclick = ""recordClick(this)""><div class = content><div class = numbers>K</div></div></button><button id = button_6 class = ""square num-button"" onclick = ""recordClick(this)""><div class = content><div class = numbers>L</div></div></button><button id = button_7 class = ""square num-button"" onclick = ""recordClick(this)""><div class = content><div class = numbers>N</div></div></button><button id = button_8 class = ""square num-button"" onclick = ""recordClick(this)""><div class = content><div class = numbers>P</div></div></button><button id = button_9 class = ""square num-button"" onclick = ""recordClick(this)""><div class = content><div class = numbers>Q</div></div></button><button id = button_10 class = ""square num-button"" onclick = ""recordClick(this)""><div class = content><div class = numbers>R</div></div></button><button id = button_11 class = ""square num-button"" onclick = ""recordClick(this)""><div class = content><div class = numbers>S</div></div></button><button id = button_12 class = ""square num-button"" onclick = ""recordClick(this)""><div class = content><div class = numbers>Y</div></div></button><button class = clear_button id = ""ClearButton"" onclick = ""clearResponse()"">BACKSPACE</button><button class = blank_button id = ""BlankButton"" onclick = ""blankResponse()"">SKIP</button><p style=""font-size: 2.4rem""><u><b>Current Answer:</b></u></p><br><br><div id=echoed_txt style=""font-size: 5rem; color:blue;""><b></b></div></div>",enter,ospan,retrieval,sA4xw4Tsd4Xt4hWV5RXQqejqBhg2,html-keyboard-response,108,1791468,0.0-46.0-3.0-0.0-2.0,3,3,3,3.0,"[""Y"",""R"",""J""]","[""Y"",""R"",""J""]",1.0,3.0,,,,,,,5f71bba655ed56021e62625b,09:26:48,03/04/2024
1153.6999998092651,[''],0,ospan,feedback,sA4xw4Tsd4Xt4hWV5RXQqejqBhg2,html-button-response,109,1793127,0.0-46.0-3.0-0.0-3.0,,,,,,,,,,,,100.0,0.0,,5f71bba655ed56021e62625b,09:26:48,03/04/2024
,"<p style=""font-size:75px;"">...</p>",,ospan,iti,sA4xw4Tsd4Xt4hWV5RXQqejqBhg2,html-keyboard-response,110,1794136,0.0-46.0-4.0-0.0-0.0,,,,,,,,,,,,,,,5f71bba655ed56021e62625b,09:26:48,03/04/2024
1425.0,,,ospan,symmetry,sA4xw4Tsd4Xt4hWV5RXQqejqBhg2,symmetry-judgement-task,111,1796780,0.0-46.0-4.0-0.0-1.0-0.0,,,,,,,,,,1.0,1.0,,,,5f71bba655ed56021e62625b,09:26:48,03/04/2024
,"<div style=""font-size: 10rem; color: #0000FF"">Q</div>",,ospan,letter,sA4xw4Tsd4Xt4hWV5RXQqejqBhg2,html-keyboard-response,112,1797787,0.0-46.0-4.0-0.0-1.0-1.0,,,,,,,,,,,,,,,5f71bba655ed56021e62625b,09:26:48,03/04/2024
907.0,,,ospan,symmetry,sA4xw4Tsd4Xt4hWV5RXQqejqBhg2,symmetry-judgement-task,113,1800677,0.0-46.0-4.0-0.0-1.0-2.0,,,,,,,,,,1.0,1.0,,,,5f71bba655ed56021e62625b,09:26:48,03/04/2024
,"<div style=""font-size: 10rem; color: #0000FF"">G</div>",,ospan,letter,sA4xw4Tsd4Xt4hWV5RXQqejqBhg2,html-keyboard-response,114,1801685,0.0-46.0-4.0-0.0-1.0-3.0,,,,,,,,,,,,,,,5f71bba655ed56021e62625b,09:26:48,03/04/2024
1243.0,,,ospan,symmetry,sA4xw4Tsd4Xt4hWV5RXQqejqBhg2,symmetry-judgement-task,115,1804927,0.0-46.0-4.0-0.0-1.0-4.0,,,,,,,,,,1.0,1.0,,,,5f71bba655ed56021e62625b,09:26:48,03/04/2024
,"<div style=""font-size: 10rem; color: #0000FF"">J</div>",,ospan,letter,sA4xw4Tsd4Xt4hWV5RXQqejqBhg2,html-keyboard-response,116,1805933,0.0-46.0-4.0-0.0-1.0-5.0,,,,,,,,,,,,,,,5f71bba655ed56021e62625b,09:26:48,03/04/2024
896.0,,,ospan,symmetry,sA4xw4Tsd4Xt4hWV5RXQqejqBhg2,symmetry-judgement-task,117,1808798,0.0-46.0-4.0-0.0-1.0-6.0,,,,,,,,,,1.0,1.0,,,,5f71bba655ed56021e62625b,09:26:48,03/04/2024
,"<div style=""font-size: 10rem; color: #0000FF"">Y</div>",,ospan,letter,sA4xw4Tsd4Xt4hWV5RXQqejqBhg2,html-keyboard-response,118,1809801,0.0-46.0-4.0-0.0-1.0-7.0,,,,,,,,,,,,,,,5f71bba655ed56021e62625b,09:26:48,03/04/2024
8102.5,"<div class = numbox><p style=""font-size: 2.4rem"">Please recall the letters you saw to the best of your ability. If you do not remember a particular letter, use the SKIP button.<br><b>(When you are ready to lock in your answer, press ENTER)</b></p><button id = button_1 class = ""square num-button"" onclick = ""recordClick(this)""><div class = content><div class = numbers>C</div></div></button><button id = button_2 class = ""square num-button"" onclick = ""recordClick(this)""><div class = content><div class = numbers>G</div></div></button><button id = button_3 class = ""square num-button"" onclick = ""recordClick(this)""><div class = content><div class = numbers>H</div></div></button><button id = button_4 class = ""square num-button"" onclick = ""recordClick(this)""><div class = content><div class = numbers>J</div></div></button><button id = button_5 class = ""square num-button"" onclick = ""recordClick(this)""><div class = content><div class = numbers>K</div></div></button><button id = button_6 class = ""square num-button"" onclick = ""recordClick(this)""><div class = content><div class = numbers>L</div></div></button><button id = button_7 class = ""square num-button"" onclick = ""recordClick(this)""><div class = content><div class = numbers>N</div></div></button><button id = button_8 class = ""square num-button"" onclick = ""recordClick(this)""><div class = content><div class = numbers>P</div></div></button><button id = button_9 class = ""square num-button"" onclick = ""recordClick(this)""><div class = content><div class = numbers>Q</div></div></button><button id = button_10 class = ""square num-button"" onclick = ""recordClick(this)""><div class = content><div class = numbers>R</div></div></button><button id = button_11 class = ""square num-button"" onclick = ""recordClick(this)""><div class = content><div class = numbers>S</div></div></button><button id = button_12 class = ""square num-button"" onclick = ""recordClick(this)""><div class = content><div class = numbers>Y</div></div></button><button class = clear_button id = ""ClearButton"" onclick = ""clearResponse()"">BACKSPACE</button><button class = blank_button id = ""BlankButton"" onclick = ""blankResponse()"">SKIP</button><p style=""font-size: 2.4rem""><u><b>Current Answer:</b></u></p><br><br><div id=echoed_txt style=""font-size: 5rem; color:blue;""><b></b></div></div>",enter,ospan,retrieval,sA4xw4Tsd4Xt4hWV5RXQqejqBhg2,html-keyboard-response,119,1818668,0.0-46.0-4.0-0.0-2.0,7,7,7,4.0,"[""Q"",""G"",""J"",""Y""]","[""Q"",""G"",""J"",""Y""]",1.0,4.0,,,,,,,5f71bba655ed56021e62625b,09:26:48,03/04/2024
57257.800000190735,[''],0,ospan,feedback,sA4xw4Tsd4Xt4hWV5RXQqejqBhg2,html-button-response,120,1876438,0.0-46.0-4.0-0.0-3.0,,,,,,,,,,,,100.0,0.0,,5f71bba655ed56021e62625b,09:26:48,03/04/2024
,"<p style=""font-size:75px;"">...</p>",,ospan,iti,sA4xw4Tsd4Xt4hWV5RXQqejqBhg2,html-keyboard-response,121,1877445,0.0-46.0-4.0-1.0-0.0,,,,,,,,,,,,,,,5f71bba655ed56021e62625b,09:26:48,03/04/2024
1089.0,,,ospan,symmetry,sA4xw4Tsd4Xt4hWV5RXQqejqBhg2,symmetry-judgement-task,122,1879774,0.0-46.0-4.0-1.0-1.0-0.0,,,,,,,,,,1.0,1.0,,,,5f71bba655ed56021e62625b,09:26:48,03/04/2024
,"<div style=""font-size: 10rem; color: #0000FF"">K</div>",,ospan,letter,sA4xw4Tsd4Xt4hWV5RXQqejqBhg2,html-keyboard-response,123,1880791,0.0-46.0-4.0-1.0-1.0-1.0,,,,,,,,,,,,,,,5f71bba655ed56021e62625b,09:26:48,03/04/2024
1623.0,,,ospan,symmetry,sA4xw4Tsd4Xt4hWV5RXQqejqBhg2,symmetry-judgement-task,124,1884406,0.0-46.0-4.0-1.0-1.0-2.0,,,,,,,,,,1.0,1.0,,,,5f71bba655ed56021e62625b,09:26:48,03/04/2024
,"<div style=""font-size: 10rem; color: #0000FF"">P</div>",,ospan,letter,sA4xw4Tsd4Xt4hWV5RXQqejqBhg2,html-keyboard-response,125,1885422,0.0-46.0-4.0-1.0-1.0-3.0,,,,,,,,,,,,,,,5f71bba655ed56021e62625b,09:26:48,03/04/2024
1643.0,,,ospan,symmetry,sA4xw4Tsd4Xt4hWV5RXQqejqBhg2,symmetry-judgement-task,126,1889046,0.0-46.0-4.0-1.0-1.0-4.0,,,,,,,,,,1.0,1.0,,,,5f71bba655ed56021e62625b,09:26:48,03/04/2024
,"<div style=""font-size: 10rem; color: #0000FF"">Y</div>",,ospan,letter,sA4xw4Tsd4Xt4hWV5RXQqejqBhg2,html-keyboard-response,127,1890063,0.0-46.0-4.0-1.0-1.0-5.0,,,,,,,,,,,,,,,5f71bba655ed56021e62625b,09:26:48,03/04/2024
1181.0,,,ospan,symmetry,sA4xw4Tsd4Xt4hWV5RXQqejqBhg2,symmetry-judgement-task,128,1893221,0.0-46.0-4.0-1.0-1.0-6.0,,,,,,,,,,1.0,1.0,,,,5f71bba655ed56021e62625b,09:26:48,03/04/2024
,"<div style=""font-size: 10rem; color: #0000FF"">C</div>",,ospan,letter,sA4xw4Tsd4Xt4hWV5RXQqejqBhg2,html-keyboard-response,129,1894229,0.0-46.0-4.0-1.0-1.0-7.0,,,,,,,,,,,,,,,5f71bba655ed56021e62625b,09:26:48,03/04/2024
983.0,,,ospan,symmetry,sA4xw4Tsd4Xt4hWV5RXQqejqBhg2,symmetry-judgement-task,130,1897205,0.0-46.0-4.0-1.0-1.0-8.0,,,,,,,,,,1.0,1.0,,,,5f71bba655ed56021e62625b,09:26:48,03/04/2024
,"<div style=""font-size: 10rem; color: #0000FF"">G</div>",,ospan,letter,sA4xw4Tsd4Xt4hWV5RXQqejqBhg2,html-keyboard-response,131,1898218,0.0-46.0-4.0-1.0-1.0-9.0,,,,,,,,,,,,,,,5f71bba655ed56021e62625b,09:26:48,03/04/2024
4986.699999809265,"<div class = numbox><p style=""font-size: 2.4rem"">Please recall the letters you saw to the best of your ability. If you do not remember a particular letter, use the SKIP button.<br><b>(When you are ready to lock in your answer, press ENTER)</b></p><button id = button_1 class = ""square num-button"" onclick = ""recordClick(this)""><div class = content><div class = numbers>C</div></div></button><button id = button_2 class = ""square num-button"" onclick = ""recordClick(this)""><div class = content><div class = numbers>G</div></div></button><button id = button_3 class = ""square num-button"" onclick = ""recordClick(this)""><div class = content><div class = numbers>H</div></div></button><button id = button_4 class = ""square num-button"" onclick = ""recordClick(this)""><div class = content><div class = numbers>J</div></div></button><button id = button_5 class = ""square num-button"" onclick = ""recordClick(this)""><div class = content><div class = numbers>K</div></div></button><button id = button_6 class = ""square num-button"" onclick = ""recordClick(this)""><div class = content><div class = numbers>L</div></div></button><button id = button_7 class = ""square num-button"" onclick = ""recordClick(this)""><div class = content><div class = numbers>N</div></div></button><button id = button_8 class = ""square num-button"" onclick = ""recordClick(this)""><div class = content><div class = numbers>P</div></div></button><button id = button_9 class = ""square num-button"" onclick = ""recordClick(this)""><div class = content><div class = numbers>Q</div></div></button><button id = button_10 class = ""square num-button"" onclick = ""recordClick(this)""><div class = content><div class = numbers>R</div></div></button><button id = button_11 class = ""square num-button"" onclick = ""recordClick(this)""><div class = content><div class = numbers>S</div></div></button><button id = button_12 class = ""square num-button"" onclick = ""recordClick(this)""><div class = content><div class = numbers>Y</div></div></button><button class = clear_button id = ""ClearButton"" onclick = ""clearResponse()"">BACKSPACE</button><button class = blank_button id = ""BlankButton"" onclick = ""blankResponse()"">SKIP</button><p style=""font-size: 2.4rem""><u><b>Current Answer:</b></u></p><br><br><div id=echoed_txt style=""font-size: 5rem; color:blue;""><b></b></div></div>",enter,ospan,retrieval,sA4xw4Tsd4Xt4hWV5RXQqejqBhg2,html-keyboard-response,132,1903957,0.0-46.0-4.0-1.0-2.0,12,12,12,5.0,"[""K"",""P"",""Y"",""C"",""G""]","[""K"",""P"",""Y"",""C"",""G""]",1.0,5.0,,,,,,,5f71bba655ed56021e62625b,09:26:48,03/04/2024
1963.4000000953674,[''],0,ospan,feedback,sA4xw4Tsd4Xt4hWV5RXQqejqBhg2,html-button-response,133,1906430,0.0-46.0-4.0-1.0-3.0,,,,,,,,,,,,100.0,0.0,,5f71bba655ed56021e62625b,09:26:48,03/04/2024
,"<p style=""font-size:75px;"">...</p>",,ospan,iti,sA4xw4Tsd4Xt4hWV5RXQqejqBhg2,html-keyboard-response,134,1907436,0.0-46.0-4.0-2.0-0.0,,,,,,,,,,,,,,,5f71bba655ed56021e62625b,09:26:48,03/04/2024
1645.0,,,ospan,symmetry,sA4xw4Tsd4Xt4hWV5RXQqejqBhg2,symmetry-judgement-task,135,1910331,0.0-46.0-4.0-2.0-1.0-0.0,,,,,,,,,,1.0,1.0,,,,5f71bba655ed56021e62625b,09:26:48,03/04/2024
,"<div style=""font-size: 10rem; color: #0000FF"">C</div>",,ospan,letter,sA4xw4Tsd4Xt4hWV5RXQqejqBhg2,html-keyboard-response,136,1911348,0.0-46.0-4.0-2.0-1.0-1.0,,,,,,,,,,,,,,,5f71bba655ed56021e62625b,09:26:48,03/04/2024
1008.0,,,ospan,symmetry,sA4xw4Tsd4Xt4hWV5RXQqejqBhg2,symmetry-judgement-task,137,1914329,0.0-46.0-4.0-2.0-1.0-2.0,,,,,,,,,,1.0,1.0,,,,5f71bba655ed56021e62625b,09:26:48,03/04/2024
,"<div style=""font-size: 10rem; color: #0000FF"">K</div>",,ospan,letter,sA4xw4Tsd4Xt4hWV5RXQqejqBhg2,html-keyboard-response,138,1915346,0.0-46.0-4.0-2.0-1.0-3.0,,,,,,,,,,,,,,,5f71bba655ed56021e62625b,09:26:48,03/04/2024
1257.0,,,ospan,symmetry,sA4xw4Tsd4Xt4hWV5RXQqejqBhg2,symmetry-judgement-task,139,1918579,0.0-46.0-4.0-2.0-1.0-4.0,,,,,,,,,,1.0,1.0,,,,5f71bba655ed56021e62625b,09:26:48,03/04/2024
,"<div style=""font-size: 10rem; color: #0000FF"">Q</div>",,ospan,letter,sA4xw4Tsd4Xt4hWV5RXQqejqBhg2,html-keyboard-response,140,1919594,0.0-46.0-4.0-2.0-1.0-5.0,,,,,,,,,,,,,,,5f71bba655ed56021e62625b,09:26:48,03/04/2024
3930.0999999046326,"<div class = numbox><p style=""font-size: 2.4rem"">Please recall the letters you saw to the best of your ability. If you do not remember a particular letter, use the SKIP button.<br><b>(When you are ready to lock in your answer, press ENTER)</b></p><button id = button_1 class = ""square num-button"" onclick = ""recordClick(this)""><div class = content><div class = numbers>C</div></div></button><button id = button_2 class = ""square num-button"" onclick = ""recordClick(this)""><div class = content><div class = numbers>G</div></div></button><button id = button_3 class = ""square num-button"" onclick = ""recordClick(this)""><div class = content><div class = numbers>H</div></div></button><button id = button_4 class = ""square num-button"" onclick = ""recordClick(this)""><div class = content><div class = numbers>J</div></div></button><button id = button_5 class = ""square num-button"" onclick = ""recordClick(this)""><div class = content><div class = numbers>K</div></div></button><button id = button_6 class = ""square num-button"" onclick = ""recordClick(this)""><div class = content><div class = numbers>L</div></div></button><button id = button_7 class = ""square num-button"" onclick = ""recordClick(this)""><div class = content><div class = numbers>N</div></div></button><button id = button_8 class = ""square num-button"" onclick = ""recordClick(this)""><div class = content><div class = numbers>P</div></div></button><button id = button_9 class = ""square num-button"" onclick = ""recordClick(this)""><div class = content><div class = numbers>Q</div></div></button><button id = button_10 class = ""square num-button"" onclick = ""recordClick(this)""><div class = content><div class = numbers>R</div></div></button><button id = button_11 class = ""square num-button"" onclick = ""recordClick(this)""><div class = content><div class = numbers>S</div></div></button><button id = button_12 class = ""square num-button"" onclick = ""recordClick(this)""><div class = content><div class = numbers>Y</div></div></button><button class = clear_button id = ""ClearButton"" onclick = ""clearResponse()"">BACKSPACE</button><button class = blank_button id = ""BlankButton"" onclick = ""blankResponse()"">SKIP</button><p style=""font-size: 2.4rem""><u><b>Current Answer:</b></u></p><br><br><div id=echoed_txt style=""font-size: 5rem; color:blue;""><b></b></div></div>",enter,ospan,retrieval,sA4xw4Tsd4Xt4hWV5RXQqejqBhg2,html-keyboard-response,141,1924276,0.0-46.0-4.0-2.0-2.0,15,15,15,3.0,"[""C"",""K"",""Q""]","[""C"",""K"",""Q""]",1.0,3.0,,,,,,,5f71bba655ed56021e62625b,09:26:48,03/04/2024
1948.5999999046326,[''],0,ospan,feedback,sA4xw4Tsd4Xt4hWV5RXQqejqBhg2,html-button-response,142,1926726,0.0-46.0-4.0-2.0-3.0,,,,,,,,,,,,100.0,0.0,,5f71bba655ed56021e62625b,09:26:48,03/04/2024
,"<p style=""font-size:75px;"">...</p>",,ospan,iti,sA4xw4Tsd4Xt4hWV5RXQqejqBhg2,html-keyboard-response,143,1927731,0.0-46.0-5.0-0.0-0.0,,,,,,,,,,,,,,,5f71bba655ed56021e62625b,09:26:48,03/04/2024
1466.0,,,ospan,symmetry,sA4xw4Tsd4Xt4hWV5RXQqejqBhg2,symmetry-judgement-task,144,1930447,0.0-46.0-5.0-0.0-1.0-0.0,,,,,,,,,,1.0,1.0,,,,5f71bba655ed56021e62625b,09:26:48,03/04/2024
,"<div style=""font-size: 10rem; color: #0000FF"">Y</div>",,ospan,letter,sA4xw4Tsd4Xt4hWV5RXQqejqBhg2,html-keyboard-response,145,1931458,0.0-46.0-5.0-0.0-1.0-1.0,,,,,,,,,,,,,,,5f71bba655ed56021e62625b,09:26:48,03/04/2024
995.0,,,ospan,symmetry,sA4xw4Tsd4Xt4hWV5RXQqejqBhg2,symmetry-judgement-task,146,1934421,0.0-46.0-5.0-0.0-1.0-2.0,,,,,,,,,,1.0,1.0,,,,5f71bba655ed56021e62625b,09:26:48,03/04/2024
,"<div style=""font-size: 10rem; color: #0000FF"">Q</div>",,ospan,letter,sA4xw4Tsd4Xt4hWV5RXQqejqBhg2,html-keyboard-response,147,1935439,0.0-46.0-5.0-0.0-1.0-3.0,,,,,,,,,,,,,,,5f71bba655ed56021e62625b,09:26:48,03/04/2024
1287.0,,,ospan,symmetry,sA4xw4Tsd4Xt4hWV5RXQqejqBhg2,symmetry-judgement-task,148,1938726,0.0-46.0-5.0-0.0-1.0-4.0,,,,,,,,,,1.0,1.0,,,,5f71bba655ed56021e62625b,09:26:48,03/04/2024
,"<div style=""font-size: 10rem; color: #0000FF"">C</div>",,ospan,letter,sA4xw4Tsd4Xt4hWV5RXQqejqBhg2,html-keyboard-response,149,1939738,0.0-46.0-5.0-0.0-1.0-5.0,,,,,,,,,,,,,,,5f71bba655ed56021e62625b,09:26:48,03/04/2024
868.0,,,ospan,symmetry,sA4xw4Tsd4Xt4hWV5RXQqejqBhg2,symmetry-judgement-task,150,1942612,0.0-46.0-5.0-0.0-1.0-6.0,,,,,,,,,,1.0,1.0,,,,5f71bba655ed56021e62625b,09:26:48,03/04/2024
,"<div style=""font-size: 10rem; color: #0000FF"">G</div>",,ospan,letter,sA4xw4Tsd4Xt4hWV5RXQqejqBhg2,html-keyboard-response,151,1943620,0.0-46.0-5.0-0.0-1.0-7.0,,,,,,,,,,,,,,,5f71bba655ed56021e62625b,09:26:48,03/04/2024
1078.0,,,ospan,symmetry,sA4xw4Tsd4Xt4hWV5RXQqejqBhg2,symmetry-judgement-task,152,1946686,0.0-46.0-5.0-0.0-1.0-8.0,,,,,,,,,,1.0,1.0,,,,5f71bba655ed56021e62625b,09:26:48,03/04/2024
,"<div style=""font-size: 10rem; color: #0000FF"">S</div>",,ospan,letter,sA4xw4Tsd4Xt4hWV5RXQqejqBhg2,html-keyboard-response,153,1947701,0.0-46.0-5.0-0.0-1.0-9.0,,,,,,,,,,,,,,,5f71bba655ed56021e62625b,09:26:48,03/04/2024
963.0,,,ospan,symmetry,sA4xw4Tsd4Xt4hWV5RXQqejqBhg2,symmetry-judgement-task,154,1950651,0.0-46.0-5.0-0.0-1.0-10.0,,,,,,,,,,1.0,1.0,,,,5f71bba655ed56021e62625b,09:26:48,03/04/2024
,"<div style=""font-size: 10rem; color: #0000FF"">R</div>",,ospan,letter,sA4xw4Tsd4Xt4hWV5RXQqejqBhg2,html-keyboard-response,155,1951657,0.0-46.0-5.0-0.0-1.0-11.0,,,,,,,,,,,,,,,5f71bba655ed56021e62625b,09:26:48,03/04/2024
7319.199999809265,"<div class = numbox><p style=""font-size: 2.4rem"">Please recall the letters you saw to the best of your ability. If you do not remember a particular letter, use the SKIP button.<br><b>(When you are ready to lock in your answer, press ENTER)</b></p><button id = button_1 class = ""square num-button"" onclick = ""recordClick(this)""><div class = content><div class = numbers>C</div></div></button><button id = button_2 class = ""square num-button"" onclick = ""recordClick(this)""><div class = content><div class = numbers>G</div></div></button><button id = button_3 class = ""square num-button"" onclick = ""recordClick(this)""><div class = content><div class = numbers>H</div></div></button><button id = button_4 class = ""square num-button"" onclick = ""recordClick(this)""><div class = content><div class = numbers>J</div></div></button><button id = button_5 class = ""square num-button"" onclick = ""recordClick(this)""><div class = content><div class = numbers>K</div></div></button><button id = button_6 class = ""square num-button"" onclick = ""recordClick(this)""><div class = content><div class = numbers>L</div></div></button><button id = button_7 class = ""square num-button"" onclick = ""recordClick(this)""><div class = content><div class = numbers>N</div></div></button><button id = button_8 class = ""square num-button"" onclick = ""recordClick(this)""><div class = content><div class = numbers>P</div></div></button><button id = button_9 class = ""square num-button"" onclick = ""recordClick(this)""><div class = content><div class = numbers>Q</div></div></button><button id = button_10 class = ""square num-button"" onclick = ""recordClick(this)""><div class = content><div class = numbers>R</div></div></button><button id = button_11 class = ""square num-button"" onclick = ""recordClick(this)""><div class = content><div class = numbers>S</div></div></button><button id = button_12 class = ""square num-button"" onclick = ""recordClick(this)""><div class = content><div class = numbers>Y</div></div></button><button class = clear_button id = ""ClearButton"" onclick = ""clearResponse()"">BACKSPACE</button><button class = blank_button id = ""BlankButton"" onclick = ""blankResponse()"">SKIP</button><p style=""font-size: 2.4rem""><u><b>Current Answer:</b></u></p><br><br><div id=echoed_txt style=""font-size: 5rem; color:blue;""><b></b></div></div>",enter,ospan,retrieval,sA4xw4Tsd4Xt4hWV5RXQqejqBhg2,html-keyboard-response,156,1959735,0.0-46.0-5.0-0.0-2.0,21,21,21,6.0,"[""Y"",""Q"",""C"",""G"",""S"",""R""]","[""Y"",""Q"",""C"",""G"",""S"",""R""]",1.0,6.0,,,,,,,5f71bba655ed56021e62625b,09:26:48,03/04/2024
1981.8999996185303,[''],0,ospan,feedback,sA4xw4Tsd4Xt4hWV5RXQqejqBhg2,html-button-response,157,1962230,0.0-46.0-5.0-0.0-3.0,,,,,,,,,,,,100.0,0.0,,5f71bba655ed56021e62625b,09:26:48,03/04/2024
,"<p style=""font-size:75px;"">...</p>",,ospan,iti,sA4xw4Tsd4Xt4hWV5RXQqejqBhg2,html-keyboard-response,158,1963236,0.0-46.0-5.0-1.0-0.0,,,,,,,,,,,,,,,5f71bba655ed56021e62625b,09:26:48,03/04/2024
1613.0,,,ospan,symmetry,sA4xw4Tsd4Xt4hWV5RXQqejqBhg2,symmetry-judgement-task,159,1965918,0.0-46.0-5.0-1.0-1.0-0.0,,,,,,,,,,1.0,1.0,,,,5f71bba655ed56021e62625b,09:26:48,03/04/2024
,"<div style=""font-size: 10rem; color: #0000FF"">H</div>",,ospan,letter,sA4xw4Tsd4Xt4hWV5RXQqejqBhg2,html-keyboard-response,160,1966919,0.0-46.0-5.0-1.0-1.0-1.0,,,,,,,,,,,,,,,5f71bba655ed56021e62625b,09:26:48,03/04/2024
1556.0,,,ospan,symmetry,sA4xw4Tsd4Xt4hWV5RXQqejqBhg2,symmetry-judgement-task,161,1970459,0.0-46.0-5.0-1.0-1.0-2.0,,,,,,,,,,1.0,1.0,,,,5f71bba655ed56021e62625b,09:26:48,03/04/2024
,"<div style=""font-size: 10rem; color: #0000FF"">N</div>",,ospan,letter,sA4xw4Tsd4Xt4hWV5RXQqejqBhg2,html-keyboard-response,162,1971476,0.0-46.0-5.0-1.0-1.0-3.0,,,,,,,,,,,,,,,5f71bba655ed56021e62625b,09:26:48,03/04/2024
1416.0,,,ospan,symmetry,sA4xw4Tsd4Xt4hWV5RXQqejqBhg2,symmetry-judgement-task,163,1974875,0.0-46.0-5.0-1.0-1.0-4.0,,,,,,,,,,1.0,1.0,,,,5f71bba655ed56021e62625b,09:26:48,03/04/2024
,"<div style=""font-size: 10rem; color: #0000FF"">P</div>",,ospan,letter,sA4xw4Tsd4Xt4hWV5RXQqejqBhg2,html-keyboard-response,164,1975892,0.0-46.0-5.0-1.0-1.0-5.0,,,,,,,,,,,,,,,5f71bba655ed56021e62625b,09:26:48,03/04/2024
1773.0,,,ospan,symmetry,sA4xw4Tsd4Xt4hWV5RXQqejqBhg2,symmetry-judgement-task,165,1979658,0.0-46.0-5.0-1.0-1.0-6.0,,,,,,,,,,1.0,1.0,,,,5f71bba655ed56021e62625b,09:26:48,03/04/2024
,"<div style=""font-size: 10rem; color: #0000FF"">Q</div>",,ospan,letter,sA4xw4Tsd4Xt4hWV5RXQqejqBhg2,html-keyboard-response,166,1980678,0.0-46.0-5.0-1.0-1.0-7.0,,,,,,,,,,,,,,,5f71bba655ed56021e62625b,09:26:48,03/04/2024
1016.0,,,ospan,symmetry,sA4xw4Tsd4Xt4hWV5RXQqejqBhg2,symmetry-judgement-task,167,1983673,0.0-46.0-5.0-1.0-1.0-8.0,,,,,,,,,,1.0,1.0,,,,5f71bba655ed56021e62625b,09:26:48,03/04/2024
,"<div style=""font-size: 10rem; color: #0000FF"">R</div>",,ospan,letter,sA4xw4Tsd4Xt4hWV5RXQqejqBhg2,html-keyboard-response,168,1984689,0.0-46.0-5.0-1.0-1.0-9.0,,,,,,,,,,,,,,,5f71bba655ed56021e62625b,09:26:48,03/04/2024
993.0,,,ospan,symmetry,sA4xw4Tsd4Xt4hWV5RXQqejqBhg2,symmetry-judgement-task,169,1987681,0.0-46.0-5.0-1.0-1.0-10.0,,,,,,,,,,1.0,1.0,,,,5f71bba655ed56021e62625b,09:26:48,03/04/2024
,"<div style=""font-size: 10rem; color: #0000FF"">J</div>",,ospan,letter,sA4xw4Tsd4Xt4hWV5RXQqejqBhg2,html-keyboard-response,170,1988704,0.0-46.0-5.0-1.0-1.0-11.0,,,,,,,,,,,,,,,5f71bba655ed56021e62625b,09:26:48,03/04/2024
1261.0,,,ospan,symmetry,sA4xw4Tsd4Xt4hWV5RXQqejqBhg2,symmetry-judgement-task,171,1991952,0.0-46.0-5.0-1.0-1.0-12.0,,,,,,,,,,1.0,1.0,,,,5f71bba655ed56021e62625b,09:26:48,03/04/2024
,"<div style=""font-size: 10rem; color: #0000FF"">G</div>",,ospan,letter,sA4xw4Tsd4Xt4hWV5RXQqejqBhg2,html-keyboard-response,172,1992973,0.0-46.0-5.0-1.0-1.0-13.0,,,,,,,,,,,,,,,5f71bba655ed56021e62625b,09:26:48,03/04/2024
9923.099999904633,"<div class = numbox><p style=""font-size: 2.4rem"">Please recall the letters you saw to the best of your ability. If you do not remember a particular letter, use the SKIP button.<br><b>(When you are ready to lock in your answer, press ENTER)</b></p><button id = button_1 class = ""square num-button"" onclick = ""recordClick(this)""><div class = content><div class = numbers>C</div></div></button><button id = button_2 class = ""square num-button"" onclick = ""recordClick(this)""><div class = content><div class = numbers>G</div></div></button><button id = button_3 class = ""square num-button"" onclick = ""recordClick(this)""><div class = content><div class = numbers>H</div></div></button><button id = button_4 class = ""square num-button"" onclick = ""recordClick(this)""><div class = content><div class = numbers>J</div></div></button><button id = button_5 class = ""square num-button"" onclick = ""recordClick(this)""><div class = content><div class = numbers>K</div></div></button><button id = button_6 class = ""square num-button"" onclick = ""recordClick(this)""><div class = content><div class = numbers>L</div></div></button><button id = button_7 class = ""square num-button"" onclick = ""recordClick(this)""><div class = content><div class = numbers>N</div></div></button><button id = button_8 class = ""square num-button"" onclick = ""recordClick(this)""><div class = content><div class = numbers>P</div></div></button><button id = button_9 class = ""square num-button"" onclick = ""recordClick(this)""><div class = content><div class = numbers>Q</div></div></button><button id = button_10 class = ""square num-button"" onclick = ""recordClick(this)""><div class = content><div class = numbers>R</div></div></button><button id = button_11 class = ""square num-button"" onclick = ""recordClick(this)""><div class = content><div class = numbers>S</div></div></button><button id = button_12 class = ""square num-button"" onclick = ""recordClick(this)""><div class = content><div class = numbers>Y</div></div></button><button class = clear_button id = ""ClearButton"" onclick = ""clearResponse()"">BACKSPACE</button><button class = blank_button id = ""BlankButton"" onclick = ""blankResponse()"">SKIP</button><p style=""font-size: 2.4rem""><u><b>Current Answer:</b></u></p><br><br><div id=echoed_txt style=""font-size: 5rem; color:blue;""><b></b></div></div>",enter,ospan,retrieval,sA4xw4Tsd4Xt4hWV5RXQqejqBhg2,html-keyboard-response,173,2003655,0.0-46.0-5.0-1.0-2.0,28,27,21,7.0,"[""H"",""N"",""P"",""Q"",""R"",""J""]","[""H"",""N"",""P"",""Q"",""R"",""J"",""G""]",0.0,6.0,,,,,,,5f71bba655ed56021e62625b,09:26:48,03/04/2024
69191.60000038147,[''],0,ospan,feedback,sA4xw4Tsd4Xt4hWV5RXQqejqBhg2,html-button-response,174,2073358,0.0-46.0-5.0-1.0-3.0,,,,,,,,,,,,100.0,0.0,,5f71bba655ed56021e62625b,09:26:48,03/04/2024
,"<p style=""font-size:75px;"">...</p>",,ospan,iti,sA4xw4Tsd4Xt4hWV5RXQqejqBhg2,html-keyboard-response,175,2074362,0.0-46.0-6.0-0.0-0.0,,,,,,,,,,,,,,,5f71bba655ed56021e62625b,09:26:48,03/04/2024
1357.0,,,ospan,symmetry,sA4xw4Tsd4Xt4hWV5RXQqejqBhg2,symmetry-judgement-task,176,2076984,0.0-46.0-6.0-0.0-1.0-0.0,,,,,,,,,,1.0,1.0,,,,5f71bba655ed56021e62625b,09:26:48,03/04/2024
,"<div style=""font-size: 10rem; color: #0000FF"">N</div>",,ospan,letter,sA4xw4Tsd4Xt4hWV5RXQqejqBhg2,html-keyboard-response,177,2077999,0.0-46.0-6.0-0.0-1.0-1.0,,,,,,,,,,,,,,,5f71bba655ed56021e62625b,09:26:48,03/04/2024
864.0,,,ospan,symmetry,sA4xw4Tsd4Xt4hWV5RXQqejqBhg2,symmetry-judgement-task,178,2080836,0.0-46.0-6.0-0.0-1.0-2.0,,,,,,,,,,1.0,1.0,,,,5f71bba655ed56021e62625b,09:26:48,03/04/2024
,"<div style=""font-size: 10rem; color: #0000FF"">S</div>",,ospan,letter,sA4xw4Tsd4Xt4hWV5RXQqejqBhg2,html-keyboard-response,179,2081844,0.0-46.0-6.0-0.0-1.0-3.0,,,,,,,,,,,,,,,5f71bba655ed56021e62625b,09:26:48,03/04/2024
1768.0,,,ospan,symmetry,sA4xw4Tsd4Xt4hWV5RXQqejqBhg2,symmetry-judgement-task,180,2085604,0.0-46.0-6.0-0.0-1.0-4.0,,,,,,,,,,0.0,0.0,,,,5f71bba655ed56021e62625b,09:26:48,03/04/2024
,"<div style=""font-size: 10rem; color: #0000FF"">J</div>",,ospan,letter,sA4xw4Tsd4Xt4hWV5RXQqejqBhg2,html-keyboard-response,181,2086621,0.0-46.0-6.0-0.0-1.0-5.0,,,,,,,,,,,,,,,5f71bba655ed56021e62625b,09:26:48,03/04/2024
1313.0,,,ospan,symmetry,sA4xw4Tsd4Xt4hWV5RXQqejqBhg2,symmetry-judgement-task,182,2089906,0.0-46.0-6.0-0.0-1.0-6.0,,,,,,,,,,1.0,1.0,,,,5f71bba655ed56021e62625b,09:26:48,03/04/2024
,"<div style=""font-size: 10rem; color: #0000FF"">Y</div>",,ospan,letter,sA4xw4Tsd4Xt4hWV5RXQqejqBhg2,html-keyboard-response,183,2090920,0.0-46.0-6.0-0.0-1.0-7.0,,,,,,,,,,,,,,,5f71bba655ed56021e62625b,09:26:48,03/04/2024
1619.0,,,ospan,symmetry,sA4xw4Tsd4Xt4hWV5RXQqejqBhg2,symmetry-judgement-task,184,2094551,0.0-46.0-6.0-0.0-1.0-8.0,,,,,,,,,,1.0,1.0,,,,5f71bba655ed56021e62625b,09:26:48,03/04/2024
,"<div style=""font-size: 10rem; color: #0000FF"">C</div>",,ospan,letter,sA4xw4Tsd4Xt4hWV5RXQqejqBhg2,html-keyboard-response,185,2095567,0.0-46.0-6.0-0.0-1.0-9.0,,,,,,,,,,,,,,,5f71bba655ed56021e62625b,09:26:48,03/04/2024
5977.400000095367,"<div class = numbox><p style=""font-size: 2.4rem"">Please recall the letters you saw to the best of your ability. If you do not remember a particular letter, use the SKIP button.<br><b>(When you are ready to lock in your answer, press ENTER)</b></p><button id = button_1 class = ""square num-button"" onclick = ""recordClick(this)""><div class = content><div class = numbers>C</div></div></button><button id = button_2 class = ""square num-button"" onclick = ""recordClick(this)""><div class = content><div class = numbers>G</div></div></button><button id = button_3 class = ""square num-button"" onclick = ""recordClick(this)""><div class = content><div class = numbers>H</div></div></button><button id = button_4 class = ""square num-button"" onclick = ""recordClick(this)""><div class = content><div class = numbers>J</div></div></button><button id = button_5 class = ""square num-button"" onclick = ""recordClick(this)""><div class = content><div class = numbers>K</div></div></button><button id = button_6 class = ""square num-button"" onclick = ""recordClick(this)""><div class = content><div class = numbers>L</div></div></button><button id = button_7 class = ""square num-button"" onclick = ""recordClick(this)""><div class = content><div class = numbers>N</div></div></button><button id = button_8 class = ""square num-button"" onclick = ""recordClick(this)""><div class = content><div class = numbers>P</div></div></button><button id = button_9 class = ""square num-button"" onclick = ""recordClick(this)""><div class = content><div class = numbers>Q</div></div></button><button id = button_10 class = ""square num-button"" onclick = ""recordClick(this)""><div class = content><div class = numbers>R</div></div></button><button id = button_11 class = ""square num-button"" onclick = ""recordClick(this)""><div class = content><div class = numbers>S</div></div></button><button id = button_12 class = ""square num-button"" onclick = ""recordClick(this)""><div class = content><div class = numbers>Y</div></div></button><button class = clear_button id = ""ClearButton"" onclick = ""clearResponse()"">BACKSPACE</button><button class = blank_button id = ""BlankButton"" onclick = ""blankResponse()"">SKIP</button><p style=""font-size: 2.4rem""><u><b>Current Answer:</b></u></p><br><br><div id=echoed_txt style=""font-size: 5rem; color:blue;""><b></b></div></div>",enter,ospan,retrieval,sA4xw4Tsd4Xt4hWV5RXQqejqBhg2,html-keyboard-response,186,2102312,0.0-46.0-6.0-0.0-2.0,33,32,26,5.0,"[""N"",""S"",""J"",""Y"",""C""]","[""N"",""S"",""J"",""Y"",""C""]",1.0,5.0,,,,,,,5f71bba655ed56021e62625b,09:26:48,03/04/2024
1789.0999999046326,[''],0,ospan,feedback,sA4xw4Tsd4Xt4hWV5RXQqejqBhg2,html-button-response,187,2104621,0.0-46.0-6.0-0.0-3.0,,,,,,,,,,,,97.0,0.0,,5f71bba655ed56021e62625b,09:26:48,03/04/2024
,"<p style=""font-size:75px;"">...</p>",,ospan,iti,sA4xw4Tsd4Xt4hWV5RXQqejqBhg2,html-keyboard-response,188,2105637,0.0-46.0-6.0-1.0-0.0,,,,,,,,,,,,,,,5f71bba655ed56021e62625b,09:26:48,03/04/2024
2029.0,,,ospan,symmetry,sA4xw4Tsd4Xt4hWV5RXQqejqBhg2,symmetry-judgement-task,189,2108890,0.0-46.0-6.0-1.0-1.0-0.0,,,,,,,,,,1.0,1.0,,,,5f71bba655ed56021e62625b,09:26:48,03/04/2024
,"<div style=""font-size: 10rem; color: #0000FF"">P</div>",,ospan,letter,sA4xw4Tsd4Xt4hWV5RXQqejqBhg2,html-keyboard-response,190,2109899,0.0-46.0-6.0-1.0-1.0-1.0,,,,,,,,,,,,,,,5f71bba655ed56021e62625b,09:26:48,03/04/2024
1294.0,,,ospan,symmetry,sA4xw4Tsd4Xt4hWV5RXQqejqBhg2,symmetry-judgement-task,191,2113172,0.0-46.0-6.0-1.0-1.0-2.0,,,,,,,,,,1.0,1.0,,,,5f71bba655ed56021e62625b,09:26:48,03/04/2024
,"<div style=""font-size: 10rem; color: #0000FF"">L</div>",,ospan,letter,sA4xw4Tsd4Xt4hWV5RXQqejqBhg2,html-keyboard-response,192,2114178,0.0-46.0-6.0-1.0-1.0-3.0,,,,,,,,,,,,,,,5f71bba655ed56021e62625b,09:26:48,03/04/2024
1052.0,,,ospan,symmetry,sA4xw4Tsd4Xt4hWV5RXQqejqBhg2,symmetry-judgement-task,193,2117227,0.0-46.0-6.0-1.0-1.0-4.0,,,,,,,,,,1.0,1.0,,,,5f71bba655ed56021e62625b,09:26:48,03/04/2024
,"<div style=""font-size: 10rem; color: #0000FF"">N</div>",,ospan,letter,sA4xw4Tsd4Xt4hWV5RXQqejqBhg2,html-keyboard-response,194,2118244,0.0-46.0-6.0-1.0-1.0-5.0,,,,,,,,,,,,,,,5f71bba655ed56021e62625b,09:26:48,03/04/2024
1277.0,,,ospan,symmetry,sA4xw4Tsd4Xt4hWV5RXQqejqBhg2,symmetry-judgement-task,195,2121492,0.0-46.0-6.0-1.0-1.0-6.0,,,,,,,,,,1.0,1.0,,,,5f71bba655ed56021e62625b,09:26:48,03/04/2024
,"<div style=""font-size: 10rem; color: #0000FF"">C</div>",,ospan,letter,sA4xw4Tsd4Xt4hWV5RXQqejqBhg2,html-keyboard-response,196,2122497,0.0-46.0-6.0-1.0-1.0-7.0,,,,,,,,,,,,,,,5f71bba655ed56021e62625b,09:26:48,03/04/2024
775.0,,,ospan,symmetry,sA4xw4Tsd4Xt4hWV5RXQqejqBhg2,symmetry-judgement-task,197,2125258,0.0-46.0-6.0-1.0-1.0-8.0,,,,,,,,,,1.0,1.0,,,,5f71bba655ed56021e62625b,09:26:48,03/04/2024
,"<div style=""font-size: 10rem; color: #0000FF"">H</div>",,ospan,letter,sA4xw4Tsd4Xt4hWV5RXQqejqBhg2,html-keyboard-response,198,2126274,0.0-46.0-6.0-1.0-1.0-9.0,,,,,,,,,,,,,,,5f71bba655ed56021e62625b,09:26:48,03/04/2024
1344.0,,,ospan,symmetry,sA4xw4Tsd4Xt4hWV5RXQqejqBhg2,symmetry-judgement-task,199,2129622,0.0-46.0-6.0-1.0-1.0-10.0,,,,,,,,,,1.0,1.0,,,,5f71bba655ed56021e62625b,09:26:48,03/04/2024
,"<div style=""font-size: 10rem; color: #0000FF"">Q</div>",,ospan,letter,sA4xw4Tsd4Xt4hWV5RXQqejqBhg2,html-keyboard-response,200,2130631,0.0-46.0-6.0-1.0-1.0-11.0,,,,,,,,,,,,,,,5f71bba655ed56021e62625b,09:26:48,03/04/2024
1004.0,,,ospan,symmetry,sA4xw4Tsd4Xt4hWV5RXQqejqBhg2,symmetry-judgement-task,201,2133609,0.0-46.0-6.0-1.0-1.0-12.0,,,,,,,,,,1.0,1.0,,,,5f71bba655ed56021e62625b,09:26:48,03/04/2024
,"<div style=""font-size: 10rem; color: #0000FF"">S</div>",,ospan,letter,sA4xw4Tsd4Xt4hWV5RXQqejqBhg2,html-keyboard-response,202,2134625,0.0-46.0-6.0-1.0-1.0-13.0,,,,,,,,,,,,,,,5f71bba655ed56021e62625b,09:26:48,03/04/2024
2803.0,,,ospan,symmetry,sA4xw4Tsd4Xt4hWV5RXQqejqBhg2,symmetry-judgement-task,203,2139402,0.0-46.0-6.0-1.0-1.0-14.0,,,,,,,,,,1.0,1.0,,,,5f71bba655ed56021e62625b,09:26:48,03/04/2024
,"<div style=""font-size: 10rem; color: #0000FF"">G</div>",,ospan,letter,sA4xw4Tsd4Xt4hWV5RXQqejqBhg2,html-keyboard-response,204,2140412,0.0-46.0-6.0-1.0-1.0-15.0,,,,,,,,,,,,,,,5f71bba655ed56021e62625b,09:26:48,03/04/2024
7566.400000095367,"<div class = numbox><p style=""font-size: 2.4rem"">Please recall the letters you saw to the best of your ability. If you do not remember a particular letter, use the SKIP button.<br><b>(When you are ready to lock in your answer, press ENTER)</b></p><button id = button_1 class = ""square num-button"" onclick = ""recordClick(this)""><div class = content><div class = numbers>C</div></div></button><button id = button_2 class = ""square num-button"" onclick = ""recordClick(this)""><div class = content><div class = numbers>G</div></div></button><button id = button_3 class = ""square num-button"" onclick = ""recordClick(this)""><div class = content><div class = numbers>H</div></div></button><button id = button_4 class = ""square num-button"" onclick = ""recordClick(this)""><div class = content><div class = numbers>J</div></div></button><button id = button_5 class = ""square num-button"" onclick = ""recordClick(this)""><div class = content><div class = numbers>K</div></div></button><button id = button_6 class = ""square num-button"" onclick = ""recordClick(this)""><div class = content><div class = numbers>L</div></div></button><button id = button_7 class = ""square num-button"" onclick = ""recordClick(this)""><div class = content><div class = numbers>N</div></div></button><button id = button_8 class = ""square num-button"" onclick = ""recordClick(this)""><div class = content><div class = numbers>P</div></div></button><button id = button_9 class = ""square num-button"" onclick = ""recordClick(this)""><div class = content><div class = numbers>Q</div></div></button><button id = button_10 class = ""square num-button"" onclick = ""recordClick(this)""><div class = content><div class = numbers>R</div></div></button><button id = button_11 class = ""square num-button"" onclick = ""recordClick(this)""><div class = content><div class = numbers>S</div></div></button><button id = button_12 class = ""square num-button"" onclick = ""recordClick(this)""><div class = content><div class = numbers>Y</div></div></button><button class = clear_button id = ""ClearButton"" onclick = ""clearResponse()"">BACKSPACE</button><button class = blank_button id = ""BlankButton"" onclick = ""blankResponse()"">SKIP</button><p style=""font-size: 2.4rem""><u><b>Current Answer:</b></u></p><br><br><div id=echoed_txt style=""font-size: 5rem; color:blue;""><b></b></div></div>",enter,ospan,retrieval,sA4xw4Tsd4Xt4hWV5RXQqejqBhg2,html-keyboard-response,205,2148737,0.0-46.0-6.0-1.0-2.0,41,40,34,8.0,"[""P"",""L"",""N"",""C"",""H"",""Q"",""S"",""G""]","[""P"",""L"",""N"",""C"",""H"",""Q"",""S"",""G""]",1.0,8.0,,,,,,,5f71bba655ed56021e62625b,09:26:48,03/04/2024
1658.6999998092651,[''],0,ospan,feedback,sA4xw4Tsd4Xt4hWV5RXQqejqBhg2,html-button-response,206,2150909,0.0-46.0-6.0-1.0-3.0,,,,,,,,,,,,98.0,0.0,,5f71bba655ed56021e62625b,09:26:48,03/04/2024
6829.89999961853,,{'Q0': 'No comment'},ospan,survey_ospan,sA4xw4Tsd4Xt4hWV5RXQqejqBhg2,lmdlab-survey-text,207,2158511,0.0-46.0-7.0,,,,,,,,,,,,,,sA4xw4Tsd4Xt4hWV5RXQqejqBhg2,5f71bba655ed56021e62625b,09:26:48,03/04/2024
1612.6999998092651,<p><p style='font-size: 3rem'>Great work!<br><br>This completes the symmetry and memory task.</p><br><br><br>,0,ospan,finish,sA4xw4Tsd4Xt4hWV5RXQqejqBhg2,html-button-response,208,2160125,0.0-46.0-8.0,41,40,34,,,,,,,,,98.0,,,5f71bba655ed56021e62625b,09:26:48,03/04/2024
