rt,stimulus,response,exp_name,exp_stage,subjectID,trial_type,trial_index,time_elapsed,internal_node_id,ospan_shown,ospan_total,ospan_abs,length,resp_actual,resp_correct,full_correct,num_correct,feedback,accuracy,correct,math_acc,math_warning,databaseID,prolificID,start_time,date
6207.299999982119,<div class = 'left_align' style='font-size: 3.25rem; line-height: 1.3;'><p class = 'center_align'><b>Welcome to the Symmetry and Memory Task</b><br><br><br><br></p>Press 'continue' to show the instructions.<br><br><br><br></div>,0,ospan,instruct,k5lKFuKTyWVIP1hjbJ0Q1sd1ueZ2,html-button-response,54,808990,0.0-46.0-0.0-0.0-0.0,,,,,,,,,,,,,,,5ada0b521771b700010a1777,15:26:59,03/04/2024
10805.899999976158,"<div class = 'left_align' style='font-size: 3.25rem; line-height: 1.3;'><p class = 'center_align'><b>Symmetry and Memory Task</b><br><br></p>In this task, you will try to memorize letters you see on the screen<br>while you also view black and white grid pictures.<br><br>In the next few minutes, you will have some practice to get you familiar<br>with how the task works.<br><br>It may be difficult sometimes, but please do not worry about making mistakes!<br><br>We will begin by practicing the letter part of the task.<br><br><br><br></div>",0,ospan,instruct,k5lKFuKTyWVIP1hjbJ0Q1sd1ueZ2,html-button-response,55,820051,0.0-46.0-0.0-0.0-1.0,,,,,,,,,,,,,,,5ada0b521771b700010a1777,15:26:59,03/04/2024
17833.0,"<div class = 'left_align' style='font-size: 3.25rem; line-height: 1.3;'>For this practice part, letters will appear on the screen one at a time.<br><br>Try to remember each letter in the order presented.<br><br>After some letters have been shown, you will see a response screen. Your<br>goal is to report the letters you saw <b>in order</b>. If you do not remember<br>a particular letter, you will have the option to leave it blank.<br><br><br><br></div>",0,ospan,instruct,k5lKFuKTyWVIP1hjbJ0Q1sd1ueZ2,html-button-response,56,838143,0.0-46.0-0.0-0.0-2.0,,,,,,,,,,,,,,,5ada0b521771b700010a1777,15:26:59,03/04/2024
5155.4000000059605,"<div class = 'left_align' style='font-size: 3.25rem; line-height: 1.3;'>Remember, it is very important to get the letters in the same<br>order as you see them.<br><br>When you are ready, you may begin the letter practice.</div><br><br><br><br>",0,ospan,instruct,k5lKFuKTyWVIP1hjbJ0Q1sd1ueZ2,html-button-response,57,843550,0.0-46.0-0.0-0.0-3.0,,,,,,,,,,,,,,,5ada0b521771b700010a1777,15:26:59,03/04/2024
,"<p style=""font-size:75px;"">...</p>",,ospan,iti,k5lKFuKTyWVIP1hjbJ0Q1sd1ueZ2,html-keyboard-response,58,844808,0.0-46.0-0.0-1.0-0.0,,,,,,,,,,,,,,,5ada0b521771b700010a1777,15:26:59,03/04/2024
,"<div style=""font-size: 10rem; color: #0000FF"">N</div>",,ospan,letter,k5lKFuKTyWVIP1hjbJ0Q1sd1ueZ2,html-keyboard-response,59,845811,0.0-46.0-0.0-1.0-1.0,,,,,,,,,,,,,,,5ada0b521771b700010a1777,15:26:59,03/04/2024
,"<div style=""font-size: 10rem; color: #0000FF"">Y</div>",,ospan,letter,k5lKFuKTyWVIP1hjbJ0Q1sd1ueZ2,html-keyboard-response,60,847589,0.0-46.0-0.0-1.0-2.0,,,,,,,,,,,,,,,5ada0b521771b700010a1777,15:26:59,03/04/2024
22017.899999976158,"<div class = numbox><p style=""font-size: 2.4rem"">Please recall the letters you saw to the best of your ability. If you do not remember a particular letter, use the SKIP button.<br><b>(When you are ready to lock in your answer, press ENTER)</b></p><button id = button_1 class = ""square num-button"" onclick = ""recordClick(this)""><div class = content><div class = numbers>C</div></div></button><button id = button_2 class = ""square num-button"" onclick = ""recordClick(this)""><div class = content><div class = numbers>G</div></div></button><button id = button_3 class = ""square num-button"" onclick = ""recordClick(this)""><div class = content><div class = numbers>H</div></div></button><button id = button_4 class = ""square num-button"" onclick = ""recordClick(this)""><div class = content><div class = numbers>J</div></div></button><button id = button_5 class = ""square num-button"" onclick = ""recordClick(this)""><div class = content><div class = numbers>K</div></div></button><button id = button_6 class = ""square num-button"" onclick = ""recordClick(this)""><div class = content><div class = numbers>L</div></div></button><button id = button_7 class = ""square num-button"" onclick = ""recordClick(this)""><div class = content><div class = numbers>N</div></div></button><button id = button_8 class = ""square num-button"" onclick = ""recordClick(this)""><div class = content><div class = numbers>P</div></div></button><button id = button_9 class = ""square num-button"" onclick = ""recordClick(this)""><div class = content><div class = numbers>Q</div></div></button><button id = button_10 class = ""square num-button"" onclick = ""recordClick(this)""><div class = content><div class = numbers>R</div></div></button><button id = button_11 class = ""square num-button"" onclick = ""recordClick(this)""><div class = content><div class = numbers>S</div></div></button><button id = button_12 class = ""square num-button"" onclick = ""recordClick(this)""><div class = content><div class = numbers>Y</div></div></button><button class = clear_button id = ""ClearButton"" onclick = ""clearResponse()"">BACKSPACE</button><button class = blank_button id = ""BlankButton"" onclick = ""blankResponse()"">SKIP</button><p style=""font-size: 2.4rem""><u><b>Current Answer:</b></u></p><br><br><div id=echoed_txt style=""font-size: 5rem; color:blue;""><b></b></div></div>",enter,ospan,retrieval,k5lKFuKTyWVIP1hjbJ0Q1sd1ueZ2,html-keyboard-response,61,870365,0.0-46.0-0.0-1.0-3.0,NA,NA,NA,2.0,"[""N"",""Y""]","[""N"",""Y""]",1.0,2.0,"['<font color=""green"">N</font>', '<font color=""green"">Y</font>']",,,,,,5ada0b521771b700010a1777,15:26:59,03/04/2024
1804.4000000059605,"['<p style=""font-size:44px"">Letters:<br><br><br><font color=""green"">N</font> <font color=""green"">Y</font></p><br><br>']",0,ospan,practice_feedback,k5lKFuKTyWVIP1hjbJ0Q1sd1ueZ2,html-button-response,62,872678,0.0-46.0-0.0-1.0-4.0,,,,,,,,,,,,,,,5ada0b521771b700010a1777,15:26:59,03/04/2024
,"<p style=""font-size:75px;"">...</p>",,ospan,iti,k5lKFuKTyWVIP1hjbJ0Q1sd1ueZ2,html-keyboard-response,63,873680,0.0-46.0-0.0-2.0-0.0,,,,,,,,,,,,,,,5ada0b521771b700010a1777,15:26:59,03/04/2024
,"<div style=""font-size: 10rem; color: #0000FF"">L</div>",,ospan,letter,k5lKFuKTyWVIP1hjbJ0Q1sd1ueZ2,html-keyboard-response,64,874691,0.0-46.0-0.0-2.0-1.0,,,,,,,,,,,,,,,5ada0b521771b700010a1777,15:26:59,03/04/2024
,"<div style=""font-size: 10rem; color: #0000FF"">S</div>",,ospan,letter,k5lKFuKTyWVIP1hjbJ0Q1sd1ueZ2,html-keyboard-response,65,876455,0.0-46.0-0.0-2.0-2.0,,,,,,,,,,,,,,,5ada0b521771b700010a1777,15:26:59,03/04/2024
,"<div style=""font-size: 10rem; color: #0000FF"">Y</div>",,ospan,letter,k5lKFuKTyWVIP1hjbJ0Q1sd1ueZ2,html-keyboard-response,66,878213,0.0-46.0-0.0-2.0-3.0,,,,,,,,,,,,,,,5ada0b521771b700010a1777,15:26:59,03/04/2024
5903.700000017881,"<div class = numbox><p style=""font-size: 2.4rem"">Please recall the letters you saw to the best of your ability. If you do not remember a particular letter, use the SKIP button.<br><b>(When you are ready to lock in your answer, press ENTER)</b></p><button id = button_1 class = ""square num-button"" onclick = ""recordClick(this)""><div class = content><div class = numbers>C</div></div></button><button id = button_2 class = ""square num-button"" onclick = ""recordClick(this)""><div class = content><div class = numbers>G</div></div></button><button id = button_3 class = ""square num-button"" onclick = ""recordClick(this)""><div class = content><div class = numbers>H</div></div></button><button id = button_4 class = ""square num-button"" onclick = ""recordClick(this)""><div class = content><div class = numbers>J</div></div></button><button id = button_5 class = ""square num-button"" onclick = ""recordClick(this)""><div class = content><div class = numbers>K</div></div></button><button id = button_6 class = ""square num-button"" onclick = ""recordClick(this)""><div class = content><div class = numbers>L</div></div></button><button id = button_7 class = ""square num-button"" onclick = ""recordClick(this)""><div class = content><div class = numbers>N</div></div></button><button id = button_8 class = ""square num-button"" onclick = ""recordClick(this)""><div class = content><div class = numbers>P</div></div></button><button id = button_9 class = ""square num-button"" onclick = ""recordClick(this)""><div class = content><div class = numbers>Q</div></div></button><button id = button_10 class = ""square num-button"" onclick = ""recordClick(this)""><div class = content><div class = numbers>R</div></div></button><button id = button_11 class = ""square num-button"" onclick = ""recordClick(this)""><div class = content><div class = numbers>S</div></div></button><button id = button_12 class = ""square num-button"" onclick = ""recordClick(this)""><div class = content><div class = numbers>Y</div></div></button><button class = clear_button id = ""ClearButton"" onclick = ""clearResponse()"">BACKSPACE</button><button class = blank_button id = ""BlankButton"" onclick = ""blankResponse()"">SKIP</button><p style=""font-size: 2.4rem""><u><b>Current Answer:</b></u></p><br><br><div id=echoed_txt style=""font-size: 5rem; color:blue;""><b></b></div></div>",enter,ospan,retrieval,k5lKFuKTyWVIP1hjbJ0Q1sd1ueZ2,html-keyboard-response,67,884872,0.0-46.0-0.0-2.0-4.0,NA,NA,NA,3.0,"[""L"",""S"",""Y""]","[""L"",""S"",""Y""]",1.0,3.0,"['<font color=""green"">L</font>', '<font color=""green"">S</font>', '<font color=""green"">Y</font>']",,,,,,5ada0b521771b700010a1777,15:26:59,03/04/2024
1393.2000000178814,"['<p style=""font-size:44px"">Letters:<br><br><br><font color=""green"">L</font> <font color=""green"">S</font> <font color=""green"">Y</font></p><br><br>']",0,ospan,practice_feedback,k5lKFuKTyWVIP1hjbJ0Q1sd1ueZ2,html-button-response,68,886770,0.0-46.0-0.0-2.0-5.0,,,,,,,,,,,,,,,5ada0b521771b700010a1777,15:26:59,03/04/2024
24593.5,"<div class = 'left_align' style='font-size: 3.25rem; line-height: 1.3;'>Now you will practice doing the <b>symmetry judgment part</b> of the experiment.<br><br>A black and white grid picture will appear on the screen and you have to judge if it is <br>symmetrical or asymetrical.<br><br>A picture is 'mirror' symmetrical if its left half is identical to the right half when flipped.<br>Here are examples of a symmetrical and an asymetrical picture:<br><br><center><img src='Stimuli/img/symm_instructions_extra.png' style='height:420px; width:900'></img></center><br>To judge symmetry, imagine you were to fold each picture down the middle, like a book –<br>would the left half match the right half when folded onto each other?<br><br></div><br>",0,ospan,instruct,k5lKFuKTyWVIP1hjbJ0Q1sd1ueZ2,html-button-response,69,911365,0.0-46.0-1.0-0.0-0.0,,,,,,,,,,,,,,,5ada0b521771b700010a1777,15:26:59,03/04/2024
6658.5,"<div class = 'left_align' style='font-size: 3.25rem; line-height: 1.3;'>When you have viewed the picture and determined whether it is symmetrical or not,<br>you can <b>click the Yes or No button</b> below to answer.<br><br>If you take longer than 15 seconds, it will continue automatically<br>and record the answer as an error.</div><br>",0,ospan,instruct,k5lKFuKTyWVIP1hjbJ0Q1sd1ueZ2,html-button-response,70,918275,0.0-46.0-1.0-0.0-1.0,,,,,,,,,,,,,,,5ada0b521771b700010a1777,15:26:59,03/04/2024
6205.0999999940395,"<div class = 'left_align' style='font-size: 3.25rem; line-height: 1.3;'>It is <b>very</b> important that you make the symmetry judgment correctly.<br><br>It is also important that you try and judge the picture as quickly as you can.<br><br>When you are ready, click on the button below to try some practice problems.</div><br><br><br><br>",0,ospan,instruct,k5lKFuKTyWVIP1hjbJ0Q1sd1ueZ2,html-button-response,71,924742,0.0-46.0-1.0-0.0-2.0,,,,,,,,,,,,,,,5ada0b521771b700010a1777,15:26:59,03/04/2024
1367.0,,,ospan,symmetry,k5lKFuKTyWVIP1hjbJ0Q1sd1ueZ2,symmetry-judgement-task,72,926900,0.0-46.0-1.0-1.0-0.0,,,,,,,,,,1.0,1.0,,,,5ada0b521771b700010a1777,15:26:59,03/04/2024
,"<p style=""color:green; font-size: 35px"">Correct</p>",,ospan,feedback,k5lKFuKTyWVIP1hjbJ0Q1sd1ueZ2,html-keyboard-response,73,927657,0.0-46.0-1.0-1.0-1.0,,,,,,,,,,,,,,,5ada0b521771b700010a1777,15:26:59,03/04/2024
1424.0,,,ospan,symmetry,k5lKFuKTyWVIP1hjbJ0Q1sd1ueZ2,symmetry-judgement-task,74,931664,0.0-46.0-1.0-1.0-2.0,,,,,,,,,,1.0,1.0,,,,5ada0b521771b700010a1777,15:26:59,03/04/2024
,"<p style=""color:green; font-size: 35px"">Correct</p>",,ospan,feedback,k5lKFuKTyWVIP1hjbJ0Q1sd1ueZ2,html-keyboard-response,75,932423,0.0-46.0-1.0-1.0-3.0,,,,,,,,,,,,,,,5ada0b521771b700010a1777,15:26:59,03/04/2024
1549.0,,,ospan,symmetry,k5lKFuKTyWVIP1hjbJ0Q1sd1ueZ2,symmetry-judgement-task,76,936570,0.0-46.0-1.0-1.0-4.0,,,,,,,,,,1.0,1.0,,,,5ada0b521771b700010a1777,15:26:59,03/04/2024
,"<p style=""color:green; font-size: 35px"">Correct</p>",,ospan,feedback,k5lKFuKTyWVIP1hjbJ0Q1sd1ueZ2,html-keyboard-response,77,937337,0.0-46.0-1.0-1.0-5.0,,,,,,,,,,,,,,,5ada0b521771b700010a1777,15:26:59,03/04/2024
2113.100000023842,"<p style=""font-size: 3rem;"">You responded correctly on 3 of 3 symmetry judgments. Good job!</p><br><br>",0,ospan,practice,k5lKFuKTyWVIP1hjbJ0Q1sd1ueZ2,html-button-response,78,941459,0.0-46.0-1.0-2.0,,,,,,,,,,,,,,,5ada0b521771b700010a1777,15:26:59,03/04/2024
19895.0,"<div class = 'left_align' style='font-size: 3.25rem; line-height: 1.3;'>Now you will practice doing both parts of the experiment at the same time.<br><br>In the next practice set, you will be given one grid picture to judge.<br>Then letter will appear on the screen. Try to remember the letter.<br><br>It is <b>very important</b> to make the symmetry judgment as quickly and accurately as possible.<br><br>Just as before, once you have make the symmetry judgment, you can click Yes or No.<br><b>Note that you will no longer see Correct or Incorrect feedback.</div><br><br><br><br>",0,ospan,instruct,k5lKFuKTyWVIP1hjbJ0Q1sd1ueZ2,html-button-response,79,961615,0.0-46.0-2.0-0.0-0.0,,,,,,,,,,,,,,,5ada0b521771b700010a1777,15:26:59,03/04/2024
13494.5,"<div class = 'left_align' style='font-size: 3.25rem; line-height: 1.3;'>After the letter goes away, another grid picture will appear, and then<br>another letter.<br><br>At the end of each set of letters and grids, you will recall the letters to the best<br>of your ability. Remember, try your best to get the letters in the correct order.<br><br>It is important to <b>quickly</b> and <b>accurately</b> make the symmetry judgments.</div><br><br><br><br>",0,ospan,instruct,k5lKFuKTyWVIP1hjbJ0Q1sd1ueZ2,html-button-response,80,975365,0.0-46.0-2.0-0.0-1.0,,,,,,,,,,,,,,,5ada0b521771b700010a1777,15:26:59,03/04/2024
16823.09999999404,"<div class = 'left_align' style='font-size: 3.25rem; line-height: 1.3;'>On the feedback screen, if you are not doing well at the symmetry judgments,<br>you will also see a warning in the middle. This indicates your percent <br>correct for the grid pictures for the entire experiment.<br><br>It is <b>very</b> important for you to keep accuracy at least at 85%: <u>We can only use<br>data where the participant was at least 85% accurate on the judgments.</u> Therefore,<br> please try your best to perform well on the symmetry judgments, <b>at the same time</b><br>doing your best to recall as many letters as possible.<br><br>Click the button to try some practice problems.</div><br><br><br><br>",0,ospan,instruct,k5lKFuKTyWVIP1hjbJ0Q1sd1ueZ2,html-button-response,81,992448,0.0-46.0-2.0-0.0-2.0,,,,,,,,,,,,,,,5ada0b521771b700010a1777,15:26:59,03/04/2024
,"<p style=""font-size:75px;"">...</p>",,ospan,iti,k5lKFuKTyWVIP1hjbJ0Q1sd1ueZ2,html-keyboard-response,82,993716,0.0-46.0-2.0-1.0-0.0,,,,,,,,,,,,,,,5ada0b521771b700010a1777,15:26:59,03/04/2024
2373.0,,,ospan,symmetry,k5lKFuKTyWVIP1hjbJ0Q1sd1ueZ2,symmetry-judgement-task,83,997114,0.0-46.0-2.0-1.0-1.0-0.0,,,,,,,,,,1.0,1.0,,,,5ada0b521771b700010a1777,15:26:59,03/04/2024
,"<div style=""font-size: 10rem; color: #0000FF"">P</div>",,ospan,letter,k5lKFuKTyWVIP1hjbJ0Q1sd1ueZ2,html-keyboard-response,84,998118,0.0-46.0-2.0-1.0-1.0-1.0,,,,,,,,,,,,,,,5ada0b521771b700010a1777,15:26:59,03/04/2024
1503.0,,,ospan,symmetry,k5lKFuKTyWVIP1hjbJ0Q1sd1ueZ2,symmetry-judgement-task,85,1001462,0.0-46.0-2.0-1.0-1.0-2.0,,,,,,,,,,1.0,1.0,,,,5ada0b521771b700010a1777,15:26:59,03/04/2024
,"<div style=""font-size: 10rem; color: #0000FF"">N</div>",,ospan,letter,k5lKFuKTyWVIP1hjbJ0Q1sd1ueZ2,html-keyboard-response,86,1002475,0.0-46.0-2.0-1.0-1.0-3.0,,,,,,,,,,,,,,,5ada0b521771b700010a1777,15:26:59,03/04/2024
1813.0,,,ospan,symmetry,k5lKFuKTyWVIP1hjbJ0Q1sd1ueZ2,symmetry-judgement-task,87,1006142,0.0-46.0-2.0-1.0-1.0-4.0,,,,,,,,,,1.0,1.0,,,,5ada0b521771b700010a1777,15:26:59,03/04/2024
,"<div style=""font-size: 10rem; color: #0000FF"">R</div>",,ospan,letter,k5lKFuKTyWVIP1hjbJ0Q1sd1ueZ2,html-keyboard-response,88,1007149,0.0-46.0-2.0-1.0-1.0-5.0,,,,,,,,,,,,,,,5ada0b521771b700010a1777,15:26:59,03/04/2024
3706.5,"<div class = numbox><p style=""font-size: 2.4rem"">Please recall the letters you saw to the best of your ability. If you do not remember a particular letter, use the SKIP button.<br><b>(When you are ready to lock in your answer, press ENTER)</b></p><button id = button_1 class = ""square num-button"" onclick = ""recordClick(this)""><div class = content><div class = numbers>C</div></div></button><button id = button_2 class = ""square num-button"" onclick = ""recordClick(this)""><div class = content><div class = numbers>G</div></div></button><button id = button_3 class = ""square num-button"" onclick = ""recordClick(this)""><div class = content><div class = numbers>H</div></div></button><button id = button_4 class = ""square num-button"" onclick = ""recordClick(this)""><div class = content><div class = numbers>J</div></div></button><button id = button_5 class = ""square num-button"" onclick = ""recordClick(this)""><div class = content><div class = numbers>K</div></div></button><button id = button_6 class = ""square num-button"" onclick = ""recordClick(this)""><div class = content><div class = numbers>L</div></div></button><button id = button_7 class = ""square num-button"" onclick = ""recordClick(this)""><div class = content><div class = numbers>N</div></div></button><button id = button_8 class = ""square num-button"" onclick = ""recordClick(this)""><div class = content><div class = numbers>P</div></div></button><button id = button_9 class = ""square num-button"" onclick = ""recordClick(this)""><div class = content><div class = numbers>Q</div></div></button><button id = button_10 class = ""square num-button"" onclick = ""recordClick(this)""><div class = content><div class = numbers>R</div></div></button><button id = button_11 class = ""square num-button"" onclick = ""recordClick(this)""><div class = content><div class = numbers>S</div></div></button><button id = button_12 class = ""square num-button"" onclick = ""recordClick(this)""><div class = content><div class = numbers>Y</div></div></button><button class = clear_button id = ""ClearButton"" onclick = ""clearResponse()"">BACKSPACE</button><button class = blank_button id = ""BlankButton"" onclick = ""blankResponse()"">SKIP</button><p style=""font-size: 2.4rem""><u><b>Current Answer:</b></u></p><br><br><div id=echoed_txt style=""font-size: 5rem; color:blue;""><b></b></div></div>",enter,ospan,retrieval,k5lKFuKTyWVIP1hjbJ0Q1sd1ueZ2,html-keyboard-response,89,1011608,0.0-46.0-2.0-1.0-2.0-0.0,NA,NA,NA,3.0,"[""P"",""N"",""R""]","[""P"",""N"",""R""]",1.0,3.0,"['<font color=""green"">P</font>', '<font color=""green"">N</font>', '<font color=""green"">R</font>']",,,,,,5ada0b521771b700010a1777,15:26:59,03/04/2024
2901.5,"['<p style=""font-size:44px"">Letters:<br><br><br><font color=""green"">P</font> <font color=""green"">N</font> <font color=""green"">R</font></p><br><br><p style=""font-size:30px"">Symmetry:<br><br><font color=""green"">100%</font></p><br><br>']",0,ospan,practice_feedback,k5lKFuKTyWVIP1hjbJ0Q1sd1ueZ2,html-button-response,90,1015016,0.0-46.0-2.0-1.0-2.0-1.0,,,,,,,,,,,,,,,5ada0b521771b700010a1777,15:26:59,03/04/2024
,"<p style=""font-size:75px;"">...</p>",,ospan,iti,k5lKFuKTyWVIP1hjbJ0Q1sd1ueZ2,html-keyboard-response,91,1016020,0.0-46.0-2.0-2.0-0.0,,,,,,,,,,,,,,,5ada0b521771b700010a1777,15:26:59,03/04/2024
1502.0,,,ospan,symmetry,k5lKFuKTyWVIP1hjbJ0Q1sd1ueZ2,symmetry-judgement-task,92,1018547,0.0-46.0-2.0-2.0-1.0-0.0,,,,,,,,,,1.0,1.0,,,,5ada0b521771b700010a1777,15:26:59,03/04/2024
,"<div style=""font-size: 10rem; color: #0000FF"">J</div>",,ospan,letter,k5lKFuKTyWVIP1hjbJ0Q1sd1ueZ2,html-keyboard-response,93,1019555,0.0-46.0-2.0-2.0-1.0-1.0,,,,,,,,,,,,,,,5ada0b521771b700010a1777,15:26:59,03/04/2024
1495.0,,,ospan,symmetry,k5lKFuKTyWVIP1hjbJ0Q1sd1ueZ2,symmetry-judgement-task,94,1022906,0.0-46.0-2.0-2.0-1.0-2.0,,,,,,,,,,1.0,1.0,,,,5ada0b521771b700010a1777,15:26:59,03/04/2024
,"<div style=""font-size: 10rem; color: #0000FF"">L</div>",,ospan,letter,k5lKFuKTyWVIP1hjbJ0Q1sd1ueZ2,html-keyboard-response,95,1023907,0.0-46.0-2.0-2.0-1.0-3.0,,,,,,,,,,,,,,,5ada0b521771b700010a1777,15:26:59,03/04/2024
1345.0,,,ospan,symmetry,k5lKFuKTyWVIP1hjbJ0Q1sd1ueZ2,symmetry-judgement-task,96,1027101,0.0-46.0-2.0-2.0-1.0-4.0,,,,,,,,,,1.0,1.0,,,,5ada0b521771b700010a1777,15:26:59,03/04/2024
,"<div style=""font-size: 10rem; color: #0000FF"">G</div>",,ospan,letter,k5lKFuKTyWVIP1hjbJ0Q1sd1ueZ2,html-keyboard-response,97,1028107,0.0-46.0-2.0-2.0-1.0-5.0,,,,,,,,,,,,,,,5ada0b521771b700010a1777,15:26:59,03/04/2024
4472.0,"<div class = numbox><p style=""font-size: 2.4rem"">Please recall the letters you saw to the best of your ability. If you do not remember a particular letter, use the SKIP button.<br><b>(When you are ready to lock in your answer, press ENTER)</b></p><button id = button_1 class = ""square num-button"" onclick = ""recordClick(this)""><div class = content><div class = numbers>C</div></div></button><button id = button_2 class = ""square num-button"" onclick = ""recordClick(this)""><div class = content><div class = numbers>G</div></div></button><button id = button_3 class = ""square num-button"" onclick = ""recordClick(this)""><div class = content><div class = numbers>H</div></div></button><button id = button_4 class = ""square num-button"" onclick = ""recordClick(this)""><div class = content><div class = numbers>J</div></div></button><button id = button_5 class = ""square num-button"" onclick = ""recordClick(this)""><div class = content><div class = numbers>K</div></div></button><button id = button_6 class = ""square num-button"" onclick = ""recordClick(this)""><div class = content><div class = numbers>L</div></div></button><button id = button_7 class = ""square num-button"" onclick = ""recordClick(this)""><div class = content><div class = numbers>N</div></div></button><button id = button_8 class = ""square num-button"" onclick = ""recordClick(this)""><div class = content><div class = numbers>P</div></div></button><button id = button_9 class = ""square num-button"" onclick = ""recordClick(this)""><div class = content><div class = numbers>Q</div></div></button><button id = button_10 class = ""square num-button"" onclick = ""recordClick(this)""><div class = content><div class = numbers>R</div></div></button><button id = button_11 class = ""square num-button"" onclick = ""recordClick(this)""><div class = content><div class = numbers>S</div></div></button><button id = button_12 class = ""square num-button"" onclick = ""recordClick(this)""><div class = content><div class = numbers>Y</div></div></button><button class = clear_button id = ""ClearButton"" onclick = ""clearResponse()"">BACKSPACE</button><button class = blank_button id = ""BlankButton"" onclick = ""blankResponse()"">SKIP</button><p style=""font-size: 2.4rem""><u><b>Current Answer:</b></u></p><br><br><div id=echoed_txt style=""font-size: 5rem; color:blue;""><b></b></div></div>",enter,ospan,retrieval,k5lKFuKTyWVIP1hjbJ0Q1sd1ueZ2,html-keyboard-response,98,1033341,0.0-46.0-2.0-2.0-2.0-0.0,NA,NA,NA,3.0,"[""J"",""L"",""G""]","[""J"",""L"",""G""]",1.0,3.0,"['<font color=""green"">J</font>', '<font color=""green"">L</font>', '<font color=""green"">G</font>']",,,,,,5ada0b521771b700010a1777,15:26:59,03/04/2024
1220.7999999821186,"['<p style=""font-size:44px"">Letters:<br><br><br><font color=""green"">J</font> <font color=""green"">L</font> <font color=""green"">G</font></p><br><br><p style=""font-size:30px"">Symmetry:<br><br><font color=""green"">100%</font></p><br><br>']",0,ospan,practice_feedback,k5lKFuKTyWVIP1hjbJ0Q1sd1ueZ2,html-button-response,99,1035064,0.0-46.0-2.0-2.0-2.0-1.0,,,,,,,,,,,,,,,5ada0b521771b700010a1777,15:26:59,03/04/2024
40306.0,"<div class = 'left_align' style='font-size: 3rem; line-height: 1.3;'><b>Great work! That is the end of practice.</b><br><br>The real trials will look just like the practice trials you just completed.<br><br><u>Here, you will not see feedback</u>. First, you will see an grid picture to judge,<br>then a letter to remember. When the recall screen appears, report the letters in the<br>order presented. If you forget a letter, remember to use the <b>blank</b> button to move to the<br>next letter. Some of the sets will have more symmetry grids and letters than others.<br><br>It is important that you do your best on both the symmetry judgments and the letter recall<br>parts of the experiment. For for the symmetry judgments, try to work as <b>quickly</b> and <br>as <b>accurately</b> as possible. Remember to keep your symmetry accuracy at 85% or above.<br><br><b>For the letters, do NOT use any external aid (e.g., writing on paper, electronic device).</b><br><br>It is <u>very important</u> to our experiment to have a <b>true</b> view of your real performance.<br><br>Do not worry if you miss some when it gets hard! This task is meant to be very challenging!<br><br>Click the button to begin.</div><br><br><br><br>",0,ospan,starting_real_here,k5lKFuKTyWVIP1hjbJ0Q1sd1ueZ2,html-button-response,100,1075371,0.0-46.0-2.0-3.0,,,,,,,,,,,,,,,5ada0b521771b700010a1777,15:26:59,03/04/2024
,"<p style=""font-size:75px;"">...</p>",,ospan,iti,k5lKFuKTyWVIP1hjbJ0Q1sd1ueZ2,html-keyboard-response,101,1076636,0.0-46.0-3.0-0.0-0.0,,,,,,,,,,,,,,,5ada0b521771b700010a1777,15:26:59,03/04/2024
1458.0,,,ospan,symmetry,k5lKFuKTyWVIP1hjbJ0Q1sd1ueZ2,symmetry-judgement-task,102,1079121,0.0-46.0-3.0-0.0-1.0-0.0,,,,,,,,,,1.0,1.0,,,,5ada0b521771b700010a1777,15:26:59,03/04/2024
,"<div style=""font-size: 10rem; color: #0000FF"">P</div>",,ospan,letter,k5lKFuKTyWVIP1hjbJ0Q1sd1ueZ2,html-keyboard-response,103,1080122,0.0-46.0-3.0-0.0-1.0-1.0,,,,,,,,,,,,,,,5ada0b521771b700010a1777,15:26:59,03/04/2024
2116.0,,,ospan,symmetry,k5lKFuKTyWVIP1hjbJ0Q1sd1ueZ2,symmetry-judgement-task,104,1084019,0.0-46.0-3.0-0.0-1.0-2.0,,,,,,,,,,1.0,1.0,,,,5ada0b521771b700010a1777,15:26:59,03/04/2024
,"<div style=""font-size: 10rem; color: #0000FF"">C</div>",,ospan,letter,k5lKFuKTyWVIP1hjbJ0Q1sd1ueZ2,html-keyboard-response,105,1085034,0.0-46.0-3.0-0.0-1.0-3.0,,,,,,,,,,,,,,,5ada0b521771b700010a1777,15:26:59,03/04/2024
1266.0,,,ospan,symmetry,k5lKFuKTyWVIP1hjbJ0Q1sd1ueZ2,symmetry-judgement-task,106,1088138,0.0-46.0-3.0-0.0-1.0-4.0,,,,,,,,,,1.0,1.0,,,,5ada0b521771b700010a1777,15:26:59,03/04/2024
,"<div style=""font-size: 10rem; color: #0000FF"">S</div>",,ospan,letter,k5lKFuKTyWVIP1hjbJ0Q1sd1ueZ2,html-keyboard-response,107,1089140,0.0-46.0-3.0-0.0-1.0-5.0,,,,,,,,,,,,,,,5ada0b521771b700010a1777,15:26:59,03/04/2024
3879.0999999940395,"<div class = numbox><p style=""font-size: 2.4rem"">Please recall the letters you saw to the best of your ability. If you do not remember a particular letter, use the SKIP button.<br><b>(When you are ready to lock in your answer, press ENTER)</b></p><button id = button_1 class = ""square num-button"" onclick = ""recordClick(this)""><div class = content><div class = numbers>C</div></div></button><button id = button_2 class = ""square num-button"" onclick = ""recordClick(this)""><div class = content><div class = numbers>G</div></div></button><button id = button_3 class = ""square num-button"" onclick = ""recordClick(this)""><div class = content><div class = numbers>H</div></div></button><button id = button_4 class = ""square num-button"" onclick = ""recordClick(this)""><div class = content><div class = numbers>J</div></div></button><button id = button_5 class = ""square num-button"" onclick = ""recordClick(this)""><div class = content><div class = numbers>K</div></div></button><button id = button_6 class = ""square num-button"" onclick = ""recordClick(this)""><div class = content><div class = numbers>L</div></div></button><button id = button_7 class = ""square num-button"" onclick = ""recordClick(this)""><div class = content><div class = numbers>N</div></div></button><button id = button_8 class = ""square num-button"" onclick = ""recordClick(this)""><div class = content><div class = numbers>P</div></div></button><button id = button_9 class = ""square num-button"" onclick = ""recordClick(this)""><div class = content><div class = numbers>Q</div></div></button><button id = button_10 class = ""square num-button"" onclick = ""recordClick(this)""><div class = content><div class = numbers>R</div></div></button><button id = button_11 class = ""square num-button"" onclick = ""recordClick(this)""><div class = content><div class = numbers>S</div></div></button><button id = button_12 class = ""square num-button"" onclick = ""recordClick(this)""><div class = content><div class = numbers>Y</div></div></button><button class = clear_button id = ""ClearButton"" onclick = ""clearResponse()"">BACKSPACE</button><button class = blank_button id = ""BlankButton"" onclick = ""blankResponse()"">SKIP</button><p style=""font-size: 2.4rem""><u><b>Current Answer:</b></u></p><br><br><div id=echoed_txt style=""font-size: 5rem; color:blue;""><b></b></div></div>",enter,ospan,retrieval,k5lKFuKTyWVIP1hjbJ0Q1sd1ueZ2,html-keyboard-response,108,1093785,0.0-46.0-3.0-0.0-2.0,3,3,3,3.0,"[""P"",""C"",""S""]","[""P"",""C"",""S""]",1.0,3.0,,,,,,,5ada0b521771b700010a1777,15:26:59,03/04/2024
1016.8000000119209,[''],0,ospan,feedback,k5lKFuKTyWVIP1hjbJ0Q1sd1ueZ2,html-button-response,109,1095305,0.0-46.0-3.0-0.0-3.0,,,,,,,,,,,,100.0,0.0,,5ada0b521771b700010a1777,15:26:59,03/04/2024
,"<p style=""font-size:75px;"">...</p>",,ospan,iti,k5lKFuKTyWVIP1hjbJ0Q1sd1ueZ2,html-keyboard-response,110,1096306,0.0-46.0-4.0-0.0-0.0,,,,,,,,,,,,,,,5ada0b521771b700010a1777,15:26:59,03/04/2024
1403.0,,,ospan,symmetry,k5lKFuKTyWVIP1hjbJ0Q1sd1ueZ2,symmetry-judgement-task,111,1098803,0.0-46.0-4.0-0.0-1.0-0.0,,,,,,,,,,1.0,1.0,,,,5ada0b521771b700010a1777,15:26:59,03/04/2024
,"<div style=""font-size: 10rem; color: #0000FF"">R</div>",,ospan,letter,k5lKFuKTyWVIP1hjbJ0Q1sd1ueZ2,html-keyboard-response,112,1099814,0.0-46.0-4.0-0.0-1.0-1.0,,,,,,,,,,,,,,,5ada0b521771b700010a1777,15:26:59,03/04/2024
1612.0,,,ospan,symmetry,k5lKFuKTyWVIP1hjbJ0Q1sd1ueZ2,symmetry-judgement-task,113,1103271,0.0-46.0-4.0-0.0-1.0-2.0,,,,,,,,,,1.0,1.0,,,,5ada0b521771b700010a1777,15:26:59,03/04/2024
,"<div style=""font-size: 10rem; color: #0000FF"">P</div>",,ospan,letter,k5lKFuKTyWVIP1hjbJ0Q1sd1ueZ2,html-keyboard-response,114,1104274,0.0-46.0-4.0-0.0-1.0-3.0,,,,,,,,,,,,,,,5ada0b521771b700010a1777,15:26:59,03/04/2024
1400.0,,,ospan,symmetry,k5lKFuKTyWVIP1hjbJ0Q1sd1ueZ2,symmetry-judgement-task,115,1107519,0.0-46.0-4.0-0.0-1.0-4.0,,,,,,,,,,1.0,1.0,,,,5ada0b521771b700010a1777,15:26:59,03/04/2024
,"<div style=""font-size: 10rem; color: #0000FF"">S</div>",,ospan,letter,k5lKFuKTyWVIP1hjbJ0Q1sd1ueZ2,html-keyboard-response,116,1108531,0.0-46.0-4.0-0.0-1.0-5.0,,,,,,,,,,,,,,,5ada0b521771b700010a1777,15:26:59,03/04/2024
2056.0,,,ospan,symmetry,k5lKFuKTyWVIP1hjbJ0Q1sd1ueZ2,symmetry-judgement-task,117,1112435,0.0-46.0-4.0-0.0-1.0-6.0,,,,,,,,,,1.0,1.0,,,,5ada0b521771b700010a1777,15:26:59,03/04/2024
,"<div style=""font-size: 10rem; color: #0000FF"">H</div>",,ospan,letter,k5lKFuKTyWVIP1hjbJ0Q1sd1ueZ2,html-keyboard-response,118,1113441,0.0-46.0-4.0-0.0-1.0-7.0,,,,,,,,,,,,,,,5ada0b521771b700010a1777,15:26:59,03/04/2024
6117.0999999940395,"<div class = numbox><p style=""font-size: 2.4rem"">Please recall the letters you saw to the best of your ability. If you do not remember a particular letter, use the SKIP button.<br><b>(When you are ready to lock in your answer, press ENTER)</b></p><button id = button_1 class = ""square num-button"" onclick = ""recordClick(this)""><div class = content><div class = numbers>C</div></div></button><button id = button_2 class = ""square num-button"" onclick = ""recordClick(this)""><div class = content><div class = numbers>G</div></div></button><button id = button_3 class = ""square num-button"" onclick = ""recordClick(this)""><div class = content><div class = numbers>H</div></div></button><button id = button_4 class = ""square num-button"" onclick = ""recordClick(this)""><div class = content><div class = numbers>J</div></div></button><button id = button_5 class = ""square num-button"" onclick = ""recordClick(this)""><div class = content><div class = numbers>K</div></div></button><button id = button_6 class = ""square num-button"" onclick = ""recordClick(this)""><div class = content><div class = numbers>L</div></div></button><button id = button_7 class = ""square num-button"" onclick = ""recordClick(this)""><div class = content><div class = numbers>N</div></div></button><button id = button_8 class = ""square num-button"" onclick = ""recordClick(this)""><div class = content><div class = numbers>P</div></div></button><button id = button_9 class = ""square num-button"" onclick = ""recordClick(this)""><div class = content><div class = numbers>Q</div></div></button><button id = button_10 class = ""square num-button"" onclick = ""recordClick(this)""><div class = content><div class = numbers>R</div></div></button><button id = button_11 class = ""square num-button"" onclick = ""recordClick(this)""><div class = content><div class = numbers>S</div></div></button><button id = button_12 class = ""square num-button"" onclick = ""recordClick(this)""><div class = content><div class = numbers>Y</div></div></button><button class = clear_button id = ""ClearButton"" onclick = ""clearResponse()"">BACKSPACE</button><button class = blank_button id = ""BlankButton"" onclick = ""blankResponse()"">SKIP</button><p style=""font-size: 2.4rem""><u><b>Current Answer:</b></u></p><br><br><div id=echoed_txt style=""font-size: 5rem; color:blue;""><b></b></div></div>",enter,ospan,retrieval,k5lKFuKTyWVIP1hjbJ0Q1sd1ueZ2,html-keyboard-response,119,1120310,0.0-46.0-4.0-0.0-2.0,7,7,7,4.0,"[""R"",""P"",""S"",""H""]","[""R"",""P"",""S"",""H""]",1.0,4.0,,,,,,,5ada0b521771b700010a1777,15:26:59,03/04/2024
961.2000000178814,[''],0,ospan,feedback,k5lKFuKTyWVIP1hjbJ0Q1sd1ueZ2,html-button-response,120,1121773,0.0-46.0-4.0-0.0-3.0,,,,,,,,,,,,100.0,0.0,,5ada0b521771b700010a1777,15:26:59,03/04/2024
,"<p style=""font-size:75px;"">...</p>",,ospan,iti,k5lKFuKTyWVIP1hjbJ0Q1sd1ueZ2,html-keyboard-response,121,1122777,0.0-46.0-4.0-1.0-0.0,,,,,,,,,,,,,,,5ada0b521771b700010a1777,15:26:59,03/04/2024
1336.0,,,ospan,symmetry,k5lKFuKTyWVIP1hjbJ0Q1sd1ueZ2,symmetry-judgement-task,122,1125146,0.0-46.0-4.0-1.0-1.0-0.0,,,,,,,,,,1.0,1.0,,,,5ada0b521771b700010a1777,15:26:59,03/04/2024
,"<div style=""font-size: 10rem; color: #0000FF"">G</div>",,ospan,letter,k5lKFuKTyWVIP1hjbJ0Q1sd1ueZ2,html-keyboard-response,123,1126148,0.0-46.0-4.0-1.0-1.0-1.0,,,,,,,,,,,,,,,5ada0b521771b700010a1777,15:26:59,03/04/2024
1425.0,,,ospan,symmetry,k5lKFuKTyWVIP1hjbJ0Q1sd1ueZ2,symmetry-judgement-task,124,1129419,0.0-46.0-4.0-1.0-1.0-2.0,,,,,,,,,,1.0,1.0,,,,5ada0b521771b700010a1777,15:26:59,03/04/2024
,"<div style=""font-size: 10rem; color: #0000FF"">R</div>",,ospan,letter,k5lKFuKTyWVIP1hjbJ0Q1sd1ueZ2,html-keyboard-response,125,1130424,0.0-46.0-4.0-1.0-1.0-3.0,,,,,,,,,,,,,,,5ada0b521771b700010a1777,15:26:59,03/04/2024
1544.0,,,ospan,symmetry,k5lKFuKTyWVIP1hjbJ0Q1sd1ueZ2,symmetry-judgement-task,126,1133825,0.0-46.0-4.0-1.0-1.0-4.0,,,,,,,,,,1.0,1.0,,,,5ada0b521771b700010a1777,15:26:59,03/04/2024
,"<div style=""font-size: 10rem; color: #0000FF"">H</div>",,ospan,letter,k5lKFuKTyWVIP1hjbJ0Q1sd1ueZ2,html-keyboard-response,127,1134839,0.0-46.0-4.0-1.0-1.0-5.0,,,,,,,,,,,,,,,5ada0b521771b700010a1777,15:26:59,03/04/2024
1213.0,,,ospan,symmetry,k5lKFuKTyWVIP1hjbJ0Q1sd1ueZ2,symmetry-judgement-task,128,1137892,0.0-46.0-4.0-1.0-1.0-6.0,,,,,,,,,,1.0,1.0,,,,5ada0b521771b700010a1777,15:26:59,03/04/2024
,"<div style=""font-size: 10rem; color: #0000FF"">S</div>",,ospan,letter,k5lKFuKTyWVIP1hjbJ0Q1sd1ueZ2,html-keyboard-response,129,1138903,0.0-46.0-4.0-1.0-1.0-7.0,,,,,,,,,,,,,,,5ada0b521771b700010a1777,15:26:59,03/04/2024
1782.0,,,ospan,symmetry,k5lKFuKTyWVIP1hjbJ0Q1sd1ueZ2,symmetry-judgement-task,130,1142523,0.0-46.0-4.0-1.0-1.0-8.0,,,,,,,,,,1.0,1.0,,,,5ada0b521771b700010a1777,15:26:59,03/04/2024
,"<div style=""font-size: 10rem; color: #0000FF"">N</div>",,ospan,letter,k5lKFuKTyWVIP1hjbJ0Q1sd1ueZ2,html-keyboard-response,131,1143527,0.0-46.0-4.0-1.0-1.0-9.0,,,,,,,,,,,,,,,5ada0b521771b700010a1777,15:26:59,03/04/2024
8366.5,"<div class = numbox><p style=""font-size: 2.4rem"">Please recall the letters you saw to the best of your ability. If you do not remember a particular letter, use the SKIP button.<br><b>(When you are ready to lock in your answer, press ENTER)</b></p><button id = button_1 class = ""square num-button"" onclick = ""recordClick(this)""><div class = content><div class = numbers>C</div></div></button><button id = button_2 class = ""square num-button"" onclick = ""recordClick(this)""><div class = content><div class = numbers>G</div></div></button><button id = button_3 class = ""square num-button"" onclick = ""recordClick(this)""><div class = content><div class = numbers>H</div></div></button><button id = button_4 class = ""square num-button"" onclick = ""recordClick(this)""><div class = content><div class = numbers>J</div></div></button><button id = button_5 class = ""square num-button"" onclick = ""recordClick(this)""><div class = content><div class = numbers>K</div></div></button><button id = button_6 class = ""square num-button"" onclick = ""recordClick(this)""><div class = content><div class = numbers>L</div></div></button><button id = button_7 class = ""square num-button"" onclick = ""recordClick(this)""><div class = content><div class = numbers>N</div></div></button><button id = button_8 class = ""square num-button"" onclick = ""recordClick(this)""><div class = content><div class = numbers>P</div></div></button><button id = button_9 class = ""square num-button"" onclick = ""recordClick(this)""><div class = content><div class = numbers>Q</div></div></button><button id = button_10 class = ""square num-button"" onclick = ""recordClick(this)""><div class = content><div class = numbers>R</div></div></button><button id = button_11 class = ""square num-button"" onclick = ""recordClick(this)""><div class = content><div class = numbers>S</div></div></button><button id = button_12 class = ""square num-button"" onclick = ""recordClick(this)""><div class = content><div class = numbers>Y</div></div></button><button class = clear_button id = ""ClearButton"" onclick = ""clearResponse()"">BACKSPACE</button><button class = blank_button id = ""BlankButton"" onclick = ""blankResponse()"">SKIP</button><p style=""font-size: 2.4rem""><u><b>Current Answer:</b></u></p><br><br><div id=echoed_txt style=""font-size: 5rem; color:blue;""><b></b></div></div>",enter,ospan,retrieval,k5lKFuKTyWVIP1hjbJ0Q1sd1ueZ2,html-keyboard-response,132,1152654,0.0-46.0-4.0-1.0-2.0,12,12,12,5.0,"[""G"",""R"",""H"",""S"",""N""]","[""G"",""R"",""H"",""S"",""N""]",1.0,5.0,,,,,,,5ada0b521771b700010a1777,15:26:59,03/04/2024
2145.0999999940395,[''],0,ospan,feedback,k5lKFuKTyWVIP1hjbJ0Q1sd1ueZ2,html-button-response,133,1155314,0.0-46.0-4.0-1.0-3.0,,,,,,,,,,,,100.0,0.0,,5ada0b521771b700010a1777,15:26:59,03/04/2024
,"<p style=""font-size:75px;"">...</p>",,ospan,iti,k5lKFuKTyWVIP1hjbJ0Q1sd1ueZ2,html-keyboard-response,134,1156316,0.0-46.0-4.0-2.0-0.0,,,,,,,,,,,,,,,5ada0b521771b700010a1777,15:26:59,03/04/2024
1503.0,,,ospan,symmetry,k5lKFuKTyWVIP1hjbJ0Q1sd1ueZ2,symmetry-judgement-task,135,1158842,0.0-46.0-4.0-2.0-1.0-0.0,,,,,,,,,,1.0,1.0,,,,5ada0b521771b700010a1777,15:26:59,03/04/2024
,"<div style=""font-size: 10rem; color: #0000FF"">G</div>",,ospan,letter,k5lKFuKTyWVIP1hjbJ0Q1sd1ueZ2,html-keyboard-response,136,1159864,0.0-46.0-4.0-2.0-1.0-1.0,,,,,,,,,,,,,,,5ada0b521771b700010a1777,15:26:59,03/04/2024
929.0,,,ospan,symmetry,k5lKFuKTyWVIP1hjbJ0Q1sd1ueZ2,symmetry-judgement-task,137,1162639,0.0-46.0-4.0-2.0-1.0-2.0,,,,,,,,,,1.0,1.0,,,,5ada0b521771b700010a1777,15:26:59,03/04/2024
,"<div style=""font-size: 10rem; color: #0000FF"">H</div>",,ospan,letter,k5lKFuKTyWVIP1hjbJ0Q1sd1ueZ2,html-keyboard-response,138,1163648,0.0-46.0-4.0-2.0-1.0-3.0,,,,,,,,,,,,,,,5ada0b521771b700010a1777,15:26:59,03/04/2024
1079.0,,,ospan,symmetry,k5lKFuKTyWVIP1hjbJ0Q1sd1ueZ2,symmetry-judgement-task,139,1166557,0.0-46.0-4.0-2.0-1.0-4.0,,,,,,,,,,1.0,1.0,,,,5ada0b521771b700010a1777,15:26:59,03/04/2024
,"<div style=""font-size: 10rem; color: #0000FF"">L</div>",,ospan,letter,k5lKFuKTyWVIP1hjbJ0Q1sd1ueZ2,html-keyboard-response,140,1167558,0.0-46.0-4.0-2.0-1.0-5.0,,,,,,,,,,,,,,,5ada0b521771b700010a1777,15:26:59,03/04/2024
5244.0999999940395,"<div class = numbox><p style=""font-size: 2.4rem"">Please recall the letters you saw to the best of your ability. If you do not remember a particular letter, use the SKIP button.<br><b>(When you are ready to lock in your answer, press ENTER)</b></p><button id = button_1 class = ""square num-button"" onclick = ""recordClick(this)""><div class = content><div class = numbers>C</div></div></button><button id = button_2 class = ""square num-button"" onclick = ""recordClick(this)""><div class = content><div class = numbers>G</div></div></button><button id = button_3 class = ""square num-button"" onclick = ""recordClick(this)""><div class = content><div class = numbers>H</div></div></button><button id = button_4 class = ""square num-button"" onclick = ""recordClick(this)""><div class = content><div class = numbers>J</div></div></button><button id = button_5 class = ""square num-button"" onclick = ""recordClick(this)""><div class = content><div class = numbers>K</div></div></button><button id = button_6 class = ""square num-button"" onclick = ""recordClick(this)""><div class = content><div class = numbers>L</div></div></button><button id = button_7 class = ""square num-button"" onclick = ""recordClick(this)""><div class = content><div class = numbers>N</div></div></button><button id = button_8 class = ""square num-button"" onclick = ""recordClick(this)""><div class = content><div class = numbers>P</div></div></button><button id = button_9 class = ""square num-button"" onclick = ""recordClick(this)""><div class = content><div class = numbers>Q</div></div></button><button id = button_10 class = ""square num-button"" onclick = ""recordClick(this)""><div class = content><div class = numbers>R</div></div></button><button id = button_11 class = ""square num-button"" onclick = ""recordClick(this)""><div class = content><div class = numbers>S</div></div></button><button id = button_12 class = ""square num-button"" onclick = ""recordClick(this)""><div class = content><div class = numbers>Y</div></div></button><button class = clear_button id = ""ClearButton"" onclick = ""clearResponse()"">BACKSPACE</button><button class = blank_button id = ""BlankButton"" onclick = ""blankResponse()"">SKIP</button><p style=""font-size: 2.4rem""><u><b>Current Answer:</b></u></p><br><br><div id=echoed_txt style=""font-size: 5rem; color:blue;""><b></b></div></div>",enter,ospan,retrieval,k5lKFuKTyWVIP1hjbJ0Q1sd1ueZ2,html-keyboard-response,141,1173559,0.0-46.0-4.0-2.0-2.0,15,15,15,3.0,"[""G"",""H"",""L""]","[""G"",""H"",""L""]",1.0,3.0,,,,,,,5ada0b521771b700010a1777,15:26:59,03/04/2024
810.7999999821186,[''],0,ospan,feedback,k5lKFuKTyWVIP1hjbJ0Q1sd1ueZ2,html-button-response,142,1174874,0.0-46.0-4.0-2.0-3.0,,,,,,,,,,,,100.0,0.0,,5ada0b521771b700010a1777,15:26:59,03/04/2024
,"<p style=""font-size:75px;"">...</p>",,ospan,iti,k5lKFuKTyWVIP1hjbJ0Q1sd1ueZ2,html-keyboard-response,143,1175876,0.0-46.0-5.0-0.0-0.0,,,,,,,,,,,,,,,5ada0b521771b700010a1777,15:26:59,03/04/2024
1674.0,,,ospan,symmetry,k5lKFuKTyWVIP1hjbJ0Q1sd1ueZ2,symmetry-judgement-task,144,1178580,0.0-46.0-5.0-0.0-1.0-0.0,,,,,,,,,,1.0,1.0,,,,5ada0b521771b700010a1777,15:26:59,03/04/2024
,"<div style=""font-size: 10rem; color: #0000FF"">S</div>",,ospan,letter,k5lKFuKTyWVIP1hjbJ0Q1sd1ueZ2,html-keyboard-response,145,1179581,0.0-46.0-5.0-0.0-1.0-1.0,,,,,,,,,,,,,,,5ada0b521771b700010a1777,15:26:59,03/04/2024
1392.0,,,ospan,symmetry,k5lKFuKTyWVIP1hjbJ0Q1sd1ueZ2,symmetry-judgement-task,146,1182815,0.0-46.0-5.0-0.0-1.0-2.0,,,,,,,,,,1.0,1.0,,,,5ada0b521771b700010a1777,15:26:59,03/04/2024
,"<div style=""font-size: 10rem; color: #0000FF"">K</div>",,ospan,letter,k5lKFuKTyWVIP1hjbJ0Q1sd1ueZ2,html-keyboard-response,147,1183817,0.0-46.0-5.0-0.0-1.0-3.0,,,,,,,,,,,,,,,5ada0b521771b700010a1777,15:26:59,03/04/2024
1546.0,,,ospan,symmetry,k5lKFuKTyWVIP1hjbJ0Q1sd1ueZ2,symmetry-judgement-task,148,1187212,0.0-46.0-5.0-0.0-1.0-4.0,,,,,,,,,,1.0,1.0,,,,5ada0b521771b700010a1777,15:26:59,03/04/2024
,"<div style=""font-size: 10rem; color: #0000FF"">P</div>",,ospan,letter,k5lKFuKTyWVIP1hjbJ0Q1sd1ueZ2,html-keyboard-response,149,1188222,0.0-46.0-5.0-0.0-1.0-5.0,,,,,,,,,,,,,,,5ada0b521771b700010a1777,15:26:59,03/04/2024
1613.0,,,ospan,symmetry,k5lKFuKTyWVIP1hjbJ0Q1sd1ueZ2,symmetry-judgement-task,150,1191671,0.0-46.0-5.0-0.0-1.0-6.0,,,,,,,,,,1.0,1.0,,,,5ada0b521771b700010a1777,15:26:59,03/04/2024
,"<div style=""font-size: 10rem; color: #0000FF"">H</div>",,ospan,letter,k5lKFuKTyWVIP1hjbJ0Q1sd1ueZ2,html-keyboard-response,151,1192672,0.0-46.0-5.0-0.0-1.0-7.0,,,,,,,,,,,,,,,5ada0b521771b700010a1777,15:26:59,03/04/2024
1830.0,,,ospan,symmetry,k5lKFuKTyWVIP1hjbJ0Q1sd1ueZ2,symmetry-judgement-task,152,1196351,0.0-46.0-5.0-0.0-1.0-8.0,,,,,,,,,,1.0,1.0,,,,5ada0b521771b700010a1777,15:26:59,03/04/2024
,"<div style=""font-size: 10rem; color: #0000FF"">R</div>",,ospan,letter,k5lKFuKTyWVIP1hjbJ0Q1sd1ueZ2,html-keyboard-response,153,1197363,0.0-46.0-5.0-0.0-1.0-9.0,,,,,,,,,,,,,,,5ada0b521771b700010a1777,15:26:59,03/04/2024
1288.0,,,ospan,symmetry,k5lKFuKTyWVIP1hjbJ0Q1sd1ueZ2,symmetry-judgement-task,154,1200496,0.0-46.0-5.0-0.0-1.0-10.0,,,,,,,,,,1.0,1.0,,,,5ada0b521771b700010a1777,15:26:59,03/04/2024
,"<div style=""font-size: 10rem; color: #0000FF"">L</div>",,ospan,letter,k5lKFuKTyWVIP1hjbJ0Q1sd1ueZ2,html-keyboard-response,155,1201504,0.0-46.0-5.0-0.0-1.0-11.0,,,,,,,,,,,,,,,5ada0b521771b700010a1777,15:26:59,03/04/2024
18672.59999999404,"<div class = numbox><p style=""font-size: 2.4rem"">Please recall the letters you saw to the best of your ability. If you do not remember a particular letter, use the SKIP button.<br><b>(When you are ready to lock in your answer, press ENTER)</b></p><button id = button_1 class = ""square num-button"" onclick = ""recordClick(this)""><div class = content><div class = numbers>C</div></div></button><button id = button_2 class = ""square num-button"" onclick = ""recordClick(this)""><div class = content><div class = numbers>G</div></div></button><button id = button_3 class = ""square num-button"" onclick = ""recordClick(this)""><div class = content><div class = numbers>H</div></div></button><button id = button_4 class = ""square num-button"" onclick = ""recordClick(this)""><div class = content><div class = numbers>J</div></div></button><button id = button_5 class = ""square num-button"" onclick = ""recordClick(this)""><div class = content><div class = numbers>K</div></div></button><button id = button_6 class = ""square num-button"" onclick = ""recordClick(this)""><div class = content><div class = numbers>L</div></div></button><button id = button_7 class = ""square num-button"" onclick = ""recordClick(this)""><div class = content><div class = numbers>N</div></div></button><button id = button_8 class = ""square num-button"" onclick = ""recordClick(this)""><div class = content><div class = numbers>P</div></div></button><button id = button_9 class = ""square num-button"" onclick = ""recordClick(this)""><div class = content><div class = numbers>Q</div></div></button><button id = button_10 class = ""square num-button"" onclick = ""recordClick(this)""><div class = content><div class = numbers>R</div></div></button><button id = button_11 class = ""square num-button"" onclick = ""recordClick(this)""><div class = content><div class = numbers>S</div></div></button><button id = button_12 class = ""square num-button"" onclick = ""recordClick(this)""><div class = content><div class = numbers>Y</div></div></button><button class = clear_button id = ""ClearButton"" onclick = ""clearResponse()"">BACKSPACE</button><button class = blank_button id = ""BlankButton"" onclick = ""blankResponse()"">SKIP</button><p style=""font-size: 2.4rem""><u><b>Current Answer:</b></u></p><br><br><div id=echoed_txt style=""font-size: 5rem; color:blue;""><b></b></div></div>",enter,ospan,retrieval,k5lKFuKTyWVIP1hjbJ0Q1sd1ueZ2,html-keyboard-response,156,1220943,0.0-46.0-5.0-0.0-2.0,21,19,15,6.0,"[""S"",""K"",""H"",""P"",""R"",""L""]","[""S"",""K"",""P"",""H"",""R"",""L""]",0.0,4.0,,,,,,,5ada0b521771b700010a1777,15:26:59,03/04/2024
795.7000000178814,[''],0,ospan,feedback,k5lKFuKTyWVIP1hjbJ0Q1sd1ueZ2,html-button-response,157,1222243,0.0-46.0-5.0-0.0-3.0,,,,,,,,,,,,100.0,0.0,,5ada0b521771b700010a1777,15:26:59,03/04/2024
,"<p style=""font-size:75px;"">...</p>",,ospan,iti,k5lKFuKTyWVIP1hjbJ0Q1sd1ueZ2,html-keyboard-response,158,1223259,0.0-46.0-5.0-1.0-0.0,,,,,,,,,,,,,,,5ada0b521771b700010a1777,15:26:59,03/04/2024
1323.0,,,ospan,symmetry,k5lKFuKTyWVIP1hjbJ0Q1sd1ueZ2,symmetry-judgement-task,159,1225610,0.0-46.0-5.0-1.0-1.0-0.0,,,,,,,,,,1.0,1.0,,,,5ada0b521771b700010a1777,15:26:59,03/04/2024
,"<div style=""font-size: 10rem; color: #0000FF"">Q</div>",,ospan,letter,k5lKFuKTyWVIP1hjbJ0Q1sd1ueZ2,html-keyboard-response,160,1226612,0.0-46.0-5.0-1.0-1.0-1.0,,,,,,,,,,,,,,,5ada0b521771b700010a1777,15:26:59,03/04/2024
2700.0,,,ospan,symmetry,k5lKFuKTyWVIP1hjbJ0Q1sd1ueZ2,symmetry-judgement-task,161,1231148,0.0-46.0-5.0-1.0-1.0-2.0,,,,,,,,,,1.0,1.0,,,,5ada0b521771b700010a1777,15:26:59,03/04/2024
,"<div style=""font-size: 10rem; color: #0000FF"">C</div>",,ospan,letter,k5lKFuKTyWVIP1hjbJ0Q1sd1ueZ2,html-keyboard-response,162,1232150,0.0-46.0-5.0-1.0-1.0-3.0,,,,,,,,,,,,,,,5ada0b521771b700010a1777,15:26:59,03/04/2024
1131.0,,,ospan,symmetry,k5lKFuKTyWVIP1hjbJ0Q1sd1ueZ2,symmetry-judgement-task,163,1235126,0.0-46.0-5.0-1.0-1.0-4.0,,,,,,,,,,1.0,1.0,,,,5ada0b521771b700010a1777,15:26:59,03/04/2024
,"<div style=""font-size: 10rem; color: #0000FF"">N</div>",,ospan,letter,k5lKFuKTyWVIP1hjbJ0Q1sd1ueZ2,html-keyboard-response,164,1236136,0.0-46.0-5.0-1.0-1.0-5.0,,,,,,,,,,,,,,,5ada0b521771b700010a1777,15:26:59,03/04/2024
927.0,,,ospan,symmetry,k5lKFuKTyWVIP1hjbJ0Q1sd1ueZ2,symmetry-judgement-task,165,1238917,0.0-46.0-5.0-1.0-1.0-6.0,,,,,,,,,,1.0,1.0,,,,5ada0b521771b700010a1777,15:26:59,03/04/2024
,"<div style=""font-size: 10rem; color: #0000FF"">P</div>",,ospan,letter,k5lKFuKTyWVIP1hjbJ0Q1sd1ueZ2,html-keyboard-response,166,1239926,0.0-46.0-5.0-1.0-1.0-7.0,,,,,,,,,,,,,,,5ada0b521771b700010a1777,15:26:59,03/04/2024
951.0,,,ospan,symmetry,k5lKFuKTyWVIP1hjbJ0Q1sd1ueZ2,symmetry-judgement-task,167,1242728,0.0-46.0-5.0-1.0-1.0-8.0,,,,,,,,,,1.0,1.0,,,,5ada0b521771b700010a1777,15:26:59,03/04/2024
,"<div style=""font-size: 10rem; color: #0000FF"">K</div>",,ospan,letter,k5lKFuKTyWVIP1hjbJ0Q1sd1ueZ2,html-keyboard-response,168,1243733,0.0-46.0-5.0-1.0-1.0-9.0,,,,,,,,,,,,,,,5ada0b521771b700010a1777,15:26:59,03/04/2024
1444.0,,,ospan,symmetry,k5lKFuKTyWVIP1hjbJ0Q1sd1ueZ2,symmetry-judgement-task,169,1247023,0.0-46.0-5.0-1.0-1.0-10.0,,,,,,,,,,1.0,1.0,,,,5ada0b521771b700010a1777,15:26:59,03/04/2024
,"<div style=""font-size: 10rem; color: #0000FF"">G</div>",,ospan,letter,k5lKFuKTyWVIP1hjbJ0Q1sd1ueZ2,html-keyboard-response,170,1248032,0.0-46.0-5.0-1.0-1.0-11.0,,,,,,,,,,,,,,,5ada0b521771b700010a1777,15:26:59,03/04/2024
1010.0,,,ospan,symmetry,k5lKFuKTyWVIP1hjbJ0Q1sd1ueZ2,symmetry-judgement-task,171,1250877,0.0-46.0-5.0-1.0-1.0-12.0,,,,,,,,,,1.0,1.0,,,,5ada0b521771b700010a1777,15:26:59,03/04/2024
,"<div style=""font-size: 10rem; color: #0000FF"">H</div>",,ospan,letter,k5lKFuKTyWVIP1hjbJ0Q1sd1ueZ2,html-keyboard-response,172,1251879,0.0-46.0-5.0-1.0-1.0-13.0,,,,,,,,,,,,,,,5ada0b521771b700010a1777,15:26:59,03/04/2024
13517.5,"<div class = numbox><p style=""font-size: 2.4rem"">Please recall the letters you saw to the best of your ability. If you do not remember a particular letter, use the SKIP button.<br><b>(When you are ready to lock in your answer, press ENTER)</b></p><button id = button_1 class = ""square num-button"" onclick = ""recordClick(this)""><div class = content><div class = numbers>C</div></div></button><button id = button_2 class = ""square num-button"" onclick = ""recordClick(this)""><div class = content><div class = numbers>G</div></div></button><button id = button_3 class = ""square num-button"" onclick = ""recordClick(this)""><div class = content><div class = numbers>H</div></div></button><button id = button_4 class = ""square num-button"" onclick = ""recordClick(this)""><div class = content><div class = numbers>J</div></div></button><button id = button_5 class = ""square num-button"" onclick = ""recordClick(this)""><div class = content><div class = numbers>K</div></div></button><button id = button_6 class = ""square num-button"" onclick = ""recordClick(this)""><div class = content><div class = numbers>L</div></div></button><button id = button_7 class = ""square num-button"" onclick = ""recordClick(this)""><div class = content><div class = numbers>N</div></div></button><button id = button_8 class = ""square num-button"" onclick = ""recordClick(this)""><div class = content><div class = numbers>P</div></div></button><button id = button_9 class = ""square num-button"" onclick = ""recordClick(this)""><div class = content><div class = numbers>Q</div></div></button><button id = button_10 class = ""square num-button"" onclick = ""recordClick(this)""><div class = content><div class = numbers>R</div></div></button><button id = button_11 class = ""square num-button"" onclick = ""recordClick(this)""><div class = content><div class = numbers>S</div></div></button><button id = button_12 class = ""square num-button"" onclick = ""recordClick(this)""><div class = content><div class = numbers>Y</div></div></button><button class = clear_button id = ""ClearButton"" onclick = ""clearResponse()"">BACKSPACE</button><button class = blank_button id = ""BlankButton"" onclick = ""blankResponse()"">SKIP</button><p style=""font-size: 2.4rem""><u><b>Current Answer:</b></u></p><br><br><div id=echoed_txt style=""font-size: 5rem; color:blue;""><b></b></div></div>",enter,ospan,retrieval,k5lKFuKTyWVIP1hjbJ0Q1sd1ueZ2,html-keyboard-response,173,1266166,0.0-46.0-5.0-1.0-2.0,28,22,15,7.0,"[""Q"",""N"",""C"",""P"",""K"",""_""]","[""Q"",""C"",""N"",""P"",""K"",""G"",""H""]",0.0,3.0,,,,,,,5ada0b521771b700010a1777,15:26:59,03/04/2024
895.7999999821186,[''],0,ospan,feedback,k5lKFuKTyWVIP1hjbJ0Q1sd1ueZ2,html-button-response,174,1267568,0.0-46.0-5.0-1.0-3.0,,,,,,,,,,,,100.0,0.0,,5ada0b521771b700010a1777,15:26:59,03/04/2024
,"<p style=""font-size:75px;"">...</p>",,ospan,iti,k5lKFuKTyWVIP1hjbJ0Q1sd1ueZ2,html-keyboard-response,175,1268570,0.0-46.0-6.0-0.0-0.0,,,,,,,,,,,,,,,5ada0b521771b700010a1777,15:26:59,03/04/2024
2628.0,,,ospan,symmetry,k5lKFuKTyWVIP1hjbJ0Q1sd1ueZ2,symmetry-judgement-task,176,1272219,0.0-46.0-6.0-0.0-1.0-0.0,,,,,,,,,,1.0,1.0,,,,5ada0b521771b700010a1777,15:26:59,03/04/2024
,"<div style=""font-size: 10rem; color: #0000FF"">R</div>",,ospan,letter,k5lKFuKTyWVIP1hjbJ0Q1sd1ueZ2,html-keyboard-response,177,1273235,0.0-46.0-6.0-0.0-1.0-1.0,,,,,,,,,,,,,,,5ada0b521771b700010a1777,15:26:59,03/04/2024
880.0,,,ospan,symmetry,k5lKFuKTyWVIP1hjbJ0Q1sd1ueZ2,symmetry-judgement-task,178,1275964,0.0-46.0-6.0-0.0-1.0-2.0,,,,,,,,,,1.0,1.0,,,,5ada0b521771b700010a1777,15:26:59,03/04/2024
,"<div style=""font-size: 10rem; color: #0000FF"">K</div>",,ospan,letter,k5lKFuKTyWVIP1hjbJ0Q1sd1ueZ2,html-keyboard-response,179,1276968,0.0-46.0-6.0-0.0-1.0-3.0,,,,,,,,,,,,,,,5ada0b521771b700010a1777,15:26:59,03/04/2024
1037.0,,,ospan,symmetry,k5lKFuKTyWVIP1hjbJ0Q1sd1ueZ2,symmetry-judgement-task,180,1279837,0.0-46.0-6.0-0.0-1.0-4.0,,,,,,,,,,1.0,1.0,,,,5ada0b521771b700010a1777,15:26:59,03/04/2024
,"<div style=""font-size: 10rem; color: #0000FF"">Y</div>",,ospan,letter,k5lKFuKTyWVIP1hjbJ0Q1sd1ueZ2,html-keyboard-response,181,1280841,0.0-46.0-6.0-0.0-1.0-5.0,,,,,,,,,,,,,,,5ada0b521771b700010a1777,15:26:59,03/04/2024
937.0,,,ospan,symmetry,k5lKFuKTyWVIP1hjbJ0Q1sd1ueZ2,symmetry-judgement-task,182,1283614,0.0-46.0-6.0-0.0-1.0-6.0,,,,,,,,,,1.0,1.0,,,,5ada0b521771b700010a1777,15:26:59,03/04/2024
,"<div style=""font-size: 10rem; color: #0000FF"">H</div>",,ospan,letter,k5lKFuKTyWVIP1hjbJ0Q1sd1ueZ2,html-keyboard-response,183,1284615,0.0-46.0-6.0-0.0-1.0-7.0,,,,,,,,,,,,,,,5ada0b521771b700010a1777,15:26:59,03/04/2024
1167.0,,,ospan,symmetry,k5lKFuKTyWVIP1hjbJ0Q1sd1ueZ2,symmetry-judgement-task,184,1287633,0.0-46.0-6.0-0.0-1.0-8.0,,,,,,,,,,1.0,1.0,,,,5ada0b521771b700010a1777,15:26:59,03/04/2024
,"<div style=""font-size: 10rem; color: #0000FF"">L</div>",,ospan,letter,k5lKFuKTyWVIP1hjbJ0Q1sd1ueZ2,html-keyboard-response,185,1288636,0.0-46.0-6.0-0.0-1.0-9.0,,,,,,,,,,,,,,,5ada0b521771b700010a1777,15:26:59,03/04/2024
15737.0,"<div class = numbox><p style=""font-size: 2.4rem"">Please recall the letters you saw to the best of your ability. If you do not remember a particular letter, use the SKIP button.<br><b>(When you are ready to lock in your answer, press ENTER)</b></p><button id = button_1 class = ""square num-button"" onclick = ""recordClick(this)""><div class = content><div class = numbers>C</div></div></button><button id = button_2 class = ""square num-button"" onclick = ""recordClick(this)""><div class = content><div class = numbers>G</div></div></button><button id = button_3 class = ""square num-button"" onclick = ""recordClick(this)""><div class = content><div class = numbers>H</div></div></button><button id = button_4 class = ""square num-button"" onclick = ""recordClick(this)""><div class = content><div class = numbers>J</div></div></button><button id = button_5 class = ""square num-button"" onclick = ""recordClick(this)""><div class = content><div class = numbers>K</div></div></button><button id = button_6 class = ""square num-button"" onclick = ""recordClick(this)""><div class = content><div class = numbers>L</div></div></button><button id = button_7 class = ""square num-button"" onclick = ""recordClick(this)""><div class = content><div class = numbers>N</div></div></button><button id = button_8 class = ""square num-button"" onclick = ""recordClick(this)""><div class = content><div class = numbers>P</div></div></button><button id = button_9 class = ""square num-button"" onclick = ""recordClick(this)""><div class = content><div class = numbers>Q</div></div></button><button id = button_10 class = ""square num-button"" onclick = ""recordClick(this)""><div class = content><div class = numbers>R</div></div></button><button id = button_11 class = ""square num-button"" onclick = ""recordClick(this)""><div class = content><div class = numbers>S</div></div></button><button id = button_12 class = ""square num-button"" onclick = ""recordClick(this)""><div class = content><div class = numbers>Y</div></div></button><button class = clear_button id = ""ClearButton"" onclick = ""clearResponse()"">BACKSPACE</button><button class = blank_button id = ""BlankButton"" onclick = ""blankResponse()"">SKIP</button><p style=""font-size: 2.4rem""><u><b>Current Answer:</b></u></p><br><br><div id=echoed_txt style=""font-size: 5rem; color:blue;""><b></b></div></div>",enter,ospan,retrieval,k5lKFuKTyWVIP1hjbJ0Q1sd1ueZ2,html-keyboard-response,186,1305133,0.0-46.0-6.0-0.0-2.0,33,25,15,5.0,"[""R"",""K"",""L"",""H"",""Y""]","[""R"",""K"",""Y"",""H"",""L""]",0.0,3.0,,,,,,,5ada0b521771b700010a1777,15:26:59,03/04/2024
1528.4000000059605,[''],0,ospan,feedback,k5lKFuKTyWVIP1hjbJ0Q1sd1ueZ2,html-button-response,187,1307175,0.0-46.0-6.0-0.0-3.0,,,,,,,,,,,,100.0,0.0,,5ada0b521771b700010a1777,15:26:59,03/04/2024
,"<p style=""font-size:75px;"">...</p>",,ospan,iti,k5lKFuKTyWVIP1hjbJ0Q1sd1ueZ2,html-keyboard-response,188,1308192,0.0-46.0-6.0-1.0-0.0,,,,,,,,,,,,,,,5ada0b521771b700010a1777,15:26:59,03/04/2024
1611.0,,,ospan,symmetry,k5lKFuKTyWVIP1hjbJ0Q1sd1ueZ2,symmetry-judgement-task,189,1310824,0.0-46.0-6.0-1.0-1.0-0.0,,,,,,,,,,1.0,1.0,,,,5ada0b521771b700010a1777,15:26:59,03/04/2024
,"<div style=""font-size: 10rem; color: #0000FF"">J</div>",,ospan,letter,k5lKFuKTyWVIP1hjbJ0Q1sd1ueZ2,html-keyboard-response,190,1311840,0.0-46.0-6.0-1.0-1.0-1.0,,,,,,,,,,,,,,,5ada0b521771b700010a1777,15:26:59,03/04/2024
1326.0,,,ospan,symmetry,k5lKFuKTyWVIP1hjbJ0Q1sd1ueZ2,symmetry-judgement-task,191,1315000,0.0-46.0-6.0-1.0-1.0-2.0,,,,,,,,,,1.0,1.0,,,,5ada0b521771b700010a1777,15:26:59,03/04/2024
,"<div style=""font-size: 10rem; color: #0000FF"">L</div>",,ospan,letter,k5lKFuKTyWVIP1hjbJ0Q1sd1ueZ2,html-keyboard-response,192,1316008,0.0-46.0-6.0-1.0-1.0-3.0,,,,,,,,,,,,,,,5ada0b521771b700010a1777,15:26:59,03/04/2024
1175.0,,,ospan,symmetry,k5lKFuKTyWVIP1hjbJ0Q1sd1ueZ2,symmetry-judgement-task,193,1319032,0.0-46.0-6.0-1.0-1.0-4.0,,,,,,,,,,1.0,1.0,,,,5ada0b521771b700010a1777,15:26:59,03/04/2024
,"<div style=""font-size: 10rem; color: #0000FF"">K</div>",,ospan,letter,k5lKFuKTyWVIP1hjbJ0Q1sd1ueZ2,html-keyboard-response,194,1320040,0.0-46.0-6.0-1.0-1.0-5.0,,,,,,,,,,,,,,,5ada0b521771b700010a1777,15:26:59,03/04/2024
1556.0,,,ospan,symmetry,k5lKFuKTyWVIP1hjbJ0Q1sd1ueZ2,symmetry-judgement-task,195,1323433,0.0-46.0-6.0-1.0-1.0-6.0,,,,,,,,,,1.0,1.0,,,,5ada0b521771b700010a1777,15:26:59,03/04/2024
,"<div style=""font-size: 10rem; color: #0000FF"">N</div>",,ospan,letter,k5lKFuKTyWVIP1hjbJ0Q1sd1ueZ2,html-keyboard-response,196,1324438,0.0-46.0-6.0-1.0-1.0-7.0,,,,,,,,,,,,,,,5ada0b521771b700010a1777,15:26:59,03/04/2024
1314.0,,,ospan,symmetry,k5lKFuKTyWVIP1hjbJ0Q1sd1ueZ2,symmetry-judgement-task,197,1327586,0.0-46.0-6.0-1.0-1.0-8.0,,,,,,,,,,1.0,1.0,,,,5ada0b521771b700010a1777,15:26:59,03/04/2024
,"<div style=""font-size: 10rem; color: #0000FF"">H</div>",,ospan,letter,k5lKFuKTyWVIP1hjbJ0Q1sd1ueZ2,html-keyboard-response,198,1328591,0.0-46.0-6.0-1.0-1.0-9.0,,,,,,,,,,,,,,,5ada0b521771b700010a1777,15:26:59,03/04/2024
1104.0,,,ospan,symmetry,k5lKFuKTyWVIP1hjbJ0Q1sd1ueZ2,symmetry-judgement-task,199,1331545,0.0-46.0-6.0-1.0-1.0-10.0,,,,,,,,,,1.0,1.0,,,,5ada0b521771b700010a1777,15:26:59,03/04/2024
,"<div style=""font-size: 10rem; color: #0000FF"">Q</div>",,ospan,letter,k5lKFuKTyWVIP1hjbJ0Q1sd1ueZ2,html-keyboard-response,200,1332562,0.0-46.0-6.0-1.0-1.0-11.0,,,,,,,,,,,,,,,5ada0b521771b700010a1777,15:26:59,03/04/2024
1077.0,,,ospan,symmetry,k5lKFuKTyWVIP1hjbJ0Q1sd1ueZ2,symmetry-judgement-task,201,1335486,0.0-46.0-6.0-1.0-1.0-12.0,,,,,,,,,,1.0,1.0,,,,5ada0b521771b700010a1777,15:26:59,03/04/2024
,"<div style=""font-size: 10rem; color: #0000FF"">G</div>",,ospan,letter,k5lKFuKTyWVIP1hjbJ0Q1sd1ueZ2,html-keyboard-response,202,1336498,0.0-46.0-6.0-1.0-1.0-13.0,,,,,,,,,,,,,,,5ada0b521771b700010a1777,15:26:59,03/04/2024
1057.0,,,ospan,symmetry,k5lKFuKTyWVIP1hjbJ0Q1sd1ueZ2,symmetry-judgement-task,203,1339340,0.0-46.0-6.0-1.0-1.0-14.0,,,,,,,,,,1.0,1.0,,,,5ada0b521771b700010a1777,15:26:59,03/04/2024
,"<div style=""font-size: 10rem; color: #0000FF"">Y</div>",,ospan,letter,k5lKFuKTyWVIP1hjbJ0Q1sd1ueZ2,html-keyboard-response,204,1340352,0.0-46.0-6.0-1.0-1.0-15.0,,,,,,,,,,,,,,,5ada0b521771b700010a1777,15:26:59,03/04/2024
10265.199999988079,"<div class = numbox><p style=""font-size: 2.4rem"">Please recall the letters you saw to the best of your ability. If you do not remember a particular letter, use the SKIP button.<br><b>(When you are ready to lock in your answer, press ENTER)</b></p><button id = button_1 class = ""square num-button"" onclick = ""recordClick(this)""><div class = content><div class = numbers>C</div></div></button><button id = button_2 class = ""square num-button"" onclick = ""recordClick(this)""><div class = content><div class = numbers>G</div></div></button><button id = button_3 class = ""square num-button"" onclick = ""recordClick(this)""><div class = content><div class = numbers>H</div></div></button><button id = button_4 class = ""square num-button"" onclick = ""recordClick(this)""><div class = content><div class = numbers>J</div></div></button><button id = button_5 class = ""square num-button"" onclick = ""recordClick(this)""><div class = content><div class = numbers>K</div></div></button><button id = button_6 class = ""square num-button"" onclick = ""recordClick(this)""><div class = content><div class = numbers>L</div></div></button><button id = button_7 class = ""square num-button"" onclick = ""recordClick(this)""><div class = content><div class = numbers>N</div></div></button><button id = button_8 class = ""square num-button"" onclick = ""recordClick(this)""><div class = content><div class = numbers>P</div></div></button><button id = button_9 class = ""square num-button"" onclick = ""recordClick(this)""><div class = content><div class = numbers>Q</div></div></button><button id = button_10 class = ""square num-button"" onclick = ""recordClick(this)""><div class = content><div class = numbers>R</div></div></button><button id = button_11 class = ""square num-button"" onclick = ""recordClick(this)""><div class = content><div class = numbers>S</div></div></button><button id = button_12 class = ""square num-button"" onclick = ""recordClick(this)""><div class = content><div class = numbers>Y</div></div></button><button class = clear_button id = ""ClearButton"" onclick = ""clearResponse()"">BACKSPACE</button><button class = blank_button id = ""BlankButton"" onclick = ""blankResponse()"">SKIP</button><p style=""font-size: 2.4rem""><u><b>Current Answer:</b></u></p><br><br><div id=echoed_txt style=""font-size: 5rem; color:blue;""><b></b></div></div>",enter,ospan,retrieval,k5lKFuKTyWVIP1hjbJ0Q1sd1ueZ2,html-keyboard-response,205,1351369,0.0-46.0-6.0-1.0-2.0,41,27,15,8.0,"[""J"",""L"",""N"",""K"",""Q"",""Y""]","[""J"",""L"",""K"",""N"",""H"",""Q"",""G"",""Y""]",0.0,2.0,,,,,,,5ada0b521771b700010a1777,15:26:59,03/04/2024
1239.6000000238419,[''],0,ospan,feedback,k5lKFuKTyWVIP1hjbJ0Q1sd1ueZ2,html-button-response,206,1353111,0.0-46.0-6.0-1.0-3.0,,,,,,,,,,,,100.0,0.0,,5ada0b521771b700010a1777,15:26:59,03/04/2024
30287.399999976158,,{'Q0': 'N/a '},ospan,survey_ospan,k5lKFuKTyWVIP1hjbJ0Q1sd1ueZ2,lmdlab-survey-text,207,1384151,0.0-46.0-7.0,,,,,,,,,,,,,,k5lKFuKTyWVIP1hjbJ0Q1sd1ueZ2,5ada0b521771b700010a1777,15:26:59,03/04/2024
1322.5,<p><p style='font-size: 3rem'>Great work!<br><br>This completes the symmetry and memory task.</p><br><br><br>,0,ospan,finish,k5lKFuKTyWVIP1hjbJ0Q1sd1ueZ2,html-button-response,208,1385475,0.0-46.0-8.0,41,27,15,,,,,,,,,100.0,,,5ada0b521771b700010a1777,15:26:59,03/04/2024
