rt,stimulus,response,exp_name,exp_stage,subjectID,trial_type,trial_index,time_elapsed,internal_node_id,ospan_shown,ospan_total,ospan_abs,length,resp_actual,resp_correct,full_correct,num_correct,feedback,accuracy,correct,math_acc,math_warning,databaseID,prolificID,start_time,date
5198.800000011921,<div class = 'left_align' style='font-size: 3.25rem; line-height: 1.3;'><p class = 'center_align'><b>Welcome to the Symmetry and Memory Task</b><br><br><br><br></p>Press 'continue' to show the instructions.<br><br><br><br></div>,0,ospan,instruct,vvEJiT3br8SVAdZ0pHzvSrZ5Fqk2,html-button-response,54,526587,0.0-46.0-0.0-0.0-0.0,,,,,,,,,,,,,,,601efb79aa55223eeec6b2a6,08:45:45,03/04/2024
10182.400000035763,"<div class = 'left_align' style='font-size: 3.25rem; line-height: 1.3;'><p class = 'center_align'><b>Symmetry and Memory Task</b><br><br></p>In this task, you will try to memorize letters you see on the screen<br>while you also view black and white grid pictures.<br><br>In the next few minutes, you will have some practice to get you familiar<br>with how the task works.<br><br>It may be difficult sometimes, but please do not worry about making mistakes!<br><br>We will begin by practicing the letter part of the task.<br><br><br><br></div>",0,ospan,instruct,vvEJiT3br8SVAdZ0pHzvSrZ5Fqk2,html-button-response,55,537026,0.0-46.0-0.0-0.0-1.0,,,,,,,,,,,,,,,601efb79aa55223eeec6b2a6,08:45:45,03/04/2024
3580.600000023842,"<div class = 'left_align' style='font-size: 3.25rem; line-height: 1.3;'>For this practice part, letters will appear on the screen one at a time.<br><br>Try to remember each letter in the order presented.<br><br>After some letters have been shown, you will see a response screen. Your<br>goal is to report the letters you saw <b>in order</b>. If you do not remember<br>a particular letter, you will have the option to leave it blank.<br><br><br><br></div>",0,ospan,instruct,vvEJiT3br8SVAdZ0pHzvSrZ5Fqk2,html-button-response,56,540868,0.0-46.0-0.0-0.0-2.0,,,,,,,,,,,,,,,601efb79aa55223eeec6b2a6,08:45:45,03/04/2024
3403.5,"<div class = 'left_align' style='font-size: 3.25rem; line-height: 1.3;'>Remember, it is very important to get the letters in the same<br>order as you see them.<br><br>When you are ready, you may begin the letter practice.</div><br><br><br><br>",0,ospan,instruct,vvEJiT3br8SVAdZ0pHzvSrZ5Fqk2,html-button-response,57,544523,0.0-46.0-0.0-0.0-3.0,,,,,,,,,,,,,,,601efb79aa55223eeec6b2a6,08:45:45,03/04/2024
,"<p style=""font-size:75px;"">...</p>",,ospan,iti,vvEJiT3br8SVAdZ0pHzvSrZ5Fqk2,html-keyboard-response,58,545789,0.0-46.0-0.0-1.0-0.0,,,,,,,,,,,,,,,601efb79aa55223eeec6b2a6,08:45:45,03/04/2024
,"<div style=""font-size: 10rem; color: #0000FF"">J</div>",,ospan,letter,vvEJiT3br8SVAdZ0pHzvSrZ5Fqk2,html-keyboard-response,59,546796,0.0-46.0-0.0-1.0-1.0,,,,,,,,,,,,,,,601efb79aa55223eeec6b2a6,08:45:45,03/04/2024
,"<div style=""font-size: 10rem; color: #0000FF"">K</div>",,ospan,letter,vvEJiT3br8SVAdZ0pHzvSrZ5Fqk2,html-keyboard-response,60,548561,0.0-46.0-0.0-1.0-2.0,,,,,,,,,,,,,,,601efb79aa55223eeec6b2a6,08:45:45,03/04/2024
20748.0,"<div class = numbox><p style=""font-size: 2.4rem"">Please recall the letters you saw to the best of your ability. If you do not remember a particular letter, use the SKIP button.<br><b>(When you are ready to lock in your answer, press ENTER)</b></p><button id = button_1 class = ""square num-button"" onclick = ""recordClick(this)""><div class = content><div class = numbers>C</div></div></button><button id = button_2 class = ""square num-button"" onclick = ""recordClick(this)""><div class = content><div class = numbers>G</div></div></button><button id = button_3 class = ""square num-button"" onclick = ""recordClick(this)""><div class = content><div class = numbers>H</div></div></button><button id = button_4 class = ""square num-button"" onclick = ""recordClick(this)""><div class = content><div class = numbers>J</div></div></button><button id = button_5 class = ""square num-button"" onclick = ""recordClick(this)""><div class = content><div class = numbers>K</div></div></button><button id = button_6 class = ""square num-button"" onclick = ""recordClick(this)""><div class = content><div class = numbers>L</div></div></button><button id = button_7 class = ""square num-button"" onclick = ""recordClick(this)""><div class = content><div class = numbers>N</div></div></button><button id = button_8 class = ""square num-button"" onclick = ""recordClick(this)""><div class = content><div class = numbers>P</div></div></button><button id = button_9 class = ""square num-button"" onclick = ""recordClick(this)""><div class = content><div class = numbers>Q</div></div></button><button id = button_10 class = ""square num-button"" onclick = ""recordClick(this)""><div class = content><div class = numbers>R</div></div></button><button id = button_11 class = ""square num-button"" onclick = ""recordClick(this)""><div class = content><div class = numbers>S</div></div></button><button id = button_12 class = ""square num-button"" onclick = ""recordClick(this)""><div class = content><div class = numbers>Y</div></div></button><button class = clear_button id = ""ClearButton"" onclick = ""clearResponse()"">BACKSPACE</button><button class = blank_button id = ""BlankButton"" onclick = ""blankResponse()"">SKIP</button><p style=""font-size: 2.4rem""><u><b>Current Answer:</b></u></p><br><br><div id=echoed_txt style=""font-size: 5rem; color:blue;""><b></b></div></div>",enter,ospan,retrieval,vvEJiT3br8SVAdZ0pHzvSrZ5Fqk2,html-keyboard-response,61,570074,0.0-46.0-0.0-1.0-3.0,NA,NA,NA,2.0,"[""J"",""K""]","[""J"",""K""]",1.0,2.0,"['<font color=""green"">J</font>', '<font color=""green"">K</font>']",,,,,,601efb79aa55223eeec6b2a6,08:45:45,03/04/2024
2879.399999976158,"['<p style=""font-size:44px"">Letters:<br><br><br><font color=""green"">J</font> <font color=""green"">K</font></p><br><br>']",0,ospan,practice_feedback,vvEJiT3br8SVAdZ0pHzvSrZ5Fqk2,html-button-response,62,573464,0.0-46.0-0.0-1.0-4.0,,,,,,,,,,,,,,,601efb79aa55223eeec6b2a6,08:45:45,03/04/2024
,"<p style=""font-size:75px;"">...</p>",,ospan,iti,vvEJiT3br8SVAdZ0pHzvSrZ5Fqk2,html-keyboard-response,63,574466,0.0-46.0-0.0-2.0-0.0,,,,,,,,,,,,,,,601efb79aa55223eeec6b2a6,08:45:45,03/04/2024
,"<div style=""font-size: 10rem; color: #0000FF"">C</div>",,ospan,letter,vvEJiT3br8SVAdZ0pHzvSrZ5Fqk2,html-keyboard-response,64,575478,0.0-46.0-0.0-2.0-1.0,,,,,,,,,,,,,,,601efb79aa55223eeec6b2a6,08:45:45,03/04/2024
,"<div style=""font-size: 10rem; color: #0000FF"">H</div>",,ospan,letter,vvEJiT3br8SVAdZ0pHzvSrZ5Fqk2,html-keyboard-response,65,577247,0.0-46.0-0.0-2.0-2.0,,,,,,,,,,,,,,,601efb79aa55223eeec6b2a6,08:45:45,03/04/2024
,"<div style=""font-size: 10rem; color: #0000FF"">G</div>",,ospan,letter,vvEJiT3br8SVAdZ0pHzvSrZ5Fqk2,html-keyboard-response,66,579021,0.0-46.0-0.0-2.0-3.0,,,,,,,,,,,,,,,601efb79aa55223eeec6b2a6,08:45:45,03/04/2024
4738.0,"<div class = numbox><p style=""font-size: 2.4rem"">Please recall the letters you saw to the best of your ability. If you do not remember a particular letter, use the SKIP button.<br><b>(When you are ready to lock in your answer, press ENTER)</b></p><button id = button_1 class = ""square num-button"" onclick = ""recordClick(this)""><div class = content><div class = numbers>C</div></div></button><button id = button_2 class = ""square num-button"" onclick = ""recordClick(this)""><div class = content><div class = numbers>G</div></div></button><button id = button_3 class = ""square num-button"" onclick = ""recordClick(this)""><div class = content><div class = numbers>H</div></div></button><button id = button_4 class = ""square num-button"" onclick = ""recordClick(this)""><div class = content><div class = numbers>J</div></div></button><button id = button_5 class = ""square num-button"" onclick = ""recordClick(this)""><div class = content><div class = numbers>K</div></div></button><button id = button_6 class = ""square num-button"" onclick = ""recordClick(this)""><div class = content><div class = numbers>L</div></div></button><button id = button_7 class = ""square num-button"" onclick = ""recordClick(this)""><div class = content><div class = numbers>N</div></div></button><button id = button_8 class = ""square num-button"" onclick = ""recordClick(this)""><div class = content><div class = numbers>P</div></div></button><button id = button_9 class = ""square num-button"" onclick = ""recordClick(this)""><div class = content><div class = numbers>Q</div></div></button><button id = button_10 class = ""square num-button"" onclick = ""recordClick(this)""><div class = content><div class = numbers>R</div></div></button><button id = button_11 class = ""square num-button"" onclick = ""recordClick(this)""><div class = content><div class = numbers>S</div></div></button><button id = button_12 class = ""square num-button"" onclick = ""recordClick(this)""><div class = content><div class = numbers>Y</div></div></button><button class = clear_button id = ""ClearButton"" onclick = ""clearResponse()"">BACKSPACE</button><button class = blank_button id = ""BlankButton"" onclick = ""blankResponse()"">SKIP</button><p style=""font-size: 2.4rem""><u><b>Current Answer:</b></u></p><br><br><div id=echoed_txt style=""font-size: 5rem; color:blue;""><b></b></div></div>",enter,ospan,retrieval,vvEJiT3br8SVAdZ0pHzvSrZ5Fqk2,html-keyboard-response,67,584522,0.0-46.0-0.0-2.0-4.0,NA,NA,NA,3.0,"[""C"",""H"",""G""]","[""C"",""H"",""G""]",1.0,3.0,"['<font color=""green"">C</font>', '<font color=""green"">H</font>', '<font color=""green"">G</font>']",,,,,,601efb79aa55223eeec6b2a6,08:45:45,03/04/2024
4064.899999976158,"['<p style=""font-size:44px"">Letters:<br><br><br><font color=""green"">C</font> <font color=""green"">H</font> <font color=""green"">G</font></p><br><br>']",0,ospan,practice_feedback,vvEJiT3br8SVAdZ0pHzvSrZ5Fqk2,html-button-response,68,589101,0.0-46.0-0.0-2.0-5.0,,,,,,,,,,,,,,,601efb79aa55223eeec6b2a6,08:45:45,03/04/2024
6385.300000011921,"<div class = 'left_align' style='font-size: 3.25rem; line-height: 1.3;'>Now you will practice doing the <b>symmetry judgment part</b> of the experiment.<br><br>A black and white grid picture will appear on the screen and you have to judge if it is <br>symmetrical or asymetrical.<br><br>A picture is 'mirror' symmetrical if its left half is identical to the right half when flipped.<br>Here are examples of a symmetrical and an asymetrical picture:<br><br><center><img src='Stimuli/img/symm_instructions_extra.png' style='height:420px; width:900'></img></center><br>To judge symmetry, imagine you were to fold each picture down the middle, like a book –<br>would the left half match the right half when folded onto each other?<br><br></div><br>",0,ospan,instruct,vvEJiT3br8SVAdZ0pHzvSrZ5Fqk2,html-button-response,69,595487,0.0-46.0-1.0-0.0-0.0,,,,,,,,,,,,,,,601efb79aa55223eeec6b2a6,08:45:45,03/04/2024
4612.300000011921,"<div class = 'left_align' style='font-size: 3.25rem; line-height: 1.3;'>When you have viewed the picture and determined whether it is symmetrical or not,<br>you can <b>click the Yes or No button</b> below to answer.<br><br>If you take longer than 15 seconds, it will continue automatically<br>and record the answer as an error.</div><br>",0,ospan,instruct,vvEJiT3br8SVAdZ0pHzvSrZ5Fqk2,html-button-response,70,600357,0.0-46.0-1.0-0.0-1.0,,,,,,,,,,,,,,,601efb79aa55223eeec6b2a6,08:45:45,03/04/2024
1403.1000000238419,"<div class = 'left_align' style='font-size: 3.25rem; line-height: 1.3;'>It is <b>very</b> important that you make the symmetry judgment correctly.<br><br>It is also important that you try and judge the picture as quickly as you can.<br><br>When you are ready, click on the button below to try some practice problems.</div><br><br><br><br>",0,ospan,instruct,vvEJiT3br8SVAdZ0pHzvSrZ5Fqk2,html-button-response,71,602015,0.0-46.0-1.0-0.0-2.0,,,,,,,,,,,,,,,601efb79aa55223eeec6b2a6,08:45:45,03/04/2024
6442.0,,,ospan,symmetry,vvEJiT3br8SVAdZ0pHzvSrZ5Fqk2,symmetry-judgement-task,72,609236,0.0-46.0-1.0-1.0-0.0,,,,,,,,,,1.0,1.0,,,,601efb79aa55223eeec6b2a6,08:45:45,03/04/2024
,"<p style=""color:green; font-size: 35px"">Correct</p>",,ospan,feedback,vvEJiT3br8SVAdZ0pHzvSrZ5Fqk2,html-keyboard-response,73,609996,0.0-46.0-1.0-1.0-1.0,,,,,,,,,,,,,,,601efb79aa55223eeec6b2a6,08:45:45,03/04/2024
4684.0,,,ospan,symmetry,vvEJiT3br8SVAdZ0pHzvSrZ5Fqk2,symmetry-judgement-task,74,617296,0.0-46.0-1.0-1.0-2.0,,,,,,,,,,1.0,1.0,,,,601efb79aa55223eeec6b2a6,08:45:45,03/04/2024
,"<p style=""color:green; font-size: 35px"">Correct</p>",,ospan,feedback,vvEJiT3br8SVAdZ0pHzvSrZ5Fqk2,html-keyboard-response,75,618053,0.0-46.0-1.0-1.0-3.0,,,,,,,,,,,,,,,601efb79aa55223eeec6b2a6,08:45:45,03/04/2024
4735.0,,,ospan,symmetry,vvEJiT3br8SVAdZ0pHzvSrZ5Fqk2,symmetry-judgement-task,76,625401,0.0-46.0-1.0-1.0-4.0,,,,,,,,,,1.0,1.0,,,,601efb79aa55223eeec6b2a6,08:45:45,03/04/2024
,"<p style=""color:green; font-size: 35px"">Correct</p>",,ospan,feedback,vvEJiT3br8SVAdZ0pHzvSrZ5Fqk2,html-keyboard-response,77,626163,0.0-46.0-1.0-1.0-5.0,,,,,,,,,,,,,,,601efb79aa55223eeec6b2a6,08:45:45,03/04/2024
3178.800000011921,"<p style=""font-size: 3rem;"">You responded correctly on 3 of 3 symmetry judgments. Good job!</p><br><br>",0,ospan,practice,vvEJiT3br8SVAdZ0pHzvSrZ5Fqk2,html-button-response,78,631352,0.0-46.0-1.0-2.0,,,,,,,,,,,,,,,601efb79aa55223eeec6b2a6,08:45:45,03/04/2024
3409.199999988079,"<div class = 'left_align' style='font-size: 3.25rem; line-height: 1.3;'>Now you will practice doing both parts of the experiment at the same time.<br><br>In the next practice set, you will be given one grid picture to judge.<br>Then letter will appear on the screen. Try to remember the letter.<br><br>It is <b>very important</b> to make the symmetry judgment as quickly and accurately as possible.<br><br>Just as before, once you have make the symmetry judgment, you can click Yes or No.<br><b>Note that you will no longer see Correct or Incorrect feedback.</div><br><br><br><br>",0,ospan,instruct,vvEJiT3br8SVAdZ0pHzvSrZ5Fqk2,html-button-response,79,635026,0.0-46.0-2.0-0.0-0.0,,,,,,,,,,,,,,,601efb79aa55223eeec6b2a6,08:45:45,03/04/2024
1853.3999999761581,"<div class = 'left_align' style='font-size: 3.25rem; line-height: 1.3;'>After the letter goes away, another grid picture will appear, and then<br>another letter.<br><br>At the end of each set of letters and grids, you will recall the letters to the best<br>of your ability. Remember, try your best to get the letters in the correct order.<br><br>It is important to <b>quickly</b> and <b>accurately</b> make the symmetry judgments.</div><br><br><br><br>",0,ospan,instruct,vvEJiT3br8SVAdZ0pHzvSrZ5Fqk2,html-button-response,80,637144,0.0-46.0-2.0-0.0-1.0,,,,,,,,,,,,,,,601efb79aa55223eeec6b2a6,08:45:45,03/04/2024
2135.300000011921,"<div class = 'left_align' style='font-size: 3.25rem; line-height: 1.3;'>On the feedback screen, if you are not doing well at the symmetry judgments,<br>you will also see a warning in the middle. This indicates your percent <br>correct for the grid pictures for the entire experiment.<br><br>It is <b>very</b> important for you to keep accuracy at least at 85%: <u>We can only use<br>data where the participant was at least 85% accurate on the judgments.</u> Therefore,<br> please try your best to perform well on the symmetry judgments, <b>at the same time</b><br>doing your best to recall as many letters as possible.<br><br>Click the button to try some practice problems.</div><br><br><br><br>",0,ospan,instruct,vvEJiT3br8SVAdZ0pHzvSrZ5Fqk2,html-button-response,81,639533,0.0-46.0-2.0-0.0-2.0,,,,,,,,,,,,,,,601efb79aa55223eeec6b2a6,08:45:45,03/04/2024
,"<p style=""font-size:75px;"">...</p>",,ospan,iti,vvEJiT3br8SVAdZ0pHzvSrZ5Fqk2,html-keyboard-response,82,640798,0.0-46.0-2.0-1.0-0.0,,,,,,,,,,,,,,,601efb79aa55223eeec6b2a6,08:45:45,03/04/2024
3162.0,,,ospan,symmetry,vvEJiT3br8SVAdZ0pHzvSrZ5Fqk2,symmetry-judgement-task,83,644993,0.0-46.0-2.0-1.0-1.0-0.0,,,,,,,,,,1.0,1.0,,,,601efb79aa55223eeec6b2a6,08:45:45,03/04/2024
,"<div style=""font-size: 10rem; color: #0000FF"">H</div>",,ospan,letter,vvEJiT3br8SVAdZ0pHzvSrZ5Fqk2,html-keyboard-response,84,646001,0.0-46.0-2.0-1.0-1.0-1.0,,,,,,,,,,,,,,,601efb79aa55223eeec6b2a6,08:45:45,03/04/2024
2090.0,,,ospan,symmetry,vvEJiT3br8SVAdZ0pHzvSrZ5Fqk2,symmetry-judgement-task,85,649979,0.0-46.0-2.0-1.0-1.0-2.0,,,,,,,,,,1.0,1.0,,,,601efb79aa55223eeec6b2a6,08:45:45,03/04/2024
,"<div style=""font-size: 10rem; color: #0000FF"">K</div>",,ospan,letter,vvEJiT3br8SVAdZ0pHzvSrZ5Fqk2,html-keyboard-response,86,650984,0.0-46.0-2.0-1.0-1.0-3.0,,,,,,,,,,,,,,,601efb79aa55223eeec6b2a6,08:45:45,03/04/2024
2497.0,,,ospan,symmetry,vvEJiT3br8SVAdZ0pHzvSrZ5Fqk2,symmetry-judgement-task,87,655372,0.0-46.0-2.0-1.0-1.0-4.0,,,,,,,,,,1.0,1.0,,,,601efb79aa55223eeec6b2a6,08:45:45,03/04/2024
,"<div style=""font-size: 10rem; color: #0000FF"">P</div>",,ospan,letter,vvEJiT3br8SVAdZ0pHzvSrZ5Fqk2,html-keyboard-response,88,656382,0.0-46.0-2.0-1.0-1.0-5.0,,,,,,,,,,,,,,,601efb79aa55223eeec6b2a6,08:45:45,03/04/2024
7538.5,"<div class = numbox><p style=""font-size: 2.4rem"">Please recall the letters you saw to the best of your ability. If you do not remember a particular letter, use the SKIP button.<br><b>(When you are ready to lock in your answer, press ENTER)</b></p><button id = button_1 class = ""square num-button"" onclick = ""recordClick(this)""><div class = content><div class = numbers>C</div></div></button><button id = button_2 class = ""square num-button"" onclick = ""recordClick(this)""><div class = content><div class = numbers>G</div></div></button><button id = button_3 class = ""square num-button"" onclick = ""recordClick(this)""><div class = content><div class = numbers>H</div></div></button><button id = button_4 class = ""square num-button"" onclick = ""recordClick(this)""><div class = content><div class = numbers>J</div></div></button><button id = button_5 class = ""square num-button"" onclick = ""recordClick(this)""><div class = content><div class = numbers>K</div></div></button><button id = button_6 class = ""square num-button"" onclick = ""recordClick(this)""><div class = content><div class = numbers>L</div></div></button><button id = button_7 class = ""square num-button"" onclick = ""recordClick(this)""><div class = content><div class = numbers>N</div></div></button><button id = button_8 class = ""square num-button"" onclick = ""recordClick(this)""><div class = content><div class = numbers>P</div></div></button><button id = button_9 class = ""square num-button"" onclick = ""recordClick(this)""><div class = content><div class = numbers>Q</div></div></button><button id = button_10 class = ""square num-button"" onclick = ""recordClick(this)""><div class = content><div class = numbers>R</div></div></button><button id = button_11 class = ""square num-button"" onclick = ""recordClick(this)""><div class = content><div class = numbers>S</div></div></button><button id = button_12 class = ""square num-button"" onclick = ""recordClick(this)""><div class = content><div class = numbers>Y</div></div></button><button class = clear_button id = ""ClearButton"" onclick = ""clearResponse()"">BACKSPACE</button><button class = blank_button id = ""BlankButton"" onclick = ""blankResponse()"">SKIP</button><p style=""font-size: 2.4rem""><u><b>Current Answer:</b></u></p><br><br><div id=echoed_txt style=""font-size: 5rem; color:blue;""><b></b></div></div>",enter,ospan,retrieval,vvEJiT3br8SVAdZ0pHzvSrZ5Fqk2,html-keyboard-response,89,664675,0.0-46.0-2.0-1.0-2.0-0.0,NA,NA,NA,3.0,"[""H"",""K"",""P""]","[""H"",""K"",""P""]",1.0,3.0,"['<font color=""green"">H</font>', '<font color=""green"">K</font>', '<font color=""green"">P</font>']",,,,,,601efb79aa55223eeec6b2a6,08:45:45,03/04/2024
3262.199999988079,"['<p style=""font-size:44px"">Letters:<br><br><br><font color=""green"">H</font> <font color=""green"">K</font> <font color=""green"">P</font></p><br><br><p style=""font-size:30px"">Symmetry:<br><br><font color=""green"">100%</font></p><br><br>']",0,ospan,practice_feedback,vvEJiT3br8SVAdZ0pHzvSrZ5Fqk2,html-button-response,90,668453,0.0-46.0-2.0-1.0-2.0-1.0,,,,,,,,,,,,,,,601efb79aa55223eeec6b2a6,08:45:45,03/04/2024
,"<p style=""font-size:75px;"">...</p>",,ospan,iti,vvEJiT3br8SVAdZ0pHzvSrZ5Fqk2,html-keyboard-response,91,669458,0.0-46.0-2.0-2.0-0.0,,,,,,,,,,,,,,,601efb79aa55223eeec6b2a6,08:45:45,03/04/2024
3661.0,,,ospan,symmetry,vvEJiT3br8SVAdZ0pHzvSrZ5Fqk2,symmetry-judgement-task,92,674238,0.0-46.0-2.0-2.0-1.0-0.0,,,,,,,,,,1.0,1.0,,,,601efb79aa55223eeec6b2a6,08:45:45,03/04/2024
,"<div style=""font-size: 10rem; color: #0000FF"">K</div>",,ospan,letter,vvEJiT3br8SVAdZ0pHzvSrZ5Fqk2,html-keyboard-response,93,675252,0.0-46.0-2.0-2.0-1.0-1.0,,,,,,,,,,,,,,,601efb79aa55223eeec6b2a6,08:45:45,03/04/2024
2380.0,,,ospan,symmetry,vvEJiT3br8SVAdZ0pHzvSrZ5Fqk2,symmetry-judgement-task,94,679511,0.0-46.0-2.0-2.0-1.0-2.0,,,,,,,,,,1.0,1.0,,,,601efb79aa55223eeec6b2a6,08:45:45,03/04/2024
,"<div style=""font-size: 10rem; color: #0000FF"">P</div>",,ospan,letter,vvEJiT3br8SVAdZ0pHzvSrZ5Fqk2,html-keyboard-response,95,680522,0.0-46.0-2.0-2.0-1.0-3.0,,,,,,,,,,,,,,,601efb79aa55223eeec6b2a6,08:45:45,03/04/2024
1905.0,,,ospan,symmetry,vvEJiT3br8SVAdZ0pHzvSrZ5Fqk2,symmetry-judgement-task,96,684318,0.0-46.0-2.0-2.0-1.0-4.0,,,,,,,,,,1.0,1.0,,,,601efb79aa55223eeec6b2a6,08:45:45,03/04/2024
,"<div style=""font-size: 10rem; color: #0000FF"">J</div>",,ospan,letter,vvEJiT3br8SVAdZ0pHzvSrZ5Fqk2,html-keyboard-response,97,685328,0.0-46.0-2.0-2.0-1.0-5.0,,,,,,,,,,,,,,,601efb79aa55223eeec6b2a6,08:45:45,03/04/2024
6817.399999976158,"<div class = numbox><p style=""font-size: 2.4rem"">Please recall the letters you saw to the best of your ability. If you do not remember a particular letter, use the SKIP button.<br><b>(When you are ready to lock in your answer, press ENTER)</b></p><button id = button_1 class = ""square num-button"" onclick = ""recordClick(this)""><div class = content><div class = numbers>C</div></div></button><button id = button_2 class = ""square num-button"" onclick = ""recordClick(this)""><div class = content><div class = numbers>G</div></div></button><button id = button_3 class = ""square num-button"" onclick = ""recordClick(this)""><div class = content><div class = numbers>H</div></div></button><button id = button_4 class = ""square num-button"" onclick = ""recordClick(this)""><div class = content><div class = numbers>J</div></div></button><button id = button_5 class = ""square num-button"" onclick = ""recordClick(this)""><div class = content><div class = numbers>K</div></div></button><button id = button_6 class = ""square num-button"" onclick = ""recordClick(this)""><div class = content><div class = numbers>L</div></div></button><button id = button_7 class = ""square num-button"" onclick = ""recordClick(this)""><div class = content><div class = numbers>N</div></div></button><button id = button_8 class = ""square num-button"" onclick = ""recordClick(this)""><div class = content><div class = numbers>P</div></div></button><button id = button_9 class = ""square num-button"" onclick = ""recordClick(this)""><div class = content><div class = numbers>Q</div></div></button><button id = button_10 class = ""square num-button"" onclick = ""recordClick(this)""><div class = content><div class = numbers>R</div></div></button><button id = button_11 class = ""square num-button"" onclick = ""recordClick(this)""><div class = content><div class = numbers>S</div></div></button><button id = button_12 class = ""square num-button"" onclick = ""recordClick(this)""><div class = content><div class = numbers>Y</div></div></button><button class = clear_button id = ""ClearButton"" onclick = ""clearResponse()"">BACKSPACE</button><button class = blank_button id = ""BlankButton"" onclick = ""blankResponse()"">SKIP</button><p style=""font-size: 2.4rem""><u><b>Current Answer:</b></u></p><br><br><div id=echoed_txt style=""font-size: 5rem; color:blue;""><b></b></div></div>",enter,ospan,retrieval,vvEJiT3br8SVAdZ0pHzvSrZ5Fqk2,html-keyboard-response,98,692908,0.0-46.0-2.0-2.0-2.0-0.0,NA,NA,NA,3.0,"[""K"",""P"",""J""]","[""K"",""P"",""J""]",1.0,3.0,"['<font color=""green"">K</font>', '<font color=""green"">P</font>', '<font color=""green"">J</font>']",,,,,,601efb79aa55223eeec6b2a6,08:45:45,03/04/2024
2251.800000011921,"['<p style=""font-size:44px"">Letters:<br><br><br><font color=""green"">K</font> <font color=""green"">P</font> <font color=""green"">J</font></p><br><br><p style=""font-size:30px"">Symmetry:<br><br><font color=""green"">100%</font></p><br><br>']",0,ospan,practice_feedback,vvEJiT3br8SVAdZ0pHzvSrZ5Fqk2,html-button-response,99,695669,0.0-46.0-2.0-2.0-2.0-1.0,,,,,,,,,,,,,,,601efb79aa55223eeec6b2a6,08:45:45,03/04/2024
3455.300000011921,"<div class = 'left_align' style='font-size: 3rem; line-height: 1.3;'><b>Great work! That is the end of practice.</b><br><br>The real trials will look just like the practice trials you just completed.<br><br><u>Here, you will not see feedback</u>. First, you will see an grid picture to judge,<br>then a letter to remember. When the recall screen appears, report the letters in the<br>order presented. If you forget a letter, remember to use the <b>blank</b> button to move to the<br>next letter. Some of the sets will have more symmetry grids and letters than others.<br><br>It is important that you do your best on both the symmetry judgments and the letter recall<br>parts of the experiment. For for the symmetry judgments, try to work as <b>quickly</b> and <br>as <b>accurately</b> as possible. Remember to keep your symmetry accuracy at 85% or above.<br><br><b>For the letters, do NOT use any external aid (e.g., writing on paper, electronic device).</b><br><br>It is <u>very important</u> to our experiment to have a <b>true</b> view of your real performance.<br><br>Do not worry if you miss some when it gets hard! This task is meant to be very challenging!<br><br>Click the button to begin.</div><br><br><br><br>",0,ospan,starting_real_here,vvEJiT3br8SVAdZ0pHzvSrZ5Fqk2,html-button-response,100,699125,0.0-46.0-2.0-3.0,,,,,,,,,,,,,,,601efb79aa55223eeec6b2a6,08:45:45,03/04/2024
,"<p style=""font-size:75px;"">...</p>",,ospan,iti,vvEJiT3br8SVAdZ0pHzvSrZ5Fqk2,html-keyboard-response,101,700385,0.0-46.0-3.0-0.0-0.0,,,,,,,,,,,,,,,601efb79aa55223eeec6b2a6,08:45:45,03/04/2024
2179.0,,,ospan,symmetry,vvEJiT3br8SVAdZ0pHzvSrZ5Fqk2,symmetry-judgement-task,102,703684,0.0-46.0-3.0-0.0-1.0-0.0,,,,,,,,,,1.0,1.0,,,,601efb79aa55223eeec6b2a6,08:45:45,03/04/2024
,"<div style=""font-size: 10rem; color: #0000FF"">L</div>",,ospan,letter,vvEJiT3br8SVAdZ0pHzvSrZ5Fqk2,html-keyboard-response,103,704690,0.0-46.0-3.0-0.0-1.0-1.0,,,,,,,,,,,,,,,601efb79aa55223eeec6b2a6,08:45:45,03/04/2024
2488.0,,,ospan,symmetry,vvEJiT3br8SVAdZ0pHzvSrZ5Fqk2,symmetry-judgement-task,104,709055,0.0-46.0-3.0-0.0-1.0-2.0,,,,,,,,,,1.0,1.0,,,,601efb79aa55223eeec6b2a6,08:45:45,03/04/2024
,"<div style=""font-size: 10rem; color: #0000FF"">Y</div>",,ospan,letter,vvEJiT3br8SVAdZ0pHzvSrZ5Fqk2,html-keyboard-response,105,710062,0.0-46.0-3.0-0.0-1.0-3.0,,,,,,,,,,,,,,,601efb79aa55223eeec6b2a6,08:45:45,03/04/2024
1576.0,,,ospan,symmetry,vvEJiT3br8SVAdZ0pHzvSrZ5Fqk2,symmetry-judgement-task,106,713523,0.0-46.0-3.0-0.0-1.0-4.0,,,,,,,,,,1.0,1.0,,,,601efb79aa55223eeec6b2a6,08:45:45,03/04/2024
,"<div style=""font-size: 10rem; color: #0000FF"">G</div>",,ospan,letter,vvEJiT3br8SVAdZ0pHzvSrZ5Fqk2,html-keyboard-response,107,714528,0.0-46.0-3.0-0.0-1.0-5.0,,,,,,,,,,,,,,,601efb79aa55223eeec6b2a6,08:45:45,03/04/2024
7439.199999988079,"<div class = numbox><p style=""font-size: 2.4rem"">Please recall the letters you saw to the best of your ability. If you do not remember a particular letter, use the SKIP button.<br><b>(When you are ready to lock in your answer, press ENTER)</b></p><button id = button_1 class = ""square num-button"" onclick = ""recordClick(this)""><div class = content><div class = numbers>C</div></div></button><button id = button_2 class = ""square num-button"" onclick = ""recordClick(this)""><div class = content><div class = numbers>G</div></div></button><button id = button_3 class = ""square num-button"" onclick = ""recordClick(this)""><div class = content><div class = numbers>H</div></div></button><button id = button_4 class = ""square num-button"" onclick = ""recordClick(this)""><div class = content><div class = numbers>J</div></div></button><button id = button_5 class = ""square num-button"" onclick = ""recordClick(this)""><div class = content><div class = numbers>K</div></div></button><button id = button_6 class = ""square num-button"" onclick = ""recordClick(this)""><div class = content><div class = numbers>L</div></div></button><button id = button_7 class = ""square num-button"" onclick = ""recordClick(this)""><div class = content><div class = numbers>N</div></div></button><button id = button_8 class = ""square num-button"" onclick = ""recordClick(this)""><div class = content><div class = numbers>P</div></div></button><button id = button_9 class = ""square num-button"" onclick = ""recordClick(this)""><div class = content><div class = numbers>Q</div></div></button><button id = button_10 class = ""square num-button"" onclick = ""recordClick(this)""><div class = content><div class = numbers>R</div></div></button><button id = button_11 class = ""square num-button"" onclick = ""recordClick(this)""><div class = content><div class = numbers>S</div></div></button><button id = button_12 class = ""square num-button"" onclick = ""recordClick(this)""><div class = content><div class = numbers>Y</div></div></button><button class = clear_button id = ""ClearButton"" onclick = ""clearResponse()"">BACKSPACE</button><button class = blank_button id = ""BlankButton"" onclick = ""blankResponse()"">SKIP</button><p style=""font-size: 2.4rem""><u><b>Current Answer:</b></u></p><br><br><div id=echoed_txt style=""font-size: 5rem; color:blue;""><b></b></div></div>",enter,ospan,retrieval,vvEJiT3br8SVAdZ0pHzvSrZ5Fqk2,html-keyboard-response,108,722723,0.0-46.0-3.0-0.0-2.0,3,3,3,3.0,"[""L"",""Y"",""G""]","[""L"",""Y"",""G""]",1.0,3.0,,,,,,,601efb79aa55223eeec6b2a6,08:45:45,03/04/2024
1377.0,[''],0,ospan,feedback,vvEJiT3br8SVAdZ0pHzvSrZ5Fqk2,html-button-response,109,724610,0.0-46.0-3.0-0.0-3.0,,,,,,,,,,,,100.0,0.0,,601efb79aa55223eeec6b2a6,08:45:45,03/04/2024
,"<p style=""font-size:75px;"">...</p>",,ospan,iti,vvEJiT3br8SVAdZ0pHzvSrZ5Fqk2,html-keyboard-response,110,725614,0.0-46.0-4.0-0.0-0.0,,,,,,,,,,,,,,,601efb79aa55223eeec6b2a6,08:45:45,03/04/2024
2137.0,,,ospan,symmetry,vvEJiT3br8SVAdZ0pHzvSrZ5Fqk2,symmetry-judgement-task,111,728866,0.0-46.0-4.0-0.0-1.0-0.0,,,,,,,,,,1.0,1.0,,,,601efb79aa55223eeec6b2a6,08:45:45,03/04/2024
,"<div style=""font-size: 10rem; color: #0000FF"">Y</div>",,ospan,letter,vvEJiT3br8SVAdZ0pHzvSrZ5Fqk2,html-keyboard-response,112,729873,0.0-46.0-4.0-0.0-1.0-1.0,,,,,,,,,,,,,,,601efb79aa55223eeec6b2a6,08:45:45,03/04/2024
1918.0,,,ospan,symmetry,vvEJiT3br8SVAdZ0pHzvSrZ5Fqk2,symmetry-judgement-task,113,733672,0.0-46.0-4.0-0.0-1.0-2.0,,,,,,,,,,1.0,1.0,,,,601efb79aa55223eeec6b2a6,08:45:45,03/04/2024
,"<div style=""font-size: 10rem; color: #0000FF"">Q</div>",,ospan,letter,vvEJiT3br8SVAdZ0pHzvSrZ5Fqk2,html-keyboard-response,114,734682,0.0-46.0-4.0-0.0-1.0-3.0,,,,,,,,,,,,,,,601efb79aa55223eeec6b2a6,08:45:45,03/04/2024
3555.0,,,ospan,symmetry,vvEJiT3br8SVAdZ0pHzvSrZ5Fqk2,symmetry-judgement-task,115,740126,0.0-46.0-4.0-0.0-1.0-4.0,,,,,,,,,,1.0,1.0,,,,601efb79aa55223eeec6b2a6,08:45:45,03/04/2024
,"<div style=""font-size: 10rem; color: #0000FF"">N</div>",,ospan,letter,vvEJiT3br8SVAdZ0pHzvSrZ5Fqk2,html-keyboard-response,116,741139,0.0-46.0-4.0-0.0-1.0-5.0,,,,,,,,,,,,,,,601efb79aa55223eeec6b2a6,08:45:45,03/04/2024
2175.0,,,ospan,symmetry,vvEJiT3br8SVAdZ0pHzvSrZ5Fqk2,symmetry-judgement-task,117,745187,0.0-46.0-4.0-0.0-1.0-6.0,,,,,,,,,,1.0,1.0,,,,601efb79aa55223eeec6b2a6,08:45:45,03/04/2024
,"<div style=""font-size: 10rem; color: #0000FF"">S</div>",,ospan,letter,vvEJiT3br8SVAdZ0pHzvSrZ5Fqk2,html-keyboard-response,118,746189,0.0-46.0-4.0-0.0-1.0-7.0,,,,,,,,,,,,,,,601efb79aa55223eeec6b2a6,08:45:45,03/04/2024
11213.600000023842,"<div class = numbox><p style=""font-size: 2.4rem"">Please recall the letters you saw to the best of your ability. If you do not remember a particular letter, use the SKIP button.<br><b>(When you are ready to lock in your answer, press ENTER)</b></p><button id = button_1 class = ""square num-button"" onclick = ""recordClick(this)""><div class = content><div class = numbers>C</div></div></button><button id = button_2 class = ""square num-button"" onclick = ""recordClick(this)""><div class = content><div class = numbers>G</div></div></button><button id = button_3 class = ""square num-button"" onclick = ""recordClick(this)""><div class = content><div class = numbers>H</div></div></button><button id = button_4 class = ""square num-button"" onclick = ""recordClick(this)""><div class = content><div class = numbers>J</div></div></button><button id = button_5 class = ""square num-button"" onclick = ""recordClick(this)""><div class = content><div class = numbers>K</div></div></button><button id = button_6 class = ""square num-button"" onclick = ""recordClick(this)""><div class = content><div class = numbers>L</div></div></button><button id = button_7 class = ""square num-button"" onclick = ""recordClick(this)""><div class = content><div class = numbers>N</div></div></button><button id = button_8 class = ""square num-button"" onclick = ""recordClick(this)""><div class = content><div class = numbers>P</div></div></button><button id = button_9 class = ""square num-button"" onclick = ""recordClick(this)""><div class = content><div class = numbers>Q</div></div></button><button id = button_10 class = ""square num-button"" onclick = ""recordClick(this)""><div class = content><div class = numbers>R</div></div></button><button id = button_11 class = ""square num-button"" onclick = ""recordClick(this)""><div class = content><div class = numbers>S</div></div></button><button id = button_12 class = ""square num-button"" onclick = ""recordClick(this)""><div class = content><div class = numbers>Y</div></div></button><button class = clear_button id = ""ClearButton"" onclick = ""clearResponse()"">BACKSPACE</button><button class = blank_button id = ""BlankButton"" onclick = ""blankResponse()"">SKIP</button><p style=""font-size: 2.4rem""><u><b>Current Answer:</b></u></p><br><br><div id=echoed_txt style=""font-size: 5rem; color:blue;""><b></b></div></div>",enter,ospan,retrieval,vvEJiT3br8SVAdZ0pHzvSrZ5Fqk2,html-keyboard-response,119,758162,0.0-46.0-4.0-0.0-2.0,7,7,7,4.0,"[""Y"",""Q"",""N"",""S""]","[""Y"",""Q"",""N"",""S""]",1.0,4.0,,,,,,,601efb79aa55223eeec6b2a6,08:45:45,03/04/2024
1614.300000011921,[''],0,ospan,feedback,vvEJiT3br8SVAdZ0pHzvSrZ5Fqk2,html-button-response,120,760281,0.0-46.0-4.0-0.0-3.0,,,,,,,,,,,,100.0,0.0,,601efb79aa55223eeec6b2a6,08:45:45,03/04/2024
,"<p style=""font-size:75px;"">...</p>",,ospan,iti,vvEJiT3br8SVAdZ0pHzvSrZ5Fqk2,html-keyboard-response,121,761296,0.0-46.0-4.0-1.0-0.0,,,,,,,,,,,,,,,601efb79aa55223eeec6b2a6,08:45:45,03/04/2024
3070.0,,,ospan,symmetry,vvEJiT3br8SVAdZ0pHzvSrZ5Fqk2,symmetry-judgement-task,122,765390,0.0-46.0-4.0-1.0-1.0-0.0,,,,,,,,,,1.0,1.0,,,,601efb79aa55223eeec6b2a6,08:45:45,03/04/2024
,"<div style=""font-size: 10rem; color: #0000FF"">H</div>",,ospan,letter,vvEJiT3br8SVAdZ0pHzvSrZ5Fqk2,html-keyboard-response,123,766400,0.0-46.0-4.0-1.0-1.0-1.0,,,,,,,,,,,,,,,601efb79aa55223eeec6b2a6,08:45:45,03/04/2024
2340.0,,,ospan,symmetry,vvEJiT3br8SVAdZ0pHzvSrZ5Fqk2,symmetry-judgement-task,124,770618,0.0-46.0-4.0-1.0-1.0-2.0,,,,,,,,,,0.0,0.0,,,,601efb79aa55223eeec6b2a6,08:45:45,03/04/2024
,"<div style=""font-size: 10rem; color: #0000FF"">C</div>",,ospan,letter,vvEJiT3br8SVAdZ0pHzvSrZ5Fqk2,html-keyboard-response,125,771628,0.0-46.0-4.0-1.0-1.0-3.0,,,,,,,,,,,,,,,601efb79aa55223eeec6b2a6,08:45:45,03/04/2024
2181.0,,,ospan,symmetry,vvEJiT3br8SVAdZ0pHzvSrZ5Fqk2,symmetry-judgement-task,126,775678,0.0-46.0-4.0-1.0-1.0-4.0,,,,,,,,,,1.0,1.0,,,,601efb79aa55223eeec6b2a6,08:45:45,03/04/2024
,"<div style=""font-size: 10rem; color: #0000FF"">S</div>",,ospan,letter,vvEJiT3br8SVAdZ0pHzvSrZ5Fqk2,html-keyboard-response,127,776682,0.0-46.0-4.0-1.0-1.0-5.0,,,,,,,,,,,,,,,601efb79aa55223eeec6b2a6,08:45:45,03/04/2024
1731.0,,,ospan,symmetry,vvEJiT3br8SVAdZ0pHzvSrZ5Fqk2,symmetry-judgement-task,128,780293,0.0-46.0-4.0-1.0-1.0-6.0,,,,,,,,,,1.0,1.0,,,,601efb79aa55223eeec6b2a6,08:45:45,03/04/2024
,"<div style=""font-size: 10rem; color: #0000FF"">Y</div>",,ospan,letter,vvEJiT3br8SVAdZ0pHzvSrZ5Fqk2,html-keyboard-response,129,781308,0.0-46.0-4.0-1.0-1.0-7.0,,,,,,,,,,,,,,,601efb79aa55223eeec6b2a6,08:45:45,03/04/2024
3433.0,,,ospan,symmetry,vvEJiT3br8SVAdZ0pHzvSrZ5Fqk2,symmetry-judgement-task,130,786632,0.0-46.0-4.0-1.0-1.0-8.0,,,,,,,,,,1.0,1.0,,,,601efb79aa55223eeec6b2a6,08:45:45,03/04/2024
,"<div style=""font-size: 10rem; color: #0000FF"">Q</div>",,ospan,letter,vvEJiT3br8SVAdZ0pHzvSrZ5Fqk2,html-keyboard-response,131,787638,0.0-46.0-4.0-1.0-1.0-9.0,,,,,,,,,,,,,,,601efb79aa55223eeec6b2a6,08:45:45,03/04/2024
15170.199999988079,"<div class = numbox><p style=""font-size: 2.4rem"">Please recall the letters you saw to the best of your ability. If you do not remember a particular letter, use the SKIP button.<br><b>(When you are ready to lock in your answer, press ENTER)</b></p><button id = button_1 class = ""square num-button"" onclick = ""recordClick(this)""><div class = content><div class = numbers>C</div></div></button><button id = button_2 class = ""square num-button"" onclick = ""recordClick(this)""><div class = content><div class = numbers>G</div></div></button><button id = button_3 class = ""square num-button"" onclick = ""recordClick(this)""><div class = content><div class = numbers>H</div></div></button><button id = button_4 class = ""square num-button"" onclick = ""recordClick(this)""><div class = content><div class = numbers>J</div></div></button><button id = button_5 class = ""square num-button"" onclick = ""recordClick(this)""><div class = content><div class = numbers>K</div></div></button><button id = button_6 class = ""square num-button"" onclick = ""recordClick(this)""><div class = content><div class = numbers>L</div></div></button><button id = button_7 class = ""square num-button"" onclick = ""recordClick(this)""><div class = content><div class = numbers>N</div></div></button><button id = button_8 class = ""square num-button"" onclick = ""recordClick(this)""><div class = content><div class = numbers>P</div></div></button><button id = button_9 class = ""square num-button"" onclick = ""recordClick(this)""><div class = content><div class = numbers>Q</div></div></button><button id = button_10 class = ""square num-button"" onclick = ""recordClick(this)""><div class = content><div class = numbers>R</div></div></button><button id = button_11 class = ""square num-button"" onclick = ""recordClick(this)""><div class = content><div class = numbers>S</div></div></button><button id = button_12 class = ""square num-button"" onclick = ""recordClick(this)""><div class = content><div class = numbers>Y</div></div></button><button class = clear_button id = ""ClearButton"" onclick = ""clearResponse()"">BACKSPACE</button><button class = blank_button id = ""BlankButton"" onclick = ""blankResponse()"">SKIP</button><p style=""font-size: 2.4rem""><u><b>Current Answer:</b></u></p><br><br><div id=echoed_txt style=""font-size: 5rem; color:blue;""><b></b></div></div>",enter,ospan,retrieval,vvEJiT3br8SVAdZ0pHzvSrZ5Fqk2,html-keyboard-response,132,803563,0.0-46.0-4.0-1.0-2.0,12,9,7,5.0,"[""H"",""C"",""Y"",""Q"",""L""]","[""H"",""C"",""S"",""Y"",""Q""]",0.0,2.0,,,,,,,601efb79aa55223eeec6b2a6,08:45:45,03/04/2024
2290.600000023842,[''],0,ospan,feedback,vvEJiT3br8SVAdZ0pHzvSrZ5Fqk2,html-button-response,133,806364,0.0-46.0-4.0-1.0-3.0,,,,,,,,,,,,92.0,0.0,,601efb79aa55223eeec6b2a6,08:45:45,03/04/2024
,"<p style=""font-size:75px;"">...</p>",,ospan,iti,vvEJiT3br8SVAdZ0pHzvSrZ5Fqk2,html-keyboard-response,134,807377,0.0-46.0-4.0-2.0-0.0,,,,,,,,,,,,,,,601efb79aa55223eeec6b2a6,08:45:45,03/04/2024
2981.0,,,ospan,symmetry,vvEJiT3br8SVAdZ0pHzvSrZ5Fqk2,symmetry-judgement-task,135,811476,0.0-46.0-4.0-2.0-1.0-0.0,,,,,,,,,,1.0,1.0,,,,601efb79aa55223eeec6b2a6,08:45:45,03/04/2024
,"<div style=""font-size: 10rem; color: #0000FF"">P</div>",,ospan,letter,vvEJiT3br8SVAdZ0pHzvSrZ5Fqk2,html-keyboard-response,136,812487,0.0-46.0-4.0-2.0-1.0-1.0,,,,,,,,,,,,,,,601efb79aa55223eeec6b2a6,08:45:45,03/04/2024
4562.0,,,ospan,symmetry,vvEJiT3br8SVAdZ0pHzvSrZ5Fqk2,symmetry-judgement-task,137,818924,0.0-46.0-4.0-2.0-1.0-2.0,,,,,,,,,,1.0,1.0,,,,601efb79aa55223eeec6b2a6,08:45:45,03/04/2024
,"<div style=""font-size: 10rem; color: #0000FF"">H</div>",,ospan,letter,vvEJiT3br8SVAdZ0pHzvSrZ5Fqk2,html-keyboard-response,138,819930,0.0-46.0-4.0-2.0-1.0-3.0,,,,,,,,,,,,,,,601efb79aa55223eeec6b2a6,08:45:45,03/04/2024
2091.0,,,ospan,symmetry,vvEJiT3br8SVAdZ0pHzvSrZ5Fqk2,symmetry-judgement-task,139,823897,0.0-46.0-4.0-2.0-1.0-4.0,,,,,,,,,,1.0,1.0,,,,601efb79aa55223eeec6b2a6,08:45:45,03/04/2024
,"<div style=""font-size: 10rem; color: #0000FF"">S</div>",,ospan,letter,vvEJiT3br8SVAdZ0pHzvSrZ5Fqk2,html-keyboard-response,140,824906,0.0-46.0-4.0-2.0-1.0-5.0,,,,,,,,,,,,,,,601efb79aa55223eeec6b2a6,08:45:45,03/04/2024
7120.899999976158,"<div class = numbox><p style=""font-size: 2.4rem"">Please recall the letters you saw to the best of your ability. If you do not remember a particular letter, use the SKIP button.<br><b>(When you are ready to lock in your answer, press ENTER)</b></p><button id = button_1 class = ""square num-button"" onclick = ""recordClick(this)""><div class = content><div class = numbers>C</div></div></button><button id = button_2 class = ""square num-button"" onclick = ""recordClick(this)""><div class = content><div class = numbers>G</div></div></button><button id = button_3 class = ""square num-button"" onclick = ""recordClick(this)""><div class = content><div class = numbers>H</div></div></button><button id = button_4 class = ""square num-button"" onclick = ""recordClick(this)""><div class = content><div class = numbers>J</div></div></button><button id = button_5 class = ""square num-button"" onclick = ""recordClick(this)""><div class = content><div class = numbers>K</div></div></button><button id = button_6 class = ""square num-button"" onclick = ""recordClick(this)""><div class = content><div class = numbers>L</div></div></button><button id = button_7 class = ""square num-button"" onclick = ""recordClick(this)""><div class = content><div class = numbers>N</div></div></button><button id = button_8 class = ""square num-button"" onclick = ""recordClick(this)""><div class = content><div class = numbers>P</div></div></button><button id = button_9 class = ""square num-button"" onclick = ""recordClick(this)""><div class = content><div class = numbers>Q</div></div></button><button id = button_10 class = ""square num-button"" onclick = ""recordClick(this)""><div class = content><div class = numbers>R</div></div></button><button id = button_11 class = ""square num-button"" onclick = ""recordClick(this)""><div class = content><div class = numbers>S</div></div></button><button id = button_12 class = ""square num-button"" onclick = ""recordClick(this)""><div class = content><div class = numbers>Y</div></div></button><button class = clear_button id = ""ClearButton"" onclick = ""clearResponse()"">BACKSPACE</button><button class = blank_button id = ""BlankButton"" onclick = ""blankResponse()"">SKIP</button><p style=""font-size: 2.4rem""><u><b>Current Answer:</b></u></p><br><br><div id=echoed_txt style=""font-size: 5rem; color:blue;""><b></b></div></div>",enter,ospan,retrieval,vvEJiT3br8SVAdZ0pHzvSrZ5Fqk2,html-keyboard-response,141,832787,0.0-46.0-4.0-2.0-2.0,15,12,10,3.0,"[""P"",""H"",""S""]","[""P"",""H"",""S""]",1.0,3.0,,,,,,,601efb79aa55223eeec6b2a6,08:45:45,03/04/2024
7532.700000047684,[''],0,ospan,feedback,vvEJiT3br8SVAdZ0pHzvSrZ5Fqk2,html-button-response,142,840826,0.0-46.0-4.0-2.0-3.0,,,,,,,,,,,,93.0,0.0,,601efb79aa55223eeec6b2a6,08:45:45,03/04/2024
,"<p style=""font-size:75px;"">...</p>",,ospan,iti,vvEJiT3br8SVAdZ0pHzvSrZ5Fqk2,html-keyboard-response,143,841842,0.0-46.0-5.0-0.0-0.0,,,,,,,,,,,,,,,601efb79aa55223eeec6b2a6,08:45:45,03/04/2024
3210.0,,,ospan,symmetry,vvEJiT3br8SVAdZ0pHzvSrZ5Fqk2,symmetry-judgement-task,144,846177,0.0-46.0-5.0-0.0-1.0-0.0,,,,,,,,,,1.0,1.0,,,,601efb79aa55223eeec6b2a6,08:45:45,03/04/2024
,"<div style=""font-size: 10rem; color: #0000FF"">J</div>",,ospan,letter,vvEJiT3br8SVAdZ0pHzvSrZ5Fqk2,html-keyboard-response,145,847180,0.0-46.0-5.0-0.0-1.0-1.0,,,,,,,,,,,,,,,601efb79aa55223eeec6b2a6,08:45:45,03/04/2024
1575.0,,,ospan,symmetry,vvEJiT3br8SVAdZ0pHzvSrZ5Fqk2,symmetry-judgement-task,146,850627,0.0-46.0-5.0-0.0-1.0-2.0,,,,,,,,,,1.0,1.0,,,,601efb79aa55223eeec6b2a6,08:45:45,03/04/2024
,"<div style=""font-size: 10rem; color: #0000FF"">K</div>",,ospan,letter,vvEJiT3br8SVAdZ0pHzvSrZ5Fqk2,html-keyboard-response,147,851638,0.0-46.0-5.0-0.0-1.0-3.0,,,,,,,,,,,,,,,601efb79aa55223eeec6b2a6,08:45:45,03/04/2024
1613.0,,,ospan,symmetry,vvEJiT3br8SVAdZ0pHzvSrZ5Fqk2,symmetry-judgement-task,148,855127,0.0-46.0-5.0-0.0-1.0-4.0,,,,,,,,,,1.0,1.0,,,,601efb79aa55223eeec6b2a6,08:45:45,03/04/2024
,"<div style=""font-size: 10rem; color: #0000FF"">C</div>",,ospan,letter,vvEJiT3br8SVAdZ0pHzvSrZ5Fqk2,html-keyboard-response,149,856129,0.0-46.0-5.0-0.0-1.0-5.0,,,,,,,,,,,,,,,601efb79aa55223eeec6b2a6,08:45:45,03/04/2024
1440.0,,,ospan,symmetry,vvEJiT3br8SVAdZ0pHzvSrZ5Fqk2,symmetry-judgement-task,150,859443,0.0-46.0-5.0-0.0-1.0-6.0,,,,,,,,,,1.0,1.0,,,,601efb79aa55223eeec6b2a6,08:45:45,03/04/2024
,"<div style=""font-size: 10rem; color: #0000FF"">S</div>",,ospan,letter,vvEJiT3br8SVAdZ0pHzvSrZ5Fqk2,html-keyboard-response,151,860446,0.0-46.0-5.0-0.0-1.0-7.0,,,,,,,,,,,,,,,601efb79aa55223eeec6b2a6,08:45:45,03/04/2024
2264.0,,,ospan,symmetry,vvEJiT3br8SVAdZ0pHzvSrZ5Fqk2,symmetry-judgement-task,152,864600,0.0-46.0-5.0-0.0-1.0-8.0,,,,,,,,,,1.0,1.0,,,,601efb79aa55223eeec6b2a6,08:45:45,03/04/2024
,"<div style=""font-size: 10rem; color: #0000FF"">L</div>",,ospan,letter,vvEJiT3br8SVAdZ0pHzvSrZ5Fqk2,html-keyboard-response,153,865607,0.0-46.0-5.0-0.0-1.0-9.0,,,,,,,,,,,,,,,601efb79aa55223eeec6b2a6,08:45:45,03/04/2024
2925.0,,,ospan,symmetry,vvEJiT3br8SVAdZ0pHzvSrZ5Fqk2,symmetry-judgement-task,154,870410,0.0-46.0-5.0-0.0-1.0-10.0,,,,,,,,,,1.0,1.0,,,,601efb79aa55223eeec6b2a6,08:45:45,03/04/2024
,"<div style=""font-size: 10rem; color: #0000FF"">H</div>",,ospan,letter,vvEJiT3br8SVAdZ0pHzvSrZ5Fqk2,html-keyboard-response,155,871415,0.0-46.0-5.0-0.0-1.0-11.0,,,,,,,,,,,,,,,601efb79aa55223eeec6b2a6,08:45:45,03/04/2024
12538.899999976158,"<div class = numbox><p style=""font-size: 2.4rem"">Please recall the letters you saw to the best of your ability. If you do not remember a particular letter, use the SKIP button.<br><b>(When you are ready to lock in your answer, press ENTER)</b></p><button id = button_1 class = ""square num-button"" onclick = ""recordClick(this)""><div class = content><div class = numbers>C</div></div></button><button id = button_2 class = ""square num-button"" onclick = ""recordClick(this)""><div class = content><div class = numbers>G</div></div></button><button id = button_3 class = ""square num-button"" onclick = ""recordClick(this)""><div class = content><div class = numbers>H</div></div></button><button id = button_4 class = ""square num-button"" onclick = ""recordClick(this)""><div class = content><div class = numbers>J</div></div></button><button id = button_5 class = ""square num-button"" onclick = ""recordClick(this)""><div class = content><div class = numbers>K</div></div></button><button id = button_6 class = ""square num-button"" onclick = ""recordClick(this)""><div class = content><div class = numbers>L</div></div></button><button id = button_7 class = ""square num-button"" onclick = ""recordClick(this)""><div class = content><div class = numbers>N</div></div></button><button id = button_8 class = ""square num-button"" onclick = ""recordClick(this)""><div class = content><div class = numbers>P</div></div></button><button id = button_9 class = ""square num-button"" onclick = ""recordClick(this)""><div class = content><div class = numbers>Q</div></div></button><button id = button_10 class = ""square num-button"" onclick = ""recordClick(this)""><div class = content><div class = numbers>R</div></div></button><button id = button_11 class = ""square num-button"" onclick = ""recordClick(this)""><div class = content><div class = numbers>S</div></div></button><button id = button_12 class = ""square num-button"" onclick = ""recordClick(this)""><div class = content><div class = numbers>Y</div></div></button><button class = clear_button id = ""ClearButton"" onclick = ""clearResponse()"">BACKSPACE</button><button class = blank_button id = ""BlankButton"" onclick = ""blankResponse()"">SKIP</button><p style=""font-size: 2.4rem""><u><b>Current Answer:</b></u></p><br><br><div id=echoed_txt style=""font-size: 5rem; color:blue;""><b></b></div></div>",enter,ospan,retrieval,vvEJiT3br8SVAdZ0pHzvSrZ5Fqk2,html-keyboard-response,156,884715,0.0-46.0-5.0-0.0-2.0,21,15,10,6.0,"[""J"",""K"",""C"",""L"",""Q""]","[""J"",""K"",""C"",""S"",""L"",""H""]",0.0,3.0,,,,,,,601efb79aa55223eeec6b2a6,08:45:45,03/04/2024
1615.0,[''],0,ospan,feedback,vvEJiT3br8SVAdZ0pHzvSrZ5Fqk2,html-button-response,157,886845,0.0-46.0-5.0-0.0-3.0,,,,,,,,,,,,95.0,0.0,,601efb79aa55223eeec6b2a6,08:45:45,03/04/2024
,"<p style=""font-size:75px;"">...</p>",,ospan,iti,vvEJiT3br8SVAdZ0pHzvSrZ5Fqk2,html-keyboard-response,158,887855,0.0-46.0-5.0-1.0-0.0,,,,,,,,,,,,,,,601efb79aa55223eeec6b2a6,08:45:45,03/04/2024
2640.0,,,ospan,symmetry,vvEJiT3br8SVAdZ0pHzvSrZ5Fqk2,symmetry-judgement-task,159,891524,0.0-46.0-5.0-1.0-1.0-0.0,,,,,,,,,,1.0,1.0,,,,601efb79aa55223eeec6b2a6,08:45:45,03/04/2024
,"<div style=""font-size: 10rem; color: #0000FF"">H</div>",,ospan,letter,vvEJiT3br8SVAdZ0pHzvSrZ5Fqk2,html-keyboard-response,160,892530,0.0-46.0-5.0-1.0-1.0-1.0,,,,,,,,,,,,,,,601efb79aa55223eeec6b2a6,08:45:45,03/04/2024
2794.0,,,ospan,symmetry,vvEJiT3br8SVAdZ0pHzvSrZ5Fqk2,symmetry-judgement-task,161,897213,0.0-46.0-5.0-1.0-1.0-2.0,,,,,,,,,,1.0,1.0,,,,601efb79aa55223eeec6b2a6,08:45:45,03/04/2024
,"<div style=""font-size: 10rem; color: #0000FF"">R</div>",,ospan,letter,vvEJiT3br8SVAdZ0pHzvSrZ5Fqk2,html-keyboard-response,162,898216,0.0-46.0-5.0-1.0-1.0-3.0,,,,,,,,,,,,,,,601efb79aa55223eeec6b2a6,08:45:45,03/04/2024
2171.0,,,ospan,symmetry,vvEJiT3br8SVAdZ0pHzvSrZ5Fqk2,symmetry-judgement-task,163,902283,0.0-46.0-5.0-1.0-1.0-4.0,,,,,,,,,,1.0,1.0,,,,601efb79aa55223eeec6b2a6,08:45:45,03/04/2024
,"<div style=""font-size: 10rem; color: #0000FF"">J</div>",,ospan,letter,vvEJiT3br8SVAdZ0pHzvSrZ5Fqk2,html-keyboard-response,164,903289,0.0-46.0-5.0-1.0-1.0-5.0,,,,,,,,,,,,,,,601efb79aa55223eeec6b2a6,08:45:45,03/04/2024
2251.0,,,ospan,symmetry,vvEJiT3br8SVAdZ0pHzvSrZ5Fqk2,symmetry-judgement-task,165,907414,0.0-46.0-5.0-1.0-1.0-6.0,,,,,,,,,,1.0,1.0,,,,601efb79aa55223eeec6b2a6,08:45:45,03/04/2024
,"<div style=""font-size: 10rem; color: #0000FF"">P</div>",,ospan,letter,vvEJiT3br8SVAdZ0pHzvSrZ5Fqk2,html-keyboard-response,166,908417,0.0-46.0-5.0-1.0-1.0-7.0,,,,,,,,,,,,,,,601efb79aa55223eeec6b2a6,08:45:45,03/04/2024
2421.0,,,ospan,symmetry,vvEJiT3br8SVAdZ0pHzvSrZ5Fqk2,symmetry-judgement-task,167,912719,0.0-46.0-5.0-1.0-1.0-8.0,,,,,,,,,,1.0,1.0,,,,601efb79aa55223eeec6b2a6,08:45:45,03/04/2024
,"<div style=""font-size: 10rem; color: #0000FF"">N</div>",,ospan,letter,vvEJiT3br8SVAdZ0pHzvSrZ5Fqk2,html-keyboard-response,168,913724,0.0-46.0-5.0-1.0-1.0-9.0,,,,,,,,,,,,,,,601efb79aa55223eeec6b2a6,08:45:45,03/04/2024
2095.0,,,ospan,symmetry,vvEJiT3br8SVAdZ0pHzvSrZ5Fqk2,symmetry-judgement-task,169,917698,0.0-46.0-5.0-1.0-1.0-10.0,,,,,,,,,,0.0,0.0,,,,601efb79aa55223eeec6b2a6,08:45:45,03/04/2024
,"<div style=""font-size: 10rem; color: #0000FF"">Q</div>",,ospan,letter,vvEJiT3br8SVAdZ0pHzvSrZ5Fqk2,html-keyboard-response,170,918702,0.0-46.0-5.0-1.0-1.0-11.0,,,,,,,,,,,,,,,601efb79aa55223eeec6b2a6,08:45:45,03/04/2024
1420.0,,,ospan,symmetry,vvEJiT3br8SVAdZ0pHzvSrZ5Fqk2,symmetry-judgement-task,171,922013,0.0-46.0-5.0-1.0-1.0-12.0,,,,,,,,,,0.0,0.0,,,,601efb79aa55223eeec6b2a6,08:45:45,03/04/2024
,"<div style=""font-size: 10rem; color: #0000FF"">L</div>",,ospan,letter,vvEJiT3br8SVAdZ0pHzvSrZ5Fqk2,html-keyboard-response,172,923014,0.0-46.0-5.0-1.0-1.0-13.0,,,,,,,,,,,,,,,601efb79aa55223eeec6b2a6,08:45:45,03/04/2024
14015.600000023842,"<div class = numbox><p style=""font-size: 2.4rem"">Please recall the letters you saw to the best of your ability. If you do not remember a particular letter, use the SKIP button.<br><b>(When you are ready to lock in your answer, press ENTER)</b></p><button id = button_1 class = ""square num-button"" onclick = ""recordClick(this)""><div class = content><div class = numbers>C</div></div></button><button id = button_2 class = ""square num-button"" onclick = ""recordClick(this)""><div class = content><div class = numbers>G</div></div></button><button id = button_3 class = ""square num-button"" onclick = ""recordClick(this)""><div class = content><div class = numbers>H</div></div></button><button id = button_4 class = ""square num-button"" onclick = ""recordClick(this)""><div class = content><div class = numbers>J</div></div></button><button id = button_5 class = ""square num-button"" onclick = ""recordClick(this)""><div class = content><div class = numbers>K</div></div></button><button id = button_6 class = ""square num-button"" onclick = ""recordClick(this)""><div class = content><div class = numbers>L</div></div></button><button id = button_7 class = ""square num-button"" onclick = ""recordClick(this)""><div class = content><div class = numbers>N</div></div></button><button id = button_8 class = ""square num-button"" onclick = ""recordClick(this)""><div class = content><div class = numbers>P</div></div></button><button id = button_9 class = ""square num-button"" onclick = ""recordClick(this)""><div class = content><div class = numbers>Q</div></div></button><button id = button_10 class = ""square num-button"" onclick = ""recordClick(this)""><div class = content><div class = numbers>R</div></div></button><button id = button_11 class = ""square num-button"" onclick = ""recordClick(this)""><div class = content><div class = numbers>S</div></div></button><button id = button_12 class = ""square num-button"" onclick = ""recordClick(this)""><div class = content><div class = numbers>Y</div></div></button><button class = clear_button id = ""ClearButton"" onclick = ""clearResponse()"">BACKSPACE</button><button class = blank_button id = ""BlankButton"" onclick = ""blankResponse()"">SKIP</button><p style=""font-size: 2.4rem""><u><b>Current Answer:</b></u></p><br><br><div id=echoed_txt style=""font-size: 5rem; color:blue;""><b></b></div></div>",enter,ospan,retrieval,vvEJiT3br8SVAdZ0pHzvSrZ5Fqk2,html-keyboard-response,173,937788,0.0-46.0-5.0-1.0-2.0,28,20,10,7.0,"[""H"",""R"",""J"",""P"",""L"",""Q""]","[""H"",""R"",""J"",""P"",""N"",""Q"",""L""]",0.0,5.0,,,,,,,601efb79aa55223eeec6b2a6,08:45:45,03/04/2024
4225.100000023842,[''],0,ospan,feedback,vvEJiT3br8SVAdZ0pHzvSrZ5Fqk2,html-button-response,174,942515,0.0-46.0-5.0-1.0-3.0,,,,,,,,,,,,89.0,0.0,,601efb79aa55223eeec6b2a6,08:45:45,03/04/2024
,"<p style=""font-size:75px;"">...</p>",,ospan,iti,vvEJiT3br8SVAdZ0pHzvSrZ5Fqk2,html-keyboard-response,175,943516,0.0-46.0-6.0-0.0-0.0,,,,,,,,,,,,,,,601efb79aa55223eeec6b2a6,08:45:45,03/04/2024
7639.0,,,ospan,symmetry,vvEJiT3br8SVAdZ0pHzvSrZ5Fqk2,symmetry-judgement-task,176,952278,0.0-46.0-6.0-0.0-1.0-0.0,,,,,,,,,,1.0,1.0,,,,601efb79aa55223eeec6b2a6,08:45:45,03/04/2024
,"<div style=""font-size: 10rem; color: #0000FF"">N</div>",,ospan,letter,vvEJiT3br8SVAdZ0pHzvSrZ5Fqk2,html-keyboard-response,177,953285,0.0-46.0-6.0-0.0-1.0-1.0,,,,,,,,,,,,,,,601efb79aa55223eeec6b2a6,08:45:45,03/04/2024
1931.0,,,ospan,symmetry,vvEJiT3br8SVAdZ0pHzvSrZ5Fqk2,symmetry-judgement-task,178,957083,0.0-46.0-6.0-0.0-1.0-2.0,,,,,,,,,,1.0,1.0,,,,601efb79aa55223eeec6b2a6,08:45:45,03/04/2024
,"<div style=""font-size: 10rem; color: #0000FF"">R</div>",,ospan,letter,vvEJiT3br8SVAdZ0pHzvSrZ5Fqk2,html-keyboard-response,179,958088,0.0-46.0-6.0-0.0-1.0-3.0,,,,,,,,,,,,,,,601efb79aa55223eeec6b2a6,08:45:45,03/04/2024
1413.0,,,ospan,symmetry,vvEJiT3br8SVAdZ0pHzvSrZ5Fqk2,symmetry-judgement-task,180,961389,0.0-46.0-6.0-0.0-1.0-4.0,,,,,,,,,,1.0,1.0,,,,601efb79aa55223eeec6b2a6,08:45:45,03/04/2024
,"<div style=""font-size: 10rem; color: #0000FF"">J</div>",,ospan,letter,vvEJiT3br8SVAdZ0pHzvSrZ5Fqk2,html-keyboard-response,181,962401,0.0-46.0-6.0-0.0-1.0-5.0,,,,,,,,,,,,,,,601efb79aa55223eeec6b2a6,08:45:45,03/04/2024
1386.0,,,ospan,symmetry,vvEJiT3br8SVAdZ0pHzvSrZ5Fqk2,symmetry-judgement-task,182,965661,0.0-46.0-6.0-0.0-1.0-6.0,,,,,,,,,,1.0,1.0,,,,601efb79aa55223eeec6b2a6,08:45:45,03/04/2024
,"<div style=""font-size: 10rem; color: #0000FF"">S</div>",,ospan,letter,vvEJiT3br8SVAdZ0pHzvSrZ5Fqk2,html-keyboard-response,183,966675,0.0-46.0-6.0-0.0-1.0-7.0,,,,,,,,,,,,,,,601efb79aa55223eeec6b2a6,08:45:45,03/04/2024
1580.0,,,ospan,symmetry,vvEJiT3br8SVAdZ0pHzvSrZ5Fqk2,symmetry-judgement-task,184,970132,0.0-46.0-6.0-0.0-1.0-8.0,,,,,,,,,,1.0,1.0,,,,601efb79aa55223eeec6b2a6,08:45:45,03/04/2024
,"<div style=""font-size: 10rem; color: #0000FF"">H</div>",,ospan,letter,vvEJiT3br8SVAdZ0pHzvSrZ5Fqk2,html-keyboard-response,185,971138,0.0-46.0-6.0-0.0-1.0-9.0,,,,,,,,,,,,,,,601efb79aa55223eeec6b2a6,08:45:45,03/04/2024
12699.600000023842,"<div class = numbox><p style=""font-size: 2.4rem"">Please recall the letters you saw to the best of your ability. If you do not remember a particular letter, use the SKIP button.<br><b>(When you are ready to lock in your answer, press ENTER)</b></p><button id = button_1 class = ""square num-button"" onclick = ""recordClick(this)""><div class = content><div class = numbers>C</div></div></button><button id = button_2 class = ""square num-button"" onclick = ""recordClick(this)""><div class = content><div class = numbers>G</div></div></button><button id = button_3 class = ""square num-button"" onclick = ""recordClick(this)""><div class = content><div class = numbers>H</div></div></button><button id = button_4 class = ""square num-button"" onclick = ""recordClick(this)""><div class = content><div class = numbers>J</div></div></button><button id = button_5 class = ""square num-button"" onclick = ""recordClick(this)""><div class = content><div class = numbers>K</div></div></button><button id = button_6 class = ""square num-button"" onclick = ""recordClick(this)""><div class = content><div class = numbers>L</div></div></button><button id = button_7 class = ""square num-button"" onclick = ""recordClick(this)""><div class = content><div class = numbers>N</div></div></button><button id = button_8 class = ""square num-button"" onclick = ""recordClick(this)""><div class = content><div class = numbers>P</div></div></button><button id = button_9 class = ""square num-button"" onclick = ""recordClick(this)""><div class = content><div class = numbers>Q</div></div></button><button id = button_10 class = ""square num-button"" onclick = ""recordClick(this)""><div class = content><div class = numbers>R</div></div></button><button id = button_11 class = ""square num-button"" onclick = ""recordClick(this)""><div class = content><div class = numbers>S</div></div></button><button id = button_12 class = ""square num-button"" onclick = ""recordClick(this)""><div class = content><div class = numbers>Y</div></div></button><button class = clear_button id = ""ClearButton"" onclick = ""clearResponse()"">BACKSPACE</button><button class = blank_button id = ""BlankButton"" onclick = ""blankResponse()"">SKIP</button><p style=""font-size: 2.4rem""><u><b>Current Answer:</b></u></p><br><br><div id=echoed_txt style=""font-size: 5rem; color:blue;""><b></b></div></div>",enter,ospan,retrieval,vvEJiT3br8SVAdZ0pHzvSrZ5Fqk2,html-keyboard-response,186,984600,0.0-46.0-6.0-0.0-2.0,33,25,15,5.0,"[""N"",""R"",""J"",""S"",""H""]","[""N"",""R"",""J"",""S"",""H""]",1.0,5.0,,,,,,,601efb79aa55223eeec6b2a6,08:45:45,03/04/2024
1230.199999988079,[''],0,ospan,feedback,vvEJiT3br8SVAdZ0pHzvSrZ5Fqk2,html-button-response,187,986334,0.0-46.0-6.0-0.0-3.0,,,,,,,,,,,,91.0,0.0,,601efb79aa55223eeec6b2a6,08:45:45,03/04/2024
,"<p style=""font-size:75px;"">...</p>",,ospan,iti,vvEJiT3br8SVAdZ0pHzvSrZ5Fqk2,html-keyboard-response,188,987337,0.0-46.0-6.0-1.0-0.0,,,,,,,,,,,,,,,601efb79aa55223eeec6b2a6,08:45:45,03/04/2024
3111.0,,,ospan,symmetry,vvEJiT3br8SVAdZ0pHzvSrZ5Fqk2,symmetry-judgement-task,189,991570,0.0-46.0-6.0-1.0-1.0-0.0,,,,,,,,,,1.0,1.0,,,,601efb79aa55223eeec6b2a6,08:45:45,03/04/2024
,"<div style=""font-size: 10rem; color: #0000FF"">Q</div>",,ospan,letter,vvEJiT3br8SVAdZ0pHzvSrZ5Fqk2,html-keyboard-response,190,992571,0.0-46.0-6.0-1.0-1.0-1.0,,,,,,,,,,,,,,,601efb79aa55223eeec6b2a6,08:45:45,03/04/2024
2049.0,,,ospan,symmetry,vvEJiT3br8SVAdZ0pHzvSrZ5Fqk2,symmetry-judgement-task,191,996495,0.0-46.0-6.0-1.0-1.0-2.0,,,,,,,,,,1.0,1.0,,,,601efb79aa55223eeec6b2a6,08:45:45,03/04/2024
,"<div style=""font-size: 10rem; color: #0000FF"">Y</div>",,ospan,letter,vvEJiT3br8SVAdZ0pHzvSrZ5Fqk2,html-keyboard-response,192,997497,0.0-46.0-6.0-1.0-1.0-3.0,,,,,,,,,,,,,,,601efb79aa55223eeec6b2a6,08:45:45,03/04/2024
1634.0,,,ospan,symmetry,vvEJiT3br8SVAdZ0pHzvSrZ5Fqk2,symmetry-judgement-task,193,1001008,0.0-46.0-6.0-1.0-1.0-4.0,,,,,,,,,,1.0,1.0,,,,601efb79aa55223eeec6b2a6,08:45:45,03/04/2024
,"<div style=""font-size: 10rem; color: #0000FF"">R</div>",,ospan,letter,vvEJiT3br8SVAdZ0pHzvSrZ5Fqk2,html-keyboard-response,194,1002022,0.0-46.0-6.0-1.0-1.0-5.0,,,,,,,,,,,,,,,601efb79aa55223eeec6b2a6,08:45:45,03/04/2024
1724.0,,,ospan,symmetry,vvEJiT3br8SVAdZ0pHzvSrZ5Fqk2,symmetry-judgement-task,195,1005634,0.0-46.0-6.0-1.0-1.0-6.0,,,,,,,,,,1.0,1.0,,,,601efb79aa55223eeec6b2a6,08:45:45,03/04/2024
,"<div style=""font-size: 10rem; color: #0000FF"">N</div>",,ospan,letter,vvEJiT3br8SVAdZ0pHzvSrZ5Fqk2,html-keyboard-response,196,1006638,0.0-46.0-6.0-1.0-1.0-7.0,,,,,,,,,,,,,,,601efb79aa55223eeec6b2a6,08:45:45,03/04/2024
1452.0,,,ospan,symmetry,vvEJiT3br8SVAdZ0pHzvSrZ5Fqk2,symmetry-judgement-task,197,1009975,0.0-46.0-6.0-1.0-1.0-8.0,,,,,,,,,,1.0,1.0,,,,601efb79aa55223eeec6b2a6,08:45:45,03/04/2024
,"<div style=""font-size: 10rem; color: #0000FF"">H</div>",,ospan,letter,vvEJiT3br8SVAdZ0pHzvSrZ5Fqk2,html-keyboard-response,198,1010983,0.0-46.0-6.0-1.0-1.0-9.0,,,,,,,,,,,,,,,601efb79aa55223eeec6b2a6,08:45:45,03/04/2024
2478.0,,,ospan,symmetry,vvEJiT3br8SVAdZ0pHzvSrZ5Fqk2,symmetry-judgement-task,199,1015343,0.0-46.0-6.0-1.0-1.0-10.0,,,,,,,,,,1.0,1.0,,,,601efb79aa55223eeec6b2a6,08:45:45,03/04/2024
,"<div style=""font-size: 10rem; color: #0000FF"">C</div>",,ospan,letter,vvEJiT3br8SVAdZ0pHzvSrZ5Fqk2,html-keyboard-response,200,1016349,0.0-46.0-6.0-1.0-1.0-11.0,,,,,,,,,,,,,,,601efb79aa55223eeec6b2a6,08:45:45,03/04/2024
5019.0,,,ospan,symmetry,vvEJiT3br8SVAdZ0pHzvSrZ5Fqk2,symmetry-judgement-task,201,1023253,0.0-46.0-6.0-1.0-1.0-12.0,,,,,,,,,,1.0,1.0,,,,601efb79aa55223eeec6b2a6,08:45:45,03/04/2024
,"<div style=""font-size: 10rem; color: #0000FF"">P</div>",,ospan,letter,vvEJiT3br8SVAdZ0pHzvSrZ5Fqk2,html-keyboard-response,202,1024269,0.0-46.0-6.0-1.0-1.0-13.0,,,,,,,,,,,,,,,601efb79aa55223eeec6b2a6,08:45:45,03/04/2024
3664.0,,,ospan,symmetry,vvEJiT3br8SVAdZ0pHzvSrZ5Fqk2,symmetry-judgement-task,203,1029813,0.0-46.0-6.0-1.0-1.0-14.0,,,,,,,,,,1.0,1.0,,,,601efb79aa55223eeec6b2a6,08:45:45,03/04/2024
,"<div style=""font-size: 10rem; color: #0000FF"">G</div>",,ospan,letter,vvEJiT3br8SVAdZ0pHzvSrZ5Fqk2,html-keyboard-response,204,1030826,0.0-46.0-6.0-1.0-1.0-15.0,,,,,,,,,,,,,,,601efb79aa55223eeec6b2a6,08:45:45,03/04/2024
16638.80000001192,"<div class = numbox><p style=""font-size: 2.4rem"">Please recall the letters you saw to the best of your ability. If you do not remember a particular letter, use the SKIP button.<br><b>(When you are ready to lock in your answer, press ENTER)</b></p><button id = button_1 class = ""square num-button"" onclick = ""recordClick(this)""><div class = content><div class = numbers>C</div></div></button><button id = button_2 class = ""square num-button"" onclick = ""recordClick(this)""><div class = content><div class = numbers>G</div></div></button><button id = button_3 class = ""square num-button"" onclick = ""recordClick(this)""><div class = content><div class = numbers>H</div></div></button><button id = button_4 class = ""square num-button"" onclick = ""recordClick(this)""><div class = content><div class = numbers>J</div></div></button><button id = button_5 class = ""square num-button"" onclick = ""recordClick(this)""><div class = content><div class = numbers>K</div></div></button><button id = button_6 class = ""square num-button"" onclick = ""recordClick(this)""><div class = content><div class = numbers>L</div></div></button><button id = button_7 class = ""square num-button"" onclick = ""recordClick(this)""><div class = content><div class = numbers>N</div></div></button><button id = button_8 class = ""square num-button"" onclick = ""recordClick(this)""><div class = content><div class = numbers>P</div></div></button><button id = button_9 class = ""square num-button"" onclick = ""recordClick(this)""><div class = content><div class = numbers>Q</div></div></button><button id = button_10 class = ""square num-button"" onclick = ""recordClick(this)""><div class = content><div class = numbers>R</div></div></button><button id = button_11 class = ""square num-button"" onclick = ""recordClick(this)""><div class = content><div class = numbers>S</div></div></button><button id = button_12 class = ""square num-button"" onclick = ""recordClick(this)""><div class = content><div class = numbers>Y</div></div></button><button class = clear_button id = ""ClearButton"" onclick = ""clearResponse()"">BACKSPACE</button><button class = blank_button id = ""BlankButton"" onclick = ""blankResponse()"">SKIP</button><p style=""font-size: 2.4rem""><u><b>Current Answer:</b></u></p><br><br><div id=echoed_txt style=""font-size: 5rem; color:blue;""><b></b></div></div>",enter,ospan,retrieval,vvEJiT3br8SVAdZ0pHzvSrZ5Fqk2,html-keyboard-response,205,1048226,0.0-46.0-6.0-1.0-2.0,41,29,15,8.0,"[""Q"",""R"",""Y"",""N"",""H"",""C"",""K""]","[""Q"",""Y"",""R"",""N"",""H"",""C"",""P"",""G""]",0.0,4.0,,,,,,,601efb79aa55223eeec6b2a6,08:45:45,03/04/2024
2040.300000011921,[''],0,ospan,feedback,vvEJiT3br8SVAdZ0pHzvSrZ5Fqk2,html-button-response,206,1050775,0.0-46.0-6.0-1.0-3.0,,,,,,,,,,,,93.0,0.0,,601efb79aa55223eeec6b2a6,08:45:45,03/04/2024
14555.699999988079,,{'Q0': 'it was clear'},ospan,survey_ospan,vvEJiT3br8SVAdZ0pHzvSrZ5Fqk2,lmdlab-survey-text,207,1066097,0.0-46.0-7.0,,,,,,,,,,,,,,vvEJiT3br8SVAdZ0pHzvSrZ5Fqk2,601efb79aa55223eeec6b2a6,08:45:45,03/04/2024
3343.199999988079,<p><p style='font-size: 3rem'>Great work!<br><br>This completes the symmetry and memory task.</p><br><br><br>,0,ospan,finish,vvEJiT3br8SVAdZ0pHzvSrZ5Fqk2,html-button-response,208,1069442,0.0-46.0-8.0,41,29,15,,,,,,,,,93.0,,,601efb79aa55223eeec6b2a6,08:45:45,03/04/2024
