rt,stimulus,response,exp_name,exp_stage,subjectID,trial_type,trial_index,time_elapsed,internal_node_id,ospan_shown,ospan_total,ospan_abs,length,resp_actual,resp_correct,full_correct,num_correct,feedback,accuracy,correct,math_acc,math_warning,databaseID,prolificID,start_time,date
1589.0999999940395,<div class = 'left_align' style='font-size: 3.25rem; line-height: 1.3;'><p class = 'center_align'><b>Welcome to the Symmetry and Memory Task</b><br><br><br><br></p>Press 'continue' to show the instructions.<br><br><br><br></div>,0,ospan,instruct,jWKKXGt9Pognn9BXmkQ9be529Co2,html-button-response,51,498366,0.0-43.0-0.0-0.0-0.0,,,,,,,,,,,,,,,65b7b0e4e6fa7d632205b4b6,16:17:33,04/03/2024
9798.800000011921,"<div class = 'left_align' style='font-size: 3.25rem; line-height: 1.3;'><p class = 'center_align'><b>Symmetry and Memory Task</b><br><br></p>In this task, you will try to memorize letters you see on the screen<br>while you also view black and white grid pictures.<br><br>In the next few minutes, you will have some practice to get you familiar<br>with how the task works.<br><br>It may be difficult sometimes, but please do not worry about making mistakes!<br><br>We will begin by practicing the letter part of the task.<br><br><br><br></div>",0,ospan,instruct,jWKKXGt9Pognn9BXmkQ9be529Co2,html-button-response,52,508418,0.0-43.0-0.0-0.0-1.0,,,,,,,,,,,,,,,65b7b0e4e6fa7d632205b4b6,16:17:33,04/03/2024
11077.90000000596,"<div class = 'left_align' style='font-size: 3.25rem; line-height: 1.3;'>For this practice part, letters will appear on the screen one at a time.<br><br>Try to remember each letter in the order presented.<br><br>After some letters have been shown, you will see a response screen. Your<br>goal is to report the letters you saw <b>in order</b>. If you do not remember<br>a particular letter, you will have the option to leave it blank.<br><br><br><br></div>",0,ospan,instruct,jWKKXGt9Pognn9BXmkQ9be529Co2,html-button-response,53,519755,0.0-43.0-0.0-0.0-2.0,,,,,,,,,,,,,,,65b7b0e4e6fa7d632205b4b6,16:17:33,04/03/2024
2702.600000023842,"<div class = 'left_align' style='font-size: 3.25rem; line-height: 1.3;'>Remember, it is very important to get the letters in the same<br>order as you see them.<br><br>When you are ready, you may begin the letter practice.</div><br><br><br><br>",0,ospan,instruct,jWKKXGt9Pognn9BXmkQ9be529Co2,html-button-response,54,522709,0.0-43.0-0.0-0.0-3.0,,,,,,,,,,,,,,,65b7b0e4e6fa7d632205b4b6,16:17:33,04/03/2024
,"<p style=""font-size:75px;"">...</p>",,ospan,iti,jWKKXGt9Pognn9BXmkQ9be529Co2,html-keyboard-response,55,523969,0.0-43.0-0.0-1.0-0.0,,,,,,,,,,,,,,,65b7b0e4e6fa7d632205b4b6,16:17:33,04/03/2024
,"<div style=""font-size: 10rem; color: #0000FF"">P</div>",,ospan,letter,jWKKXGt9Pognn9BXmkQ9be529Co2,html-keyboard-response,56,524977,0.0-43.0-0.0-1.0-1.0,,,,,,,,,,,,,,,65b7b0e4e6fa7d632205b4b6,16:17:33,04/03/2024
,"<div style=""font-size: 10rem; color: #0000FF"">S</div>",,ospan,letter,jWKKXGt9Pognn9BXmkQ9be529Co2,html-keyboard-response,57,526747,0.0-43.0-0.0-1.0-2.0,,,,,,,,,,,,,,,65b7b0e4e6fa7d632205b4b6,16:17:33,04/03/2024
4931.4000000059605,"<div class = numbox><p style=""font-size: 2.4rem"">Please recall the letters you saw to the best of your ability. If you do not remember a particular letter, use the SKIP button.<br><b>(When you are ready to lock in your answer, press ENTER)</b></p><button id = button_1 class = ""square num-button"" onclick = ""recordClick(this)""><div class = content><div class = numbers>C</div></div></button><button id = button_2 class = ""square num-button"" onclick = ""recordClick(this)""><div class = content><div class = numbers>G</div></div></button><button id = button_3 class = ""square num-button"" onclick = ""recordClick(this)""><div class = content><div class = numbers>H</div></div></button><button id = button_4 class = ""square num-button"" onclick = ""recordClick(this)""><div class = content><div class = numbers>J</div></div></button><button id = button_5 class = ""square num-button"" onclick = ""recordClick(this)""><div class = content><div class = numbers>K</div></div></button><button id = button_6 class = ""square num-button"" onclick = ""recordClick(this)""><div class = content><div class = numbers>L</div></div></button><button id = button_7 class = ""square num-button"" onclick = ""recordClick(this)""><div class = content><div class = numbers>N</div></div></button><button id = button_8 class = ""square num-button"" onclick = ""recordClick(this)""><div class = content><div class = numbers>P</div></div></button><button id = button_9 class = ""square num-button"" onclick = ""recordClick(this)""><div class = content><div class = numbers>Q</div></div></button><button id = button_10 class = ""square num-button"" onclick = ""recordClick(this)""><div class = content><div class = numbers>R</div></div></button><button id = button_11 class = ""square num-button"" onclick = ""recordClick(this)""><div class = content><div class = numbers>S</div></div></button><button id = button_12 class = ""square num-button"" onclick = ""recordClick(this)""><div class = content><div class = numbers>Y</div></div></button><button class = clear_button id = ""ClearButton"" onclick = ""clearResponse()"">BACKSPACE</button><button class = blank_button id = ""BlankButton"" onclick = ""blankResponse()"">SKIP</button><p style=""font-size: 2.4rem""><u><b>Current Answer:</b></u></p><br><br><div id=echoed_txt style=""font-size: 5rem; color:blue;""><b></b></div></div>",enter,ospan,retrieval,jWKKXGt9Pognn9BXmkQ9be529Co2,html-keyboard-response,58,532436,0.0-43.0-0.0-1.0-3.0,NA,NA,NA,2.0,"[""P"",""S""]","[""P"",""S""]",1.0,2.0,"['<font color=""green"">P</font>', '<font color=""green"">S</font>']",,,,,,65b7b0e4e6fa7d632205b4b6,16:17:33,04/03/2024
1606.699999988079,"['<p style=""font-size:44px"">Letters:<br><br><br><font color=""green"">P</font> <font color=""green"">S</font></p><br><br>']",0,ospan,practice_feedback,jWKKXGt9Pognn9BXmkQ9be529Co2,html-button-response,59,534554,0.0-43.0-0.0-1.0-4.0,,,,,,,,,,,,,,,65b7b0e4e6fa7d632205b4b6,16:17:33,04/03/2024
,"<p style=""font-size:75px;"">...</p>",,ospan,iti,jWKKXGt9Pognn9BXmkQ9be529Co2,html-keyboard-response,60,535560,0.0-43.0-0.0-2.0-0.0,,,,,,,,,,,,,,,65b7b0e4e6fa7d632205b4b6,16:17:33,04/03/2024
,"<div style=""font-size: 10rem; color: #0000FF"">N</div>",,ospan,letter,jWKKXGt9Pognn9BXmkQ9be529Co2,html-keyboard-response,61,536567,0.0-43.0-0.0-2.0-1.0,,,,,,,,,,,,,,,65b7b0e4e6fa7d632205b4b6,16:17:33,04/03/2024
,"<div style=""font-size: 10rem; color: #0000FF"">Q</div>",,ospan,letter,jWKKXGt9Pognn9BXmkQ9be529Co2,html-keyboard-response,62,538332,0.0-43.0-0.0-2.0-2.0,,,,,,,,,,,,,,,65b7b0e4e6fa7d632205b4b6,16:17:33,04/03/2024
,"<div style=""font-size: 10rem; color: #0000FF"">K</div>",,ospan,letter,jWKKXGt9Pognn9BXmkQ9be529Co2,html-keyboard-response,63,540102,0.0-43.0-0.0-2.0-3.0,,,,,,,,,,,,,,,65b7b0e4e6fa7d632205b4b6,16:17:33,04/03/2024
5007.0999999940395,"<div class = numbox><p style=""font-size: 2.4rem"">Please recall the letters you saw to the best of your ability. If you do not remember a particular letter, use the SKIP button.<br><b>(When you are ready to lock in your answer, press ENTER)</b></p><button id = button_1 class = ""square num-button"" onclick = ""recordClick(this)""><div class = content><div class = numbers>C</div></div></button><button id = button_2 class = ""square num-button"" onclick = ""recordClick(this)""><div class = content><div class = numbers>G</div></div></button><button id = button_3 class = ""square num-button"" onclick = ""recordClick(this)""><div class = content><div class = numbers>H</div></div></button><button id = button_4 class = ""square num-button"" onclick = ""recordClick(this)""><div class = content><div class = numbers>J</div></div></button><button id = button_5 class = ""square num-button"" onclick = ""recordClick(this)""><div class = content><div class = numbers>K</div></div></button><button id = button_6 class = ""square num-button"" onclick = ""recordClick(this)""><div class = content><div class = numbers>L</div></div></button><button id = button_7 class = ""square num-button"" onclick = ""recordClick(this)""><div class = content><div class = numbers>N</div></div></button><button id = button_8 class = ""square num-button"" onclick = ""recordClick(this)""><div class = content><div class = numbers>P</div></div></button><button id = button_9 class = ""square num-button"" onclick = ""recordClick(this)""><div class = content><div class = numbers>Q</div></div></button><button id = button_10 class = ""square num-button"" onclick = ""recordClick(this)""><div class = content><div class = numbers>R</div></div></button><button id = button_11 class = ""square num-button"" onclick = ""recordClick(this)""><div class = content><div class = numbers>S</div></div></button><button id = button_12 class = ""square num-button"" onclick = ""recordClick(this)""><div class = content><div class = numbers>Y</div></div></button><button class = clear_button id = ""ClearButton"" onclick = ""clearResponse()"">BACKSPACE</button><button class = blank_button id = ""BlankButton"" onclick = ""blankResponse()"">SKIP</button><p style=""font-size: 2.4rem""><u><b>Current Answer:</b></u></p><br><br><div id=echoed_txt style=""font-size: 5rem; color:blue;""><b></b></div></div>",enter,ospan,retrieval,jWKKXGt9Pognn9BXmkQ9be529Co2,html-keyboard-response,64,545870,0.0-43.0-0.0-2.0-4.0,NA,NA,NA,3.0,"[""N"",""Q"",""K""]","[""N"",""Q"",""K""]",1.0,3.0,"['<font color=""green"">N</font>', '<font color=""green"">Q</font>', '<font color=""green"">K</font>']",,,,,,65b7b0e4e6fa7d632205b4b6,16:17:33,04/03/2024
1301.0999999940395,"['<p style=""font-size:44px"">Letters:<br><br><br><font color=""green"">N</font> <font color=""green"">Q</font> <font color=""green"">K</font></p><br><br>']",0,ospan,practice_feedback,jWKKXGt9Pognn9BXmkQ9be529Co2,html-button-response,65,547680,0.0-43.0-0.0-2.0-5.0,,,,,,,,,,,,,,,65b7b0e4e6fa7d632205b4b6,16:17:33,04/03/2024
18010.0,"<div class = 'left_align' style='font-size: 3.25rem; line-height: 1.3;'>Now you will practice doing the <b>symmetry judgment part</b> of the experiment.<br><br>A black and white grid picture will appear on the screen and you have to judge if it is <br>symmetrical or asymetrical.<br><br>A picture is 'mirror' symmetrical if its left half is identical to the right half when flipped.<br>Here are examples of a symmetrical and an asymetrical picture:<br><br><center><img src='Stimuli/img/symm_instructions_extra.png' style='height:420px; width:900'></img></center><br>To judge symmetry, imagine you were to fold each picture down the middle, like a book –<br>would the left half match the right half when folded onto each other?<br><br></div><br>",0,ospan,instruct,jWKKXGt9Pognn9BXmkQ9be529Co2,html-button-response,66,565693,0.0-43.0-1.0-0.0-0.0,,,,,,,,,,,,,,,65b7b0e4e6fa7d632205b4b6,16:17:33,04/03/2024
3816.800000011921,"<div class = 'left_align' style='font-size: 3.25rem; line-height: 1.3;'>When you have viewed the picture and determined whether it is symmetrical or not,<br>you can <b>click the Yes or No button</b> below to answer.<br><br>If you take longer than 15 seconds, it will continue automatically<br>and record the answer as an error.</div><br>",0,ospan,instruct,jWKKXGt9Pognn9BXmkQ9be529Co2,html-button-response,67,569766,0.0-43.0-1.0-0.0-1.0,,,,,,,,,,,,,,,65b7b0e4e6fa7d632205b4b6,16:17:33,04/03/2024
4726.4000000059605,"<div class = 'left_align' style='font-size: 3.25rem; line-height: 1.3;'>It is <b>very</b> important that you make the symmetry judgment correctly.<br><br>It is also important that you try and judge the picture as quickly as you can.<br><br>When you are ready, click on the button below to try some practice problems.</div><br><br><br><br>",0,ospan,instruct,jWKKXGt9Pognn9BXmkQ9be529Co2,html-button-response,68,574754,0.0-43.0-1.0-0.0-2.0,,,,,,,,,,,,,,,65b7b0e4e6fa7d632205b4b6,16:17:33,04/03/2024
1921.0,,,ospan,symmetry,jWKKXGt9Pognn9BXmkQ9be529Co2,symmetry-judgement-task,69,577470,0.0-43.0-1.0-1.0-0.0,,,,,,,,,,1.0,1.0,,,,65b7b0e4e6fa7d632205b4b6,16:17:33,04/03/2024
,"<p style=""color:green; font-size: 35px"">Correct</p>",,ospan,feedback,jWKKXGt9Pognn9BXmkQ9be529Co2,html-keyboard-response,70,578229,0.0-43.0-1.0-1.0-1.0,,,,,,,,,,,,,,,65b7b0e4e6fa7d632205b4b6,16:17:33,04/03/2024
1870.0,,,ospan,symmetry,jWKKXGt9Pognn9BXmkQ9be529Co2,symmetry-judgement-task,71,582749,0.0-43.0-1.0-1.0-2.0,,,,,,,,,,0.0,0.0,,,,65b7b0e4e6fa7d632205b4b6,16:17:33,04/03/2024
,"<p style=""color:red; font-size: 35px"">Incorrect</p>",,ospan,feedback,jWKKXGt9Pognn9BXmkQ9be529Co2,html-keyboard-response,72,583509,0.0-43.0-1.0-1.0-3.0,,,,,,,,,,,,,,,65b7b0e4e6fa7d632205b4b6,16:17:33,04/03/2024
1780.0,,,ospan,symmetry,jWKKXGt9Pognn9BXmkQ9be529Co2,symmetry-judgement-task,73,587944,0.0-43.0-1.0-1.0-4.0,,,,,,,,,,1.0,1.0,,,,65b7b0e4e6fa7d632205b4b6,16:17:33,04/03/2024
,"<p style=""color:green; font-size: 35px"">Correct</p>",,ospan,feedback,jWKKXGt9Pognn9BXmkQ9be529Co2,html-keyboard-response,74,588704,0.0-43.0-1.0-1.0-5.0,,,,,,,,,,,,,,,65b7b0e4e6fa7d632205b4b6,16:17:33,04/03/2024
5678.800000011921,"<p style=""font-size: 3rem;"">You only responded correctly on 2 of 3 symmetry judgments.<br><br><b>In the main task, you must try harder to answer accurately.</b></p><br><br>",0,ospan,practice,jWKKXGt9Pognn9BXmkQ9be529Co2,html-button-response,75,596393,0.0-43.0-1.0-2.0,,,,,,,,,,,,,,,65b7b0e4e6fa7d632205b4b6,16:17:33,04/03/2024
15364.299999982119,"<div class = 'left_align' style='font-size: 3.25rem; line-height: 1.3;'>Now you will practice doing both parts of the experiment at the same time.<br><br>In the next practice set, you will be given one grid picture to judge.<br>Then letter will appear on the screen. Try to remember the letter.<br><br>It is <b>very important</b> to make the symmetry judgment as quickly and accurately as possible.<br><br>Just as before, once you have make the symmetry judgment, you can click Yes or No.<br><b>Note that you will no longer see Correct or Incorrect feedback.</div><br><br><br><br>",0,ospan,instruct,jWKKXGt9Pognn9BXmkQ9be529Co2,html-button-response,76,612017,0.0-43.0-2.0-0.0-0.0,,,,,,,,,,,,,,,65b7b0e4e6fa7d632205b4b6,16:17:33,04/03/2024
9292.800000011921,"<div class = 'left_align' style='font-size: 3.25rem; line-height: 1.3;'>After the letter goes away, another grid picture will appear, and then<br>another letter.<br><br>At the end of each set of letters and grids, you will recall the letters to the best<br>of your ability. Remember, try your best to get the letters in the correct order.<br><br>It is important to <b>quickly</b> and <b>accurately</b> make the symmetry judgments.</div><br><br><br><br>",0,ospan,instruct,jWKKXGt9Pognn9BXmkQ9be529Co2,html-button-response,77,621565,0.0-43.0-2.0-0.0-1.0,,,,,,,,,,,,,,,65b7b0e4e6fa7d632205b4b6,16:17:33,04/03/2024
37759.29999998212,"<div class = 'left_align' style='font-size: 3.25rem; line-height: 1.3;'>On the feedback screen, if you are not doing well at the symmetry judgments,<br>you will also see a warning in the middle. This indicates your percent <br>correct for the grid pictures for the entire experiment.<br><br>It is <b>very</b> important for you to keep accuracy at least at 85%: <u>We can only use<br>data where the participant was at least 85% accurate on the judgments.</u> Therefore,<br> please try your best to perform well on the symmetry judgments, <b>at the same time</b><br>doing your best to recall as many letters as possible.<br><br>Click the button to try some practice problems.</div><br><br><br><br>",0,ospan,instruct,jWKKXGt9Pognn9BXmkQ9be529Co2,html-button-response,78,659589,0.0-43.0-2.0-0.0-2.0,,,,,,,,,,,,,,,65b7b0e4e6fa7d632205b4b6,16:17:33,04/03/2024
,"<p style=""font-size:75px;"">...</p>",,ospan,iti,jWKKXGt9Pognn9BXmkQ9be529Co2,html-keyboard-response,79,660861,0.0-43.0-2.0-1.0-0.0,,,,,,,,,,,,,,,65b7b0e4e6fa7d632205b4b6,16:17:33,04/03/2024
2281.0,,,ospan,symmetry,jWKKXGt9Pognn9BXmkQ9be529Co2,symmetry-judgement-task,80,664277,0.0-43.0-2.0-1.0-1.0-0.0,,,,,,,,,,1.0,1.0,,,,65b7b0e4e6fa7d632205b4b6,16:17:33,04/03/2024
,"<div style=""font-size: 10rem; color: #0000FF"">H</div>",,ospan,letter,jWKKXGt9Pognn9BXmkQ9be529Co2,html-keyboard-response,81,665285,0.0-43.0-2.0-1.0-1.0-1.0,,,,,,,,,,,,,,,65b7b0e4e6fa7d632205b4b6,16:17:33,04/03/2024
1710.0,,,ospan,symmetry,jWKKXGt9Pognn9BXmkQ9be529Co2,symmetry-judgement-task,82,668887,0.0-43.0-2.0-1.0-1.0-2.0,,,,,,,,,,1.0,1.0,,,,65b7b0e4e6fa7d632205b4b6,16:17:33,04/03/2024
,"<div style=""font-size: 10rem; color: #0000FF"">C</div>",,ospan,letter,jWKKXGt9Pognn9BXmkQ9be529Co2,html-keyboard-response,83,669899,0.0-43.0-2.0-1.0-1.0-3.0,,,,,,,,,,,,,,,65b7b0e4e6fa7d632205b4b6,16:17:33,04/03/2024
1925.0,,,ospan,symmetry,jWKKXGt9Pognn9BXmkQ9be529Co2,symmetry-judgement-task,84,673727,0.0-43.0-2.0-1.0-1.0-4.0,,,,,,,,,,1.0,1.0,,,,65b7b0e4e6fa7d632205b4b6,16:17:33,04/03/2024
,"<div style=""font-size: 10rem; color: #0000FF"">K</div>",,ospan,letter,jWKKXGt9Pognn9BXmkQ9be529Co2,html-keyboard-response,85,674737,0.0-43.0-2.0-1.0-1.0-5.0,,,,,,,,,,,,,,,65b7b0e4e6fa7d632205b4b6,16:17:33,04/03/2024
3681.399999976158,"<div class = numbox><p style=""font-size: 2.4rem"">Please recall the letters you saw to the best of your ability. If you do not remember a particular letter, use the SKIP button.<br><b>(When you are ready to lock in your answer, press ENTER)</b></p><button id = button_1 class = ""square num-button"" onclick = ""recordClick(this)""><div class = content><div class = numbers>C</div></div></button><button id = button_2 class = ""square num-button"" onclick = ""recordClick(this)""><div class = content><div class = numbers>G</div></div></button><button id = button_3 class = ""square num-button"" onclick = ""recordClick(this)""><div class = content><div class = numbers>H</div></div></button><button id = button_4 class = ""square num-button"" onclick = ""recordClick(this)""><div class = content><div class = numbers>J</div></div></button><button id = button_5 class = ""square num-button"" onclick = ""recordClick(this)""><div class = content><div class = numbers>K</div></div></button><button id = button_6 class = ""square num-button"" onclick = ""recordClick(this)""><div class = content><div class = numbers>L</div></div></button><button id = button_7 class = ""square num-button"" onclick = ""recordClick(this)""><div class = content><div class = numbers>N</div></div></button><button id = button_8 class = ""square num-button"" onclick = ""recordClick(this)""><div class = content><div class = numbers>P</div></div></button><button id = button_9 class = ""square num-button"" onclick = ""recordClick(this)""><div class = content><div class = numbers>Q</div></div></button><button id = button_10 class = ""square num-button"" onclick = ""recordClick(this)""><div class = content><div class = numbers>R</div></div></button><button id = button_11 class = ""square num-button"" onclick = ""recordClick(this)""><div class = content><div class = numbers>S</div></div></button><button id = button_12 class = ""square num-button"" onclick = ""recordClick(this)""><div class = content><div class = numbers>Y</div></div></button><button class = clear_button id = ""ClearButton"" onclick = ""clearResponse()"">BACKSPACE</button><button class = blank_button id = ""BlankButton"" onclick = ""blankResponse()"">SKIP</button><p style=""font-size: 2.4rem""><u><b>Current Answer:</b></u></p><br><br><div id=echoed_txt style=""font-size: 5rem; color:blue;""><b></b></div></div>",enter,ospan,retrieval,jWKKXGt9Pognn9BXmkQ9be529Co2,html-keyboard-response,86,679180,0.0-43.0-2.0-1.0-2.0-0.0,NA,NA,NA,3.0,"[""H"",""C"",""K""]","[""H"",""C"",""K""]",1.0,3.0,"['<font color=""green"">H</font>', '<font color=""green"">C</font>', '<font color=""green"">K</font>']",,,,,,65b7b0e4e6fa7d632205b4b6,16:17:33,04/03/2024
1356.9000000059605,"['<p style=""font-size:44px"">Letters:<br><br><br><font color=""green"">H</font> <font color=""green"">C</font> <font color=""green"">K</font></p><br><br><p style=""font-size:30px"">Symmetry:<br><br><font color=""green"">100%</font></p><br><br>']",0,ospan,practice_feedback,jWKKXGt9Pognn9BXmkQ9be529Co2,html-button-response,87,681049,0.0-43.0-2.0-1.0-2.0-1.0,,,,,,,,,,,,,,,65b7b0e4e6fa7d632205b4b6,16:17:33,04/03/2024
,"<p style=""font-size:75px;"">...</p>",,ospan,iti,jWKKXGt9Pognn9BXmkQ9be529Co2,html-keyboard-response,88,682065,0.0-43.0-2.0-2.0-0.0,,,,,,,,,,,,,,,65b7b0e4e6fa7d632205b4b6,16:17:33,04/03/2024
3188.0,,,ospan,symmetry,jWKKXGt9Pognn9BXmkQ9be529Co2,symmetry-judgement-task,89,686381,0.0-43.0-2.0-2.0-1.0-0.0,,,,,,,,,,1.0,1.0,,,,65b7b0e4e6fa7d632205b4b6,16:17:33,04/03/2024
,"<div style=""font-size: 10rem; color: #0000FF"">N</div>",,ospan,letter,jWKKXGt9Pognn9BXmkQ9be529Co2,html-keyboard-response,90,687389,0.0-43.0-2.0-2.0-1.0-1.0,,,,,,,,,,,,,,,65b7b0e4e6fa7d632205b4b6,16:17:33,04/03/2024
2456.0,,,ospan,symmetry,jWKKXGt9Pognn9BXmkQ9be529Co2,symmetry-judgement-task,91,691730,0.0-43.0-2.0-2.0-1.0-2.0,,,,,,,,,,1.0,1.0,,,,65b7b0e4e6fa7d632205b4b6,16:17:33,04/03/2024
,"<div style=""font-size: 10rem; color: #0000FF"">Y</div>",,ospan,letter,jWKKXGt9Pognn9BXmkQ9be529Co2,html-keyboard-response,92,692740,0.0-43.0-2.0-2.0-1.0-3.0,,,,,,,,,,,,,,,65b7b0e4e6fa7d632205b4b6,16:17:33,04/03/2024
2861.0,,,ospan,symmetry,jWKKXGt9Pognn9BXmkQ9be529Co2,symmetry-judgement-task,93,697491,0.0-43.0-2.0-2.0-1.0-4.0,,,,,,,,,,1.0,1.0,,,,65b7b0e4e6fa7d632205b4b6,16:17:33,04/03/2024
,"<div style=""font-size: 10rem; color: #0000FF"">C</div>",,ospan,letter,jWKKXGt9Pognn9BXmkQ9be529Co2,html-keyboard-response,94,698499,0.0-43.0-2.0-2.0-1.0-5.0,,,,,,,,,,,,,,,65b7b0e4e6fa7d632205b4b6,16:17:33,04/03/2024
3826.2999999821186,"<div class = numbox><p style=""font-size: 2.4rem"">Please recall the letters you saw to the best of your ability. If you do not remember a particular letter, use the SKIP button.<br><b>(When you are ready to lock in your answer, press ENTER)</b></p><button id = button_1 class = ""square num-button"" onclick = ""recordClick(this)""><div class = content><div class = numbers>C</div></div></button><button id = button_2 class = ""square num-button"" onclick = ""recordClick(this)""><div class = content><div class = numbers>G</div></div></button><button id = button_3 class = ""square num-button"" onclick = ""recordClick(this)""><div class = content><div class = numbers>H</div></div></button><button id = button_4 class = ""square num-button"" onclick = ""recordClick(this)""><div class = content><div class = numbers>J</div></div></button><button id = button_5 class = ""square num-button"" onclick = ""recordClick(this)""><div class = content><div class = numbers>K</div></div></button><button id = button_6 class = ""square num-button"" onclick = ""recordClick(this)""><div class = content><div class = numbers>L</div></div></button><button id = button_7 class = ""square num-button"" onclick = ""recordClick(this)""><div class = content><div class = numbers>N</div></div></button><button id = button_8 class = ""square num-button"" onclick = ""recordClick(this)""><div class = content><div class = numbers>P</div></div></button><button id = button_9 class = ""square num-button"" onclick = ""recordClick(this)""><div class = content><div class = numbers>Q</div></div></button><button id = button_10 class = ""square num-button"" onclick = ""recordClick(this)""><div class = content><div class = numbers>R</div></div></button><button id = button_11 class = ""square num-button"" onclick = ""recordClick(this)""><div class = content><div class = numbers>S</div></div></button><button id = button_12 class = ""square num-button"" onclick = ""recordClick(this)""><div class = content><div class = numbers>Y</div></div></button><button class = clear_button id = ""ClearButton"" onclick = ""clearResponse()"">BACKSPACE</button><button class = blank_button id = ""BlankButton"" onclick = ""blankResponse()"">SKIP</button><p style=""font-size: 2.4rem""><u><b>Current Answer:</b></u></p><br><br><div id=echoed_txt style=""font-size: 5rem; color:blue;""><b></b></div></div>",enter,ospan,retrieval,jWKKXGt9Pognn9BXmkQ9be529Co2,html-keyboard-response,95,703085,0.0-43.0-2.0-2.0-2.0-0.0,NA,NA,NA,3.0,"[""N"",""Y"",""C""]","[""N"",""Y"",""C""]",1.0,3.0,"['<font color=""green"">N</font>', '<font color=""green"">Y</font>', '<font color=""green"">C</font>']",,,,,,65b7b0e4e6fa7d632205b4b6,16:17:33,04/03/2024
1292.300000011921,"['<p style=""font-size:44px"">Letters:<br><br><br><font color=""green"">N</font> <font color=""green"">Y</font> <font color=""green"">C</font></p><br><br><p style=""font-size:30px"">Symmetry:<br><br><font color=""green"">100%</font></p><br><br>']",0,ospan,practice_feedback,jWKKXGt9Pognn9BXmkQ9be529Co2,html-button-response,96,704893,0.0-43.0-2.0-2.0-2.0-1.0,,,,,,,,,,,,,,,65b7b0e4e6fa7d632205b4b6,16:17:33,04/03/2024
29510.09999999404,"<div class = 'left_align' style='font-size: 3rem; line-height: 1.3;'><b>Great work! That is the end of practice.</b><br><br>The real trials will look just like the practice trials you just completed.<br><br><u>Here, you will not see feedback</u>. First, you will see an grid picture to judge,<br>then a letter to remember. When the recall screen appears, report the letters in the<br>order presented. If you forget a letter, remember to use the <b>blank</b> button to move to the<br>next letter. Some of the sets will have more symmetry grids and letters than others.<br><br>It is important that you do your best on both the symmetry judgments and the letter recall<br>parts of the experiment. For for the symmetry judgments, try to work as <b>quickly</b> and <br>as <b>accurately</b> as possible. Remember to keep your symmetry accuracy at 85% or above.<br><br><b>For the letters, do NOT use any external aid (e.g., writing on paper, electronic device).</b><br><br>It is <u>very important</u> to our experiment to have a <b>true</b> view of your real performance.<br><br>Do not worry if you miss some when it gets hard! This task is meant to be very challenging!<br><br>Click the button to begin.</div><br><br><br><br>",0,ospan,starting_real_here,jWKKXGt9Pognn9BXmkQ9be529Co2,html-button-response,97,734405,0.0-43.0-2.0-3.0,,,,,,,,,,,,,,,65b7b0e4e6fa7d632205b4b6,16:17:33,04/03/2024
,"<p style=""font-size:75px;"">...</p>",,ospan,iti,jWKKXGt9Pognn9BXmkQ9be529Co2,html-keyboard-response,98,735673,0.0-43.0-3.0-0.0-0.0,,,,,,,,,,,,,,,65b7b0e4e6fa7d632205b4b6,16:17:33,04/03/2024
1565.0,,,ospan,symmetry,jWKKXGt9Pognn9BXmkQ9be529Co2,symmetry-judgement-task,99,738371,0.0-43.0-3.0-0.0-1.0-0.0,,,,,,,,,,1.0,1.0,,,,65b7b0e4e6fa7d632205b4b6,16:17:33,04/03/2024
,"<div style=""font-size: 10rem; color: #0000FF"">Q</div>",,ospan,letter,jWKKXGt9Pognn9BXmkQ9be529Co2,html-keyboard-response,100,739382,0.0-43.0-3.0-0.0-1.0-1.0,,,,,,,,,,,,,,,65b7b0e4e6fa7d632205b4b6,16:17:33,04/03/2024
1888.0,,,ospan,symmetry,jWKKXGt9Pognn9BXmkQ9be529Co2,symmetry-judgement-task,101,743154,0.0-43.0-3.0-0.0-1.0-2.0,,,,,,,,,,1.0,1.0,,,,65b7b0e4e6fa7d632205b4b6,16:17:33,04/03/2024
,"<div style=""font-size: 10rem; color: #0000FF"">L</div>",,ospan,letter,jWKKXGt9Pognn9BXmkQ9be529Co2,html-keyboard-response,102,744165,0.0-43.0-3.0-0.0-1.0-3.0,,,,,,,,,,,,,,,65b7b0e4e6fa7d632205b4b6,16:17:33,04/03/2024
1521.0,,,ospan,symmetry,jWKKXGt9Pognn9BXmkQ9be529Co2,symmetry-judgement-task,103,747573,0.0-43.0-3.0-0.0-1.0-4.0,,,,,,,,,,1.0,1.0,,,,65b7b0e4e6fa7d632205b4b6,16:17:33,04/03/2024
,"<div style=""font-size: 10rem; color: #0000FF"">Y</div>",,ospan,letter,jWKKXGt9Pognn9BXmkQ9be529Co2,html-keyboard-response,104,748580,0.0-43.0-3.0-0.0-1.0-5.0,,,,,,,,,,,,,,,65b7b0e4e6fa7d632205b4b6,16:17:33,04/03/2024
2887.399999976158,"<div class = numbox><p style=""font-size: 2.4rem"">Please recall the letters you saw to the best of your ability. If you do not remember a particular letter, use the SKIP button.<br><b>(When you are ready to lock in your answer, press ENTER)</b></p><button id = button_1 class = ""square num-button"" onclick = ""recordClick(this)""><div class = content><div class = numbers>C</div></div></button><button id = button_2 class = ""square num-button"" onclick = ""recordClick(this)""><div class = content><div class = numbers>G</div></div></button><button id = button_3 class = ""square num-button"" onclick = ""recordClick(this)""><div class = content><div class = numbers>H</div></div></button><button id = button_4 class = ""square num-button"" onclick = ""recordClick(this)""><div class = content><div class = numbers>J</div></div></button><button id = button_5 class = ""square num-button"" onclick = ""recordClick(this)""><div class = content><div class = numbers>K</div></div></button><button id = button_6 class = ""square num-button"" onclick = ""recordClick(this)""><div class = content><div class = numbers>L</div></div></button><button id = button_7 class = ""square num-button"" onclick = ""recordClick(this)""><div class = content><div class = numbers>N</div></div></button><button id = button_8 class = ""square num-button"" onclick = ""recordClick(this)""><div class = content><div class = numbers>P</div></div></button><button id = button_9 class = ""square num-button"" onclick = ""recordClick(this)""><div class = content><div class = numbers>Q</div></div></button><button id = button_10 class = ""square num-button"" onclick = ""recordClick(this)""><div class = content><div class = numbers>R</div></div></button><button id = button_11 class = ""square num-button"" onclick = ""recordClick(this)""><div class = content><div class = numbers>S</div></div></button><button id = button_12 class = ""square num-button"" onclick = ""recordClick(this)""><div class = content><div class = numbers>Y</div></div></button><button class = clear_button id = ""ClearButton"" onclick = ""clearResponse()"">BACKSPACE</button><button class = blank_button id = ""BlankButton"" onclick = ""blankResponse()"">SKIP</button><p style=""font-size: 2.4rem""><u><b>Current Answer:</b></u></p><br><br><div id=echoed_txt style=""font-size: 5rem; color:blue;""><b></b></div></div>",enter,ospan,retrieval,jWKKXGt9Pognn9BXmkQ9be529Co2,html-keyboard-response,105,752231,0.0-43.0-3.0-0.0-2.0,3,3,3,3.0,"[""Q"",""L"",""Y""]","[""Q"",""L"",""Y""]",1.0,3.0,,,,,,,65b7b0e4e6fa7d632205b4b6,16:17:33,04/03/2024
1429.4000000059605,[''],0,ospan,feedback,jWKKXGt9Pognn9BXmkQ9be529Co2,html-button-response,106,754174,0.0-43.0-3.0-0.0-3.0,,,,,,,,,,,,100.0,0.0,,65b7b0e4e6fa7d632205b4b6,16:17:33,04/03/2024
,"<p style=""font-size:75px;"">...</p>",,ospan,iti,jWKKXGt9Pognn9BXmkQ9be529Co2,html-keyboard-response,107,755179,0.0-43.0-4.0-0.0-0.0,,,,,,,,,,,,,,,65b7b0e4e6fa7d632205b4b6,16:17:33,04/03/2024
2080.0,,,ospan,symmetry,jWKKXGt9Pognn9BXmkQ9be529Co2,symmetry-judgement-task,108,758387,0.0-43.0-4.0-0.0-1.0-0.0,,,,,,,,,,1.0,1.0,,,,65b7b0e4e6fa7d632205b4b6,16:17:33,04/03/2024
,"<div style=""font-size: 10rem; color: #0000FF"">C</div>",,ospan,letter,jWKKXGt9Pognn9BXmkQ9be529Co2,html-keyboard-response,109,759396,0.0-43.0-4.0-0.0-1.0-1.0,,,,,,,,,,,,,,,65b7b0e4e6fa7d632205b4b6,16:17:33,04/03/2024
1159.0,,,ospan,symmetry,jWKKXGt9Pognn9BXmkQ9be529Co2,symmetry-judgement-task,110,762459,0.0-43.0-4.0-0.0-1.0-2.0,,,,,,,,,,1.0,1.0,,,,65b7b0e4e6fa7d632205b4b6,16:17:33,04/03/2024
,"<div style=""font-size: 10rem; color: #0000FF"">Q</div>",,ospan,letter,jWKKXGt9Pognn9BXmkQ9be529Co2,html-keyboard-response,111,763465,0.0-43.0-4.0-0.0-1.0-3.0,,,,,,,,,,,,,,,65b7b0e4e6fa7d632205b4b6,16:17:33,04/03/2024
1218.0,,,ospan,symmetry,jWKKXGt9Pognn9BXmkQ9be529Co2,symmetry-judgement-task,112,766569,0.0-43.0-4.0-0.0-1.0-4.0,,,,,,,,,,1.0,1.0,,,,65b7b0e4e6fa7d632205b4b6,16:17:33,04/03/2024
,"<div style=""font-size: 10rem; color: #0000FF"">L</div>",,ospan,letter,jWKKXGt9Pognn9BXmkQ9be529Co2,html-keyboard-response,113,767576,0.0-43.0-4.0-0.0-1.0-5.0,,,,,,,,,,,,,,,65b7b0e4e6fa7d632205b4b6,16:17:33,04/03/2024
2648.0,,,ospan,symmetry,jWKKXGt9Pognn9BXmkQ9be529Co2,symmetry-judgement-task,114,772114,0.0-43.0-4.0-0.0-1.0-6.0,,,,,,,,,,1.0,1.0,,,,65b7b0e4e6fa7d632205b4b6,16:17:33,04/03/2024
,"<div style=""font-size: 10rem; color: #0000FF"">G</div>",,ospan,letter,jWKKXGt9Pognn9BXmkQ9be529Co2,html-keyboard-response,115,773120,0.0-43.0-4.0-0.0-1.0-7.0,,,,,,,,,,,,,,,65b7b0e4e6fa7d632205b4b6,16:17:33,04/03/2024
3560.5,"<div class = numbox><p style=""font-size: 2.4rem"">Please recall the letters you saw to the best of your ability. If you do not remember a particular letter, use the SKIP button.<br><b>(When you are ready to lock in your answer, press ENTER)</b></p><button id = button_1 class = ""square num-button"" onclick = ""recordClick(this)""><div class = content><div class = numbers>C</div></div></button><button id = button_2 class = ""square num-button"" onclick = ""recordClick(this)""><div class = content><div class = numbers>G</div></div></button><button id = button_3 class = ""square num-button"" onclick = ""recordClick(this)""><div class = content><div class = numbers>H</div></div></button><button id = button_4 class = ""square num-button"" onclick = ""recordClick(this)""><div class = content><div class = numbers>J</div></div></button><button id = button_5 class = ""square num-button"" onclick = ""recordClick(this)""><div class = content><div class = numbers>K</div></div></button><button id = button_6 class = ""square num-button"" onclick = ""recordClick(this)""><div class = content><div class = numbers>L</div></div></button><button id = button_7 class = ""square num-button"" onclick = ""recordClick(this)""><div class = content><div class = numbers>N</div></div></button><button id = button_8 class = ""square num-button"" onclick = ""recordClick(this)""><div class = content><div class = numbers>P</div></div></button><button id = button_9 class = ""square num-button"" onclick = ""recordClick(this)""><div class = content><div class = numbers>Q</div></div></button><button id = button_10 class = ""square num-button"" onclick = ""recordClick(this)""><div class = content><div class = numbers>R</div></div></button><button id = button_11 class = ""square num-button"" onclick = ""recordClick(this)""><div class = content><div class = numbers>S</div></div></button><button id = button_12 class = ""square num-button"" onclick = ""recordClick(this)""><div class = content><div class = numbers>Y</div></div></button><button class = clear_button id = ""ClearButton"" onclick = ""clearResponse()"">BACKSPACE</button><button class = blank_button id = ""BlankButton"" onclick = ""blankResponse()"">SKIP</button><p style=""font-size: 2.4rem""><u><b>Current Answer:</b></u></p><br><br><div id=echoed_txt style=""font-size: 5rem; color:blue;""><b></b></div></div>",enter,ospan,retrieval,jWKKXGt9Pognn9BXmkQ9be529Co2,html-keyboard-response,116,777435,0.0-43.0-4.0-0.0-2.0,7,7,7,4.0,"[""C"",""Q"",""L"",""G""]","[""C"",""Q"",""L"",""G""]",1.0,4.0,,,,,,,65b7b0e4e6fa7d632205b4b6,16:17:33,04/03/2024
576.2000000178814,[''],0,ospan,feedback,jWKKXGt9Pognn9BXmkQ9be529Co2,html-button-response,117,778520,0.0-43.0-4.0-0.0-3.0,,,,,,,,,,,,100.0,0.0,,65b7b0e4e6fa7d632205b4b6,16:17:33,04/03/2024
,"<p style=""font-size:75px;"">...</p>",,ospan,iti,jWKKXGt9Pognn9BXmkQ9be529Co2,html-keyboard-response,118,779526,0.0-43.0-4.0-1.0-0.0,,,,,,,,,,,,,,,65b7b0e4e6fa7d632205b4b6,16:17:33,04/03/2024
2059.0,,,ospan,symmetry,jWKKXGt9Pognn9BXmkQ9be529Co2,symmetry-judgement-task,119,782615,0.0-43.0-4.0-1.0-1.0-0.0,,,,,,,,,,1.0,1.0,,,,65b7b0e4e6fa7d632205b4b6,16:17:33,04/03/2024
,"<div style=""font-size: 10rem; color: #0000FF"">J</div>",,ospan,letter,jWKKXGt9Pognn9BXmkQ9be529Co2,html-keyboard-response,120,783626,0.0-43.0-4.0-1.0-1.0-1.0,,,,,,,,,,,,,,,65b7b0e4e6fa7d632205b4b6,16:17:33,04/03/2024
1876.0,,,ospan,symmetry,jWKKXGt9Pognn9BXmkQ9be529Co2,symmetry-judgement-task,121,787411,0.0-43.0-4.0-1.0-1.0-2.0,,,,,,,,,,1.0,1.0,,,,65b7b0e4e6fa7d632205b4b6,16:17:33,04/03/2024
,"<div style=""font-size: 10rem; color: #0000FF"">S</div>",,ospan,letter,jWKKXGt9Pognn9BXmkQ9be529Co2,html-keyboard-response,122,788422,0.0-43.0-4.0-1.0-1.0-3.0,,,,,,,,,,,,,,,65b7b0e4e6fa7d632205b4b6,16:17:33,04/03/2024
2120.0,,,ospan,symmetry,jWKKXGt9Pognn9BXmkQ9be529Co2,symmetry-judgement-task,123,792421,0.0-43.0-4.0-1.0-1.0-4.0,,,,,,,,,,1.0,1.0,,,,65b7b0e4e6fa7d632205b4b6,16:17:33,04/03/2024
,"<div style=""font-size: 10rem; color: #0000FF"">G</div>",,ospan,letter,jWKKXGt9Pognn9BXmkQ9be529Co2,html-keyboard-response,124,793427,0.0-43.0-4.0-1.0-1.0-5.0,,,,,,,,,,,,,,,65b7b0e4e6fa7d632205b4b6,16:17:33,04/03/2024
3722.9000000059605,"<div class = numbox><p style=""font-size: 2.4rem"">Please recall the letters you saw to the best of your ability. If you do not remember a particular letter, use the SKIP button.<br><b>(When you are ready to lock in your answer, press ENTER)</b></p><button id = button_1 class = ""square num-button"" onclick = ""recordClick(this)""><div class = content><div class = numbers>C</div></div></button><button id = button_2 class = ""square num-button"" onclick = ""recordClick(this)""><div class = content><div class = numbers>G</div></div></button><button id = button_3 class = ""square num-button"" onclick = ""recordClick(this)""><div class = content><div class = numbers>H</div></div></button><button id = button_4 class = ""square num-button"" onclick = ""recordClick(this)""><div class = content><div class = numbers>J</div></div></button><button id = button_5 class = ""square num-button"" onclick = ""recordClick(this)""><div class = content><div class = numbers>K</div></div></button><button id = button_6 class = ""square num-button"" onclick = ""recordClick(this)""><div class = content><div class = numbers>L</div></div></button><button id = button_7 class = ""square num-button"" onclick = ""recordClick(this)""><div class = content><div class = numbers>N</div></div></button><button id = button_8 class = ""square num-button"" onclick = ""recordClick(this)""><div class = content><div class = numbers>P</div></div></button><button id = button_9 class = ""square num-button"" onclick = ""recordClick(this)""><div class = content><div class = numbers>Q</div></div></button><button id = button_10 class = ""square num-button"" onclick = ""recordClick(this)""><div class = content><div class = numbers>R</div></div></button><button id = button_11 class = ""square num-button"" onclick = ""recordClick(this)""><div class = content><div class = numbers>S</div></div></button><button id = button_12 class = ""square num-button"" onclick = ""recordClick(this)""><div class = content><div class = numbers>Y</div></div></button><button class = clear_button id = ""ClearButton"" onclick = ""clearResponse()"">BACKSPACE</button><button class = blank_button id = ""BlankButton"" onclick = ""blankResponse()"">SKIP</button><p style=""font-size: 2.4rem""><u><b>Current Answer:</b></u></p><br><br><div id=echoed_txt style=""font-size: 5rem; color:blue;""><b></b></div></div>",enter,ospan,retrieval,jWKKXGt9Pognn9BXmkQ9be529Co2,html-keyboard-response,125,797908,0.0-43.0-4.0-1.0-2.0,10,10,10,3.0,"[""J"",""S"",""G""]","[""J"",""S"",""G""]",1.0,3.0,,,,,,,65b7b0e4e6fa7d632205b4b6,16:17:33,04/03/2024
828.1000000238419,[''],0,ospan,feedback,jWKKXGt9Pognn9BXmkQ9be529Co2,html-button-response,126,799246,0.0-43.0-4.0-1.0-3.0,,,,,,,,,,,,100.0,0.0,,65b7b0e4e6fa7d632205b4b6,16:17:33,04/03/2024
,"<p style=""font-size:75px;"">...</p>",,ospan,iti,jWKKXGt9Pognn9BXmkQ9be529Co2,html-keyboard-response,127,800260,0.0-43.0-4.0-2.0-0.0,,,,,,,,,,,,,,,65b7b0e4e6fa7d632205b4b6,16:17:33,04/03/2024
1392.0,,,ospan,symmetry,jWKKXGt9Pognn9BXmkQ9be529Co2,symmetry-judgement-task,128,802788,0.0-43.0-4.0-2.0-1.0-0.0,,,,,,,,,,1.0,1.0,,,,65b7b0e4e6fa7d632205b4b6,16:17:33,04/03/2024
,"<div style=""font-size: 10rem; color: #0000FF"">P</div>",,ospan,letter,jWKKXGt9Pognn9BXmkQ9be529Co2,html-keyboard-response,129,803794,0.0-43.0-4.0-2.0-1.0-1.0,,,,,,,,,,,,,,,65b7b0e4e6fa7d632205b4b6,16:17:33,04/03/2024
1489.0,,,ospan,symmetry,jWKKXGt9Pognn9BXmkQ9be529Co2,symmetry-judgement-task,130,807175,0.0-43.0-4.0-2.0-1.0-2.0,,,,,,,,,,1.0,1.0,,,,65b7b0e4e6fa7d632205b4b6,16:17:33,04/03/2024
,"<div style=""font-size: 10rem; color: #0000FF"">N</div>",,ospan,letter,jWKKXGt9Pognn9BXmkQ9be529Co2,html-keyboard-response,131,808184,0.0-43.0-4.0-2.0-1.0-3.0,,,,,,,,,,,,,,,65b7b0e4e6fa7d632205b4b6,16:17:33,04/03/2024
1919.0,,,ospan,symmetry,jWKKXGt9Pognn9BXmkQ9be529Co2,symmetry-judgement-task,132,811997,0.0-43.0-4.0-2.0-1.0-4.0,,,,,,,,,,0.0,0.0,,,,65b7b0e4e6fa7d632205b4b6,16:17:33,04/03/2024
,"<div style=""font-size: 10rem; color: #0000FF"">H</div>",,ospan,letter,jWKKXGt9Pognn9BXmkQ9be529Co2,html-keyboard-response,133,813011,0.0-43.0-4.0-2.0-1.0-5.0,,,,,,,,,,,,,,,65b7b0e4e6fa7d632205b4b6,16:17:33,04/03/2024
1517.0,,,ospan,symmetry,jWKKXGt9Pognn9BXmkQ9be529Co2,symmetry-judgement-task,134,816426,0.0-43.0-4.0-2.0-1.0-6.0,,,,,,,,,,1.0,1.0,,,,65b7b0e4e6fa7d632205b4b6,16:17:33,04/03/2024
,"<div style=""font-size: 10rem; color: #0000FF"">K</div>",,ospan,letter,jWKKXGt9Pognn9BXmkQ9be529Co2,html-keyboard-response,135,817436,0.0-43.0-4.0-2.0-1.0-7.0,,,,,,,,,,,,,,,65b7b0e4e6fa7d632205b4b6,16:17:33,04/03/2024
1666.0,,,ospan,symmetry,jWKKXGt9Pognn9BXmkQ9be529Co2,symmetry-judgement-task,136,821004,0.0-43.0-4.0-2.0-1.0-8.0,,,,,,,,,,1.0,1.0,,,,65b7b0e4e6fa7d632205b4b6,16:17:33,04/03/2024
,"<div style=""font-size: 10rem; color: #0000FF"">R</div>",,ospan,letter,jWKKXGt9Pognn9BXmkQ9be529Co2,html-keyboard-response,137,822014,0.0-43.0-4.0-2.0-1.0-9.0,,,,,,,,,,,,,,,65b7b0e4e6fa7d632205b4b6,16:17:33,04/03/2024
4427.9000000059605,"<div class = numbox><p style=""font-size: 2.4rem"">Please recall the letters you saw to the best of your ability. If you do not remember a particular letter, use the SKIP button.<br><b>(When you are ready to lock in your answer, press ENTER)</b></p><button id = button_1 class = ""square num-button"" onclick = ""recordClick(this)""><div class = content><div class = numbers>C</div></div></button><button id = button_2 class = ""square num-button"" onclick = ""recordClick(this)""><div class = content><div class = numbers>G</div></div></button><button id = button_3 class = ""square num-button"" onclick = ""recordClick(this)""><div class = content><div class = numbers>H</div></div></button><button id = button_4 class = ""square num-button"" onclick = ""recordClick(this)""><div class = content><div class = numbers>J</div></div></button><button id = button_5 class = ""square num-button"" onclick = ""recordClick(this)""><div class = content><div class = numbers>K</div></div></button><button id = button_6 class = ""square num-button"" onclick = ""recordClick(this)""><div class = content><div class = numbers>L</div></div></button><button id = button_7 class = ""square num-button"" onclick = ""recordClick(this)""><div class = content><div class = numbers>N</div></div></button><button id = button_8 class = ""square num-button"" onclick = ""recordClick(this)""><div class = content><div class = numbers>P</div></div></button><button id = button_9 class = ""square num-button"" onclick = ""recordClick(this)""><div class = content><div class = numbers>Q</div></div></button><button id = button_10 class = ""square num-button"" onclick = ""recordClick(this)""><div class = content><div class = numbers>R</div></div></button><button id = button_11 class = ""square num-button"" onclick = ""recordClick(this)""><div class = content><div class = numbers>S</div></div></button><button id = button_12 class = ""square num-button"" onclick = ""recordClick(this)""><div class = content><div class = numbers>Y</div></div></button><button class = clear_button id = ""ClearButton"" onclick = ""clearResponse()"">BACKSPACE</button><button class = blank_button id = ""BlankButton"" onclick = ""blankResponse()"">SKIP</button><p style=""font-size: 2.4rem""><u><b>Current Answer:</b></u></p><br><br><div id=echoed_txt style=""font-size: 5rem; color:blue;""><b></b></div></div>",enter,ospan,retrieval,jWKKXGt9Pognn9BXmkQ9be529Co2,html-keyboard-response,138,827201,0.0-43.0-4.0-2.0-2.0,15,15,15,5.0,"[""P"",""N"",""H"",""K"",""R""]","[""P"",""N"",""H"",""K"",""R""]",1.0,5.0,,,,,,,65b7b0e4e6fa7d632205b4b6,16:17:33,04/03/2024
931.5,[''],0,ospan,feedback,jWKKXGt9Pognn9BXmkQ9be529Co2,html-button-response,139,828647,0.0-43.0-4.0-2.0-3.0,,,,,,,,,,,,93.0,0.0,,65b7b0e4e6fa7d632205b4b6,16:17:33,04/03/2024
,"<p style=""font-size:75px;"">...</p>",,ospan,iti,jWKKXGt9Pognn9BXmkQ9be529Co2,html-keyboard-response,140,829653,0.0-43.0-5.0-0.0-0.0,,,,,,,,,,,,,,,65b7b0e4e6fa7d632205b4b6,16:17:33,04/03/2024
1356.0,,,ospan,symmetry,jWKKXGt9Pognn9BXmkQ9be529Co2,symmetry-judgement-task,141,832138,0.0-43.0-5.0-0.0-1.0-0.0,,,,,,,,,,1.0,1.0,,,,65b7b0e4e6fa7d632205b4b6,16:17:33,04/03/2024
,"<div style=""font-size: 10rem; color: #0000FF"">J</div>",,ospan,letter,jWKKXGt9Pognn9BXmkQ9be529Co2,html-keyboard-response,142,833144,0.0-43.0-5.0-0.0-1.0-1.0,,,,,,,,,,,,,,,65b7b0e4e6fa7d632205b4b6,16:17:33,04/03/2024
1195.0,,,ospan,symmetry,jWKKXGt9Pognn9BXmkQ9be529Co2,symmetry-judgement-task,143,836222,0.0-43.0-5.0-0.0-1.0-2.0,,,,,,,,,,1.0,1.0,,,,65b7b0e4e6fa7d632205b4b6,16:17:33,04/03/2024
,"<div style=""font-size: 10rem; color: #0000FF"">C</div>",,ospan,letter,jWKKXGt9Pognn9BXmkQ9be529Co2,html-keyboard-response,144,837229,0.0-43.0-5.0-0.0-1.0-3.0,,,,,,,,,,,,,,,65b7b0e4e6fa7d632205b4b6,16:17:33,04/03/2024
1313.0,,,ospan,symmetry,jWKKXGt9Pognn9BXmkQ9be529Co2,symmetry-judgement-task,145,840443,0.0-43.0-5.0-0.0-1.0-4.0,,,,,,,,,,1.0,1.0,,,,65b7b0e4e6fa7d632205b4b6,16:17:33,04/03/2024
,"<div style=""font-size: 10rem; color: #0000FF"">L</div>",,ospan,letter,jWKKXGt9Pognn9BXmkQ9be529Co2,html-keyboard-response,146,841454,0.0-43.0-5.0-0.0-1.0-5.0,,,,,,,,,,,,,,,65b7b0e4e6fa7d632205b4b6,16:17:33,04/03/2024
1128.0,,,ospan,symmetry,jWKKXGt9Pognn9BXmkQ9be529Co2,symmetry-judgement-task,147,844487,0.0-43.0-5.0-0.0-1.0-6.0,,,,,,,,,,1.0,1.0,,,,65b7b0e4e6fa7d632205b4b6,16:17:33,04/03/2024
,"<div style=""font-size: 10rem; color: #0000FF"">Y</div>",,ospan,letter,jWKKXGt9Pognn9BXmkQ9be529Co2,html-keyboard-response,148,845495,0.0-43.0-5.0-0.0-1.0-7.0,,,,,,,,,,,,,,,65b7b0e4e6fa7d632205b4b6,16:17:33,04/03/2024
1026.0,,,ospan,symmetry,jWKKXGt9Pognn9BXmkQ9be529Co2,symmetry-judgement-task,149,848420,0.0-43.0-5.0-0.0-1.0-8.0,,,,,,,,,,0.0,0.0,,,,65b7b0e4e6fa7d632205b4b6,16:17:33,04/03/2024
,"<div style=""font-size: 10rem; color: #0000FF"">R</div>",,ospan,letter,jWKKXGt9Pognn9BXmkQ9be529Co2,html-keyboard-response,150,849432,0.0-43.0-5.0-0.0-1.0-9.0,,,,,,,,,,,,,,,65b7b0e4e6fa7d632205b4b6,16:17:33,04/03/2024
1241.0,,,ospan,symmetry,jWKKXGt9Pognn9BXmkQ9be529Co2,symmetry-judgement-task,151,852560,0.0-43.0-5.0-0.0-1.0-10.0,,,,,,,,,,1.0,1.0,,,,65b7b0e4e6fa7d632205b4b6,16:17:33,04/03/2024
,"<div style=""font-size: 10rem; color: #0000FF"">S</div>",,ospan,letter,jWKKXGt9Pognn9BXmkQ9be529Co2,html-keyboard-response,152,853571,0.0-43.0-5.0-0.0-1.0-11.0,,,,,,,,,,,,,,,65b7b0e4e6fa7d632205b4b6,16:17:33,04/03/2024
5451.199999988079,"<div class = numbox><p style=""font-size: 2.4rem"">Please recall the letters you saw to the best of your ability. If you do not remember a particular letter, use the SKIP button.<br><b>(When you are ready to lock in your answer, press ENTER)</b></p><button id = button_1 class = ""square num-button"" onclick = ""recordClick(this)""><div class = content><div class = numbers>C</div></div></button><button id = button_2 class = ""square num-button"" onclick = ""recordClick(this)""><div class = content><div class = numbers>G</div></div></button><button id = button_3 class = ""square num-button"" onclick = ""recordClick(this)""><div class = content><div class = numbers>H</div></div></button><button id = button_4 class = ""square num-button"" onclick = ""recordClick(this)""><div class = content><div class = numbers>J</div></div></button><button id = button_5 class = ""square num-button"" onclick = ""recordClick(this)""><div class = content><div class = numbers>K</div></div></button><button id = button_6 class = ""square num-button"" onclick = ""recordClick(this)""><div class = content><div class = numbers>L</div></div></button><button id = button_7 class = ""square num-button"" onclick = ""recordClick(this)""><div class = content><div class = numbers>N</div></div></button><button id = button_8 class = ""square num-button"" onclick = ""recordClick(this)""><div class = content><div class = numbers>P</div></div></button><button id = button_9 class = ""square num-button"" onclick = ""recordClick(this)""><div class = content><div class = numbers>Q</div></div></button><button id = button_10 class = ""square num-button"" onclick = ""recordClick(this)""><div class = content><div class = numbers>R</div></div></button><button id = button_11 class = ""square num-button"" onclick = ""recordClick(this)""><div class = content><div class = numbers>S</div></div></button><button id = button_12 class = ""square num-button"" onclick = ""recordClick(this)""><div class = content><div class = numbers>Y</div></div></button><button class = clear_button id = ""ClearButton"" onclick = ""clearResponse()"">BACKSPACE</button><button class = blank_button id = ""BlankButton"" onclick = ""blankResponse()"">SKIP</button><p style=""font-size: 2.4rem""><u><b>Current Answer:</b></u></p><br><br><div id=echoed_txt style=""font-size: 5rem; color:blue;""><b></b></div></div>",enter,ospan,retrieval,jWKKXGt9Pognn9BXmkQ9be529Co2,html-keyboard-response,153,859784,0.0-43.0-5.0-0.0-2.0,21,21,21,6.0,"[""J"",""C"",""L"",""Y"",""R"",""S""]","[""J"",""C"",""L"",""Y"",""R"",""S""]",1.0,6.0,,,,,,,65b7b0e4e6fa7d632205b4b6,16:17:33,04/03/2024
1135.800000011921,[''],0,ospan,feedback,jWKKXGt9Pognn9BXmkQ9be529Co2,html-button-response,154,861428,0.0-43.0-5.0-0.0-3.0,,,,,,,,,,,,90.0,0.0,,65b7b0e4e6fa7d632205b4b6,16:17:33,04/03/2024
,"<p style=""font-size:75px;"">...</p>",,ospan,iti,jWKKXGt9Pognn9BXmkQ9be529Co2,html-keyboard-response,155,862434,0.0-43.0-5.0-1.0-0.0,,,,,,,,,,,,,,,65b7b0e4e6fa7d632205b4b6,16:17:33,04/03/2024
1496.0,,,ospan,symmetry,jWKKXGt9Pognn9BXmkQ9be529Co2,symmetry-judgement-task,156,864965,0.0-43.0-5.0-1.0-1.0-0.0,,,,,,,,,,1.0,1.0,,,,65b7b0e4e6fa7d632205b4b6,16:17:33,04/03/2024
,"<div style=""font-size: 10rem; color: #0000FF"">C</div>",,ospan,letter,jWKKXGt9Pognn9BXmkQ9be529Co2,html-keyboard-response,157,865971,0.0-43.0-5.0-1.0-1.0-1.0,,,,,,,,,,,,,,,65b7b0e4e6fa7d632205b4b6,16:17:33,04/03/2024
1190.0,,,ospan,symmetry,jWKKXGt9Pognn9BXmkQ9be529Co2,symmetry-judgement-task,158,869061,0.0-43.0-5.0-1.0-1.0-2.0,,,,,,,,,,1.0,1.0,,,,65b7b0e4e6fa7d632205b4b6,16:17:33,04/03/2024
,"<div style=""font-size: 10rem; color: #0000FF"">L</div>",,ospan,letter,jWKKXGt9Pognn9BXmkQ9be529Co2,html-keyboard-response,159,870069,0.0-43.0-5.0-1.0-1.0-3.0,,,,,,,,,,,,,,,65b7b0e4e6fa7d632205b4b6,16:17:33,04/03/2024
1347.0,,,ospan,symmetry,jWKKXGt9Pognn9BXmkQ9be529Co2,symmetry-judgement-task,160,873317,0.0-43.0-5.0-1.0-1.0-4.0,,,,,,,,,,1.0,1.0,,,,65b7b0e4e6fa7d632205b4b6,16:17:33,04/03/2024
,"<div style=""font-size: 10rem; color: #0000FF"">Y</div>",,ospan,letter,jWKKXGt9Pognn9BXmkQ9be529Co2,html-keyboard-response,161,874325,0.0-43.0-5.0-1.0-1.0-5.0,,,,,,,,,,,,,,,65b7b0e4e6fa7d632205b4b6,16:17:33,04/03/2024
1238.0,,,ospan,symmetry,jWKKXGt9Pognn9BXmkQ9be529Co2,symmetry-judgement-task,162,877466,0.0-43.0-5.0-1.0-1.0-6.0,,,,,,,,,,1.0,1.0,,,,65b7b0e4e6fa7d632205b4b6,16:17:33,04/03/2024
,"<div style=""font-size: 10rem; color: #0000FF"">R</div>",,ospan,letter,jWKKXGt9Pognn9BXmkQ9be529Co2,html-keyboard-response,163,878475,0.0-43.0-5.0-1.0-1.0-7.0,,,,,,,,,,,,,,,65b7b0e4e6fa7d632205b4b6,16:17:33,04/03/2024
1100.0,,,ospan,symmetry,jWKKXGt9Pognn9BXmkQ9be529Co2,symmetry-judgement-task,164,881460,0.0-43.0-5.0-1.0-1.0-8.0,,,,,,,,,,1.0,1.0,,,,65b7b0e4e6fa7d632205b4b6,16:17:33,04/03/2024
,"<div style=""font-size: 10rem; color: #0000FF"">J</div>",,ospan,letter,jWKKXGt9Pognn9BXmkQ9be529Co2,html-keyboard-response,165,882466,0.0-43.0-5.0-1.0-1.0-9.0,,,,,,,,,,,,,,,65b7b0e4e6fa7d632205b4b6,16:17:33,04/03/2024
1929.0,,,ospan,symmetry,jWKKXGt9Pognn9BXmkQ9be529Co2,symmetry-judgement-task,166,886285,0.0-43.0-5.0-1.0-1.0-10.0,,,,,,,,,,0.0,0.0,,,,65b7b0e4e6fa7d632205b4b6,16:17:33,04/03/2024
,"<div style=""font-size: 10rem; color: #0000FF"">Q</div>",,ospan,letter,jWKKXGt9Pognn9BXmkQ9be529Co2,html-keyboard-response,167,887293,0.0-43.0-5.0-1.0-1.0-11.0,,,,,,,,,,,,,,,65b7b0e4e6fa7d632205b4b6,16:17:33,04/03/2024
907.0,,,ospan,symmetry,jWKKXGt9Pognn9BXmkQ9be529Co2,symmetry-judgement-task,168,890093,0.0-43.0-5.0-1.0-1.0-12.0,,,,,,,,,,1.0,1.0,,,,65b7b0e4e6fa7d632205b4b6,16:17:33,04/03/2024
,"<div style=""font-size: 10rem; color: #0000FF"">K</div>",,ospan,letter,jWKKXGt9Pognn9BXmkQ9be529Co2,html-keyboard-response,169,891105,0.0-43.0-5.0-1.0-1.0-13.0,,,,,,,,,,,,,,,65b7b0e4e6fa7d632205b4b6,16:17:33,04/03/2024
6595.300000011921,"<div class = numbox><p style=""font-size: 2.4rem"">Please recall the letters you saw to the best of your ability. If you do not remember a particular letter, use the SKIP button.<br><b>(When you are ready to lock in your answer, press ENTER)</b></p><button id = button_1 class = ""square num-button"" onclick = ""recordClick(this)""><div class = content><div class = numbers>C</div></div></button><button id = button_2 class = ""square num-button"" onclick = ""recordClick(this)""><div class = content><div class = numbers>G</div></div></button><button id = button_3 class = ""square num-button"" onclick = ""recordClick(this)""><div class = content><div class = numbers>H</div></div></button><button id = button_4 class = ""square num-button"" onclick = ""recordClick(this)""><div class = content><div class = numbers>J</div></div></button><button id = button_5 class = ""square num-button"" onclick = ""recordClick(this)""><div class = content><div class = numbers>K</div></div></button><button id = button_6 class = ""square num-button"" onclick = ""recordClick(this)""><div class = content><div class = numbers>L</div></div></button><button id = button_7 class = ""square num-button"" onclick = ""recordClick(this)""><div class = content><div class = numbers>N</div></div></button><button id = button_8 class = ""square num-button"" onclick = ""recordClick(this)""><div class = content><div class = numbers>P</div></div></button><button id = button_9 class = ""square num-button"" onclick = ""recordClick(this)""><div class = content><div class = numbers>Q</div></div></button><button id = button_10 class = ""square num-button"" onclick = ""recordClick(this)""><div class = content><div class = numbers>R</div></div></button><button id = button_11 class = ""square num-button"" onclick = ""recordClick(this)""><div class = content><div class = numbers>S</div></div></button><button id = button_12 class = ""square num-button"" onclick = ""recordClick(this)""><div class = content><div class = numbers>Y</div></div></button><button class = clear_button id = ""ClearButton"" onclick = ""clearResponse()"">BACKSPACE</button><button class = blank_button id = ""BlankButton"" onclick = ""blankResponse()"">SKIP</button><p style=""font-size: 2.4rem""><u><b>Current Answer:</b></u></p><br><br><div id=echoed_txt style=""font-size: 5rem; color:blue;""><b></b></div></div>",enter,ospan,retrieval,jWKKXGt9Pognn9BXmkQ9be529Co2,html-keyboard-response,170,898460,0.0-43.0-5.0-1.0-2.0,28,25,21,7.0,"[""C"",""R"",""L"",""Y"",""J"",""Q"",""K""]","[""C"",""L"",""Y"",""R"",""J"",""Q"",""K""]",0.0,4.0,,,,,,,65b7b0e4e6fa7d632205b4b6,16:17:33,04/03/2024
969.2999999821186,[''],0,ospan,feedback,jWKKXGt9Pognn9BXmkQ9be529Co2,html-button-response,171,899944,0.0-43.0-5.0-1.0-3.0,,,,,,,,,,,,89.0,0.0,,65b7b0e4e6fa7d632205b4b6,16:17:33,04/03/2024
,"<p style=""font-size:75px;"">...</p>",,ospan,iti,jWKKXGt9Pognn9BXmkQ9be529Co2,html-keyboard-response,172,900956,0.0-43.0-6.0-0.0-0.0,,,,,,,,,,,,,,,65b7b0e4e6fa7d632205b4b6,16:17:33,04/03/2024
1744.0,,,ospan,symmetry,jWKKXGt9Pognn9BXmkQ9be529Co2,symmetry-judgement-task,173,903735,0.0-43.0-6.0-0.0-1.0-0.0,,,,,,,,,,1.0,1.0,,,,65b7b0e4e6fa7d632205b4b6,16:17:33,04/03/2024
,"<div style=""font-size: 10rem; color: #0000FF"">C</div>",,ospan,letter,jWKKXGt9Pognn9BXmkQ9be529Co2,html-keyboard-response,174,904741,0.0-43.0-6.0-0.0-1.0-1.0,,,,,,,,,,,,,,,65b7b0e4e6fa7d632205b4b6,16:17:33,04/03/2024
973.0,,,ospan,symmetry,jWKKXGt9Pognn9BXmkQ9be529Co2,symmetry-judgement-task,175,907626,0.0-43.0-6.0-0.0-1.0-2.0,,,,,,,,,,1.0,1.0,,,,65b7b0e4e6fa7d632205b4b6,16:17:33,04/03/2024
,"<div style=""font-size: 10rem; color: #0000FF"">H</div>",,ospan,letter,jWKKXGt9Pognn9BXmkQ9be529Co2,html-keyboard-response,176,908630,0.0-43.0-6.0-0.0-1.0-3.0,,,,,,,,,,,,,,,65b7b0e4e6fa7d632205b4b6,16:17:33,04/03/2024
3251.0,,,ospan,symmetry,jWKKXGt9Pognn9BXmkQ9be529Co2,symmetry-judgement-task,177,913782,0.0-43.0-6.0-0.0-1.0-4.0,,,,,,,,,,1.0,1.0,,,,65b7b0e4e6fa7d632205b4b6,16:17:33,04/03/2024
,"<div style=""font-size: 10rem; color: #0000FF"">P</div>",,ospan,letter,jWKKXGt9Pognn9BXmkQ9be529Co2,html-keyboard-response,178,914789,0.0-43.0-6.0-0.0-1.0-5.0,,,,,,,,,,,,,,,65b7b0e4e6fa7d632205b4b6,16:17:33,04/03/2024
1179.0,,,ospan,symmetry,jWKKXGt9Pognn9BXmkQ9be529Co2,symmetry-judgement-task,179,917876,0.0-43.0-6.0-0.0-1.0-6.0,,,,,,,,,,1.0,1.0,,,,65b7b0e4e6fa7d632205b4b6,16:17:33,04/03/2024
,"<div style=""font-size: 10rem; color: #0000FF"">L</div>",,ospan,letter,jWKKXGt9Pognn9BXmkQ9be529Co2,html-keyboard-response,180,918893,0.0-43.0-6.0-0.0-1.0-7.0,,,,,,,,,,,,,,,65b7b0e4e6fa7d632205b4b6,16:17:33,04/03/2024
1993.0,,,ospan,symmetry,jWKKXGt9Pognn9BXmkQ9be529Co2,symmetry-judgement-task,181,922783,0.0-43.0-6.0-0.0-1.0-8.0,,,,,,,,,,1.0,1.0,,,,65b7b0e4e6fa7d632205b4b6,16:17:33,04/03/2024
,"<div style=""font-size: 10rem; color: #0000FF"">Q</div>",,ospan,letter,jWKKXGt9Pognn9BXmkQ9be529Co2,html-keyboard-response,182,923788,0.0-43.0-6.0-0.0-1.0-9.0,,,,,,,,,,,,,,,65b7b0e4e6fa7d632205b4b6,16:17:33,04/03/2024
4831.5999999940395,"<div class = numbox><p style=""font-size: 2.4rem"">Please recall the letters you saw to the best of your ability. If you do not remember a particular letter, use the SKIP button.<br><b>(When you are ready to lock in your answer, press ENTER)</b></p><button id = button_1 class = ""square num-button"" onclick = ""recordClick(this)""><div class = content><div class = numbers>C</div></div></button><button id = button_2 class = ""square num-button"" onclick = ""recordClick(this)""><div class = content><div class = numbers>G</div></div></button><button id = button_3 class = ""square num-button"" onclick = ""recordClick(this)""><div class = content><div class = numbers>H</div></div></button><button id = button_4 class = ""square num-button"" onclick = ""recordClick(this)""><div class = content><div class = numbers>J</div></div></button><button id = button_5 class = ""square num-button"" onclick = ""recordClick(this)""><div class = content><div class = numbers>K</div></div></button><button id = button_6 class = ""square num-button"" onclick = ""recordClick(this)""><div class = content><div class = numbers>L</div></div></button><button id = button_7 class = ""square num-button"" onclick = ""recordClick(this)""><div class = content><div class = numbers>N</div></div></button><button id = button_8 class = ""square num-button"" onclick = ""recordClick(this)""><div class = content><div class = numbers>P</div></div></button><button id = button_9 class = ""square num-button"" onclick = ""recordClick(this)""><div class = content><div class = numbers>Q</div></div></button><button id = button_10 class = ""square num-button"" onclick = ""recordClick(this)""><div class = content><div class = numbers>R</div></div></button><button id = button_11 class = ""square num-button"" onclick = ""recordClick(this)""><div class = content><div class = numbers>S</div></div></button><button id = button_12 class = ""square num-button"" onclick = ""recordClick(this)""><div class = content><div class = numbers>Y</div></div></button><button class = clear_button id = ""ClearButton"" onclick = ""clearResponse()"">BACKSPACE</button><button class = blank_button id = ""BlankButton"" onclick = ""blankResponse()"">SKIP</button><p style=""font-size: 2.4rem""><u><b>Current Answer:</b></u></p><br><br><div id=echoed_txt style=""font-size: 5rem; color:blue;""><b></b></div></div>",enter,ospan,retrieval,jWKKXGt9Pognn9BXmkQ9be529Co2,html-keyboard-response,183,929382,0.0-43.0-6.0-0.0-2.0,33,30,26,5.0,"[""C"",""H"",""P"",""L"",""Q""]","[""C"",""H"",""P"",""L"",""Q""]",1.0,5.0,,,,,,,65b7b0e4e6fa7d632205b4b6,16:17:33,04/03/2024
2345.199999988079,[''],0,ospan,feedback,jWKKXGt9Pognn9BXmkQ9be529Co2,html-button-response,184,932235,0.0-43.0-6.0-0.0-3.0,,,,,,,,,,,,91.0,0.0,,65b7b0e4e6fa7d632205b4b6,16:17:33,04/03/2024
,"<p style=""font-size:75px;"">...</p>",,ospan,iti,jWKKXGt9Pognn9BXmkQ9be529Co2,html-keyboard-response,185,933239,0.0-43.0-6.0-1.0-0.0,,,,,,,,,,,,,,,65b7b0e4e6fa7d632205b4b6,16:17:33,04/03/2024
1868.0,,,ospan,symmetry,jWKKXGt9Pognn9BXmkQ9be529Co2,symmetry-judgement-task,186,936147,0.0-43.0-6.0-1.0-1.0-0.0,,,,,,,,,,1.0,1.0,,,,65b7b0e4e6fa7d632205b4b6,16:17:33,04/03/2024
,"<div style=""font-size: 10rem; color: #0000FF"">Y</div>",,ospan,letter,jWKKXGt9Pognn9BXmkQ9be529Co2,html-keyboard-response,187,937153,0.0-43.0-6.0-1.0-1.0-1.0,,,,,,,,,,,,,,,65b7b0e4e6fa7d632205b4b6,16:17:33,04/03/2024
1324.0,,,ospan,symmetry,jWKKXGt9Pognn9BXmkQ9be529Co2,symmetry-judgement-task,188,940389,0.0-43.0-6.0-1.0-1.0-2.0,,,,,,,,,,1.0,1.0,,,,65b7b0e4e6fa7d632205b4b6,16:17:33,04/03/2024
,"<div style=""font-size: 10rem; color: #0000FF"">Q</div>",,ospan,letter,jWKKXGt9Pognn9BXmkQ9be529Co2,html-keyboard-response,189,941398,0.0-43.0-6.0-1.0-1.0-3.0,,,,,,,,,,,,,,,65b7b0e4e6fa7d632205b4b6,16:17:33,04/03/2024
1363.0,,,ospan,symmetry,jWKKXGt9Pognn9BXmkQ9be529Co2,symmetry-judgement-task,190,944653,0.0-43.0-6.0-1.0-1.0-4.0,,,,,,,,,,1.0,1.0,,,,65b7b0e4e6fa7d632205b4b6,16:17:33,04/03/2024
,"<div style=""font-size: 10rem; color: #0000FF"">S</div>",,ospan,letter,jWKKXGt9Pognn9BXmkQ9be529Co2,html-keyboard-response,191,945660,0.0-43.0-6.0-1.0-1.0-5.0,,,,,,,,,,,,,,,65b7b0e4e6fa7d632205b4b6,16:17:33,04/03/2024
1229.0,,,ospan,symmetry,jWKKXGt9Pognn9BXmkQ9be529Co2,symmetry-judgement-task,192,948792,0.0-43.0-6.0-1.0-1.0-6.0,,,,,,,,,,1.0,1.0,,,,65b7b0e4e6fa7d632205b4b6,16:17:33,04/03/2024
,"<div style=""font-size: 10rem; color: #0000FF"">K</div>",,ospan,letter,jWKKXGt9Pognn9BXmkQ9be529Co2,html-keyboard-response,193,949800,0.0-43.0-6.0-1.0-1.0-7.0,,,,,,,,,,,,,,,65b7b0e4e6fa7d632205b4b6,16:17:33,04/03/2024
1351.0,,,ospan,symmetry,jWKKXGt9Pognn9BXmkQ9be529Co2,symmetry-judgement-task,194,953049,0.0-43.0-6.0-1.0-1.0-8.0,,,,,,,,,,1.0,1.0,,,,65b7b0e4e6fa7d632205b4b6,16:17:33,04/03/2024
,"<div style=""font-size: 10rem; color: #0000FF"">L</div>",,ospan,letter,jWKKXGt9Pognn9BXmkQ9be529Co2,html-keyboard-response,195,954055,0.0-43.0-6.0-1.0-1.0-9.0,,,,,,,,,,,,,,,65b7b0e4e6fa7d632205b4b6,16:17:33,04/03/2024
847.0,,,ospan,symmetry,jWKKXGt9Pognn9BXmkQ9be529Co2,symmetry-judgement-task,196,956805,0.0-43.0-6.0-1.0-1.0-10.0,,,,,,,,,,1.0,1.0,,,,65b7b0e4e6fa7d632205b4b6,16:17:33,04/03/2024
,"<div style=""font-size: 10rem; color: #0000FF"">R</div>",,ospan,letter,jWKKXGt9Pognn9BXmkQ9be529Co2,html-keyboard-response,197,957812,0.0-43.0-6.0-1.0-1.0-11.0,,,,,,,,,,,,,,,65b7b0e4e6fa7d632205b4b6,16:17:33,04/03/2024
896.0,,,ospan,symmetry,jWKKXGt9Pognn9BXmkQ9be529Co2,symmetry-judgement-task,198,960602,0.0-43.0-6.0-1.0-1.0-12.0,,,,,,,,,,1.0,1.0,,,,65b7b0e4e6fa7d632205b4b6,16:17:33,04/03/2024
,"<div style=""font-size: 10rem; color: #0000FF"">C</div>",,ospan,letter,jWKKXGt9Pognn9BXmkQ9be529Co2,html-keyboard-response,199,961610,0.0-43.0-6.0-1.0-1.0-13.0,,,,,,,,,,,,,,,65b7b0e4e6fa7d632205b4b6,16:17:33,04/03/2024
1807.0,,,ospan,symmetry,jWKKXGt9Pognn9BXmkQ9be529Co2,symmetry-judgement-task,200,965316,0.0-43.0-6.0-1.0-1.0-14.0,,,,,,,,,,1.0,1.0,,,,65b7b0e4e6fa7d632205b4b6,16:17:33,04/03/2024
,"<div style=""font-size: 10rem; color: #0000FF"">N</div>",,ospan,letter,jWKKXGt9Pognn9BXmkQ9be529Co2,html-keyboard-response,201,966324,0.0-43.0-6.0-1.0-1.0-15.0,,,,,,,,,,,,,,,65b7b0e4e6fa7d632205b4b6,16:17:33,04/03/2024
8253.90000000596,"<div class = numbox><p style=""font-size: 2.4rem"">Please recall the letters you saw to the best of your ability. If you do not remember a particular letter, use the SKIP button.<br><b>(When you are ready to lock in your answer, press ENTER)</b></p><button id = button_1 class = ""square num-button"" onclick = ""recordClick(this)""><div class = content><div class = numbers>C</div></div></button><button id = button_2 class = ""square num-button"" onclick = ""recordClick(this)""><div class = content><div class = numbers>G</div></div></button><button id = button_3 class = ""square num-button"" onclick = ""recordClick(this)""><div class = content><div class = numbers>H</div></div></button><button id = button_4 class = ""square num-button"" onclick = ""recordClick(this)""><div class = content><div class = numbers>J</div></div></button><button id = button_5 class = ""square num-button"" onclick = ""recordClick(this)""><div class = content><div class = numbers>K</div></div></button><button id = button_6 class = ""square num-button"" onclick = ""recordClick(this)""><div class = content><div class = numbers>L</div></div></button><button id = button_7 class = ""square num-button"" onclick = ""recordClick(this)""><div class = content><div class = numbers>N</div></div></button><button id = button_8 class = ""square num-button"" onclick = ""recordClick(this)""><div class = content><div class = numbers>P</div></div></button><button id = button_9 class = ""square num-button"" onclick = ""recordClick(this)""><div class = content><div class = numbers>Q</div></div></button><button id = button_10 class = ""square num-button"" onclick = ""recordClick(this)""><div class = content><div class = numbers>R</div></div></button><button id = button_11 class = ""square num-button"" onclick = ""recordClick(this)""><div class = content><div class = numbers>S</div></div></button><button id = button_12 class = ""square num-button"" onclick = ""recordClick(this)""><div class = content><div class = numbers>Y</div></div></button><button class = clear_button id = ""ClearButton"" onclick = ""clearResponse()"">BACKSPACE</button><button class = blank_button id = ""BlankButton"" onclick = ""blankResponse()"">SKIP</button><p style=""font-size: 2.4rem""><u><b>Current Answer:</b></u></p><br><br><div id=echoed_txt style=""font-size: 5rem; color:blue;""><b></b></div></div>",enter,ospan,retrieval,jWKKXGt9Pognn9BXmkQ9be529Co2,html-keyboard-response,202,975340,0.0-43.0-6.0-1.0-2.0,41,36,26,8.0,"[""Y"",""Q"",""S"",""R"",""L"",""R"",""C""]","[""Y"",""Q"",""S"",""K"",""L"",""R"",""C"",""N""]",0.0,6.0,,,,,,,65b7b0e4e6fa7d632205b4b6,16:17:33,04/03/2024
1120.199999988079,[''],0,ospan,feedback,jWKKXGt9Pognn9BXmkQ9be529Co2,html-button-response,203,976974,0.0-43.0-6.0-1.0-3.0,,,,,,,,,,,,93.0,0.0,,65b7b0e4e6fa7d632205b4b6,16:17:33,04/03/2024
18623.79999998212,,{'Q0': 'It was simple to understand the task.'},ospan,survey,jWKKXGt9Pognn9BXmkQ9be529Co2,lmdlab-survey-text,204,996362,0.0-43.0-7.0,,,,,,,,,,,,,,jWKKXGt9Pognn9BXmkQ9be529Co2,65b7b0e4e6fa7d632205b4b6,16:17:33,04/03/2024
1336.9000000059605,<p><p style='font-size: 3rem'>Great work!<br><br>This completes the symmetry and memory task.</p><br><br><br>,0,ospan,finish,jWKKXGt9Pognn9BXmkQ9be529Co2,html-button-response,205,997703,0.0-43.0-8.0,41,36,26,,,,,,,,,93.0,,,65b7b0e4e6fa7d632205b4b6,16:17:33,04/03/2024
