rt,stimulus,response,exp_name,exp_stage,subjectID,trial_type,trial_index,time_elapsed,internal_node_id,ospan_shown,ospan_total,ospan_abs,length,resp_actual,resp_correct,full_correct,num_correct,feedback,accuracy,correct,math_acc,math_warning,databaseID,prolificID,start_time,date
26661.10000038147,<div class = 'left_align' style='font-size: 3.25rem; line-height: 1.3;'><p class = 'center_align'><b>Welcome to the Symmetry and Memory Task</b><br><br><br><br></p>Press 'continue' to show the instructions.<br><br><br><br></div>,0,ospan,instruct,R59DSD6PthgngmJK4QokTMLDFSK2,html-button-response,54,1018398,0.0-46.0-0.0-0.0-0.0,,,,,,,,,,,,,,,63ea445c759d5bf0e3f63739,16:53:56,04/04/2024
9244.199999809265,"<div class = 'left_align' style='font-size: 3.25rem; line-height: 1.3;'><p class = 'center_align'><b>Symmetry and Memory Task</b><br><br></p>In this task, you will try to memorize letters you see on the screen<br>while you also view black and white grid pictures.<br><br>In the next few minutes, you will have some practice to get you familiar<br>with how the task works.<br><br>It may be difficult sometimes, but please do not worry about making mistakes!<br><br>We will begin by practicing the letter part of the task.<br><br><br><br></div>",0,ospan,instruct,R59DSD6PthgngmJK4QokTMLDFSK2,html-button-response,55,1027924,0.0-46.0-0.0-0.0-1.0,,,,,,,,,,,,,,,63ea445c759d5bf0e3f63739,16:53:56,04/04/2024
1513.5,"<div class = 'left_align' style='font-size: 3.25rem; line-height: 1.3;'>For this practice part, letters will appear on the screen one at a time.<br><br>Try to remember each letter in the order presented.<br><br>After some letters have been shown, you will see a response screen. Your<br>goal is to report the letters you saw <b>in order</b>. If you do not remember<br>a particular letter, you will have the option to leave it blank.<br><br><br><br></div>",0,ospan,instruct,R59DSD6PthgngmJK4QokTMLDFSK2,html-button-response,56,1029694,0.0-46.0-0.0-0.0-2.0,,,,,,,,,,,,,,,63ea445c759d5bf0e3f63739,16:53:56,04/04/2024
2281.699999809265,"<div class = 'left_align' style='font-size: 3.25rem; line-height: 1.3;'>Remember, it is very important to get the letters in the same<br>order as you see them.<br><br>When you are ready, you may begin the letter practice.</div><br><br><br><br>",0,ospan,instruct,R59DSD6PthgngmJK4QokTMLDFSK2,html-button-response,57,1032235,0.0-46.0-0.0-0.0-3.0,,,,,,,,,,,,,,,63ea445c759d5bf0e3f63739,16:53:56,04/04/2024
,"<p style=""font-size:75px;"">...</p>",,ospan,iti,R59DSD6PthgngmJK4QokTMLDFSK2,html-keyboard-response,58,1033519,0.0-46.0-0.0-1.0-0.0,,,,,,,,,,,,,,,63ea445c759d5bf0e3f63739,16:53:56,04/04/2024
,"<div style=""font-size: 10rem; color: #0000FF"">R</div>",,ospan,letter,R59DSD6PthgngmJK4QokTMLDFSK2,html-keyboard-response,59,1034538,0.0-46.0-0.0-1.0-1.0,,,,,,,,,,,,,,,63ea445c759d5bf0e3f63739,16:53:56,04/04/2024
,"<div style=""font-size: 10rem; color: #0000FF"">N</div>",,ospan,letter,R59DSD6PthgngmJK4QokTMLDFSK2,html-keyboard-response,60,1036317,0.0-46.0-0.0-1.0-2.0,,,,,,,,,,,,,,,63ea445c759d5bf0e3f63739,16:53:56,04/04/2024
12966.20000076294,"<div class = numbox><p style=""font-size: 2.4rem"">Please recall the letters you saw to the best of your ability. If you do not remember a particular letter, use the SKIP button.<br><b>(When you are ready to lock in your answer, press ENTER)</b></p><button id = button_1 class = ""square num-button"" onclick = ""recordClick(this)""><div class = content><div class = numbers>C</div></div></button><button id = button_2 class = ""square num-button"" onclick = ""recordClick(this)""><div class = content><div class = numbers>G</div></div></button><button id = button_3 class = ""square num-button"" onclick = ""recordClick(this)""><div class = content><div class = numbers>H</div></div></button><button id = button_4 class = ""square num-button"" onclick = ""recordClick(this)""><div class = content><div class = numbers>J</div></div></button><button id = button_5 class = ""square num-button"" onclick = ""recordClick(this)""><div class = content><div class = numbers>K</div></div></button><button id = button_6 class = ""square num-button"" onclick = ""recordClick(this)""><div class = content><div class = numbers>L</div></div></button><button id = button_7 class = ""square num-button"" onclick = ""recordClick(this)""><div class = content><div class = numbers>N</div></div></button><button id = button_8 class = ""square num-button"" onclick = ""recordClick(this)""><div class = content><div class = numbers>P</div></div></button><button id = button_9 class = ""square num-button"" onclick = ""recordClick(this)""><div class = content><div class = numbers>Q</div></div></button><button id = button_10 class = ""square num-button"" onclick = ""recordClick(this)""><div class = content><div class = numbers>R</div></div></button><button id = button_11 class = ""square num-button"" onclick = ""recordClick(this)""><div class = content><div class = numbers>S</div></div></button><button id = button_12 class = ""square num-button"" onclick = ""recordClick(this)""><div class = content><div class = numbers>Y</div></div></button><button class = clear_button id = ""ClearButton"" onclick = ""clearResponse()"">BACKSPACE</button><button class = blank_button id = ""BlankButton"" onclick = ""blankResponse()"">SKIP</button><p style=""font-size: 2.4rem""><u><b>Current Answer:</b></u></p><br><br><div id=echoed_txt style=""font-size: 5rem; color:blue;""><b></b></div></div>",enter,ospan,retrieval,R59DSD6PthgngmJK4QokTMLDFSK2,html-keyboard-response,61,1050056,0.0-46.0-0.0-1.0-3.0,NA,NA,NA,2.0,"[""R"",""N""]","[""R"",""N""]",1.0,2.0,"['<font color=""green"">R</font>', '<font color=""green"">N</font>']",,,,,,63ea445c759d5bf0e3f63739,16:53:56,04/04/2024
2224.5999994277954,"['<p style=""font-size:44px"">Letters:<br><br><br><font color=""green"">R</font> <font color=""green"">N</font></p><br><br>']",0,ospan,practice_feedback,R59DSD6PthgngmJK4QokTMLDFSK2,html-button-response,62,1052806,0.0-46.0-0.0-1.0-4.0,,,,,,,,,,,,,,,63ea445c759d5bf0e3f63739,16:53:56,04/04/2024
,"<p style=""font-size:75px;"">...</p>",,ospan,iti,R59DSD6PthgngmJK4QokTMLDFSK2,html-keyboard-response,63,1053823,0.0-46.0-0.0-2.0-0.0,,,,,,,,,,,,,,,63ea445c759d5bf0e3f63739,16:53:56,04/04/2024
,"<div style=""font-size: 10rem; color: #0000FF"">N</div>",,ospan,letter,R59DSD6PthgngmJK4QokTMLDFSK2,html-keyboard-response,64,1054859,0.0-46.0-0.0-2.0-1.0,,,,,,,,,,,,,,,63ea445c759d5bf0e3f63739,16:53:56,04/04/2024
,"<div style=""font-size: 10rem; color: #0000FF"">P</div>",,ospan,letter,R59DSD6PthgngmJK4QokTMLDFSK2,html-keyboard-response,65,1056625,0.0-46.0-0.0-2.0-2.0,,,,,,,,,,,,,,,63ea445c759d5bf0e3f63739,16:53:56,04/04/2024
,"<div style=""font-size: 10rem; color: #0000FF"">Q</div>",,ospan,letter,R59DSD6PthgngmJK4QokTMLDFSK2,html-keyboard-response,66,1058409,0.0-46.0-0.0-2.0-3.0,,,,,,,,,,,,,,,63ea445c759d5bf0e3f63739,16:53:56,04/04/2024
4068.0999994277954,"<div class = numbox><p style=""font-size: 2.4rem"">Please recall the letters you saw to the best of your ability. If you do not remember a particular letter, use the SKIP button.<br><b>(When you are ready to lock in your answer, press ENTER)</b></p><button id = button_1 class = ""square num-button"" onclick = ""recordClick(this)""><div class = content><div class = numbers>C</div></div></button><button id = button_2 class = ""square num-button"" onclick = ""recordClick(this)""><div class = content><div class = numbers>G</div></div></button><button id = button_3 class = ""square num-button"" onclick = ""recordClick(this)""><div class = content><div class = numbers>H</div></div></button><button id = button_4 class = ""square num-button"" onclick = ""recordClick(this)""><div class = content><div class = numbers>J</div></div></button><button id = button_5 class = ""square num-button"" onclick = ""recordClick(this)""><div class = content><div class = numbers>K</div></div></button><button id = button_6 class = ""square num-button"" onclick = ""recordClick(this)""><div class = content><div class = numbers>L</div></div></button><button id = button_7 class = ""square num-button"" onclick = ""recordClick(this)""><div class = content><div class = numbers>N</div></div></button><button id = button_8 class = ""square num-button"" onclick = ""recordClick(this)""><div class = content><div class = numbers>P</div></div></button><button id = button_9 class = ""square num-button"" onclick = ""recordClick(this)""><div class = content><div class = numbers>Q</div></div></button><button id = button_10 class = ""square num-button"" onclick = ""recordClick(this)""><div class = content><div class = numbers>R</div></div></button><button id = button_11 class = ""square num-button"" onclick = ""recordClick(this)""><div class = content><div class = numbers>S</div></div></button><button id = button_12 class = ""square num-button"" onclick = ""recordClick(this)""><div class = content><div class = numbers>Y</div></div></button><button class = clear_button id = ""ClearButton"" onclick = ""clearResponse()"">BACKSPACE</button><button class = blank_button id = ""BlankButton"" onclick = ""blankResponse()"">SKIP</button><p style=""font-size: 2.4rem""><u><b>Current Answer:</b></u></p><br><br><div id=echoed_txt style=""font-size: 5rem; color:blue;""><b></b></div></div>",enter,ospan,retrieval,R59DSD6PthgngmJK4QokTMLDFSK2,html-keyboard-response,67,1063243,0.0-46.0-0.0-2.0-4.0,NA,NA,NA,3.0,"[""N"",""P"",""Q""]","[""N"",""P"",""Q""]",1.0,3.0,"['<font color=""green"">N</font>', '<font color=""green"">P</font>', '<font color=""green"">Q</font>']",,,,,,63ea445c759d5bf0e3f63739,16:53:56,04/04/2024
2249.699999809265,"['<p style=""font-size:44px"">Letters:<br><br><br><font color=""green"">N</font> <font color=""green"">P</font> <font color=""green"">Q</font></p><br><br>']",0,ospan,practice_feedback,R59DSD6PthgngmJK4QokTMLDFSK2,html-button-response,68,1066014,0.0-46.0-0.0-2.0-5.0,,,,,,,,,,,,,,,63ea445c759d5bf0e3f63739,16:53:56,04/04/2024
10530.0,"<div class = 'left_align' style='font-size: 3.25rem; line-height: 1.3;'>Now you will practice doing the <b>symmetry judgment part</b> of the experiment.<br><br>A black and white grid picture will appear on the screen and you have to judge if it is <br>symmetrical or asymetrical.<br><br>A picture is 'mirror' symmetrical if its left half is identical to the right half when flipped.<br>Here are examples of a symmetrical and an asymetrical picture:<br><br><center><img src='Stimuli/img/symm_instructions_extra.png' style='height:420px; width:900'></img></center><br>To judge symmetry, imagine you were to fold each picture down the middle, like a book –<br>would the left half match the right half when folded onto each other?<br><br></div><br>",0,ospan,instruct,R59DSD6PthgngmJK4QokTMLDFSK2,html-button-response,69,1076549,0.0-46.0-1.0-0.0-0.0,,,,,,,,,,,,,,,63ea445c759d5bf0e3f63739,16:53:56,04/04/2024
1941.7000007629395,"<div class = 'left_align' style='font-size: 3.25rem; line-height: 1.3;'>When you have viewed the picture and determined whether it is symmetrical or not,<br>you can <b>click the Yes or No button</b> below to answer.<br><br>If you take longer than 15 seconds, it will continue automatically<br>and record the answer as an error.</div><br>",0,ospan,instruct,R59DSD6PthgngmJK4QokTMLDFSK2,html-button-response,70,1078752,0.0-46.0-1.0-0.0-1.0,,,,,,,,,,,,,,,63ea445c759d5bf0e3f63739,16:53:56,04/04/2024
3920.0999994277954,"<div class = 'left_align' style='font-size: 3.25rem; line-height: 1.3;'>It is <b>very</b> important that you make the symmetry judgment correctly.<br><br>It is also important that you try and judge the picture as quickly as you can.<br><br>When you are ready, click on the button below to try some practice problems.</div><br><br><br><br>",0,ospan,instruct,R59DSD6PthgngmJK4QokTMLDFSK2,html-button-response,71,1082959,0.0-46.0-1.0-0.0-2.0,,,,,,,,,,,,,,,63ea445c759d5bf0e3f63739,16:53:56,04/04/2024
6239.0,,,ospan,symmetry,R59DSD6PthgngmJK4QokTMLDFSK2,symmetry-judgement-task,72,1090448,0.0-46.0-1.0-1.0-0.0,,,,,,,,,,1.0,1.0,,,,63ea445c759d5bf0e3f63739,16:53:56,04/04/2024
,"<p style=""color:green; font-size: 35px"">Correct</p>",,ospan,feedback,R59DSD6PthgngmJK4QokTMLDFSK2,html-keyboard-response,73,1091228,0.0-46.0-1.0-1.0-1.0,,,,,,,,,,,,,,,63ea445c759d5bf0e3f63739,16:53:56,04/04/2024
4279.0,,,ospan,symmetry,R59DSD6PthgngmJK4QokTMLDFSK2,symmetry-judgement-task,74,1099313,0.0-46.0-1.0-1.0-2.0,,,,,,,,,,1.0,1.0,,,,63ea445c759d5bf0e3f63739,16:53:56,04/04/2024
,"<p style=""color:green; font-size: 35px"">Correct</p>",,ospan,feedback,R59DSD6PthgngmJK4QokTMLDFSK2,html-keyboard-response,75,1100071,0.0-46.0-1.0-1.0-3.0,,,,,,,,,,,,,,,63ea445c759d5bf0e3f63739,16:53:56,04/04/2024
4774.0,,,ospan,symmetry,R59DSD6PthgngmJK4QokTMLDFSK2,symmetry-judgement-task,76,1108712,0.0-46.0-1.0-1.0-4.0,,,,,,,,,,1.0,1.0,,,,63ea445c759d5bf0e3f63739,16:53:56,04/04/2024
,"<p style=""color:green; font-size: 35px"">Correct</p>",,ospan,feedback,R59DSD6PthgngmJK4QokTMLDFSK2,html-keyboard-response,77,1109478,0.0-46.0-1.0-1.0-5.0,,,,,,,,,,,,,,,63ea445c759d5bf0e3f63739,16:53:56,04/04/2024
2467.0,"<p style=""font-size: 3rem;"">You responded correctly on 3 of 3 symmetry judgments. Good job!</p><br><br>",0,ospan,practice,R59DSD6PthgngmJK4QokTMLDFSK2,html-button-response,78,1113966,0.0-46.0-1.0-2.0,,,,,,,,,,,,,,,63ea445c759d5bf0e3f63739,16:53:56,04/04/2024
37824.400000572205,"<div class = 'left_align' style='font-size: 3.25rem; line-height: 1.3;'>Now you will practice doing both parts of the experiment at the same time.<br><br>In the next practice set, you will be given one grid picture to judge.<br>Then letter will appear on the screen. Try to remember the letter.<br><br>It is <b>very important</b> to make the symmetry judgment as quickly and accurately as possible.<br><br>Just as before, once you have make the symmetry judgment, you can click Yes or No.<br><b>Note that you will no longer see Correct or Incorrect feedback.</div><br><br><br><br>",0,ospan,instruct,R59DSD6PthgngmJK4QokTMLDFSK2,html-button-response,79,1152058,0.0-46.0-2.0-0.0-0.0,,,,,,,,,,,,,,,63ea445c759d5bf0e3f63739,16:53:56,04/04/2024
1979.0,"<div class = 'left_align' style='font-size: 3.25rem; line-height: 1.3;'>After the letter goes away, another grid picture will appear, and then<br>another letter.<br><br>At the end of each set of letters and grids, you will recall the letters to the best<br>of your ability. Remember, try your best to get the letters in the correct order.<br><br>It is important to <b>quickly</b> and <b>accurately</b> make the symmetry judgments.</div><br><br><br><br>",0,ospan,instruct,R59DSD6PthgngmJK4QokTMLDFSK2,html-button-response,80,1154301,0.0-46.0-2.0-0.0-1.0,,,,,,,,,,,,,,,63ea445c759d5bf0e3f63739,16:53:56,04/04/2024
5646.699999809265,"<div class = 'left_align' style='font-size: 3.25rem; line-height: 1.3;'>On the feedback screen, if you are not doing well at the symmetry judgments,<br>you will also see a warning in the middle. This indicates your percent <br>correct for the grid pictures for the entire experiment.<br><br>It is <b>very</b> important for you to keep accuracy at least at 85%: <u>We can only use<br>data where the participant was at least 85% accurate on the judgments.</u> Therefore,<br> please try your best to perform well on the symmetry judgments, <b>at the same time</b><br>doing your best to recall as many letters as possible.<br><br>Click the button to try some practice problems.</div><br><br><br><br>",0,ospan,instruct,R59DSD6PthgngmJK4QokTMLDFSK2,html-button-response,81,1160211,0.0-46.0-2.0-0.0-2.0,,,,,,,,,,,,,,,63ea445c759d5bf0e3f63739,16:53:56,04/04/2024
,"<p style=""font-size:75px;"">...</p>",,ospan,iti,R59DSD6PthgngmJK4QokTMLDFSK2,html-keyboard-response,82,1161493,0.0-46.0-2.0-1.0-0.0,,,,,,,,,,,,,,,63ea445c759d5bf0e3f63739,16:53:56,04/04/2024
2511.0,,,ospan,symmetry,R59DSD6PthgngmJK4QokTMLDFSK2,symmetry-judgement-task,83,1166138,0.0-46.0-2.0-1.0-1.0-0.0,,,,,,,,,,1.0,1.0,,,,63ea445c759d5bf0e3f63739,16:53:56,04/04/2024
,"<div style=""font-size: 10rem; color: #0000FF"">S</div>",,ospan,letter,R59DSD6PthgngmJK4QokTMLDFSK2,html-keyboard-response,84,1167160,0.0-46.0-2.0-1.0-1.0-1.0,,,,,,,,,,,,,,,63ea445c759d5bf0e3f63739,16:53:56,04/04/2024
5877.0,,,ospan,symmetry,R59DSD6PthgngmJK4QokTMLDFSK2,symmetry-judgement-task,85,1175908,0.0-46.0-2.0-1.0-1.0-2.0,,,,,,,,,,1.0,1.0,,,,63ea445c759d5bf0e3f63739,16:53:56,04/04/2024
,"<div style=""font-size: 10rem; color: #0000FF"">K</div>",,ospan,letter,R59DSD6PthgngmJK4QokTMLDFSK2,html-keyboard-response,86,1176936,0.0-46.0-2.0-1.0-1.0-3.0,,,,,,,,,,,,,,,63ea445c759d5bf0e3f63739,16:53:56,04/04/2024
2996.0,,,ospan,symmetry,R59DSD6PthgngmJK4QokTMLDFSK2,symmetry-judgement-task,87,1183018,0.0-46.0-2.0-1.0-1.0-4.0,,,,,,,,,,1.0,1.0,,,,63ea445c759d5bf0e3f63739,16:53:56,04/04/2024
,"<div style=""font-size: 10rem; color: #0000FF"">Q</div>",,ospan,letter,R59DSD6PthgngmJK4QokTMLDFSK2,html-keyboard-response,88,1184033,0.0-46.0-2.0-1.0-1.0-5.0,,,,,,,,,,,,,,,63ea445c759d5bf0e3f63739,16:53:56,04/04/2024
3768.699999809265,"<div class = numbox><p style=""font-size: 2.4rem"">Please recall the letters you saw to the best of your ability. If you do not remember a particular letter, use the SKIP button.<br><b>(When you are ready to lock in your answer, press ENTER)</b></p><button id = button_1 class = ""square num-button"" onclick = ""recordClick(this)""><div class = content><div class = numbers>C</div></div></button><button id = button_2 class = ""square num-button"" onclick = ""recordClick(this)""><div class = content><div class = numbers>G</div></div></button><button id = button_3 class = ""square num-button"" onclick = ""recordClick(this)""><div class = content><div class = numbers>H</div></div></button><button id = button_4 class = ""square num-button"" onclick = ""recordClick(this)""><div class = content><div class = numbers>J</div></div></button><button id = button_5 class = ""square num-button"" onclick = ""recordClick(this)""><div class = content><div class = numbers>K</div></div></button><button id = button_6 class = ""square num-button"" onclick = ""recordClick(this)""><div class = content><div class = numbers>L</div></div></button><button id = button_7 class = ""square num-button"" onclick = ""recordClick(this)""><div class = content><div class = numbers>N</div></div></button><button id = button_8 class = ""square num-button"" onclick = ""recordClick(this)""><div class = content><div class = numbers>P</div></div></button><button id = button_9 class = ""square num-button"" onclick = ""recordClick(this)""><div class = content><div class = numbers>Q</div></div></button><button id = button_10 class = ""square num-button"" onclick = ""recordClick(this)""><div class = content><div class = numbers>R</div></div></button><button id = button_11 class = ""square num-button"" onclick = ""recordClick(this)""><div class = content><div class = numbers>S</div></div></button><button id = button_12 class = ""square num-button"" onclick = ""recordClick(this)""><div class = content><div class = numbers>Y</div></div></button><button class = clear_button id = ""ClearButton"" onclick = ""clearResponse()"">BACKSPACE</button><button class = blank_button id = ""BlankButton"" onclick = ""blankResponse()"">SKIP</button><p style=""font-size: 2.4rem""><u><b>Current Answer:</b></u></p><br><br><div id=echoed_txt style=""font-size: 5rem; color:blue;""><b></b></div></div>",enter,ospan,retrieval,R59DSD6PthgngmJK4QokTMLDFSK2,html-keyboard-response,89,1188726,0.0-46.0-2.0-1.0-2.0-0.0,NA,NA,NA,3.0,"[""S"",""K""]","[""S"",""K"",""Q""]",0.0,2.0,"['<font color=""green"">S</font>', '<font color=""green"">K</font>', '<font color=""red"">Q</font>']",,,,,,63ea445c759d5bf0e3f63739,16:53:56,04/04/2024
1585.3999996185303,"['<p style=""font-size:44px"">Letters:<br><br><br><font color=""green"">S</font> <font color=""green"">K</font> <font color=""red"">Q</font></p><br><br><p style=""font-size:30px"">Symmetry:<br><br><font color=""green"">100%</font></p><br><br>']",0,ospan,practice_feedback,R59DSD6PthgngmJK4QokTMLDFSK2,html-button-response,90,1190831,0.0-46.0-2.0-1.0-2.0-1.0,,,,,,,,,,,,,,,63ea445c759d5bf0e3f63739,16:53:56,04/04/2024
,"<p style=""font-size:75px;"">...</p>",,ospan,iti,R59DSD6PthgngmJK4QokTMLDFSK2,html-keyboard-response,91,1191846,0.0-46.0-2.0-2.0-0.0,,,,,,,,,,,,,,,63ea445c759d5bf0e3f63739,16:53:56,04/04/2024
1640.0,,,ospan,symmetry,R59DSD6PthgngmJK4QokTMLDFSK2,symmetry-judgement-task,92,1195687,0.0-46.0-2.0-2.0-1.0-0.0,,,,,,,,,,1.0,1.0,,,,63ea445c759d5bf0e3f63739,16:53:56,04/04/2024
,"<div style=""font-size: 10rem; color: #0000FF"">G</div>",,ospan,letter,R59DSD6PthgngmJK4QokTMLDFSK2,html-keyboard-response,93,1196708,0.0-46.0-2.0-2.0-1.0-1.0,,,,,,,,,,,,,,,63ea445c759d5bf0e3f63739,16:53:56,04/04/2024
6733.0,,,ospan,symmetry,R59DSD6PthgngmJK4QokTMLDFSK2,symmetry-judgement-task,94,1206193,0.0-46.0-2.0-2.0-1.0-2.0,,,,,,,,,,1.0,1.0,,,,63ea445c759d5bf0e3f63739,16:53:56,04/04/2024
,"<div style=""font-size: 10rem; color: #0000FF"">S</div>",,ospan,letter,R59DSD6PthgngmJK4QokTMLDFSK2,html-keyboard-response,95,1207211,0.0-46.0-2.0-2.0-1.0-3.0,,,,,,,,,,,,,,,63ea445c759d5bf0e3f63739,16:53:56,04/04/2024
4071.0,,,ospan,symmetry,R59DSD6PthgngmJK4QokTMLDFSK2,symmetry-judgement-task,96,1214209,0.0-46.0-2.0-2.0-1.0-4.0,,,,,,,,,,1.0,1.0,,,,63ea445c759d5bf0e3f63739,16:53:56,04/04/2024
,"<div style=""font-size: 10rem; color: #0000FF"">N</div>",,ospan,letter,R59DSD6PthgngmJK4QokTMLDFSK2,html-keyboard-response,97,1215230,0.0-46.0-2.0-2.0-1.0-5.0,,,,,,,,,,,,,,,63ea445c759d5bf0e3f63739,16:53:56,04/04/2024
7246.900000572205,"<div class = numbox><p style=""font-size: 2.4rem"">Please recall the letters you saw to the best of your ability. If you do not remember a particular letter, use the SKIP button.<br><b>(When you are ready to lock in your answer, press ENTER)</b></p><button id = button_1 class = ""square num-button"" onclick = ""recordClick(this)""><div class = content><div class = numbers>C</div></div></button><button id = button_2 class = ""square num-button"" onclick = ""recordClick(this)""><div class = content><div class = numbers>G</div></div></button><button id = button_3 class = ""square num-button"" onclick = ""recordClick(this)""><div class = content><div class = numbers>H</div></div></button><button id = button_4 class = ""square num-button"" onclick = ""recordClick(this)""><div class = content><div class = numbers>J</div></div></button><button id = button_5 class = ""square num-button"" onclick = ""recordClick(this)""><div class = content><div class = numbers>K</div></div></button><button id = button_6 class = ""square num-button"" onclick = ""recordClick(this)""><div class = content><div class = numbers>L</div></div></button><button id = button_7 class = ""square num-button"" onclick = ""recordClick(this)""><div class = content><div class = numbers>N</div></div></button><button id = button_8 class = ""square num-button"" onclick = ""recordClick(this)""><div class = content><div class = numbers>P</div></div></button><button id = button_9 class = ""square num-button"" onclick = ""recordClick(this)""><div class = content><div class = numbers>Q</div></div></button><button id = button_10 class = ""square num-button"" onclick = ""recordClick(this)""><div class = content><div class = numbers>R</div></div></button><button id = button_11 class = ""square num-button"" onclick = ""recordClick(this)""><div class = content><div class = numbers>S</div></div></button><button id = button_12 class = ""square num-button"" onclick = ""recordClick(this)""><div class = content><div class = numbers>Y</div></div></button><button class = clear_button id = ""ClearButton"" onclick = ""clearResponse()"">BACKSPACE</button><button class = blank_button id = ""BlankButton"" onclick = ""blankResponse()"">SKIP</button><p style=""font-size: 2.4rem""><u><b>Current Answer:</b></u></p><br><br><div id=echoed_txt style=""font-size: 5rem; color:blue;""><b></b></div></div>",enter,ospan,retrieval,R59DSD6PthgngmJK4QokTMLDFSK2,html-keyboard-response,98,1223245,0.0-46.0-2.0-2.0-2.0-0.0,NA,NA,NA,3.0,"[""G"",""S"",""N""]","[""G"",""S"",""N""]",1.0,3.0,"['<font color=""green"">G</font>', '<font color=""green"">S</font>', '<font color=""green"">N</font>']",,,,,,63ea445c759d5bf0e3f63739,16:53:56,04/04/2024
1313.1000003814697,"['<p style=""font-size:44px"">Letters:<br><br><br><font color=""green"">G</font> <font color=""green"">S</font> <font color=""green"">N</font></p><br><br><p style=""font-size:30px"">Symmetry:<br><br><font color=""green"">100%</font></p><br><br>']",0,ospan,practice_feedback,R59DSD6PthgngmJK4QokTMLDFSK2,html-button-response,99,1225081,0.0-46.0-2.0-2.0-2.0-1.0,,,,,,,,,,,,,,,63ea445c759d5bf0e3f63739,16:53:56,04/04/2024
9830.5,"<div class = 'left_align' style='font-size: 3rem; line-height: 1.3;'><b>Great work! That is the end of practice.</b><br><br>The real trials will look just like the practice trials you just completed.<br><br><u>Here, you will not see feedback</u>. First, you will see an grid picture to judge,<br>then a letter to remember. When the recall screen appears, report the letters in the<br>order presented. If you forget a letter, remember to use the <b>blank</b> button to move to the<br>next letter. Some of the sets will have more symmetry grids and letters than others.<br><br>It is important that you do your best on both the symmetry judgments and the letter recall<br>parts of the experiment. For for the symmetry judgments, try to work as <b>quickly</b> and <br>as <b>accurately</b> as possible. Remember to keep your symmetry accuracy at 85% or above.<br><br><b>For the letters, do NOT use any external aid (e.g., writing on paper, electronic device).</b><br><br>It is <u>very important</u> to our experiment to have a <b>true</b> view of your real performance.<br><br>Do not worry if you miss some when it gets hard! This task is meant to be very challenging!<br><br>Click the button to begin.</div><br><br><br><br>",0,ospan,starting_real_here,R59DSD6PthgngmJK4QokTMLDFSK2,html-button-response,100,1234917,0.0-46.0-2.0-3.0,,,,,,,,,,,,,,,63ea445c759d5bf0e3f63739,16:53:56,04/04/2024
,"<p style=""font-size:75px;"">...</p>",,ospan,iti,R59DSD6PthgngmJK4QokTMLDFSK2,html-keyboard-response,101,1236213,0.0-46.0-3.0-0.0-0.0,,,,,,,,,,,,,,,63ea445c759d5bf0e3f63739,16:53:56,04/04/2024
5038.0,,,ospan,symmetry,R59DSD6PthgngmJK4QokTMLDFSK2,symmetry-judgement-task,102,1243568,0.0-46.0-3.0-0.0-1.0-0.0,,,,,,,,,,1.0,1.0,,,,63ea445c759d5bf0e3f63739,16:53:56,04/04/2024
,"<div style=""font-size: 10rem; color: #0000FF"">N</div>",,ospan,letter,R59DSD6PthgngmJK4QokTMLDFSK2,html-keyboard-response,103,1244588,0.0-46.0-3.0-0.0-1.0-1.0,,,,,,,,,,,,,,,63ea445c759d5bf0e3f63739,16:53:56,04/04/2024
4238.0,,,ospan,symmetry,R59DSD6PthgngmJK4QokTMLDFSK2,symmetry-judgement-task,104,1251562,0.0-46.0-3.0-0.0-1.0-2.0,,,,,,,,,,1.0,1.0,,,,63ea445c759d5bf0e3f63739,16:53:56,04/04/2024
,"<div style=""font-size: 10rem; color: #0000FF"">R</div>",,ospan,letter,R59DSD6PthgngmJK4QokTMLDFSK2,html-keyboard-response,105,1252582,0.0-46.0-3.0-0.0-1.0-3.0,,,,,,,,,,,,,,,63ea445c759d5bf0e3f63739,16:53:56,04/04/2024
4816.0,,,ospan,symmetry,R59DSD6PthgngmJK4QokTMLDFSK2,symmetry-judgement-task,106,1260116,0.0-46.0-3.0-0.0-1.0-4.0,,,,,,,,,,1.0,1.0,,,,63ea445c759d5bf0e3f63739,16:53:56,04/04/2024
,"<div style=""font-size: 10rem; color: #0000FF"">Q</div>",,ospan,letter,R59DSD6PthgngmJK4QokTMLDFSK2,html-keyboard-response,107,1261138,0.0-46.0-3.0-0.0-1.0-5.0,,,,,,,,,,,,,,,63ea445c759d5bf0e3f63739,16:53:56,04/04/2024
4086.199999809265,"<div class = numbox><p style=""font-size: 2.4rem"">Please recall the letters you saw to the best of your ability. If you do not remember a particular letter, use the SKIP button.<br><b>(When you are ready to lock in your answer, press ENTER)</b></p><button id = button_1 class = ""square num-button"" onclick = ""recordClick(this)""><div class = content><div class = numbers>C</div></div></button><button id = button_2 class = ""square num-button"" onclick = ""recordClick(this)""><div class = content><div class = numbers>G</div></div></button><button id = button_3 class = ""square num-button"" onclick = ""recordClick(this)""><div class = content><div class = numbers>H</div></div></button><button id = button_4 class = ""square num-button"" onclick = ""recordClick(this)""><div class = content><div class = numbers>J</div></div></button><button id = button_5 class = ""square num-button"" onclick = ""recordClick(this)""><div class = content><div class = numbers>K</div></div></button><button id = button_6 class = ""square num-button"" onclick = ""recordClick(this)""><div class = content><div class = numbers>L</div></div></button><button id = button_7 class = ""square num-button"" onclick = ""recordClick(this)""><div class = content><div class = numbers>N</div></div></button><button id = button_8 class = ""square num-button"" onclick = ""recordClick(this)""><div class = content><div class = numbers>P</div></div></button><button id = button_9 class = ""square num-button"" onclick = ""recordClick(this)""><div class = content><div class = numbers>Q</div></div></button><button id = button_10 class = ""square num-button"" onclick = ""recordClick(this)""><div class = content><div class = numbers>R</div></div></button><button id = button_11 class = ""square num-button"" onclick = ""recordClick(this)""><div class = content><div class = numbers>S</div></div></button><button id = button_12 class = ""square num-button"" onclick = ""recordClick(this)""><div class = content><div class = numbers>Y</div></div></button><button class = clear_button id = ""ClearButton"" onclick = ""clearResponse()"">BACKSPACE</button><button class = blank_button id = ""BlankButton"" onclick = ""blankResponse()"">SKIP</button><p style=""font-size: 2.4rem""><u><b>Current Answer:</b></u></p><br><br><div id=echoed_txt style=""font-size: 5rem; color:blue;""><b></b></div></div>",enter,ospan,retrieval,R59DSD6PthgngmJK4QokTMLDFSK2,html-keyboard-response,108,1265992,0.0-46.0-3.0-0.0-2.0,3,3,3,3.0,"[""N"",""R"",""Q""]","[""N"",""R"",""Q""]",1.0,3.0,,,,,,,63ea445c759d5bf0e3f63739,16:53:56,04/04/2024
4565.5,[''],0,ospan,feedback,R59DSD6PthgngmJK4QokTMLDFSK2,html-button-response,109,1271074,0.0-46.0-3.0-0.0-3.0,,,,,,,,,,,,100.0,0.0,,63ea445c759d5bf0e3f63739,16:53:56,04/04/2024
,"<p style=""font-size:75px;"">...</p>",,ospan,iti,R59DSD6PthgngmJK4QokTMLDFSK2,html-keyboard-response,110,1272088,0.0-46.0-4.0-0.0-0.0,,,,,,,,,,,,,,,63ea445c759d5bf0e3f63739,16:53:56,04/04/2024
5275.0,,,ospan,symmetry,R59DSD6PthgngmJK4QokTMLDFSK2,symmetry-judgement-task,111,1279434,0.0-46.0-4.0-0.0-1.0-0.0,,,,,,,,,,1.0,1.0,,,,63ea445c759d5bf0e3f63739,16:53:56,04/04/2024
,"<div style=""font-size: 10rem; color: #0000FF"">H</div>",,ospan,letter,R59DSD6PthgngmJK4QokTMLDFSK2,html-keyboard-response,112,1280442,0.0-46.0-4.0-0.0-1.0-1.0,,,,,,,,,,,,,,,63ea445c759d5bf0e3f63739,16:53:56,04/04/2024
6996.0,,,ospan,symmetry,R59DSD6PthgngmJK4QokTMLDFSK2,symmetry-judgement-task,113,1290236,0.0-46.0-4.0-0.0-1.0-2.0,,,,,,,,,,1.0,1.0,,,,63ea445c759d5bf0e3f63739,16:53:56,04/04/2024
,"<div style=""font-size: 10rem; color: #0000FF"">J</div>",,ospan,letter,R59DSD6PthgngmJK4QokTMLDFSK2,html-keyboard-response,114,1291249,0.0-46.0-4.0-0.0-1.0-3.0,,,,,,,,,,,,,,,63ea445c759d5bf0e3f63739,16:53:56,04/04/2024
4671.0,,,ospan,symmetry,R59DSD6PthgngmJK4QokTMLDFSK2,symmetry-judgement-task,115,1298621,0.0-46.0-4.0-0.0-1.0-4.0,,,,,,,,,,1.0,1.0,,,,63ea445c759d5bf0e3f63739,16:53:56,04/04/2024
,"<div style=""font-size: 10rem; color: #0000FF"">L</div>",,ospan,letter,R59DSD6PthgngmJK4QokTMLDFSK2,html-keyboard-response,116,1299636,0.0-46.0-4.0-0.0-1.0-5.0,,,,,,,,,,,,,,,63ea445c759d5bf0e3f63739,16:53:56,04/04/2024
2150.0,,,ospan,symmetry,R59DSD6PthgngmJK4QokTMLDFSK2,symmetry-judgement-task,117,1304549,0.0-46.0-4.0-0.0-1.0-6.0,,,,,,,,,,1.0,1.0,,,,63ea445c759d5bf0e3f63739,16:53:56,04/04/2024
,"<div style=""font-size: 10rem; color: #0000FF"">Q</div>",,ospan,letter,R59DSD6PthgngmJK4QokTMLDFSK2,html-keyboard-response,118,1305580,0.0-46.0-4.0-0.0-1.0-7.0,,,,,,,,,,,,,,,63ea445c759d5bf0e3f63739,16:53:56,04/04/2024
6655.0,"<div class = numbox><p style=""font-size: 2.4rem"">Please recall the letters you saw to the best of your ability. If you do not remember a particular letter, use the SKIP button.<br><b>(When you are ready to lock in your answer, press ENTER)</b></p><button id = button_1 class = ""square num-button"" onclick = ""recordClick(this)""><div class = content><div class = numbers>C</div></div></button><button id = button_2 class = ""square num-button"" onclick = ""recordClick(this)""><div class = content><div class = numbers>G</div></div></button><button id = button_3 class = ""square num-button"" onclick = ""recordClick(this)""><div class = content><div class = numbers>H</div></div></button><button id = button_4 class = ""square num-button"" onclick = ""recordClick(this)""><div class = content><div class = numbers>J</div></div></button><button id = button_5 class = ""square num-button"" onclick = ""recordClick(this)""><div class = content><div class = numbers>K</div></div></button><button id = button_6 class = ""square num-button"" onclick = ""recordClick(this)""><div class = content><div class = numbers>L</div></div></button><button id = button_7 class = ""square num-button"" onclick = ""recordClick(this)""><div class = content><div class = numbers>N</div></div></button><button id = button_8 class = ""square num-button"" onclick = ""recordClick(this)""><div class = content><div class = numbers>P</div></div></button><button id = button_9 class = ""square num-button"" onclick = ""recordClick(this)""><div class = content><div class = numbers>Q</div></div></button><button id = button_10 class = ""square num-button"" onclick = ""recordClick(this)""><div class = content><div class = numbers>R</div></div></button><button id = button_11 class = ""square num-button"" onclick = ""recordClick(this)""><div class = content><div class = numbers>S</div></div></button><button id = button_12 class = ""square num-button"" onclick = ""recordClick(this)""><div class = content><div class = numbers>Y</div></div></button><button class = clear_button id = ""ClearButton"" onclick = ""clearResponse()"">BACKSPACE</button><button class = blank_button id = ""BlankButton"" onclick = ""blankResponse()"">SKIP</button><p style=""font-size: 2.4rem""><u><b>Current Answer:</b></u></p><br><br><div id=echoed_txt style=""font-size: 5rem; color:blue;""><b></b></div></div>",enter,ospan,retrieval,R59DSD6PthgngmJK4QokTMLDFSK2,html-keyboard-response,119,1313002,0.0-46.0-4.0-0.0-2.0,7,7,7,4.0,"[""H"",""J"",""L"",""Q""]","[""H"",""J"",""L"",""Q""]",1.0,4.0,,,,,,,63ea445c759d5bf0e3f63739,16:53:56,04/04/2024
1209.8999996185303,[''],0,ospan,feedback,R59DSD6PthgngmJK4QokTMLDFSK2,html-button-response,120,1314727,0.0-46.0-4.0-0.0-3.0,,,,,,,,,,,,100.0,0.0,,63ea445c759d5bf0e3f63739,16:53:56,04/04/2024
,"<p style=""font-size:75px;"">...</p>",,ospan,iti,R59DSD6PthgngmJK4QokTMLDFSK2,html-keyboard-response,121,1315737,0.0-46.0-4.0-1.0-0.0,,,,,,,,,,,,,,,63ea445c759d5bf0e3f63739,16:53:56,04/04/2024
2658.0,,,ospan,symmetry,R59DSD6PthgngmJK4QokTMLDFSK2,symmetry-judgement-task,122,1320536,0.0-46.0-4.0-1.0-1.0-0.0,,,,,,,,,,1.0,1.0,,,,63ea445c759d5bf0e3f63739,16:53:56,04/04/2024
,"<div style=""font-size: 10rem; color: #0000FF"">Q</div>",,ospan,letter,R59DSD6PthgngmJK4QokTMLDFSK2,html-keyboard-response,123,1321552,0.0-46.0-4.0-1.0-1.0-1.0,,,,,,,,,,,,,,,63ea445c759d5bf0e3f63739,16:53:56,04/04/2024
1206.0,,,ospan,symmetry,R59DSD6PthgngmJK4QokTMLDFSK2,symmetry-judgement-task,124,1325481,0.0-46.0-4.0-1.0-1.0-2.0,,,,,,,,,,1.0,1.0,,,,63ea445c759d5bf0e3f63739,16:53:56,04/04/2024
,"<div style=""font-size: 10rem; color: #0000FF"">P</div>",,ospan,letter,R59DSD6PthgngmJK4QokTMLDFSK2,html-keyboard-response,125,1326501,0.0-46.0-4.0-1.0-1.0-3.0,,,,,,,,,,,,,,,63ea445c759d5bf0e3f63739,16:53:56,04/04/2024
1825.0,,,ospan,symmetry,R59DSD6PthgngmJK4QokTMLDFSK2,symmetry-judgement-task,126,1331288,0.0-46.0-4.0-1.0-1.0-4.0,,,,,,,,,,1.0,1.0,,,,63ea445c759d5bf0e3f63739,16:53:56,04/04/2024
,"<div style=""font-size: 10rem; color: #0000FF"">Y</div>",,ospan,letter,R59DSD6PthgngmJK4QokTMLDFSK2,html-keyboard-response,127,1332313,0.0-46.0-4.0-1.0-1.0-5.0,,,,,,,,,,,,,,,63ea445c759d5bf0e3f63739,16:53:56,04/04/2024
1793.0,,,ospan,symmetry,R59DSD6PthgngmJK4QokTMLDFSK2,symmetry-judgement-task,128,1336873,0.0-46.0-4.0-1.0-1.0-6.0,,,,,,,,,,1.0,1.0,,,,63ea445c759d5bf0e3f63739,16:53:56,04/04/2024
,"<div style=""font-size: 10rem; color: #0000FF"">K</div>",,ospan,letter,R59DSD6PthgngmJK4QokTMLDFSK2,html-keyboard-response,129,1337888,0.0-46.0-4.0-1.0-1.0-7.0,,,,,,,,,,,,,,,63ea445c759d5bf0e3f63739,16:53:56,04/04/2024
2980.0,,,ospan,symmetry,R59DSD6PthgngmJK4QokTMLDFSK2,symmetry-judgement-task,130,1343691,0.0-46.0-4.0-1.0-1.0-8.0,,,,,,,,,,1.0,1.0,,,,63ea445c759d5bf0e3f63739,16:53:56,04/04/2024
,"<div style=""font-size: 10rem; color: #0000FF"">N</div>",,ospan,letter,R59DSD6PthgngmJK4QokTMLDFSK2,html-keyboard-response,131,1344711,0.0-46.0-4.0-1.0-1.0-9.0,,,,,,,,,,,,,,,63ea445c759d5bf0e3f63739,16:53:56,04/04/2024
8840.79999923706,"<div class = numbox><p style=""font-size: 2.4rem"">Please recall the letters you saw to the best of your ability. If you do not remember a particular letter, use the SKIP button.<br><b>(When you are ready to lock in your answer, press ENTER)</b></p><button id = button_1 class = ""square num-button"" onclick = ""recordClick(this)""><div class = content><div class = numbers>C</div></div></button><button id = button_2 class = ""square num-button"" onclick = ""recordClick(this)""><div class = content><div class = numbers>G</div></div></button><button id = button_3 class = ""square num-button"" onclick = ""recordClick(this)""><div class = content><div class = numbers>H</div></div></button><button id = button_4 class = ""square num-button"" onclick = ""recordClick(this)""><div class = content><div class = numbers>J</div></div></button><button id = button_5 class = ""square num-button"" onclick = ""recordClick(this)""><div class = content><div class = numbers>K</div></div></button><button id = button_6 class = ""square num-button"" onclick = ""recordClick(this)""><div class = content><div class = numbers>L</div></div></button><button id = button_7 class = ""square num-button"" onclick = ""recordClick(this)""><div class = content><div class = numbers>N</div></div></button><button id = button_8 class = ""square num-button"" onclick = ""recordClick(this)""><div class = content><div class = numbers>P</div></div></button><button id = button_9 class = ""square num-button"" onclick = ""recordClick(this)""><div class = content><div class = numbers>Q</div></div></button><button id = button_10 class = ""square num-button"" onclick = ""recordClick(this)""><div class = content><div class = numbers>R</div></div></button><button id = button_11 class = ""square num-button"" onclick = ""recordClick(this)""><div class = content><div class = numbers>S</div></div></button><button id = button_12 class = ""square num-button"" onclick = ""recordClick(this)""><div class = content><div class = numbers>Y</div></div></button><button class = clear_button id = ""ClearButton"" onclick = ""clearResponse()"">BACKSPACE</button><button class = blank_button id = ""BlankButton"" onclick = ""blankResponse()"">SKIP</button><p style=""font-size: 2.4rem""><u><b>Current Answer:</b></u></p><br><br><div id=echoed_txt style=""font-size: 5rem; color:blue;""><b></b></div></div>",enter,ospan,retrieval,R59DSD6PthgngmJK4QokTMLDFSK2,html-keyboard-response,132,1354315,0.0-46.0-4.0-1.0-2.0,12,12,12,5.0,"[""Q"",""P"",""Y"",""K"",""N""]","[""Q"",""P"",""Y"",""K"",""N""]",1.0,5.0,,,,,,,63ea445c759d5bf0e3f63739,16:53:56,04/04/2024
1576.4000005722046,[''],0,ospan,feedback,R59DSD6PthgngmJK4QokTMLDFSK2,html-button-response,133,1356411,0.0-46.0-4.0-1.0-3.0,,,,,,,,,,,,100.0,0.0,,63ea445c759d5bf0e3f63739,16:53:56,04/04/2024
,"<p style=""font-size:75px;"">...</p>",,ospan,iti,R59DSD6PthgngmJK4QokTMLDFSK2,html-keyboard-response,134,1357436,0.0-46.0-4.0-2.0-0.0,,,,,,,,,,,,,,,63ea445c759d5bf0e3f63739,16:53:56,04/04/2024
4228.0,,,ospan,symmetry,R59DSD6PthgngmJK4QokTMLDFSK2,symmetry-judgement-task,135,1363809,0.0-46.0-4.0-2.0-1.0-0.0,,,,,,,,,,1.0,1.0,,,,63ea445c759d5bf0e3f63739,16:53:56,04/04/2024
,"<div style=""font-size: 10rem; color: #0000FF"">H</div>",,ospan,letter,R59DSD6PthgngmJK4QokTMLDFSK2,html-keyboard-response,136,1364829,0.0-46.0-4.0-2.0-1.0-1.0,,,,,,,,,,,,,,,63ea445c759d5bf0e3f63739,16:53:56,04/04/2024
5479.0,,,ospan,symmetry,R59DSD6PthgngmJK4QokTMLDFSK2,symmetry-judgement-task,137,1373186,0.0-46.0-4.0-2.0-1.0-2.0,,,,,,,,,,1.0,1.0,,,,63ea445c759d5bf0e3f63739,16:53:56,04/04/2024
,"<div style=""font-size: 10rem; color: #0000FF"">R</div>",,ospan,letter,R59DSD6PthgngmJK4QokTMLDFSK2,html-keyboard-response,138,1374208,0.0-46.0-4.0-2.0-1.0-3.0,,,,,,,,,,,,,,,63ea445c759d5bf0e3f63739,16:53:56,04/04/2024
1417.0,,,ospan,symmetry,R59DSD6PthgngmJK4QokTMLDFSK2,symmetry-judgement-task,139,1378384,0.0-46.0-4.0-2.0-1.0-4.0,,,,,,,,,,1.0,1.0,,,,63ea445c759d5bf0e3f63739,16:53:56,04/04/2024
,"<div style=""font-size: 10rem; color: #0000FF"">K</div>",,ospan,letter,R59DSD6PthgngmJK4QokTMLDFSK2,html-keyboard-response,140,1379400,0.0-46.0-4.0-2.0-1.0-5.0,,,,,,,,,,,,,,,63ea445c759d5bf0e3f63739,16:53:56,04/04/2024
5279.10000038147,"<div class = numbox><p style=""font-size: 2.4rem"">Please recall the letters you saw to the best of your ability. If you do not remember a particular letter, use the SKIP button.<br><b>(When you are ready to lock in your answer, press ENTER)</b></p><button id = button_1 class = ""square num-button"" onclick = ""recordClick(this)""><div class = content><div class = numbers>C</div></div></button><button id = button_2 class = ""square num-button"" onclick = ""recordClick(this)""><div class = content><div class = numbers>G</div></div></button><button id = button_3 class = ""square num-button"" onclick = ""recordClick(this)""><div class = content><div class = numbers>H</div></div></button><button id = button_4 class = ""square num-button"" onclick = ""recordClick(this)""><div class = content><div class = numbers>J</div></div></button><button id = button_5 class = ""square num-button"" onclick = ""recordClick(this)""><div class = content><div class = numbers>K</div></div></button><button id = button_6 class = ""square num-button"" onclick = ""recordClick(this)""><div class = content><div class = numbers>L</div></div></button><button id = button_7 class = ""square num-button"" onclick = ""recordClick(this)""><div class = content><div class = numbers>N</div></div></button><button id = button_8 class = ""square num-button"" onclick = ""recordClick(this)""><div class = content><div class = numbers>P</div></div></button><button id = button_9 class = ""square num-button"" onclick = ""recordClick(this)""><div class = content><div class = numbers>Q</div></div></button><button id = button_10 class = ""square num-button"" onclick = ""recordClick(this)""><div class = content><div class = numbers>R</div></div></button><button id = button_11 class = ""square num-button"" onclick = ""recordClick(this)""><div class = content><div class = numbers>S</div></div></button><button id = button_12 class = ""square num-button"" onclick = ""recordClick(this)""><div class = content><div class = numbers>Y</div></div></button><button class = clear_button id = ""ClearButton"" onclick = ""clearResponse()"">BACKSPACE</button><button class = blank_button id = ""BlankButton"" onclick = ""blankResponse()"">SKIP</button><p style=""font-size: 2.4rem""><u><b>Current Answer:</b></u></p><br><br><div id=echoed_txt style=""font-size: 5rem; color:blue;""><b></b></div></div>",enter,ospan,retrieval,R59DSD6PthgngmJK4QokTMLDFSK2,html-keyboard-response,141,1385441,0.0-46.0-4.0-2.0-2.0,15,15,15,3.0,"[""H"",""R"",""K""]","[""H"",""R"",""K""]",1.0,3.0,,,,,,,63ea445c759d5bf0e3f63739,16:53:56,04/04/2024
2548.5,[''],0,ospan,feedback,R59DSD6PthgngmJK4QokTMLDFSK2,html-button-response,142,1388508,0.0-46.0-4.0-2.0-3.0,,,,,,,,,,,,100.0,0.0,,63ea445c759d5bf0e3f63739,16:53:56,04/04/2024
,"<p style=""font-size:75px;"">...</p>",,ospan,iti,R59DSD6PthgngmJK4QokTMLDFSK2,html-keyboard-response,143,1389525,0.0-46.0-5.0-0.0-0.0,,,,,,,,,,,,,,,63ea445c759d5bf0e3f63739,16:53:56,04/04/2024
2105.0,,,ospan,symmetry,R59DSD6PthgngmJK4QokTMLDFSK2,symmetry-judgement-task,144,1393808,0.0-46.0-5.0-0.0-1.0-0.0,,,,,,,,,,1.0,1.0,,,,63ea445c759d5bf0e3f63739,16:53:56,04/04/2024
,"<div style=""font-size: 10rem; color: #0000FF"">G</div>",,ospan,letter,R59DSD6PthgngmJK4QokTMLDFSK2,html-keyboard-response,145,1394831,0.0-46.0-5.0-0.0-1.0-1.0,,,,,,,,,,,,,,,63ea445c759d5bf0e3f63739,16:53:56,04/04/2024
2723.0,,,ospan,symmetry,R59DSD6PthgngmJK4QokTMLDFSK2,symmetry-judgement-task,146,1400305,0.0-46.0-5.0-0.0-1.0-2.0,,,,,,,,,,1.0,1.0,,,,63ea445c759d5bf0e3f63739,16:53:56,04/04/2024
,"<div style=""font-size: 10rem; color: #0000FF"">J</div>",,ospan,letter,R59DSD6PthgngmJK4QokTMLDFSK2,html-keyboard-response,147,1401321,0.0-46.0-5.0-0.0-1.0-3.0,,,,,,,,,,,,,,,63ea445c759d5bf0e3f63739,16:53:56,04/04/2024
2706.0,,,ospan,symmetry,R59DSD6PthgngmJK4QokTMLDFSK2,symmetry-judgement-task,148,1406952,0.0-46.0-5.0-0.0-1.0-4.0,,,,,,,,,,1.0,1.0,,,,63ea445c759d5bf0e3f63739,16:53:56,04/04/2024
,"<div style=""font-size: 10rem; color: #0000FF"">K</div>",,ospan,letter,R59DSD6PthgngmJK4QokTMLDFSK2,html-keyboard-response,149,1407975,0.0-46.0-5.0-0.0-1.0-5.0,,,,,,,,,,,,,,,63ea445c759d5bf0e3f63739,16:53:56,04/04/2024
2671.0,,,ospan,symmetry,R59DSD6PthgngmJK4QokTMLDFSK2,symmetry-judgement-task,150,1413431,0.0-46.0-5.0-0.0-1.0-6.0,,,,,,,,,,1.0,1.0,,,,63ea445c759d5bf0e3f63739,16:53:56,04/04/2024
,"<div style=""font-size: 10rem; color: #0000FF"">N</div>",,ospan,letter,R59DSD6PthgngmJK4QokTMLDFSK2,html-keyboard-response,151,1414465,0.0-46.0-5.0-0.0-1.0-7.0,,,,,,,,,,,,,,,63ea445c759d5bf0e3f63739,16:53:56,04/04/2024
4205.0,,,ospan,symmetry,R59DSD6PthgngmJK4QokTMLDFSK2,symmetry-judgement-task,152,1421376,0.0-46.0-5.0-0.0-1.0-8.0,,,,,,,,,,1.0,1.0,,,,63ea445c759d5bf0e3f63739,16:53:56,04/04/2024
,"<div style=""font-size: 10rem; color: #0000FF"">H</div>",,ospan,letter,R59DSD6PthgngmJK4QokTMLDFSK2,html-keyboard-response,153,1422399,0.0-46.0-5.0-0.0-1.0-9.0,,,,,,,,,,,,,,,63ea445c759d5bf0e3f63739,16:53:56,04/04/2024
3173.0,,,ospan,symmetry,R59DSD6PthgngmJK4QokTMLDFSK2,symmetry-judgement-task,154,1428304,0.0-46.0-5.0-0.0-1.0-10.0,,,,,,,,,,1.0,1.0,,,,63ea445c759d5bf0e3f63739,16:53:56,04/04/2024
,"<div style=""font-size: 10rem; color: #0000FF"">R</div>",,ospan,letter,R59DSD6PthgngmJK4QokTMLDFSK2,html-keyboard-response,155,1429323,0.0-46.0-5.0-0.0-1.0-11.0,,,,,,,,,,,,,,,63ea445c759d5bf0e3f63739,16:53:56,04/04/2024
14520.60000038147,"<div class = numbox><p style=""font-size: 2.4rem"">Please recall the letters you saw to the best of your ability. If you do not remember a particular letter, use the SKIP button.<br><b>(When you are ready to lock in your answer, press ENTER)</b></p><button id = button_1 class = ""square num-button"" onclick = ""recordClick(this)""><div class = content><div class = numbers>C</div></div></button><button id = button_2 class = ""square num-button"" onclick = ""recordClick(this)""><div class = content><div class = numbers>G</div></div></button><button id = button_3 class = ""square num-button"" onclick = ""recordClick(this)""><div class = content><div class = numbers>H</div></div></button><button id = button_4 class = ""square num-button"" onclick = ""recordClick(this)""><div class = content><div class = numbers>J</div></div></button><button id = button_5 class = ""square num-button"" onclick = ""recordClick(this)""><div class = content><div class = numbers>K</div></div></button><button id = button_6 class = ""square num-button"" onclick = ""recordClick(this)""><div class = content><div class = numbers>L</div></div></button><button id = button_7 class = ""square num-button"" onclick = ""recordClick(this)""><div class = content><div class = numbers>N</div></div></button><button id = button_8 class = ""square num-button"" onclick = ""recordClick(this)""><div class = content><div class = numbers>P</div></div></button><button id = button_9 class = ""square num-button"" onclick = ""recordClick(this)""><div class = content><div class = numbers>Q</div></div></button><button id = button_10 class = ""square num-button"" onclick = ""recordClick(this)""><div class = content><div class = numbers>R</div></div></button><button id = button_11 class = ""square num-button"" onclick = ""recordClick(this)""><div class = content><div class = numbers>S</div></div></button><button id = button_12 class = ""square num-button"" onclick = ""recordClick(this)""><div class = content><div class = numbers>Y</div></div></button><button class = clear_button id = ""ClearButton"" onclick = ""clearResponse()"">BACKSPACE</button><button class = blank_button id = ""BlankButton"" onclick = ""blankResponse()"">SKIP</button><p style=""font-size: 2.4rem""><u><b>Current Answer:</b></u></p><br><br><div id=echoed_txt style=""font-size: 5rem; color:blue;""><b></b></div></div>",enter,ospan,retrieval,R59DSD6PthgngmJK4QokTMLDFSK2,html-keyboard-response,156,1444615,0.0-46.0-5.0-0.0-2.0,21,19,15,6.0,"[""G"",""J"",""N"",""K"",""H"",""R""]","[""G"",""J"",""K"",""N"",""H"",""R""]",0.0,4.0,,,,,,,63ea445c759d5bf0e3f63739,16:53:56,04/04/2024
2234.199999809265,[''],0,ospan,feedback,R59DSD6PthgngmJK4QokTMLDFSK2,html-button-response,157,1447363,0.0-46.0-5.0-0.0-3.0,,,,,,,,,,,,100.0,0.0,,63ea445c759d5bf0e3f63739,16:53:56,04/04/2024
,"<p style=""font-size:75px;"">...</p>",,ospan,iti,R59DSD6PthgngmJK4QokTMLDFSK2,html-keyboard-response,158,1448376,0.0-46.0-5.0-1.0-0.0,,,,,,,,,,,,,,,63ea445c759d5bf0e3f63739,16:53:56,04/04/2024
4521.0,,,ospan,symmetry,R59DSD6PthgngmJK4QokTMLDFSK2,symmetry-judgement-task,159,1455195,0.0-46.0-5.0-1.0-1.0-0.0,,,,,,,,,,1.0,1.0,,,,63ea445c759d5bf0e3f63739,16:53:56,04/04/2024
,"<div style=""font-size: 10rem; color: #0000FF"">R</div>",,ospan,letter,R59DSD6PthgngmJK4QokTMLDFSK2,html-keyboard-response,160,1456209,0.0-46.0-5.0-1.0-1.0-1.0,,,,,,,,,,,,,,,63ea445c759d5bf0e3f63739,16:53:56,04/04/2024
1472.0,,,ospan,symmetry,R59DSD6PthgngmJK4QokTMLDFSK2,symmetry-judgement-task,161,1460482,0.0-46.0-5.0-1.0-1.0-2.0,,,,,,,,,,1.0,1.0,,,,63ea445c759d5bf0e3f63739,16:53:56,04/04/2024
,"<div style=""font-size: 10rem; color: #0000FF"">P</div>",,ospan,letter,R59DSD6PthgngmJK4QokTMLDFSK2,html-keyboard-response,162,1461497,0.0-46.0-5.0-1.0-1.0-3.0,,,,,,,,,,,,,,,63ea445c759d5bf0e3f63739,16:53:56,04/04/2024
1800.0,,,ospan,symmetry,R59DSD6PthgngmJK4QokTMLDFSK2,symmetry-judgement-task,163,1466067,0.0-46.0-5.0-1.0-1.0-4.0,,,,,,,,,,1.0,1.0,,,,63ea445c759d5bf0e3f63739,16:53:56,04/04/2024
,"<div style=""font-size: 10rem; color: #0000FF"">C</div>",,ospan,letter,R59DSD6PthgngmJK4QokTMLDFSK2,html-keyboard-response,164,1467092,0.0-46.0-5.0-1.0-1.0-5.0,,,,,,,,,,,,,,,63ea445c759d5bf0e3f63739,16:53:56,04/04/2024
1345.0,,,ospan,symmetry,R59DSD6PthgngmJK4QokTMLDFSK2,symmetry-judgement-task,165,1471183,0.0-46.0-5.0-1.0-1.0-6.0,,,,,,,,,,1.0,1.0,,,,63ea445c759d5bf0e3f63739,16:53:56,04/04/2024
,"<div style=""font-size: 10rem; color: #0000FF"">Q</div>",,ospan,letter,R59DSD6PthgngmJK4QokTMLDFSK2,html-keyboard-response,166,1472192,0.0-46.0-5.0-1.0-1.0-7.0,,,,,,,,,,,,,,,63ea445c759d5bf0e3f63739,16:53:56,04/04/2024
1342.0,,,ospan,symmetry,R59DSD6PthgngmJK4QokTMLDFSK2,symmetry-judgement-task,167,1476311,0.0-46.0-5.0-1.0-1.0-8.0,,,,,,,,,,1.0,1.0,,,,63ea445c759d5bf0e3f63739,16:53:56,04/04/2024
,"<div style=""font-size: 10rem; color: #0000FF"">L</div>",,ospan,letter,R59DSD6PthgngmJK4QokTMLDFSK2,html-keyboard-response,168,1477333,0.0-46.0-5.0-1.0-1.0-9.0,,,,,,,,,,,,,,,63ea445c759d5bf0e3f63739,16:53:56,04/04/2024
6052.0,,,ospan,symmetry,R59DSD6PthgngmJK4QokTMLDFSK2,symmetry-judgement-task,169,1486225,0.0-46.0-5.0-1.0-1.0-10.0,,,,,,,,,,1.0,1.0,,,,63ea445c759d5bf0e3f63739,16:53:56,04/04/2024
,"<div style=""font-size: 10rem; color: #0000FF"">H</div>",,ospan,letter,R59DSD6PthgngmJK4QokTMLDFSK2,html-keyboard-response,170,1487242,0.0-46.0-5.0-1.0-1.0-11.0,,,,,,,,,,,,,,,63ea445c759d5bf0e3f63739,16:53:56,04/04/2024
3605.0,,,ospan,symmetry,R59DSD6PthgngmJK4QokTMLDFSK2,symmetry-judgement-task,171,1493655,0.0-46.0-5.0-1.0-1.0-12.0,,,,,,,,,,1.0,1.0,,,,63ea445c759d5bf0e3f63739,16:53:56,04/04/2024
,"<div style=""font-size: 10rem; color: #0000FF"">G</div>",,ospan,letter,R59DSD6PthgngmJK4QokTMLDFSK2,html-keyboard-response,172,1494667,0.0-46.0-5.0-1.0-1.0-13.0,,,,,,,,,,,,,,,63ea445c759d5bf0e3f63739,16:53:56,04/04/2024
7682.0,"<div class = numbox><p style=""font-size: 2.4rem"">Please recall the letters you saw to the best of your ability. If you do not remember a particular letter, use the SKIP button.<br><b>(When you are ready to lock in your answer, press ENTER)</b></p><button id = button_1 class = ""square num-button"" onclick = ""recordClick(this)""><div class = content><div class = numbers>C</div></div></button><button id = button_2 class = ""square num-button"" onclick = ""recordClick(this)""><div class = content><div class = numbers>G</div></div></button><button id = button_3 class = ""square num-button"" onclick = ""recordClick(this)""><div class = content><div class = numbers>H</div></div></button><button id = button_4 class = ""square num-button"" onclick = ""recordClick(this)""><div class = content><div class = numbers>J</div></div></button><button id = button_5 class = ""square num-button"" onclick = ""recordClick(this)""><div class = content><div class = numbers>K</div></div></button><button id = button_6 class = ""square num-button"" onclick = ""recordClick(this)""><div class = content><div class = numbers>L</div></div></button><button id = button_7 class = ""square num-button"" onclick = ""recordClick(this)""><div class = content><div class = numbers>N</div></div></button><button id = button_8 class = ""square num-button"" onclick = ""recordClick(this)""><div class = content><div class = numbers>P</div></div></button><button id = button_9 class = ""square num-button"" onclick = ""recordClick(this)""><div class = content><div class = numbers>Q</div></div></button><button id = button_10 class = ""square num-button"" onclick = ""recordClick(this)""><div class = content><div class = numbers>R</div></div></button><button id = button_11 class = ""square num-button"" onclick = ""recordClick(this)""><div class = content><div class = numbers>S</div></div></button><button id = button_12 class = ""square num-button"" onclick = ""recordClick(this)""><div class = content><div class = numbers>Y</div></div></button><button class = clear_button id = ""ClearButton"" onclick = ""clearResponse()"">BACKSPACE</button><button class = blank_button id = ""BlankButton"" onclick = ""blankResponse()"">SKIP</button><p style=""font-size: 2.4rem""><u><b>Current Answer:</b></u></p><br><br><div id=echoed_txt style=""font-size: 5rem; color:blue;""><b></b></div></div>",enter,ospan,retrieval,R59DSD6PthgngmJK4QokTMLDFSK2,html-keyboard-response,173,1503122,0.0-46.0-5.0-1.0-2.0,28,20,15,7.0,"[""R"",""C"",""P"",""L"",""G""]","[""R"",""P"",""C"",""Q"",""L"",""H"",""G""]",0.0,1.0,,,,,,,63ea445c759d5bf0e3f63739,16:53:56,04/04/2024
3994.300000190735,[''],0,ospan,feedback,R59DSD6PthgngmJK4QokTMLDFSK2,html-button-response,174,1507638,0.0-46.0-5.0-1.0-3.0,,,,,,,,,,,,100.0,0.0,,63ea445c759d5bf0e3f63739,16:53:56,04/04/2024
,"<p style=""font-size:75px;"">...</p>",,ospan,iti,R59DSD6PthgngmJK4QokTMLDFSK2,html-keyboard-response,175,1508660,0.0-46.0-6.0-0.0-0.0,,,,,,,,,,,,,,,63ea445c759d5bf0e3f63739,16:53:56,04/04/2024
3951.0,,,ospan,symmetry,R59DSD6PthgngmJK4QokTMLDFSK2,symmetry-judgement-task,176,1514729,0.0-46.0-6.0-0.0-1.0-0.0,,,,,,,,,,1.0,1.0,,,,63ea445c759d5bf0e3f63739,16:53:56,04/04/2024
,"<div style=""font-size: 10rem; color: #0000FF"">Q</div>",,ospan,letter,R59DSD6PthgngmJK4QokTMLDFSK2,html-keyboard-response,177,1515743,0.0-46.0-6.0-0.0-1.0-1.0,,,,,,,,,,,,,,,63ea445c759d5bf0e3f63739,16:53:56,04/04/2024
315.0,,,ospan,symmetry,R59DSD6PthgngmJK4QokTMLDFSK2,symmetry-judgement-task,178,1518857,0.0-46.0-6.0-0.0-1.0-2.0,,,,,,,,,,1.0,1.0,,,,63ea445c759d5bf0e3f63739,16:53:56,04/04/2024
,"<div style=""font-size: 10rem; color: #0000FF"">N</div>",,ospan,letter,R59DSD6PthgngmJK4QokTMLDFSK2,html-keyboard-response,179,1519875,0.0-46.0-6.0-0.0-1.0-3.0,,,,,,,,,,,,,,,63ea445c759d5bf0e3f63739,16:53:56,04/04/2024
2503.0,,,ospan,symmetry,R59DSD6PthgngmJK4QokTMLDFSK2,symmetry-judgement-task,180,1525148,0.0-46.0-6.0-0.0-1.0-4.0,,,,,,,,,,1.0,1.0,,,,63ea445c759d5bf0e3f63739,16:53:56,04/04/2024
,"<div style=""font-size: 10rem; color: #0000FF"">L</div>",,ospan,letter,R59DSD6PthgngmJK4QokTMLDFSK2,html-keyboard-response,181,1526179,0.0-46.0-6.0-0.0-1.0-5.0,,,,,,,,,,,,,,,63ea445c759d5bf0e3f63739,16:53:56,04/04/2024
2936.0,,,ospan,symmetry,R59DSD6PthgngmJK4QokTMLDFSK2,symmetry-judgement-task,182,1531997,0.0-46.0-6.0-0.0-1.0-6.0,,,,,,,,,,1.0,1.0,,,,63ea445c759d5bf0e3f63739,16:53:56,04/04/2024
,"<div style=""font-size: 10rem; color: #0000FF"">R</div>",,ospan,letter,R59DSD6PthgngmJK4QokTMLDFSK2,html-keyboard-response,183,1533013,0.0-46.0-6.0-0.0-1.0-7.0,,,,,,,,,,,,,,,63ea445c759d5bf0e3f63739,16:53:56,04/04/2024
1986.0,,,ospan,symmetry,R59DSD6PthgngmJK4QokTMLDFSK2,symmetry-judgement-task,184,1537731,0.0-46.0-6.0-0.0-1.0-8.0,,,,,,,,,,1.0,1.0,,,,63ea445c759d5bf0e3f63739,16:53:56,04/04/2024
,"<div style=""font-size: 10rem; color: #0000FF"">K</div>",,ospan,letter,R59DSD6PthgngmJK4QokTMLDFSK2,html-keyboard-response,185,1538749,0.0-46.0-6.0-0.0-1.0-9.0,,,,,,,,,,,,,,,63ea445c759d5bf0e3f63739,16:53:56,04/04/2024
7281.799999237061,"<div class = numbox><p style=""font-size: 2.4rem"">Please recall the letters you saw to the best of your ability. If you do not remember a particular letter, use the SKIP button.<br><b>(When you are ready to lock in your answer, press ENTER)</b></p><button id = button_1 class = ""square num-button"" onclick = ""recordClick(this)""><div class = content><div class = numbers>C</div></div></button><button id = button_2 class = ""square num-button"" onclick = ""recordClick(this)""><div class = content><div class = numbers>G</div></div></button><button id = button_3 class = ""square num-button"" onclick = ""recordClick(this)""><div class = content><div class = numbers>H</div></div></button><button id = button_4 class = ""square num-button"" onclick = ""recordClick(this)""><div class = content><div class = numbers>J</div></div></button><button id = button_5 class = ""square num-button"" onclick = ""recordClick(this)""><div class = content><div class = numbers>K</div></div></button><button id = button_6 class = ""square num-button"" onclick = ""recordClick(this)""><div class = content><div class = numbers>L</div></div></button><button id = button_7 class = ""square num-button"" onclick = ""recordClick(this)""><div class = content><div class = numbers>N</div></div></button><button id = button_8 class = ""square num-button"" onclick = ""recordClick(this)""><div class = content><div class = numbers>P</div></div></button><button id = button_9 class = ""square num-button"" onclick = ""recordClick(this)""><div class = content><div class = numbers>Q</div></div></button><button id = button_10 class = ""square num-button"" onclick = ""recordClick(this)""><div class = content><div class = numbers>R</div></div></button><button id = button_11 class = ""square num-button"" onclick = ""recordClick(this)""><div class = content><div class = numbers>S</div></div></button><button id = button_12 class = ""square num-button"" onclick = ""recordClick(this)""><div class = content><div class = numbers>Y</div></div></button><button class = clear_button id = ""ClearButton"" onclick = ""clearResponse()"">BACKSPACE</button><button class = blank_button id = ""BlankButton"" onclick = ""blankResponse()"">SKIP</button><p style=""font-size: 2.4rem""><u><b>Current Answer:</b></u></p><br><br><div id=echoed_txt style=""font-size: 5rem; color:blue;""><b></b></div></div>",enter,ospan,retrieval,R59DSD6PthgngmJK4QokTMLDFSK2,html-keyboard-response,186,1546803,0.0-46.0-6.0-0.0-2.0,33,24,15,5.0,"[""Q"",""N"",""L"",""R""]","[""Q"",""N"",""L"",""R"",""K""]",0.0,4.0,,,,,,,63ea445c759d5bf0e3f63739,16:53:56,04/04/2024
233704.0,[''],0,ospan,feedback,R59DSD6PthgngmJK4QokTMLDFSK2,html-button-response,187,1781031,0.0-46.0-6.0-0.0-3.0,,,,,,,,,,,,100.0,0.0,,63ea445c759d5bf0e3f63739,16:53:56,04/04/2024
,"<p style=""font-size:75px;"">...</p>",,ospan,iti,R59DSD6PthgngmJK4QokTMLDFSK2,html-keyboard-response,188,1782045,0.0-46.0-6.0-1.0-0.0,,,,,,,,,,,,,,,63ea445c759d5bf0e3f63739,16:53:56,04/04/2024
4523.0,,,ospan,symmetry,R59DSD6PthgngmJK4QokTMLDFSK2,symmetry-judgement-task,189,1787862,0.0-46.0-6.0-1.0-1.0-0.0,,,,,,,,,,1.0,1.0,,,,63ea445c759d5bf0e3f63739,16:53:56,04/04/2024
,"<div style=""font-size: 10rem; color: #0000FF"">Y</div>",,ospan,letter,R59DSD6PthgngmJK4QokTMLDFSK2,html-keyboard-response,190,1788885,0.0-46.0-6.0-1.0-1.0-1.0,,,,,,,,,,,,,,,63ea445c759d5bf0e3f63739,16:53:56,04/04/2024
1895.0,,,ospan,symmetry,R59DSD6PthgngmJK4QokTMLDFSK2,symmetry-judgement-task,191,1793520,0.0-46.0-6.0-1.0-1.0-2.0,,,,,,,,,,1.0,1.0,,,,63ea445c759d5bf0e3f63739,16:53:56,04/04/2024
,"<div style=""font-size: 10rem; color: #0000FF"">P</div>",,ospan,letter,R59DSD6PthgngmJK4QokTMLDFSK2,html-keyboard-response,192,1794546,0.0-46.0-6.0-1.0-1.0-3.0,,,,,,,,,,,,,,,63ea445c759d5bf0e3f63739,16:53:56,04/04/2024
1322.0,,,ospan,symmetry,R59DSD6PthgngmJK4QokTMLDFSK2,symmetry-judgement-task,193,1798762,0.0-46.0-6.0-1.0-1.0-4.0,,,,,,,,,,1.0,1.0,,,,63ea445c759d5bf0e3f63739,16:53:56,04/04/2024
,"<div style=""font-size: 10rem; color: #0000FF"">R</div>",,ospan,letter,R59DSD6PthgngmJK4QokTMLDFSK2,html-keyboard-response,194,1799776,0.0-46.0-6.0-1.0-1.0-5.0,,,,,,,,,,,,,,,63ea445c759d5bf0e3f63739,16:53:56,04/04/2024
2042.0,,,ospan,symmetry,R59DSD6PthgngmJK4QokTMLDFSK2,symmetry-judgement-task,195,1804549,0.0-46.0-6.0-1.0-1.0-6.0,,,,,,,,,,1.0,1.0,,,,63ea445c759d5bf0e3f63739,16:53:56,04/04/2024
,"<div style=""font-size: 10rem; color: #0000FF"">Q</div>",,ospan,letter,R59DSD6PthgngmJK4QokTMLDFSK2,html-keyboard-response,196,1805566,0.0-46.0-6.0-1.0-1.0-7.0,,,,,,,,,,,,,,,63ea445c759d5bf0e3f63739,16:53:56,04/04/2024
2401.0,,,ospan,symmetry,R59DSD6PthgngmJK4QokTMLDFSK2,symmetry-judgement-task,197,1810803,0.0-46.0-6.0-1.0-1.0-8.0,,,,,,,,,,1.0,1.0,,,,63ea445c759d5bf0e3f63739,16:53:56,04/04/2024
,"<div style=""font-size: 10rem; color: #0000FF"">C</div>",,ospan,letter,R59DSD6PthgngmJK4QokTMLDFSK2,html-keyboard-response,198,1811823,0.0-46.0-6.0-1.0-1.0-9.0,,,,,,,,,,,,,,,63ea445c759d5bf0e3f63739,16:53:56,04/04/2024
3406.0,,,ospan,symmetry,R59DSD6PthgngmJK4QokTMLDFSK2,symmetry-judgement-task,199,1817946,0.0-46.0-6.0-1.0-1.0-10.0,,,,,,,,,,1.0,1.0,,,,63ea445c759d5bf0e3f63739,16:53:56,04/04/2024
,"<div style=""font-size: 10rem; color: #0000FF"">K</div>",,ospan,letter,R59DSD6PthgngmJK4QokTMLDFSK2,html-keyboard-response,200,1818963,0.0-46.0-6.0-1.0-1.0-11.0,,,,,,,,,,,,,,,63ea445c759d5bf0e3f63739,16:53:56,04/04/2024
2498.0,,,ospan,symmetry,R59DSD6PthgngmJK4QokTMLDFSK2,symmetry-judgement-task,201,1824207,0.0-46.0-6.0-1.0-1.0-12.0,,,,,,,,,,1.0,1.0,,,,63ea445c759d5bf0e3f63739,16:53:56,04/04/2024
,"<div style=""font-size: 10rem; color: #0000FF"">L</div>",,ospan,letter,R59DSD6PthgngmJK4QokTMLDFSK2,html-keyboard-response,202,1825223,0.0-46.0-6.0-1.0-1.0-13.0,,,,,,,,,,,,,,,63ea445c759d5bf0e3f63739,16:53:56,04/04/2024
1375.0,,,ospan,symmetry,R59DSD6PthgngmJK4QokTMLDFSK2,symmetry-judgement-task,203,1829320,0.0-46.0-6.0-1.0-1.0-14.0,,,,,,,,,,1.0,1.0,,,,63ea445c759d5bf0e3f63739,16:53:56,04/04/2024
,"<div style=""font-size: 10rem; color: #0000FF"">N</div>",,ospan,letter,R59DSD6PthgngmJK4QokTMLDFSK2,html-keyboard-response,204,1830340,0.0-46.0-6.0-1.0-1.0-15.0,,,,,,,,,,,,,,,63ea445c759d5bf0e3f63739,16:53:56,04/04/2024
31951.199999809265,"<div class = numbox><p style=""font-size: 2.4rem"">Please recall the letters you saw to the best of your ability. If you do not remember a particular letter, use the SKIP button.<br><b>(When you are ready to lock in your answer, press ENTER)</b></p><button id = button_1 class = ""square num-button"" onclick = ""recordClick(this)""><div class = content><div class = numbers>C</div></div></button><button id = button_2 class = ""square num-button"" onclick = ""recordClick(this)""><div class = content><div class = numbers>G</div></div></button><button id = button_3 class = ""square num-button"" onclick = ""recordClick(this)""><div class = content><div class = numbers>H</div></div></button><button id = button_4 class = ""square num-button"" onclick = ""recordClick(this)""><div class = content><div class = numbers>J</div></div></button><button id = button_5 class = ""square num-button"" onclick = ""recordClick(this)""><div class = content><div class = numbers>K</div></div></button><button id = button_6 class = ""square num-button"" onclick = ""recordClick(this)""><div class = content><div class = numbers>L</div></div></button><button id = button_7 class = ""square num-button"" onclick = ""recordClick(this)""><div class = content><div class = numbers>N</div></div></button><button id = button_8 class = ""square num-button"" onclick = ""recordClick(this)""><div class = content><div class = numbers>P</div></div></button><button id = button_9 class = ""square num-button"" onclick = ""recordClick(this)""><div class = content><div class = numbers>Q</div></div></button><button id = button_10 class = ""square num-button"" onclick = ""recordClick(this)""><div class = content><div class = numbers>R</div></div></button><button id = button_11 class = ""square num-button"" onclick = ""recordClick(this)""><div class = content><div class = numbers>S</div></div></button><button id = button_12 class = ""square num-button"" onclick = ""recordClick(this)""><div class = content><div class = numbers>Y</div></div></button><button class = clear_button id = ""ClearButton"" onclick = ""clearResponse()"">BACKSPACE</button><button class = blank_button id = ""BlankButton"" onclick = ""blankResponse()"">SKIP</button><p style=""font-size: 2.4rem""><u><b>Current Answer:</b></u></p><br><br><div id=echoed_txt style=""font-size: 5rem; color:blue;""><b></b></div></div>",enter,ospan,retrieval,R59DSD6PthgngmJK4QokTMLDFSK2,html-keyboard-response,205,1863063,0.0-46.0-6.0-1.0-2.0,41,29,15,8.0,"[""Y"",""P"",""R"",""Q"",""C"",""L""]","[""Y"",""P"",""R"",""Q"",""C"",""K"",""L"",""N""]",0.0,5.0,,,,,,,63ea445c759d5bf0e3f63739,16:53:56,04/04/2024
2517.7000007629395,[''],0,ospan,feedback,R59DSD6PthgngmJK4QokTMLDFSK2,html-button-response,206,1866098,0.0-46.0-6.0-1.0-3.0,,,,,,,,,,,,100.0,0.0,,63ea445c759d5bf0e3f63739,16:53:56,04/04/2024
20176.699999809265,,{'Q0': 'It was so hard rememering the letters'},ospan,survey_ospan,R59DSD6PthgngmJK4QokTMLDFSK2,lmdlab-survey-text,207,1887042,0.0-46.0-7.0,,,,,,,,,,,,,,R59DSD6PthgngmJK4QokTMLDFSK2,63ea445c759d5bf0e3f63739,16:53:56,04/04/2024
4434.5,<p><p style='font-size: 3rem'>Great work!<br><br>This completes the symmetry and memory task.</p><br><br><br>,0,ospan,finish,R59DSD6PthgngmJK4QokTMLDFSK2,html-button-response,208,1891489,0.0-46.0-8.0,41,29,15,,,,,,,,,100.0,,,63ea445c759d5bf0e3f63739,16:53:56,04/04/2024
