rt,stimulus,response,exp_name,exp_stage,subjectID,trial_type,trial_index,time_elapsed,internal_node_id,ospan_shown,ospan_total,ospan_abs,length,resp_actual,resp_correct,full_correct,num_correct,feedback,accuracy,correct,math_acc,math_warning,databaseID,prolificID,start_time,date
1801.5,<div class = 'left_align' style='font-size: 3.25rem; line-height: 1.3;'><p class = 'center_align'><b>Welcome to the Symmetry and Memory Task</b><br><br><br><br></p>Press 'continue' to show the instructions.<br><br><br><br></div>,0,ospan,instruct,fo5erlFfLBfgJV0DTIQg5lAAzRf2,html-button-response,51,527538,0.0-43.0-0.0-0.0-0.0,,,,,,,,,,,,,,,5f0ebcdf13efbf091b37c4b4,15:35:57,06/03/2024
10470.100000023842,"<div class = 'left_align' style='font-size: 3.25rem; line-height: 1.3;'><p class = 'center_align'><b>Symmetry and Memory Task</b><br><br></p>In this task, you will try to memorize letters you see on the screen<br>while you also view black and white grid pictures.<br><br>In the next few minutes, you will have some practice to get you familiar<br>with how the task works.<br><br>It may be difficult sometimes, but please do not worry about making mistakes!<br><br>We will begin by practicing the letter part of the task.<br><br><br><br></div>",0,ospan,instruct,fo5erlFfLBfgJV0DTIQg5lAAzRf2,html-button-response,52,538266,0.0-43.0-0.0-0.0-1.0,,,,,,,,,,,,,,,5f0ebcdf13efbf091b37c4b4,15:35:57,06/03/2024
11214.400000095367,"<div class = 'left_align' style='font-size: 3.25rem; line-height: 1.3;'>For this practice part, letters will appear on the screen one at a time.<br><br>Try to remember each letter in the order presented.<br><br>After some letters have been shown, you will see a response screen. Your<br>goal is to report the letters you saw <b>in order</b>. If you do not remember<br>a particular letter, you will have the option to leave it blank.<br><br><br><br></div>",0,ospan,instruct,fo5erlFfLBfgJV0DTIQg5lAAzRf2,html-button-response,53,549739,0.0-43.0-0.0-0.0-2.0,,,,,,,,,,,,,,,5f0ebcdf13efbf091b37c4b4,15:35:57,06/03/2024
3160.600000023842,"<div class = 'left_align' style='font-size: 3.25rem; line-height: 1.3;'>Remember, it is very important to get the letters in the same<br>order as you see them.<br><br>When you are ready, you may begin the letter practice.</div><br><br><br><br>",0,ospan,instruct,fo5erlFfLBfgJV0DTIQg5lAAzRf2,html-button-response,54,553156,0.0-43.0-0.0-0.0-3.0,,,,,,,,,,,,,,,5f0ebcdf13efbf091b37c4b4,15:35:57,06/03/2024
,"<p style=""font-size:75px;"">...</p>",,ospan,iti,fo5erlFfLBfgJV0DTIQg5lAAzRf2,html-keyboard-response,55,554419,0.0-43.0-0.0-1.0-0.0,,,,,,,,,,,,,,,5f0ebcdf13efbf091b37c4b4,15:35:57,06/03/2024
,"<div style=""font-size: 10rem; color: #0000FF"">R</div>",,ospan,letter,fo5erlFfLBfgJV0DTIQg5lAAzRf2,html-keyboard-response,56,555427,0.0-43.0-0.0-1.0-1.0,,,,,,,,,,,,,,,5f0ebcdf13efbf091b37c4b4,15:35:57,06/03/2024
,"<div style=""font-size: 10rem; color: #0000FF"">P</div>",,ospan,letter,fo5erlFfLBfgJV0DTIQg5lAAzRf2,html-keyboard-response,57,557188,0.0-43.0-0.0-1.0-2.0,,,,,,,,,,,,,,,5f0ebcdf13efbf091b37c4b4,15:35:57,06/03/2024
6954.600000023842,"<div class = numbox><p style=""font-size: 2.4rem"">Please recall the letters you saw to the best of your ability. If you do not remember a particular letter, use the SKIP button.<br><b>(When you are ready to lock in your answer, press ENTER)</b></p><button id = button_1 class = ""square num-button"" onclick = ""recordClick(this)""><div class = content><div class = numbers>C</div></div></button><button id = button_2 class = ""square num-button"" onclick = ""recordClick(this)""><div class = content><div class = numbers>G</div></div></button><button id = button_3 class = ""square num-button"" onclick = ""recordClick(this)""><div class = content><div class = numbers>H</div></div></button><button id = button_4 class = ""square num-button"" onclick = ""recordClick(this)""><div class = content><div class = numbers>J</div></div></button><button id = button_5 class = ""square num-button"" onclick = ""recordClick(this)""><div class = content><div class = numbers>K</div></div></button><button id = button_6 class = ""square num-button"" onclick = ""recordClick(this)""><div class = content><div class = numbers>L</div></div></button><button id = button_7 class = ""square num-button"" onclick = ""recordClick(this)""><div class = content><div class = numbers>N</div></div></button><button id = button_8 class = ""square num-button"" onclick = ""recordClick(this)""><div class = content><div class = numbers>P</div></div></button><button id = button_9 class = ""square num-button"" onclick = ""recordClick(this)""><div class = content><div class = numbers>Q</div></div></button><button id = button_10 class = ""square num-button"" onclick = ""recordClick(this)""><div class = content><div class = numbers>R</div></div></button><button id = button_11 class = ""square num-button"" onclick = ""recordClick(this)""><div class = content><div class = numbers>S</div></div></button><button id = button_12 class = ""square num-button"" onclick = ""recordClick(this)""><div class = content><div class = numbers>Y</div></div></button><button class = clear_button id = ""ClearButton"" onclick = ""clearResponse()"">BACKSPACE</button><button class = blank_button id = ""BlankButton"" onclick = ""blankResponse()"">SKIP</button><p style=""font-size: 2.4rem""><u><b>Current Answer:</b></u></p><br><br><div id=echoed_txt style=""font-size: 5rem; color:blue;""><b></b></div></div>",enter,ospan,retrieval,fo5erlFfLBfgJV0DTIQg5lAAzRf2,html-keyboard-response,58,564900,0.0-43.0-0.0-1.0-3.0,NA,NA,NA,2.0,"[""R"",""P""]","[""R"",""P""]",1.0,2.0,"['<font color=""green"">R</font>', '<font color=""green"">P</font>']",,,,,,5f0ebcdf13efbf091b37c4b4,15:35:57,06/03/2024
1298.3999999761581,"['<p style=""font-size:44px"">Letters:<br><br><br><font color=""green"">R</font> <font color=""green"">P</font></p><br><br>']",0,ospan,practice_feedback,fo5erlFfLBfgJV0DTIQg5lAAzRf2,html-button-response,59,566702,0.0-43.0-0.0-1.0-4.0,,,,,,,,,,,,,,,5f0ebcdf13efbf091b37c4b4,15:35:57,06/03/2024
,"<p style=""font-size:75px;"">...</p>",,ospan,iti,fo5erlFfLBfgJV0DTIQg5lAAzRf2,html-keyboard-response,60,567710,0.0-43.0-0.0-2.0-0.0,,,,,,,,,,,,,,,5f0ebcdf13efbf091b37c4b4,15:35:57,06/03/2024
,"<div style=""font-size: 10rem; color: #0000FF"">P</div>",,ospan,letter,fo5erlFfLBfgJV0DTIQg5lAAzRf2,html-keyboard-response,61,568717,0.0-43.0-0.0-2.0-1.0,,,,,,,,,,,,,,,5f0ebcdf13efbf091b37c4b4,15:35:57,06/03/2024
,"<div style=""font-size: 10rem; color: #0000FF"">N</div>",,ospan,letter,fo5erlFfLBfgJV0DTIQg5lAAzRf2,html-keyboard-response,62,570479,0.0-43.0-0.0-2.0-2.0,,,,,,,,,,,,,,,5f0ebcdf13efbf091b37c4b4,15:35:57,06/03/2024
,"<div style=""font-size: 10rem; color: #0000FF"">C</div>",,ospan,letter,fo5erlFfLBfgJV0DTIQg5lAAzRf2,html-keyboard-response,63,572241,0.0-43.0-0.0-2.0-3.0,,,,,,,,,,,,,,,5f0ebcdf13efbf091b37c4b4,15:35:57,06/03/2024
3996.399999976158,"<div class = numbox><p style=""font-size: 2.4rem"">Please recall the letters you saw to the best of your ability. If you do not remember a particular letter, use the SKIP button.<br><b>(When you are ready to lock in your answer, press ENTER)</b></p><button id = button_1 class = ""square num-button"" onclick = ""recordClick(this)""><div class = content><div class = numbers>C</div></div></button><button id = button_2 class = ""square num-button"" onclick = ""recordClick(this)""><div class = content><div class = numbers>G</div></div></button><button id = button_3 class = ""square num-button"" onclick = ""recordClick(this)""><div class = content><div class = numbers>H</div></div></button><button id = button_4 class = ""square num-button"" onclick = ""recordClick(this)""><div class = content><div class = numbers>J</div></div></button><button id = button_5 class = ""square num-button"" onclick = ""recordClick(this)""><div class = content><div class = numbers>K</div></div></button><button id = button_6 class = ""square num-button"" onclick = ""recordClick(this)""><div class = content><div class = numbers>L</div></div></button><button id = button_7 class = ""square num-button"" onclick = ""recordClick(this)""><div class = content><div class = numbers>N</div></div></button><button id = button_8 class = ""square num-button"" onclick = ""recordClick(this)""><div class = content><div class = numbers>P</div></div></button><button id = button_9 class = ""square num-button"" onclick = ""recordClick(this)""><div class = content><div class = numbers>Q</div></div></button><button id = button_10 class = ""square num-button"" onclick = ""recordClick(this)""><div class = content><div class = numbers>R</div></div></button><button id = button_11 class = ""square num-button"" onclick = ""recordClick(this)""><div class = content><div class = numbers>S</div></div></button><button id = button_12 class = ""square num-button"" onclick = ""recordClick(this)""><div class = content><div class = numbers>Y</div></div></button><button class = clear_button id = ""ClearButton"" onclick = ""clearResponse()"">BACKSPACE</button><button class = blank_button id = ""BlankButton"" onclick = ""blankResponse()"">SKIP</button><p style=""font-size: 2.4rem""><u><b>Current Answer:</b></u></p><br><br><div id=echoed_txt style=""font-size: 5rem; color:blue;""><b></b></div></div>",enter,ospan,retrieval,fo5erlFfLBfgJV0DTIQg5lAAzRf2,html-keyboard-response,64,576995,0.0-43.0-0.0-2.0-4.0,NA,NA,NA,3.0,"[""P"",""N"",""C""]","[""P"",""N"",""C""]",1.0,3.0,"['<font color=""green"">P</font>', '<font color=""green"">N</font>', '<font color=""green"">C</font>']",,,,,,5f0ebcdf13efbf091b37c4b4,15:35:57,06/03/2024
853.3999999761581,"['<p style=""font-size:44px"">Letters:<br><br><br><font color=""green"">P</font> <font color=""green"">N</font> <font color=""green"">C</font></p><br><br>']",0,ospan,practice_feedback,fo5erlFfLBfgJV0DTIQg5lAAzRf2,html-button-response,65,578352,0.0-43.0-0.0-2.0-5.0,,,,,,,,,,,,,,,5f0ebcdf13efbf091b37c4b4,15:35:57,06/03/2024
9536.900000095367,"<div class = 'left_align' style='font-size: 3.25rem; line-height: 1.3;'>Now you will practice doing the <b>symmetry judgment part</b> of the experiment.<br><br>A black and white grid picture will appear on the screen and you have to judge if it is <br>symmetrical or asymetrical.<br><br>A picture is 'mirror' symmetrical if its left half is identical to the right half when flipped.<br>Here are examples of a symmetrical and an asymetrical picture:<br><br><center><img src='Stimuli/img/symm_instructions_extra.png' style='height:420px; width:900'></img></center><br>To judge symmetry, imagine you were to fold each picture down the middle, like a book –<br>would the left half match the right half when folded onto each other?<br><br></div><br>",0,ospan,instruct,fo5erlFfLBfgJV0DTIQg5lAAzRf2,html-button-response,66,587891,0.0-43.0-1.0-0.0-0.0,,,,,,,,,,,,,,,5f0ebcdf13efbf091b37c4b4,15:35:57,06/03/2024
3963.2999999523163,"<div class = 'left_align' style='font-size: 3.25rem; line-height: 1.3;'>When you have viewed the picture and determined whether it is symmetrical or not,<br>you can <b>click the Yes or No button</b> below to answer.<br><br>If you take longer than 15 seconds, it will continue automatically<br>and record the answer as an error.</div><br>",0,ospan,instruct,fo5erlFfLBfgJV0DTIQg5lAAzRf2,html-button-response,67,592109,0.0-43.0-1.0-0.0-1.0,,,,,,,,,,,,,,,5f0ebcdf13efbf091b37c4b4,15:35:57,06/03/2024
5109.5,"<div class = 'left_align' style='font-size: 3.25rem; line-height: 1.3;'>It is <b>very</b> important that you make the symmetry judgment correctly.<br><br>It is also important that you try and judge the picture as quickly as you can.<br><br>When you are ready, click on the button below to try some practice problems.</div><br><br><br><br>",0,ospan,instruct,fo5erlFfLBfgJV0DTIQg5lAAzRf2,html-button-response,68,597476,0.0-43.0-1.0-0.0-2.0,,,,,,,,,,,,,,,5f0ebcdf13efbf091b37c4b4,15:35:57,06/03/2024
3214.0,,,ospan,symmetry,fo5erlFfLBfgJV0DTIQg5lAAzRf2,symmetry-judgement-task,69,601489,0.0-43.0-1.0-1.0-0.0,,,,,,,,,,1.0,1.0,,,,5f0ebcdf13efbf091b37c4b4,15:35:57,06/03/2024
,"<p style=""color:green; font-size: 35px"">Correct</p>",,ospan,feedback,fo5erlFfLBfgJV0DTIQg5lAAzRf2,html-keyboard-response,70,602245,0.0-43.0-1.0-1.0-1.0,,,,,,,,,,,,,,,5f0ebcdf13efbf091b37c4b4,15:35:57,06/03/2024
2357.0,,,ospan,symmetry,fo5erlFfLBfgJV0DTIQg5lAAzRf2,symmetry-judgement-task,71,607206,0.0-43.0-1.0-1.0-2.0,,,,,,,,,,1.0,1.0,,,,5f0ebcdf13efbf091b37c4b4,15:35:57,06/03/2024
,"<p style=""color:green; font-size: 35px"">Correct</p>",,ospan,feedback,fo5erlFfLBfgJV0DTIQg5lAAzRf2,html-keyboard-response,72,607963,0.0-43.0-1.0-1.0-3.0,,,,,,,,,,,,,,,5f0ebcdf13efbf091b37c4b4,15:35:57,06/03/2024
2634.0,,,ospan,symmetry,fo5erlFfLBfgJV0DTIQg5lAAzRf2,symmetry-judgement-task,73,613189,0.0-43.0-1.0-1.0-4.0,,,,,,,,,,1.0,1.0,,,,5f0ebcdf13efbf091b37c4b4,15:35:57,06/03/2024
,"<p style=""color:green; font-size: 35px"">Correct</p>",,ospan,feedback,fo5erlFfLBfgJV0DTIQg5lAAzRf2,html-keyboard-response,74,613946,0.0-43.0-1.0-1.0-5.0,,,,,,,,,,,,,,,5f0ebcdf13efbf091b37c4b4,15:35:57,06/03/2024
1300.0,"<p style=""font-size: 3rem;"">You responded correctly on 3 of 3 symmetry judgments. Good job!</p><br><br>",0,ospan,practice,fo5erlFfLBfgJV0DTIQg5lAAzRf2,html-button-response,75,617251,0.0-43.0-1.0-2.0,,,,,,,,,,,,,,,5f0ebcdf13efbf091b37c4b4,15:35:57,06/03/2024
10873.799999952316,"<div class = 'left_align' style='font-size: 3.25rem; line-height: 1.3;'>Now you will practice doing both parts of the experiment at the same time.<br><br>In the next practice set, you will be given one grid picture to judge.<br>Then letter will appear on the screen. Try to remember the letter.<br><br>It is <b>very important</b> to make the symmetry judgment as quickly and accurately as possible.<br><br>Just as before, once you have make the symmetry judgment, you can click Yes or No.<br><b>Note that you will no longer see Correct or Incorrect feedback.</div><br><br><br><br>",0,ospan,instruct,fo5erlFfLBfgJV0DTIQg5lAAzRf2,html-button-response,76,628380,0.0-43.0-2.0-0.0-0.0,,,,,,,,,,,,,,,5f0ebcdf13efbf091b37c4b4,15:35:57,06/03/2024
8387.0,"<div class = 'left_align' style='font-size: 3.25rem; line-height: 1.3;'>After the letter goes away, another grid picture will appear, and then<br>another letter.<br><br>At the end of each set of letters and grids, you will recall the letters to the best<br>of your ability. Remember, try your best to get the letters in the correct order.<br><br>It is important to <b>quickly</b> and <b>accurately</b> make the symmetry judgments.</div><br><br><br><br>",0,ospan,instruct,fo5erlFfLBfgJV0DTIQg5lAAzRf2,html-button-response,77,637025,0.0-43.0-2.0-0.0-1.0,,,,,,,,,,,,,,,5f0ebcdf13efbf091b37c4b4,15:35:57,06/03/2024
13079.299999952316,"<div class = 'left_align' style='font-size: 3.25rem; line-height: 1.3;'>On the feedback screen, if you are not doing well at the symmetry judgments,<br>you will also see a warning in the middle. This indicates your percent <br>correct for the grid pictures for the entire experiment.<br><br>It is <b>very</b> important for you to keep accuracy at least at 85%: <u>We can only use<br>data where the participant was at least 85% accurate on the judgments.</u> Therefore,<br> please try your best to perform well on the symmetry judgments, <b>at the same time</b><br>doing your best to recall as many letters as possible.<br><br>Click the button to try some practice problems.</div><br><br><br><br>",0,ospan,instruct,fo5erlFfLBfgJV0DTIQg5lAAzRf2,html-button-response,78,650359,0.0-43.0-2.0-0.0-2.0,,,,,,,,,,,,,,,5f0ebcdf13efbf091b37c4b4,15:35:57,06/03/2024
,"<p style=""font-size:75px;"">...</p>",,ospan,iti,fo5erlFfLBfgJV0DTIQg5lAAzRf2,html-keyboard-response,79,651620,0.0-43.0-2.0-1.0-0.0,,,,,,,,,,,,,,,5f0ebcdf13efbf091b37c4b4,15:35:57,06/03/2024
4843.0,,,ospan,symmetry,fo5erlFfLBfgJV0DTIQg5lAAzRf2,symmetry-judgement-task,80,657499,0.0-43.0-2.0-1.0-1.0-0.0,,,,,,,,,,1.0,1.0,,,,5f0ebcdf13efbf091b37c4b4,15:35:57,06/03/2024
,"<div style=""font-size: 10rem; color: #0000FF"">J</div>",,ospan,letter,fo5erlFfLBfgJV0DTIQg5lAAzRf2,html-keyboard-response,81,658507,0.0-43.0-2.0-1.0-1.0-1.0,,,,,,,,,,,,,,,5f0ebcdf13efbf091b37c4b4,15:35:57,06/03/2024
1848.0,,,ospan,symmetry,fo5erlFfLBfgJV0DTIQg5lAAzRf2,symmetry-judgement-task,82,662206,0.0-43.0-2.0-1.0-1.0-2.0,,,,,,,,,,1.0,1.0,,,,5f0ebcdf13efbf091b37c4b4,15:35:57,06/03/2024
,"<div style=""font-size: 10rem; color: #0000FF"">H</div>",,ospan,letter,fo5erlFfLBfgJV0DTIQg5lAAzRf2,html-keyboard-response,83,663213,0.0-43.0-2.0-1.0-1.0-3.0,,,,,,,,,,,,,,,5f0ebcdf13efbf091b37c4b4,15:35:57,06/03/2024
1805.0,,,ospan,symmetry,fo5erlFfLBfgJV0DTIQg5lAAzRf2,symmetry-judgement-task,84,666871,0.0-43.0-2.0-1.0-1.0-4.0,,,,,,,,,,1.0,1.0,,,,5f0ebcdf13efbf091b37c4b4,15:35:57,06/03/2024
,"<div style=""font-size: 10rem; color: #0000FF"">L</div>",,ospan,letter,fo5erlFfLBfgJV0DTIQg5lAAzRf2,html-keyboard-response,85,667878,0.0-43.0-2.0-1.0-1.0-5.0,,,,,,,,,,,,,,,5f0ebcdf13efbf091b37c4b4,15:35:57,06/03/2024
2985.0999999046326,"<div class = numbox><p style=""font-size: 2.4rem"">Please recall the letters you saw to the best of your ability. If you do not remember a particular letter, use the SKIP button.<br><b>(When you are ready to lock in your answer, press ENTER)</b></p><button id = button_1 class = ""square num-button"" onclick = ""recordClick(this)""><div class = content><div class = numbers>C</div></div></button><button id = button_2 class = ""square num-button"" onclick = ""recordClick(this)""><div class = content><div class = numbers>G</div></div></button><button id = button_3 class = ""square num-button"" onclick = ""recordClick(this)""><div class = content><div class = numbers>H</div></div></button><button id = button_4 class = ""square num-button"" onclick = ""recordClick(this)""><div class = content><div class = numbers>J</div></div></button><button id = button_5 class = ""square num-button"" onclick = ""recordClick(this)""><div class = content><div class = numbers>K</div></div></button><button id = button_6 class = ""square num-button"" onclick = ""recordClick(this)""><div class = content><div class = numbers>L</div></div></button><button id = button_7 class = ""square num-button"" onclick = ""recordClick(this)""><div class = content><div class = numbers>N</div></div></button><button id = button_8 class = ""square num-button"" onclick = ""recordClick(this)""><div class = content><div class = numbers>P</div></div></button><button id = button_9 class = ""square num-button"" onclick = ""recordClick(this)""><div class = content><div class = numbers>Q</div></div></button><button id = button_10 class = ""square num-button"" onclick = ""recordClick(this)""><div class = content><div class = numbers>R</div></div></button><button id = button_11 class = ""square num-button"" onclick = ""recordClick(this)""><div class = content><div class = numbers>S</div></div></button><button id = button_12 class = ""square num-button"" onclick = ""recordClick(this)""><div class = content><div class = numbers>Y</div></div></button><button class = clear_button id = ""ClearButton"" onclick = ""clearResponse()"">BACKSPACE</button><button class = blank_button id = ""BlankButton"" onclick = ""blankResponse()"">SKIP</button><p style=""font-size: 2.4rem""><u><b>Current Answer:</b></u></p><br><br><div id=echoed_txt style=""font-size: 5rem; color:blue;""><b></b></div></div>",enter,ospan,retrieval,fo5erlFfLBfgJV0DTIQg5lAAzRf2,html-keyboard-response,86,671619,0.0-43.0-2.0-1.0-2.0-0.0,NA,NA,NA,3.0,"[""J"",""H"",""L""]","[""J"",""H"",""L""]",1.0,3.0,"['<font color=""green"">J</font>', '<font color=""green"">H</font>', '<font color=""green"">L</font>']",,,,,,5f0ebcdf13efbf091b37c4b4,15:35:57,06/03/2024
2636.1999999284744,"['<p style=""font-size:44px"">Letters:<br><br><br><font color=""green"">J</font> <font color=""green"">H</font> <font color=""green"">L</font></p><br><br><p style=""font-size:30px"">Symmetry:<br><br><font color=""green"">100%</font></p><br><br>']",0,ospan,practice_feedback,fo5erlFfLBfgJV0DTIQg5lAAzRf2,html-button-response,87,674759,0.0-43.0-2.0-1.0-2.0-1.0,,,,,,,,,,,,,,,5f0ebcdf13efbf091b37c4b4,15:35:57,06/03/2024
,"<p style=""font-size:75px;"">...</p>",,ospan,iti,fo5erlFfLBfgJV0DTIQg5lAAzRf2,html-keyboard-response,88,675763,0.0-43.0-2.0-2.0-0.0,,,,,,,,,,,,,,,5f0ebcdf13efbf091b37c4b4,15:35:57,06/03/2024
1282.0,,,ospan,symmetry,fo5erlFfLBfgJV0DTIQg5lAAzRf2,symmetry-judgement-task,89,678144,0.0-43.0-2.0-2.0-1.0-0.0,,,,,,,,,,1.0,1.0,,,,5f0ebcdf13efbf091b37c4b4,15:35:57,06/03/2024
,"<div style=""font-size: 10rem; color: #0000FF"">C</div>",,ospan,letter,fo5erlFfLBfgJV0DTIQg5lAAzRf2,html-keyboard-response,90,679147,0.0-43.0-2.0-2.0-1.0-1.0,,,,,,,,,,,,,,,5f0ebcdf13efbf091b37c4b4,15:35:57,06/03/2024
1344.0,,,ospan,symmetry,fo5erlFfLBfgJV0DTIQg5lAAzRf2,symmetry-judgement-task,91,682284,0.0-43.0-2.0-2.0-1.0-2.0,,,,,,,,,,1.0,1.0,,,,5f0ebcdf13efbf091b37c4b4,15:35:57,06/03/2024
,"<div style=""font-size: 10rem; color: #0000FF"">Q</div>",,ospan,letter,fo5erlFfLBfgJV0DTIQg5lAAzRf2,html-keyboard-response,92,683291,0.0-43.0-2.0-2.0-1.0-3.0,,,,,,,,,,,,,,,5f0ebcdf13efbf091b37c4b4,15:35:57,06/03/2024
2925.0,,,ospan,symmetry,fo5erlFfLBfgJV0DTIQg5lAAzRf2,symmetry-judgement-task,93,688070,0.0-43.0-2.0-2.0-1.0-4.0,,,,,,,,,,1.0,1.0,,,,5f0ebcdf13efbf091b37c4b4,15:35:57,06/03/2024
,"<div style=""font-size: 10rem; color: #0000FF"">N</div>",,ospan,letter,fo5erlFfLBfgJV0DTIQg5lAAzRf2,html-keyboard-response,94,689077,0.0-43.0-2.0-2.0-1.0-5.0,,,,,,,,,,,,,,,5f0ebcdf13efbf091b37c4b4,15:35:57,06/03/2024
3022.100000023842,"<div class = numbox><p style=""font-size: 2.4rem"">Please recall the letters you saw to the best of your ability. If you do not remember a particular letter, use the SKIP button.<br><b>(When you are ready to lock in your answer, press ENTER)</b></p><button id = button_1 class = ""square num-button"" onclick = ""recordClick(this)""><div class = content><div class = numbers>C</div></div></button><button id = button_2 class = ""square num-button"" onclick = ""recordClick(this)""><div class = content><div class = numbers>G</div></div></button><button id = button_3 class = ""square num-button"" onclick = ""recordClick(this)""><div class = content><div class = numbers>H</div></div></button><button id = button_4 class = ""square num-button"" onclick = ""recordClick(this)""><div class = content><div class = numbers>J</div></div></button><button id = button_5 class = ""square num-button"" onclick = ""recordClick(this)""><div class = content><div class = numbers>K</div></div></button><button id = button_6 class = ""square num-button"" onclick = ""recordClick(this)""><div class = content><div class = numbers>L</div></div></button><button id = button_7 class = ""square num-button"" onclick = ""recordClick(this)""><div class = content><div class = numbers>N</div></div></button><button id = button_8 class = ""square num-button"" onclick = ""recordClick(this)""><div class = content><div class = numbers>P</div></div></button><button id = button_9 class = ""square num-button"" onclick = ""recordClick(this)""><div class = content><div class = numbers>Q</div></div></button><button id = button_10 class = ""square num-button"" onclick = ""recordClick(this)""><div class = content><div class = numbers>R</div></div></button><button id = button_11 class = ""square num-button"" onclick = ""recordClick(this)""><div class = content><div class = numbers>S</div></div></button><button id = button_12 class = ""square num-button"" onclick = ""recordClick(this)""><div class = content><div class = numbers>Y</div></div></button><button class = clear_button id = ""ClearButton"" onclick = ""clearResponse()"">BACKSPACE</button><button class = blank_button id = ""BlankButton"" onclick = ""blankResponse()"">SKIP</button><p style=""font-size: 2.4rem""><u><b>Current Answer:</b></u></p><br><br><div id=echoed_txt style=""font-size: 5rem; color:blue;""><b></b></div></div>",enter,ospan,retrieval,fo5erlFfLBfgJV0DTIQg5lAAzRf2,html-keyboard-response,95,692857,0.0-43.0-2.0-2.0-2.0-0.0,NA,NA,NA,3.0,"[""C"",""Q"",""N""]","[""C"",""Q"",""N""]",1.0,3.0,"['<font color=""green"">C</font>', '<font color=""green"">Q</font>', '<font color=""green"">N</font>']",,,,,,5f0ebcdf13efbf091b37c4b4,15:35:57,06/03/2024
1314.3000000715256,"['<p style=""font-size:44px"">Letters:<br><br><br><font color=""green"">C</font> <font color=""green"">Q</font> <font color=""green"">N</font></p><br><br><p style=""font-size:30px"">Symmetry:<br><br><font color=""green"">100%</font></p><br><br>']",0,ospan,practice_feedback,fo5erlFfLBfgJV0DTIQg5lAAzRf2,html-button-response,96,694677,0.0-43.0-2.0-2.0-2.0-1.0,,,,,,,,,,,,,,,5f0ebcdf13efbf091b37c4b4,15:35:57,06/03/2024
22772.5,"<div class = 'left_align' style='font-size: 3rem; line-height: 1.3;'><b>Great work! That is the end of practice.</b><br><br>The real trials will look just like the practice trials you just completed.<br><br><u>Here, you will not see feedback</u>. First, you will see an grid picture to judge,<br>then a letter to remember. When the recall screen appears, report the letters in the<br>order presented. If you forget a letter, remember to use the <b>blank</b> button to move to the<br>next letter. Some of the sets will have more symmetry grids and letters than others.<br><br>It is important that you do your best on both the symmetry judgments and the letter recall<br>parts of the experiment. For for the symmetry judgments, try to work as <b>quickly</b> and <br>as <b>accurately</b> as possible. Remember to keep your symmetry accuracy at 85% or above.<br><br><b>For the letters, do NOT use any external aid (e.g., writing on paper, electronic device).</b><br><br>It is <u>very important</u> to our experiment to have a <b>true</b> view of your real performance.<br><br>Do not worry if you miss some when it gets hard! This task is meant to be very challenging!<br><br>Click the button to begin.</div><br><br><br><br>",0,ospan,starting_real_here,fo5erlFfLBfgJV0DTIQg5lAAzRf2,html-button-response,97,717451,0.0-43.0-2.0-3.0,,,,,,,,,,,,,,,5f0ebcdf13efbf091b37c4b4,15:35:57,06/03/2024
,"<p style=""font-size:75px;"">...</p>",,ospan,iti,fo5erlFfLBfgJV0DTIQg5lAAzRf2,html-keyboard-response,98,718704,0.0-43.0-3.0-0.0-0.0,,,,,,,,,,,,,,,5f0ebcdf13efbf091b37c4b4,15:35:57,06/03/2024
1723.0,,,ospan,symmetry,fo5erlFfLBfgJV0DTIQg5lAAzRf2,symmetry-judgement-task,99,721522,0.0-43.0-3.0-0.0-1.0-0.0,,,,,,,,,,1.0,1.0,,,,5f0ebcdf13efbf091b37c4b4,15:35:57,06/03/2024
,"<div style=""font-size: 10rem; color: #0000FF"">Y</div>",,ospan,letter,fo5erlFfLBfgJV0DTIQg5lAAzRf2,html-keyboard-response,100,722525,0.0-43.0-3.0-0.0-1.0-1.0,,,,,,,,,,,,,,,5f0ebcdf13efbf091b37c4b4,15:35:57,06/03/2024
2727.0,,,ospan,symmetry,fo5erlFfLBfgJV0DTIQg5lAAzRf2,symmetry-judgement-task,101,727101,0.0-43.0-3.0-0.0-1.0-2.0,,,,,,,,,,1.0,1.0,,,,5f0ebcdf13efbf091b37c4b4,15:35:57,06/03/2024
,"<div style=""font-size: 10rem; color: #0000FF"">P</div>",,ospan,letter,fo5erlFfLBfgJV0DTIQg5lAAzRf2,html-keyboard-response,102,728106,0.0-43.0-3.0-0.0-1.0-3.0,,,,,,,,,,,,,,,5f0ebcdf13efbf091b37c4b4,15:35:57,06/03/2024
4369.0,,,ospan,symmetry,fo5erlFfLBfgJV0DTIQg5lAAzRf2,symmetry-judgement-task,103,734334,0.0-43.0-3.0-0.0-1.0-4.0,,,,,,,,,,1.0,1.0,,,,5f0ebcdf13efbf091b37c4b4,15:35:57,06/03/2024
,"<div style=""font-size: 10rem; color: #0000FF"">Q</div>",,ospan,letter,fo5erlFfLBfgJV0DTIQg5lAAzRf2,html-keyboard-response,104,735341,0.0-43.0-3.0-0.0-1.0-5.0,,,,,,,,,,,,,,,5f0ebcdf13efbf091b37c4b4,15:35:57,06/03/2024
3509.0999999046326,"<div class = numbox><p style=""font-size: 2.4rem"">Please recall the letters you saw to the best of your ability. If you do not remember a particular letter, use the SKIP button.<br><b>(When you are ready to lock in your answer, press ENTER)</b></p><button id = button_1 class = ""square num-button"" onclick = ""recordClick(this)""><div class = content><div class = numbers>C</div></div></button><button id = button_2 class = ""square num-button"" onclick = ""recordClick(this)""><div class = content><div class = numbers>G</div></div></button><button id = button_3 class = ""square num-button"" onclick = ""recordClick(this)""><div class = content><div class = numbers>H</div></div></button><button id = button_4 class = ""square num-button"" onclick = ""recordClick(this)""><div class = content><div class = numbers>J</div></div></button><button id = button_5 class = ""square num-button"" onclick = ""recordClick(this)""><div class = content><div class = numbers>K</div></div></button><button id = button_6 class = ""square num-button"" onclick = ""recordClick(this)""><div class = content><div class = numbers>L</div></div></button><button id = button_7 class = ""square num-button"" onclick = ""recordClick(this)""><div class = content><div class = numbers>N</div></div></button><button id = button_8 class = ""square num-button"" onclick = ""recordClick(this)""><div class = content><div class = numbers>P</div></div></button><button id = button_9 class = ""square num-button"" onclick = ""recordClick(this)""><div class = content><div class = numbers>Q</div></div></button><button id = button_10 class = ""square num-button"" onclick = ""recordClick(this)""><div class = content><div class = numbers>R</div></div></button><button id = button_11 class = ""square num-button"" onclick = ""recordClick(this)""><div class = content><div class = numbers>S</div></div></button><button id = button_12 class = ""square num-button"" onclick = ""recordClick(this)""><div class = content><div class = numbers>Y</div></div></button><button class = clear_button id = ""ClearButton"" onclick = ""clearResponse()"">BACKSPACE</button><button class = blank_button id = ""BlankButton"" onclick = ""blankResponse()"">SKIP</button><p style=""font-size: 2.4rem""><u><b>Current Answer:</b></u></p><br><br><div id=echoed_txt style=""font-size: 5rem; color:blue;""><b></b></div></div>",enter,ospan,retrieval,fo5erlFfLBfgJV0DTIQg5lAAzRf2,html-keyboard-response,105,739608,0.0-43.0-3.0-0.0-2.0,3,3,3,3.0,"[""Y"",""P"",""Q""]","[""Y"",""P"",""Q""]",1.0,3.0,,,,,,,5f0ebcdf13efbf091b37c4b4,15:35:57,06/03/2024
1649.8999999761581,[''],0,ospan,feedback,fo5erlFfLBfgJV0DTIQg5lAAzRf2,html-button-response,106,741762,0.0-43.0-3.0-0.0-3.0,,,,,,,,,,,,100.0,0.0,,5f0ebcdf13efbf091b37c4b4,15:35:57,06/03/2024
,"<p style=""font-size:75px;"">...</p>",,ospan,iti,fo5erlFfLBfgJV0DTIQg5lAAzRf2,html-keyboard-response,107,742768,0.0-43.0-4.0-0.0-0.0,,,,,,,,,,,,,,,5f0ebcdf13efbf091b37c4b4,15:35:57,06/03/2024
2357.0,,,ospan,symmetry,fo5erlFfLBfgJV0DTIQg5lAAzRf2,symmetry-judgement-task,108,746225,0.0-43.0-4.0-0.0-1.0-0.0,,,,,,,,,,1.0,1.0,,,,5f0ebcdf13efbf091b37c4b4,15:35:57,06/03/2024
,"<div style=""font-size: 10rem; color: #0000FF"">Q</div>",,ospan,letter,fo5erlFfLBfgJV0DTIQg5lAAzRf2,html-keyboard-response,109,747231,0.0-43.0-4.0-0.0-1.0-1.0,,,,,,,,,,,,,,,5f0ebcdf13efbf091b37c4b4,15:35:57,06/03/2024
1923.0,,,ospan,symmetry,fo5erlFfLBfgJV0DTIQg5lAAzRf2,symmetry-judgement-task,110,751010,0.0-43.0-4.0-0.0-1.0-2.0,,,,,,,,,,1.0,1.0,,,,5f0ebcdf13efbf091b37c4b4,15:35:57,06/03/2024
,"<div style=""font-size: 10rem; color: #0000FF"">G</div>",,ospan,letter,fo5erlFfLBfgJV0DTIQg5lAAzRf2,html-keyboard-response,111,752017,0.0-43.0-4.0-0.0-1.0-3.0,,,,,,,,,,,,,,,5f0ebcdf13efbf091b37c4b4,15:35:57,06/03/2024
1496.0,,,ospan,symmetry,fo5erlFfLBfgJV0DTIQg5lAAzRf2,symmetry-judgement-task,112,755363,0.0-43.0-4.0-0.0-1.0-4.0,,,,,,,,,,1.0,1.0,,,,5f0ebcdf13efbf091b37c4b4,15:35:57,06/03/2024
,"<div style=""font-size: 10rem; color: #0000FF"">S</div>",,ospan,letter,fo5erlFfLBfgJV0DTIQg5lAAzRf2,html-keyboard-response,113,756371,0.0-43.0-4.0-0.0-1.0-5.0,,,,,,,,,,,,,,,5f0ebcdf13efbf091b37c4b4,15:35:57,06/03/2024
3123.0,,,ospan,symmetry,fo5erlFfLBfgJV0DTIQg5lAAzRf2,symmetry-judgement-task,114,761342,0.0-43.0-4.0-0.0-1.0-6.0,,,,,,,,,,1.0,1.0,,,,5f0ebcdf13efbf091b37c4b4,15:35:57,06/03/2024
,"<div style=""font-size: 10rem; color: #0000FF"">L</div>",,ospan,letter,fo5erlFfLBfgJV0DTIQg5lAAzRf2,html-keyboard-response,115,762345,0.0-43.0-4.0-0.0-1.0-7.0,,,,,,,,,,,,,,,5f0ebcdf13efbf091b37c4b4,15:35:57,06/03/2024
6330.5,"<div class = numbox><p style=""font-size: 2.4rem"">Please recall the letters you saw to the best of your ability. If you do not remember a particular letter, use the SKIP button.<br><b>(When you are ready to lock in your answer, press ENTER)</b></p><button id = button_1 class = ""square num-button"" onclick = ""recordClick(this)""><div class = content><div class = numbers>C</div></div></button><button id = button_2 class = ""square num-button"" onclick = ""recordClick(this)""><div class = content><div class = numbers>G</div></div></button><button id = button_3 class = ""square num-button"" onclick = ""recordClick(this)""><div class = content><div class = numbers>H</div></div></button><button id = button_4 class = ""square num-button"" onclick = ""recordClick(this)""><div class = content><div class = numbers>J</div></div></button><button id = button_5 class = ""square num-button"" onclick = ""recordClick(this)""><div class = content><div class = numbers>K</div></div></button><button id = button_6 class = ""square num-button"" onclick = ""recordClick(this)""><div class = content><div class = numbers>L</div></div></button><button id = button_7 class = ""square num-button"" onclick = ""recordClick(this)""><div class = content><div class = numbers>N</div></div></button><button id = button_8 class = ""square num-button"" onclick = ""recordClick(this)""><div class = content><div class = numbers>P</div></div></button><button id = button_9 class = ""square num-button"" onclick = ""recordClick(this)""><div class = content><div class = numbers>Q</div></div></button><button id = button_10 class = ""square num-button"" onclick = ""recordClick(this)""><div class = content><div class = numbers>R</div></div></button><button id = button_11 class = ""square num-button"" onclick = ""recordClick(this)""><div class = content><div class = numbers>S</div></div></button><button id = button_12 class = ""square num-button"" onclick = ""recordClick(this)""><div class = content><div class = numbers>Y</div></div></button><button class = clear_button id = ""ClearButton"" onclick = ""clearResponse()"">BACKSPACE</button><button class = blank_button id = ""BlankButton"" onclick = ""blankResponse()"">SKIP</button><p style=""font-size: 2.4rem""><u><b>Current Answer:</b></u></p><br><br><div id=echoed_txt style=""font-size: 5rem; color:blue;""><b></b></div></div>",enter,ospan,retrieval,fo5erlFfLBfgJV0DTIQg5lAAzRf2,html-keyboard-response,116,769434,0.0-43.0-4.0-0.0-2.0,7,7,7,4.0,"[""Q"",""G"",""S"",""L""]","[""Q"",""G"",""S"",""L""]",1.0,4.0,,,,,,,5f0ebcdf13efbf091b37c4b4,15:35:57,06/03/2024
1152.2000000476837,[''],0,ospan,feedback,fo5erlFfLBfgJV0DTIQg5lAAzRf2,html-button-response,117,771092,0.0-43.0-4.0-0.0-3.0,,,,,,,,,,,,100.0,0.0,,5f0ebcdf13efbf091b37c4b4,15:35:57,06/03/2024
,"<p style=""font-size:75px;"">...</p>",,ospan,iti,fo5erlFfLBfgJV0DTIQg5lAAzRf2,html-keyboard-response,118,772097,0.0-43.0-4.0-1.0-0.0,,,,,,,,,,,,,,,5f0ebcdf13efbf091b37c4b4,15:35:57,06/03/2024
1595.0,,,ospan,symmetry,fo5erlFfLBfgJV0DTIQg5lAAzRf2,symmetry-judgement-task,119,774731,0.0-43.0-4.0-1.0-1.0-0.0,,,,,,,,,,1.0,1.0,,,,5f0ebcdf13efbf091b37c4b4,15:35:57,06/03/2024
,"<div style=""font-size: 10rem; color: #0000FF"">P</div>",,ospan,letter,fo5erlFfLBfgJV0DTIQg5lAAzRf2,html-keyboard-response,120,775735,0.0-43.0-4.0-1.0-1.0-1.0,,,,,,,,,,,,,,,5f0ebcdf13efbf091b37c4b4,15:35:57,06/03/2024
2078.0,,,ospan,symmetry,fo5erlFfLBfgJV0DTIQg5lAAzRf2,symmetry-judgement-task,121,779662,0.0-43.0-4.0-1.0-1.0-2.0,,,,,,,,,,1.0,1.0,,,,5f0ebcdf13efbf091b37c4b4,15:35:57,06/03/2024
,"<div style=""font-size: 10rem; color: #0000FF"">C</div>",,ospan,letter,fo5erlFfLBfgJV0DTIQg5lAAzRf2,html-keyboard-response,122,780667,0.0-43.0-4.0-1.0-1.0-3.0,,,,,,,,,,,,,,,5f0ebcdf13efbf091b37c4b4,15:35:57,06/03/2024
1927.0,,,ospan,symmetry,fo5erlFfLBfgJV0DTIQg5lAAzRf2,symmetry-judgement-task,123,784450,0.0-43.0-4.0-1.0-1.0-4.0,,,,,,,,,,1.0,1.0,,,,5f0ebcdf13efbf091b37c4b4,15:35:57,06/03/2024
,"<div style=""font-size: 10rem; color: #0000FF"">J</div>",,ospan,letter,fo5erlFfLBfgJV0DTIQg5lAAzRf2,html-keyboard-response,124,785453,0.0-43.0-4.0-1.0-1.0-5.0,,,,,,,,,,,,,,,5f0ebcdf13efbf091b37c4b4,15:35:57,06/03/2024
1928.0,,,ospan,symmetry,fo5erlFfLBfgJV0DTIQg5lAAzRf2,symmetry-judgement-task,125,789235,0.0-43.0-4.0-1.0-1.0-6.0,,,,,,,,,,1.0,1.0,,,,5f0ebcdf13efbf091b37c4b4,15:35:57,06/03/2024
,"<div style=""font-size: 10rem; color: #0000FF"">S</div>",,ospan,letter,fo5erlFfLBfgJV0DTIQg5lAAzRf2,html-keyboard-response,126,790237,0.0-43.0-4.0-1.0-1.0-7.0,,,,,,,,,,,,,,,5f0ebcdf13efbf091b37c4b4,15:35:57,06/03/2024
1746.0,,,ospan,symmetry,fo5erlFfLBfgJV0DTIQg5lAAzRf2,symmetry-judgement-task,127,793839,0.0-43.0-4.0-1.0-1.0-8.0,,,,,,,,,,1.0,1.0,,,,5f0ebcdf13efbf091b37c4b4,15:35:57,06/03/2024
,"<div style=""font-size: 10rem; color: #0000FF"">L</div>",,ospan,letter,fo5erlFfLBfgJV0DTIQg5lAAzRf2,html-keyboard-response,128,794844,0.0-43.0-4.0-1.0-1.0-9.0,,,,,,,,,,,,,,,5f0ebcdf13efbf091b37c4b4,15:35:57,06/03/2024
11335.100000023842,"<div class = numbox><p style=""font-size: 2.4rem"">Please recall the letters you saw to the best of your ability. If you do not remember a particular letter, use the SKIP button.<br><b>(When you are ready to lock in your answer, press ENTER)</b></p><button id = button_1 class = ""square num-button"" onclick = ""recordClick(this)""><div class = content><div class = numbers>C</div></div></button><button id = button_2 class = ""square num-button"" onclick = ""recordClick(this)""><div class = content><div class = numbers>G</div></div></button><button id = button_3 class = ""square num-button"" onclick = ""recordClick(this)""><div class = content><div class = numbers>H</div></div></button><button id = button_4 class = ""square num-button"" onclick = ""recordClick(this)""><div class = content><div class = numbers>J</div></div></button><button id = button_5 class = ""square num-button"" onclick = ""recordClick(this)""><div class = content><div class = numbers>K</div></div></button><button id = button_6 class = ""square num-button"" onclick = ""recordClick(this)""><div class = content><div class = numbers>L</div></div></button><button id = button_7 class = ""square num-button"" onclick = ""recordClick(this)""><div class = content><div class = numbers>N</div></div></button><button id = button_8 class = ""square num-button"" onclick = ""recordClick(this)""><div class = content><div class = numbers>P</div></div></button><button id = button_9 class = ""square num-button"" onclick = ""recordClick(this)""><div class = content><div class = numbers>Q</div></div></button><button id = button_10 class = ""square num-button"" onclick = ""recordClick(this)""><div class = content><div class = numbers>R</div></div></button><button id = button_11 class = ""square num-button"" onclick = ""recordClick(this)""><div class = content><div class = numbers>S</div></div></button><button id = button_12 class = ""square num-button"" onclick = ""recordClick(this)""><div class = content><div class = numbers>Y</div></div></button><button class = clear_button id = ""ClearButton"" onclick = ""clearResponse()"">BACKSPACE</button><button class = blank_button id = ""BlankButton"" onclick = ""blankResponse()"">SKIP</button><p style=""font-size: 2.4rem""><u><b>Current Answer:</b></u></p><br><br><div id=echoed_txt style=""font-size: 5rem; color:blue;""><b></b></div></div>",enter,ospan,retrieval,fo5erlFfLBfgJV0DTIQg5lAAzRf2,html-keyboard-response,129,806933,0.0-43.0-4.0-1.0-2.0,12,11,7,5.0,"[""P"",""C"",""G"",""S"",""L""]","[""P"",""C"",""J"",""S"",""L""]",0.0,4.0,,,,,,,5f0ebcdf13efbf091b37c4b4,15:35:57,06/03/2024
2691.2999999523163,[''],0,ospan,feedback,fo5erlFfLBfgJV0DTIQg5lAAzRf2,html-button-response,130,810128,0.0-43.0-4.0-1.0-3.0,,,,,,,,,,,,100.0,0.0,,5f0ebcdf13efbf091b37c4b4,15:35:57,06/03/2024
,"<p style=""font-size:75px;"">...</p>",,ospan,iti,fo5erlFfLBfgJV0DTIQg5lAAzRf2,html-keyboard-response,131,811131,0.0-43.0-4.0-2.0-0.0,,,,,,,,,,,,,,,5f0ebcdf13efbf091b37c4b4,15:35:57,06/03/2024
2344.0,,,ospan,symmetry,fo5erlFfLBfgJV0DTIQg5lAAzRf2,symmetry-judgement-task,132,814575,0.0-43.0-4.0-2.0-1.0-0.0,,,,,,,,,,1.0,1.0,,,,5f0ebcdf13efbf091b37c4b4,15:35:57,06/03/2024
,"<div style=""font-size: 10rem; color: #0000FF"">P</div>",,ospan,letter,fo5erlFfLBfgJV0DTIQg5lAAzRf2,html-keyboard-response,133,815581,0.0-43.0-4.0-2.0-1.0-1.0,,,,,,,,,,,,,,,5f0ebcdf13efbf091b37c4b4,15:35:57,06/03/2024
1541.0,,,ospan,symmetry,fo5erlFfLBfgJV0DTIQg5lAAzRf2,symmetry-judgement-task,134,818979,0.0-43.0-4.0-2.0-1.0-2.0,,,,,,,,,,1.0,1.0,,,,5f0ebcdf13efbf091b37c4b4,15:35:57,06/03/2024
,"<div style=""font-size: 10rem; color: #0000FF"">N</div>",,ospan,letter,fo5erlFfLBfgJV0DTIQg5lAAzRf2,html-keyboard-response,135,819985,0.0-43.0-4.0-2.0-1.0-3.0,,,,,,,,,,,,,,,5f0ebcdf13efbf091b37c4b4,15:35:57,06/03/2024
2090.0,,,ospan,symmetry,fo5erlFfLBfgJV0DTIQg5lAAzRf2,symmetry-judgement-task,136,823932,0.0-43.0-4.0-2.0-1.0-4.0,,,,,,,,,,1.0,1.0,,,,5f0ebcdf13efbf091b37c4b4,15:35:57,06/03/2024
,"<div style=""font-size: 10rem; color: #0000FF"">G</div>",,ospan,letter,fo5erlFfLBfgJV0DTIQg5lAAzRf2,html-keyboard-response,137,824940,0.0-43.0-4.0-2.0-1.0-5.0,,,,,,,,,,,,,,,5f0ebcdf13efbf091b37c4b4,15:35:57,06/03/2024
3165.600000023842,"<div class = numbox><p style=""font-size: 2.4rem"">Please recall the letters you saw to the best of your ability. If you do not remember a particular letter, use the SKIP button.<br><b>(When you are ready to lock in your answer, press ENTER)</b></p><button id = button_1 class = ""square num-button"" onclick = ""recordClick(this)""><div class = content><div class = numbers>C</div></div></button><button id = button_2 class = ""square num-button"" onclick = ""recordClick(this)""><div class = content><div class = numbers>G</div></div></button><button id = button_3 class = ""square num-button"" onclick = ""recordClick(this)""><div class = content><div class = numbers>H</div></div></button><button id = button_4 class = ""square num-button"" onclick = ""recordClick(this)""><div class = content><div class = numbers>J</div></div></button><button id = button_5 class = ""square num-button"" onclick = ""recordClick(this)""><div class = content><div class = numbers>K</div></div></button><button id = button_6 class = ""square num-button"" onclick = ""recordClick(this)""><div class = content><div class = numbers>L</div></div></button><button id = button_7 class = ""square num-button"" onclick = ""recordClick(this)""><div class = content><div class = numbers>N</div></div></button><button id = button_8 class = ""square num-button"" onclick = ""recordClick(this)""><div class = content><div class = numbers>P</div></div></button><button id = button_9 class = ""square num-button"" onclick = ""recordClick(this)""><div class = content><div class = numbers>Q</div></div></button><button id = button_10 class = ""square num-button"" onclick = ""recordClick(this)""><div class = content><div class = numbers>R</div></div></button><button id = button_11 class = ""square num-button"" onclick = ""recordClick(this)""><div class = content><div class = numbers>S</div></div></button><button id = button_12 class = ""square num-button"" onclick = ""recordClick(this)""><div class = content><div class = numbers>Y</div></div></button><button class = clear_button id = ""ClearButton"" onclick = ""clearResponse()"">BACKSPACE</button><button class = blank_button id = ""BlankButton"" onclick = ""blankResponse()"">SKIP</button><p style=""font-size: 2.4rem""><u><b>Current Answer:</b></u></p><br><br><div id=echoed_txt style=""font-size: 5rem; color:blue;""><b></b></div></div>",enter,ospan,retrieval,fo5erlFfLBfgJV0DTIQg5lAAzRf2,html-keyboard-response,138,828861,0.0-43.0-4.0-2.0-2.0,15,14,10,3.0,"[""P"",""N"",""G""]","[""P"",""N"",""G""]",1.0,3.0,,,,,,,5f0ebcdf13efbf091b37c4b4,15:35:57,06/03/2024
687.0,[''],0,ospan,feedback,fo5erlFfLBfgJV0DTIQg5lAAzRf2,html-button-response,139,830052,0.0-43.0-4.0-2.0-3.0,,,,,,,,,,,,100.0,0.0,,5f0ebcdf13efbf091b37c4b4,15:35:57,06/03/2024
,"<p style=""font-size:75px;"">...</p>",,ospan,iti,fo5erlFfLBfgJV0DTIQg5lAAzRf2,html-keyboard-response,140,831060,0.0-43.0-5.0-0.0-0.0,,,,,,,,,,,,,,,5f0ebcdf13efbf091b37c4b4,15:35:57,06/03/2024
2863.0,,,ospan,symmetry,fo5erlFfLBfgJV0DTIQg5lAAzRf2,symmetry-judgement-task,141,835012,0.0-43.0-5.0-0.0-1.0-0.0,,,,,,,,,,1.0,1.0,,,,5f0ebcdf13efbf091b37c4b4,15:35:57,06/03/2024
,"<div style=""font-size: 10rem; color: #0000FF"">R</div>",,ospan,letter,fo5erlFfLBfgJV0DTIQg5lAAzRf2,html-keyboard-response,142,836019,0.0-43.0-5.0-0.0-1.0-1.0,,,,,,,,,,,,,,,5f0ebcdf13efbf091b37c4b4,15:35:57,06/03/2024
1505.0,,,ospan,symmetry,fo5erlFfLBfgJV0DTIQg5lAAzRf2,symmetry-judgement-task,143,839381,0.0-43.0-5.0-0.0-1.0-2.0,,,,,,,,,,1.0,1.0,,,,5f0ebcdf13efbf091b37c4b4,15:35:57,06/03/2024
,"<div style=""font-size: 10rem; color: #0000FF"">S</div>",,ospan,letter,fo5erlFfLBfgJV0DTIQg5lAAzRf2,html-keyboard-response,144,840385,0.0-43.0-5.0-0.0-1.0-3.0,,,,,,,,,,,,,,,5f0ebcdf13efbf091b37c4b4,15:35:57,06/03/2024
1458.0,,,ospan,symmetry,fo5erlFfLBfgJV0DTIQg5lAAzRf2,symmetry-judgement-task,145,843688,0.0-43.0-5.0-0.0-1.0-4.0,,,,,,,,,,1.0,1.0,,,,5f0ebcdf13efbf091b37c4b4,15:35:57,06/03/2024
,"<div style=""font-size: 10rem; color: #0000FF"">L</div>",,ospan,letter,fo5erlFfLBfgJV0DTIQg5lAAzRf2,html-keyboard-response,146,844695,0.0-43.0-5.0-0.0-1.0-5.0,,,,,,,,,,,,,,,5f0ebcdf13efbf091b37c4b4,15:35:57,06/03/2024
1577.0,,,ospan,symmetry,fo5erlFfLBfgJV0DTIQg5lAAzRf2,symmetry-judgement-task,147,848128,0.0-43.0-5.0-0.0-1.0-6.0,,,,,,,,,,1.0,1.0,,,,5f0ebcdf13efbf091b37c4b4,15:35:57,06/03/2024
,"<div style=""font-size: 10rem; color: #0000FF"">H</div>",,ospan,letter,fo5erlFfLBfgJV0DTIQg5lAAzRf2,html-keyboard-response,148,849131,0.0-43.0-5.0-0.0-1.0-7.0,,,,,,,,,,,,,,,5f0ebcdf13efbf091b37c4b4,15:35:57,06/03/2024
1951.0,,,ospan,symmetry,fo5erlFfLBfgJV0DTIQg5lAAzRf2,symmetry-judgement-task,149,852933,0.0-43.0-5.0-0.0-1.0-8.0,,,,,,,,,,1.0,1.0,,,,5f0ebcdf13efbf091b37c4b4,15:35:57,06/03/2024
,"<div style=""font-size: 10rem; color: #0000FF"">N</div>",,ospan,letter,fo5erlFfLBfgJV0DTIQg5lAAzRf2,html-keyboard-response,150,853937,0.0-43.0-5.0-0.0-1.0-9.0,,,,,,,,,,,,,,,5f0ebcdf13efbf091b37c4b4,15:35:57,06/03/2024
4778.0,,,ospan,symmetry,fo5erlFfLBfgJV0DTIQg5lAAzRf2,symmetry-judgement-task,151,860568,0.0-43.0-5.0-0.0-1.0-10.0,,,,,,,,,,1.0,1.0,,,,5f0ebcdf13efbf091b37c4b4,15:35:57,06/03/2024
,"<div style=""font-size: 10rem; color: #0000FF"">Q</div>",,ospan,letter,fo5erlFfLBfgJV0DTIQg5lAAzRf2,html-keyboard-response,152,861576,0.0-43.0-5.0-0.0-1.0-11.0,,,,,,,,,,,,,,,5f0ebcdf13efbf091b37c4b4,15:35:57,06/03/2024
5961.199999928474,"<div class = numbox><p style=""font-size: 2.4rem"">Please recall the letters you saw to the best of your ability. If you do not remember a particular letter, use the SKIP button.<br><b>(When you are ready to lock in your answer, press ENTER)</b></p><button id = button_1 class = ""square num-button"" onclick = ""recordClick(this)""><div class = content><div class = numbers>C</div></div></button><button id = button_2 class = ""square num-button"" onclick = ""recordClick(this)""><div class = content><div class = numbers>G</div></div></button><button id = button_3 class = ""square num-button"" onclick = ""recordClick(this)""><div class = content><div class = numbers>H</div></div></button><button id = button_4 class = ""square num-button"" onclick = ""recordClick(this)""><div class = content><div class = numbers>J</div></div></button><button id = button_5 class = ""square num-button"" onclick = ""recordClick(this)""><div class = content><div class = numbers>K</div></div></button><button id = button_6 class = ""square num-button"" onclick = ""recordClick(this)""><div class = content><div class = numbers>L</div></div></button><button id = button_7 class = ""square num-button"" onclick = ""recordClick(this)""><div class = content><div class = numbers>N</div></div></button><button id = button_8 class = ""square num-button"" onclick = ""recordClick(this)""><div class = content><div class = numbers>P</div></div></button><button id = button_9 class = ""square num-button"" onclick = ""recordClick(this)""><div class = content><div class = numbers>Q</div></div></button><button id = button_10 class = ""square num-button"" onclick = ""recordClick(this)""><div class = content><div class = numbers>R</div></div></button><button id = button_11 class = ""square num-button"" onclick = ""recordClick(this)""><div class = content><div class = numbers>S</div></div></button><button id = button_12 class = ""square num-button"" onclick = ""recordClick(this)""><div class = content><div class = numbers>Y</div></div></button><button class = clear_button id = ""ClearButton"" onclick = ""clearResponse()"">BACKSPACE</button><button class = blank_button id = ""BlankButton"" onclick = ""blankResponse()"">SKIP</button><p style=""font-size: 2.4rem""><u><b>Current Answer:</b></u></p><br><br><div id=echoed_txt style=""font-size: 5rem; color:blue;""><b></b></div></div>",enter,ospan,retrieval,fo5erlFfLBfgJV0DTIQg5lAAzRf2,html-keyboard-response,153,868295,0.0-43.0-5.0-0.0-2.0,21,17,10,6.0,"[""R"",""S"",""L"",""N"",""Q""]","[""R"",""S"",""L"",""H"",""N"",""Q""]",0.0,3.0,,,,,,,5f0ebcdf13efbf091b37c4b4,15:35:57,06/03/2024
3895.100000023842,[''],0,ospan,feedback,fo5erlFfLBfgJV0DTIQg5lAAzRf2,html-button-response,154,872693,0.0-43.0-5.0-0.0-3.0,,,,,,,,,,,,100.0,0.0,,5f0ebcdf13efbf091b37c4b4,15:35:57,06/03/2024
,"<p style=""font-size:75px;"">...</p>",,ospan,iti,fo5erlFfLBfgJV0DTIQg5lAAzRf2,html-keyboard-response,155,873702,0.0-43.0-5.0-1.0-0.0,,,,,,,,,,,,,,,5f0ebcdf13efbf091b37c4b4,15:35:57,06/03/2024
1980.0,,,ospan,symmetry,fo5erlFfLBfgJV0DTIQg5lAAzRf2,symmetry-judgement-task,156,876718,0.0-43.0-5.0-1.0-1.0-0.0,,,,,,,,,,1.0,1.0,,,,5f0ebcdf13efbf091b37c4b4,15:35:57,06/03/2024
,"<div style=""font-size: 10rem; color: #0000FF"">L</div>",,ospan,letter,fo5erlFfLBfgJV0DTIQg5lAAzRf2,html-keyboard-response,157,877726,0.0-43.0-5.0-1.0-1.0-1.0,,,,,,,,,,,,,,,5f0ebcdf13efbf091b37c4b4,15:35:57,06/03/2024
1461.0,,,ospan,symmetry,fo5erlFfLBfgJV0DTIQg5lAAzRf2,symmetry-judgement-task,158,881027,0.0-43.0-5.0-1.0-1.0-2.0,,,,,,,,,,1.0,1.0,,,,5f0ebcdf13efbf091b37c4b4,15:35:57,06/03/2024
,"<div style=""font-size: 10rem; color: #0000FF"">R</div>",,ospan,letter,fo5erlFfLBfgJV0DTIQg5lAAzRf2,html-keyboard-response,159,882034,0.0-43.0-5.0-1.0-1.0-3.0,,,,,,,,,,,,,,,5f0ebcdf13efbf091b37c4b4,15:35:57,06/03/2024
1916.0,,,ospan,symmetry,fo5erlFfLBfgJV0DTIQg5lAAzRf2,symmetry-judgement-task,160,885798,0.0-43.0-5.0-1.0-1.0-4.0,,,,,,,,,,1.0,1.0,,,,5f0ebcdf13efbf091b37c4b4,15:35:57,06/03/2024
,"<div style=""font-size: 10rem; color: #0000FF"">J</div>",,ospan,letter,fo5erlFfLBfgJV0DTIQg5lAAzRf2,html-keyboard-response,161,886802,0.0-43.0-5.0-1.0-1.0-5.0,,,,,,,,,,,,,,,5f0ebcdf13efbf091b37c4b4,15:35:57,06/03/2024
3255.0,,,ospan,symmetry,fo5erlFfLBfgJV0DTIQg5lAAzRf2,symmetry-judgement-task,162,891903,0.0-43.0-5.0-1.0-1.0-6.0,,,,,,,,,,1.0,1.0,,,,5f0ebcdf13efbf091b37c4b4,15:35:57,06/03/2024
,"<div style=""font-size: 10rem; color: #0000FF"">Q</div>",,ospan,letter,fo5erlFfLBfgJV0DTIQg5lAAzRf2,html-keyboard-response,163,892906,0.0-43.0-5.0-1.0-1.0-7.0,,,,,,,,,,,,,,,5f0ebcdf13efbf091b37c4b4,15:35:57,06/03/2024
2083.0,,,ospan,symmetry,fo5erlFfLBfgJV0DTIQg5lAAzRf2,symmetry-judgement-task,164,896834,0.0-43.0-5.0-1.0-1.0-8.0,,,,,,,,,,1.0,1.0,,,,5f0ebcdf13efbf091b37c4b4,15:35:57,06/03/2024
,"<div style=""font-size: 10rem; color: #0000FF"">S</div>",,ospan,letter,fo5erlFfLBfgJV0DTIQg5lAAzRf2,html-keyboard-response,165,897841,0.0-43.0-5.0-1.0-1.0-9.0,,,,,,,,,,,,,,,5f0ebcdf13efbf091b37c4b4,15:35:57,06/03/2024
1369.0,,,ospan,symmetry,fo5erlFfLBfgJV0DTIQg5lAAzRf2,symmetry-judgement-task,166,901071,0.0-43.0-5.0-1.0-1.0-10.0,,,,,,,,,,1.0,1.0,,,,5f0ebcdf13efbf091b37c4b4,15:35:57,06/03/2024
,"<div style=""font-size: 10rem; color: #0000FF"">G</div>",,ospan,letter,fo5erlFfLBfgJV0DTIQg5lAAzRf2,html-keyboard-response,167,902079,0.0-43.0-5.0-1.0-1.0-11.0,,,,,,,,,,,,,,,5f0ebcdf13efbf091b37c4b4,15:35:57,06/03/2024
1728.0,,,ospan,symmetry,fo5erlFfLBfgJV0DTIQg5lAAzRf2,symmetry-judgement-task,168,905666,0.0-43.0-5.0-1.0-1.0-12.0,,,,,,,,,,1.0,1.0,,,,5f0ebcdf13efbf091b37c4b4,15:35:57,06/03/2024
,"<div style=""font-size: 10rem; color: #0000FF"">K</div>",,ospan,letter,fo5erlFfLBfgJV0DTIQg5lAAzRf2,html-keyboard-response,169,906673,0.0-43.0-5.0-1.0-1.0-13.0,,,,,,,,,,,,,,,5f0ebcdf13efbf091b37c4b4,15:35:57,06/03/2024
10545.5,"<div class = numbox><p style=""font-size: 2.4rem"">Please recall the letters you saw to the best of your ability. If you do not remember a particular letter, use the SKIP button.<br><b>(When you are ready to lock in your answer, press ENTER)</b></p><button id = button_1 class = ""square num-button"" onclick = ""recordClick(this)""><div class = content><div class = numbers>C</div></div></button><button id = button_2 class = ""square num-button"" onclick = ""recordClick(this)""><div class = content><div class = numbers>G</div></div></button><button id = button_3 class = ""square num-button"" onclick = ""recordClick(this)""><div class = content><div class = numbers>H</div></div></button><button id = button_4 class = ""square num-button"" onclick = ""recordClick(this)""><div class = content><div class = numbers>J</div></div></button><button id = button_5 class = ""square num-button"" onclick = ""recordClick(this)""><div class = content><div class = numbers>K</div></div></button><button id = button_6 class = ""square num-button"" onclick = ""recordClick(this)""><div class = content><div class = numbers>L</div></div></button><button id = button_7 class = ""square num-button"" onclick = ""recordClick(this)""><div class = content><div class = numbers>N</div></div></button><button id = button_8 class = ""square num-button"" onclick = ""recordClick(this)""><div class = content><div class = numbers>P</div></div></button><button id = button_9 class = ""square num-button"" onclick = ""recordClick(this)""><div class = content><div class = numbers>Q</div></div></button><button id = button_10 class = ""square num-button"" onclick = ""recordClick(this)""><div class = content><div class = numbers>R</div></div></button><button id = button_11 class = ""square num-button"" onclick = ""recordClick(this)""><div class = content><div class = numbers>S</div></div></button><button id = button_12 class = ""square num-button"" onclick = ""recordClick(this)""><div class = content><div class = numbers>Y</div></div></button><button class = clear_button id = ""ClearButton"" onclick = ""clearResponse()"">BACKSPACE</button><button class = blank_button id = ""BlankButton"" onclick = ""blankResponse()"">SKIP</button><p style=""font-size: 2.4rem""><u><b>Current Answer:</b></u></p><br><br><div id=echoed_txt style=""font-size: 5rem; color:blue;""><b></b></div></div>",enter,ospan,retrieval,fo5erlFfLBfgJV0DTIQg5lAAzRf2,html-keyboard-response,170,917972,0.0-43.0-5.0-1.0-2.0,28,24,17,7.0,"[""L"",""R"",""J"",""Q"",""S"",""G"",""K""]","[""L"",""R"",""J"",""Q"",""S"",""G"",""K""]",1.0,7.0,,,,,,,5f0ebcdf13efbf091b37c4b4,15:35:57,06/03/2024
714.1000000238419,[''],0,ospan,feedback,fo5erlFfLBfgJV0DTIQg5lAAzRf2,html-button-response,171,919190,0.0-43.0-5.0-1.0-3.0,,,,,,,,,,,,100.0,0.0,,5f0ebcdf13efbf091b37c4b4,15:35:57,06/03/2024
,"<p style=""font-size:75px;"">...</p>",,ospan,iti,fo5erlFfLBfgJV0DTIQg5lAAzRf2,html-keyboard-response,172,920198,0.0-43.0-6.0-0.0-0.0,,,,,,,,,,,,,,,5f0ebcdf13efbf091b37c4b4,15:35:57,06/03/2024
2304.0,,,ospan,symmetry,fo5erlFfLBfgJV0DTIQg5lAAzRf2,symmetry-judgement-task,173,923591,0.0-43.0-6.0-0.0-1.0-0.0,,,,,,,,,,1.0,1.0,,,,5f0ebcdf13efbf091b37c4b4,15:35:57,06/03/2024
,"<div style=""font-size: 10rem; color: #0000FF"">C</div>",,ospan,letter,fo5erlFfLBfgJV0DTIQg5lAAzRf2,html-keyboard-response,174,924599,0.0-43.0-6.0-0.0-1.0-1.0,,,,,,,,,,,,,,,5f0ebcdf13efbf091b37c4b4,15:35:57,06/03/2024
1422.0,,,ospan,symmetry,fo5erlFfLBfgJV0DTIQg5lAAzRf2,symmetry-judgement-task,175,927871,0.0-43.0-6.0-0.0-1.0-2.0,,,,,,,,,,1.0,1.0,,,,5f0ebcdf13efbf091b37c4b4,15:35:57,06/03/2024
,"<div style=""font-size: 10rem; color: #0000FF"">J</div>",,ospan,letter,fo5erlFfLBfgJV0DTIQg5lAAzRf2,html-keyboard-response,176,928878,0.0-43.0-6.0-0.0-1.0-3.0,,,,,,,,,,,,,,,5f0ebcdf13efbf091b37c4b4,15:35:57,06/03/2024
2338.0,,,ospan,symmetry,fo5erlFfLBfgJV0DTIQg5lAAzRf2,symmetry-judgement-task,177,933073,0.0-43.0-6.0-0.0-1.0-4.0,,,,,,,,,,1.0,1.0,,,,5f0ebcdf13efbf091b37c4b4,15:35:57,06/03/2024
,"<div style=""font-size: 10rem; color: #0000FF"">G</div>",,ospan,letter,fo5erlFfLBfgJV0DTIQg5lAAzRf2,html-keyboard-response,178,934081,0.0-43.0-6.0-0.0-1.0-5.0,,,,,,,,,,,,,,,5f0ebcdf13efbf091b37c4b4,15:35:57,06/03/2024
2643.0,,,ospan,symmetry,fo5erlFfLBfgJV0DTIQg5lAAzRf2,symmetry-judgement-task,179,938580,0.0-43.0-6.0-0.0-1.0-6.0,,,,,,,,,,1.0,1.0,,,,5f0ebcdf13efbf091b37c4b4,15:35:57,06/03/2024
,"<div style=""font-size: 10rem; color: #0000FF"">P</div>",,ospan,letter,fo5erlFfLBfgJV0DTIQg5lAAzRf2,html-keyboard-response,180,939587,0.0-43.0-6.0-0.0-1.0-7.0,,,,,,,,,,,,,,,5f0ebcdf13efbf091b37c4b4,15:35:57,06/03/2024
1125.0,,,ospan,symmetry,fo5erlFfLBfgJV0DTIQg5lAAzRf2,symmetry-judgement-task,181,942557,0.0-43.0-6.0-0.0-1.0-8.0,,,,,,,,,,1.0,1.0,,,,5f0ebcdf13efbf091b37c4b4,15:35:57,06/03/2024
,"<div style=""font-size: 10rem; color: #0000FF"">H</div>",,ospan,letter,fo5erlFfLBfgJV0DTIQg5lAAzRf2,html-keyboard-response,182,943565,0.0-43.0-6.0-0.0-1.0-9.0,,,,,,,,,,,,,,,5f0ebcdf13efbf091b37c4b4,15:35:57,06/03/2024
10319.5,"<div class = numbox><p style=""font-size: 2.4rem"">Please recall the letters you saw to the best of your ability. If you do not remember a particular letter, use the SKIP button.<br><b>(When you are ready to lock in your answer, press ENTER)</b></p><button id = button_1 class = ""square num-button"" onclick = ""recordClick(this)""><div class = content><div class = numbers>C</div></div></button><button id = button_2 class = ""square num-button"" onclick = ""recordClick(this)""><div class = content><div class = numbers>G</div></div></button><button id = button_3 class = ""square num-button"" onclick = ""recordClick(this)""><div class = content><div class = numbers>H</div></div></button><button id = button_4 class = ""square num-button"" onclick = ""recordClick(this)""><div class = content><div class = numbers>J</div></div></button><button id = button_5 class = ""square num-button"" onclick = ""recordClick(this)""><div class = content><div class = numbers>K</div></div></button><button id = button_6 class = ""square num-button"" onclick = ""recordClick(this)""><div class = content><div class = numbers>L</div></div></button><button id = button_7 class = ""square num-button"" onclick = ""recordClick(this)""><div class = content><div class = numbers>N</div></div></button><button id = button_8 class = ""square num-button"" onclick = ""recordClick(this)""><div class = content><div class = numbers>P</div></div></button><button id = button_9 class = ""square num-button"" onclick = ""recordClick(this)""><div class = content><div class = numbers>Q</div></div></button><button id = button_10 class = ""square num-button"" onclick = ""recordClick(this)""><div class = content><div class = numbers>R</div></div></button><button id = button_11 class = ""square num-button"" onclick = ""recordClick(this)""><div class = content><div class = numbers>S</div></div></button><button id = button_12 class = ""square num-button"" onclick = ""recordClick(this)""><div class = content><div class = numbers>Y</div></div></button><button class = clear_button id = ""ClearButton"" onclick = ""clearResponse()"">BACKSPACE</button><button class = blank_button id = ""BlankButton"" onclick = ""blankResponse()"">SKIP</button><p style=""font-size: 2.4rem""><u><b>Current Answer:</b></u></p><br><br><div id=echoed_txt style=""font-size: 5rem; color:blue;""><b></b></div></div>",enter,ospan,retrieval,fo5erlFfLBfgJV0DTIQg5lAAzRf2,html-keyboard-response,183,954642,0.0-43.0-6.0-0.0-2.0,33,29,22,5.0,"[""C"",""J"",""G"",""P"",""H""]","[""C"",""J"",""G"",""P"",""H""]",1.0,5.0,,,,,,,5f0ebcdf13efbf091b37c4b4,15:35:57,06/03/2024
673.5,[''],0,ospan,feedback,fo5erlFfLBfgJV0DTIQg5lAAzRf2,html-button-response,184,955817,0.0-43.0-6.0-0.0-3.0,,,,,,,,,,,,100.0,0.0,,5f0ebcdf13efbf091b37c4b4,15:35:57,06/03/2024
,"<p style=""font-size:75px;"">...</p>",,ospan,iti,fo5erlFfLBfgJV0DTIQg5lAAzRf2,html-keyboard-response,185,956826,0.0-43.0-6.0-1.0-0.0,,,,,,,,,,,,,,,5f0ebcdf13efbf091b37c4b4,15:35:57,06/03/2024
1921.0,,,ospan,symmetry,fo5erlFfLBfgJV0DTIQg5lAAzRf2,symmetry-judgement-task,186,959829,0.0-43.0-6.0-1.0-1.0-0.0,,,,,,,,,,1.0,1.0,,,,5f0ebcdf13efbf091b37c4b4,15:35:57,06/03/2024
,"<div style=""font-size: 10rem; color: #0000FF"">J</div>",,ospan,letter,fo5erlFfLBfgJV0DTIQg5lAAzRf2,html-keyboard-response,187,960837,0.0-43.0-6.0-1.0-1.0-1.0,,,,,,,,,,,,,,,5f0ebcdf13efbf091b37c4b4,15:35:57,06/03/2024
1125.0,,,ospan,symmetry,fo5erlFfLBfgJV0DTIQg5lAAzRf2,symmetry-judgement-task,188,963806,0.0-43.0-6.0-1.0-1.0-2.0,,,,,,,,,,1.0,1.0,,,,5f0ebcdf13efbf091b37c4b4,15:35:57,06/03/2024
,"<div style=""font-size: 10rem; color: #0000FF"">Y</div>",,ospan,letter,fo5erlFfLBfgJV0DTIQg5lAAzRf2,html-keyboard-response,189,964811,0.0-43.0-6.0-1.0-1.0-3.0,,,,,,,,,,,,,,,5f0ebcdf13efbf091b37c4b4,15:35:57,06/03/2024
1585.0,,,ospan,symmetry,fo5erlFfLBfgJV0DTIQg5lAAzRf2,symmetry-judgement-task,190,968236,0.0-43.0-6.0-1.0-1.0-4.0,,,,,,,,,,1.0,1.0,,,,5f0ebcdf13efbf091b37c4b4,15:35:57,06/03/2024
,"<div style=""font-size: 10rem; color: #0000FF"">G</div>",,ospan,letter,fo5erlFfLBfgJV0DTIQg5lAAzRf2,html-keyboard-response,191,969244,0.0-43.0-6.0-1.0-1.0-5.0,,,,,,,,,,,,,,,5f0ebcdf13efbf091b37c4b4,15:35:57,06/03/2024
3375.0,,,ospan,symmetry,fo5erlFfLBfgJV0DTIQg5lAAzRf2,symmetry-judgement-task,192,974470,0.0-43.0-6.0-1.0-1.0-6.0,,,,,,,,,,1.0,1.0,,,,5f0ebcdf13efbf091b37c4b4,15:35:57,06/03/2024
,"<div style=""font-size: 10rem; color: #0000FF"">N</div>",,ospan,letter,fo5erlFfLBfgJV0DTIQg5lAAzRf2,html-keyboard-response,193,975477,0.0-43.0-6.0-1.0-1.0-7.0,,,,,,,,,,,,,,,5f0ebcdf13efbf091b37c4b4,15:35:57,06/03/2024
1373.0,,,ospan,symmetry,fo5erlFfLBfgJV0DTIQg5lAAzRf2,symmetry-judgement-task,194,978711,0.0-43.0-6.0-1.0-1.0-8.0,,,,,,,,,,1.0,1.0,,,,5f0ebcdf13efbf091b37c4b4,15:35:57,06/03/2024
,"<div style=""font-size: 10rem; color: #0000FF"">K</div>",,ospan,letter,fo5erlFfLBfgJV0DTIQg5lAAzRf2,html-keyboard-response,195,979719,0.0-43.0-6.0-1.0-1.0-9.0,,,,,,,,,,,,,,,5f0ebcdf13efbf091b37c4b4,15:35:57,06/03/2024
1583.0,,,ospan,symmetry,fo5erlFfLBfgJV0DTIQg5lAAzRf2,symmetry-judgement-task,196,983154,0.0-43.0-6.0-1.0-1.0-10.0,,,,,,,,,,1.0,1.0,,,,5f0ebcdf13efbf091b37c4b4,15:35:57,06/03/2024
,"<div style=""font-size: 10rem; color: #0000FF"">H</div>",,ospan,letter,fo5erlFfLBfgJV0DTIQg5lAAzRf2,html-keyboard-response,197,984161,0.0-43.0-6.0-1.0-1.0-11.0,,,,,,,,,,,,,,,5f0ebcdf13efbf091b37c4b4,15:35:57,06/03/2024
1308.0,,,ospan,symmetry,fo5erlFfLBfgJV0DTIQg5lAAzRf2,symmetry-judgement-task,198,987323,0.0-43.0-6.0-1.0-1.0-12.0,,,,,,,,,,1.0,1.0,,,,5f0ebcdf13efbf091b37c4b4,15:35:57,06/03/2024
,"<div style=""font-size: 10rem; color: #0000FF"">C</div>",,ospan,letter,fo5erlFfLBfgJV0DTIQg5lAAzRf2,html-keyboard-response,199,988325,0.0-43.0-6.0-1.0-1.0-13.0,,,,,,,,,,,,,,,5f0ebcdf13efbf091b37c4b4,15:35:57,06/03/2024
2493.0,,,ospan,symmetry,fo5erlFfLBfgJV0DTIQg5lAAzRf2,symmetry-judgement-task,200,992678,0.0-43.0-6.0-1.0-1.0-14.0,,,,,,,,,,1.0,1.0,,,,5f0ebcdf13efbf091b37c4b4,15:35:57,06/03/2024
,"<div style=""font-size: 10rem; color: #0000FF"">P</div>",,ospan,letter,fo5erlFfLBfgJV0DTIQg5lAAzRf2,html-keyboard-response,201,993682,0.0-43.0-6.0-1.0-1.0-15.0,,,,,,,,,,,,,,,5f0ebcdf13efbf091b37c4b4,15:35:57,06/03/2024
14727.900000095367,"<div class = numbox><p style=""font-size: 2.4rem"">Please recall the letters you saw to the best of your ability. If you do not remember a particular letter, use the SKIP button.<br><b>(When you are ready to lock in your answer, press ENTER)</b></p><button id = button_1 class = ""square num-button"" onclick = ""recordClick(this)""><div class = content><div class = numbers>C</div></div></button><button id = button_2 class = ""square num-button"" onclick = ""recordClick(this)""><div class = content><div class = numbers>G</div></div></button><button id = button_3 class = ""square num-button"" onclick = ""recordClick(this)""><div class = content><div class = numbers>H</div></div></button><button id = button_4 class = ""square num-button"" onclick = ""recordClick(this)""><div class = content><div class = numbers>J</div></div></button><button id = button_5 class = ""square num-button"" onclick = ""recordClick(this)""><div class = content><div class = numbers>K</div></div></button><button id = button_6 class = ""square num-button"" onclick = ""recordClick(this)""><div class = content><div class = numbers>L</div></div></button><button id = button_7 class = ""square num-button"" onclick = ""recordClick(this)""><div class = content><div class = numbers>N</div></div></button><button id = button_8 class = ""square num-button"" onclick = ""recordClick(this)""><div class = content><div class = numbers>P</div></div></button><button id = button_9 class = ""square num-button"" onclick = ""recordClick(this)""><div class = content><div class = numbers>Q</div></div></button><button id = button_10 class = ""square num-button"" onclick = ""recordClick(this)""><div class = content><div class = numbers>R</div></div></button><button id = button_11 class = ""square num-button"" onclick = ""recordClick(this)""><div class = content><div class = numbers>S</div></div></button><button id = button_12 class = ""square num-button"" onclick = ""recordClick(this)""><div class = content><div class = numbers>Y</div></div></button><button class = clear_button id = ""ClearButton"" onclick = ""clearResponse()"">BACKSPACE</button><button class = blank_button id = ""BlankButton"" onclick = ""blankResponse()"">SKIP</button><p style=""font-size: 2.4rem""><u><b>Current Answer:</b></u></p><br><br><div id=echoed_txt style=""font-size: 5rem; color:blue;""><b></b></div></div>",enter,ospan,retrieval,fo5erlFfLBfgJV0DTIQg5lAAzRf2,html-keyboard-response,202,1009167,0.0-43.0-6.0-1.0-2.0,41,31,22,8.0,"[""J"",""Y"",""N"",""K"",""H"",""C"",""P""]","[""J"",""Y"",""G"",""N"",""K"",""H"",""C"",""P""]",0.0,2.0,,,,,,,5f0ebcdf13efbf091b37c4b4,15:35:57,06/03/2024
547.2000000476837,[''],0,ospan,feedback,fo5erlFfLBfgJV0DTIQg5lAAzRf2,html-button-response,203,1010220,0.0-43.0-6.0-1.0-3.0,,,,,,,,,,,,100.0,0.0,,5f0ebcdf13efbf091b37c4b4,15:35:57,06/03/2024
32240.300000071526,,{'Q0': 'Really enjoyed this task and I actually think I did pretty good- so it has cheered me up! all was very clear and once again no negatives as I have enjoyed all of it.'},ospan,survey_ospan,fo5erlFfLBfgJV0DTIQg5lAAzRf2,lmdlab-survey-text,204,1043220,0.0-43.0-7.0,,,,,,,,,,,,,,fo5erlFfLBfgJV0DTIQg5lAAzRf2,5f0ebcdf13efbf091b37c4b4,15:35:57,06/03/2024
2063.6999999284744,<p><p style='font-size: 3rem'>Great work!<br><br>This completes the symmetry and memory task.</p><br><br><br>,0,ospan,finish,fo5erlFfLBfgJV0DTIQg5lAAzRf2,html-button-response,205,1045289,0.0-43.0-8.0,41,31,22,,,,,,,,,100.0,,,5f0ebcdf13efbf091b37c4b4,15:35:57,06/03/2024
