rt,stimulus,response,exp_name,exp_stage,subjectID,trial_type,trial_index,time_elapsed,internal_node_id,ospan_shown,ospan_total,ospan_abs,length,resp_actual,resp_correct,full_correct,num_correct,feedback,accuracy,correct,math_acc,math_warning,databaseID,prolificID,start_time,date
7646.400000035763,<div class = 'left_align' style='font-size: 3.25rem; line-height: 1.3;'><p class = 'center_align'><b>Welcome to the Symmetry and Memory Task</b><br><br><br><br></p>Press 'continue' to show the instructions.<br><br><br><br></div>,0,ospan,instruct,9E0Tp2rqqzNrvr2ehDVjj28RDAq1,html-button-response,54,624029,0.0-46.0-0.0-0.0-0.0,,,,,,,,,,,,,,,5d30f3d2d2938d0001bfbd1e,12:19:22,03/04/2024
9898.599999964237,"<div class = 'left_align' style='font-size: 3.25rem; line-height: 1.3;'><p class = 'center_align'><b>Symmetry and Memory Task</b><br><br></p>In this task, you will try to memorize letters you see on the screen<br>while you also view black and white grid pictures.<br><br>In the next few minutes, you will have some practice to get you familiar<br>with how the task works.<br><br>It may be difficult sometimes, but please do not worry about making mistakes!<br><br>We will begin by practicing the letter part of the task.<br><br><br><br></div>",0,ospan,instruct,9E0Tp2rqqzNrvr2ehDVjj28RDAq1,html-button-response,55,634186,0.0-46.0-0.0-0.0-1.0,,,,,,,,,,,,,,,5d30f3d2d2938d0001bfbd1e,12:19:22,03/04/2024
8030.699999988079,"<div class = 'left_align' style='font-size: 3.25rem; line-height: 1.3;'>For this practice part, letters will appear on the screen one at a time.<br><br>Try to remember each letter in the order presented.<br><br>After some letters have been shown, you will see a response screen. Your<br>goal is to report the letters you saw <b>in order</b>. If you do not remember<br>a particular letter, you will have the option to leave it blank.<br><br><br><br></div>",0,ospan,instruct,9E0Tp2rqqzNrvr2ehDVjj28RDAq1,html-button-response,56,642474,0.0-46.0-0.0-0.0-2.0,,,,,,,,,,,,,,,5d30f3d2d2938d0001bfbd1e,12:19:22,03/04/2024
3271.199999988079,"<div class = 'left_align' style='font-size: 3.25rem; line-height: 1.3;'>Remember, it is very important to get the letters in the same<br>order as you see them.<br><br>When you are ready, you may begin the letter practice.</div><br><br><br><br>",0,ospan,instruct,9E0Tp2rqqzNrvr2ehDVjj28RDAq1,html-button-response,57,645999,0.0-46.0-0.0-0.0-3.0,,,,,,,,,,,,,,,5d30f3d2d2938d0001bfbd1e,12:19:22,03/04/2024
,"<p style=""font-size:75px;"">...</p>",,ospan,iti,9E0Tp2rqqzNrvr2ehDVjj28RDAq1,html-keyboard-response,58,647266,0.0-46.0-0.0-1.0-0.0,,,,,,,,,,,,,,,5d30f3d2d2938d0001bfbd1e,12:19:22,03/04/2024
,"<div style=""font-size: 10rem; color: #0000FF"">Q</div>",,ospan,letter,9E0Tp2rqqzNrvr2ehDVjj28RDAq1,html-keyboard-response,59,648312,0.0-46.0-0.0-1.0-1.0,,,,,,,,,,,,,,,5d30f3d2d2938d0001bfbd1e,12:19:22,03/04/2024
,"<div style=""font-size: 10rem; color: #0000FF"">K</div>",,ospan,letter,9E0Tp2rqqzNrvr2ehDVjj28RDAq1,html-keyboard-response,60,650086,0.0-46.0-0.0-1.0-2.0,,,,,,,,,,,,,,,5d30f3d2d2938d0001bfbd1e,12:19:22,03/04/2024
14061.399999976158,"<div class = numbox><p style=""font-size: 2.4rem"">Please recall the letters you saw to the best of your ability. If you do not remember a particular letter, use the SKIP button.<br><b>(When you are ready to lock in your answer, press ENTER)</b></p><button id = button_1 class = ""square num-button"" onclick = ""recordClick(this)""><div class = content><div class = numbers>C</div></div></button><button id = button_2 class = ""square num-button"" onclick = ""recordClick(this)""><div class = content><div class = numbers>G</div></div></button><button id = button_3 class = ""square num-button"" onclick = ""recordClick(this)""><div class = content><div class = numbers>H</div></div></button><button id = button_4 class = ""square num-button"" onclick = ""recordClick(this)""><div class = content><div class = numbers>J</div></div></button><button id = button_5 class = ""square num-button"" onclick = ""recordClick(this)""><div class = content><div class = numbers>K</div></div></button><button id = button_6 class = ""square num-button"" onclick = ""recordClick(this)""><div class = content><div class = numbers>L</div></div></button><button id = button_7 class = ""square num-button"" onclick = ""recordClick(this)""><div class = content><div class = numbers>N</div></div></button><button id = button_8 class = ""square num-button"" onclick = ""recordClick(this)""><div class = content><div class = numbers>P</div></div></button><button id = button_9 class = ""square num-button"" onclick = ""recordClick(this)""><div class = content><div class = numbers>Q</div></div></button><button id = button_10 class = ""square num-button"" onclick = ""recordClick(this)""><div class = content><div class = numbers>R</div></div></button><button id = button_11 class = ""square num-button"" onclick = ""recordClick(this)""><div class = content><div class = numbers>S</div></div></button><button id = button_12 class = ""square num-button"" onclick = ""recordClick(this)""><div class = content><div class = numbers>Y</div></div></button><button class = clear_button id = ""ClearButton"" onclick = ""clearResponse()"">BACKSPACE</button><button class = blank_button id = ""BlankButton"" onclick = ""blankResponse()"">SKIP</button><p style=""font-size: 2.4rem""><u><b>Current Answer:</b></u></p><br><br><div id=echoed_txt style=""font-size: 5rem; color:blue;""><b></b></div></div>",enter,ospan,retrieval,9E0Tp2rqqzNrvr2ehDVjj28RDAq1,html-keyboard-response,61,664932,0.0-46.0-0.0-1.0-3.0,NA,NA,NA,2.0,"[""Q"",""_"",""K""]","[""Q"",""K""]",0.0,1.0,"['<font color=""green"">Q</font>', '<font color=""red"">K</font>']",,,,,,5d30f3d2d2938d0001bfbd1e,12:19:22,03/04/2024
2330.399999976158,"['<p style=""font-size:44px"">Letters:<br><br><br><font color=""green"">Q</font> <font color=""red"">K</font></p><br><br>']",0,ospan,practice_feedback,9E0Tp2rqqzNrvr2ehDVjj28RDAq1,html-button-response,62,667888,0.0-46.0-0.0-1.0-4.0,,,,,,,,,,,,,,,5d30f3d2d2938d0001bfbd1e,12:19:22,03/04/2024
,"<p style=""font-size:75px;"">...</p>",,ospan,iti,9E0Tp2rqqzNrvr2ehDVjj28RDAq1,html-keyboard-response,63,668894,0.0-46.0-0.0-2.0-0.0,,,,,,,,,,,,,,,5d30f3d2d2938d0001bfbd1e,12:19:22,03/04/2024
,"<div style=""font-size: 10rem; color: #0000FF"">S</div>",,ospan,letter,9E0Tp2rqqzNrvr2ehDVjj28RDAq1,html-keyboard-response,64,669903,0.0-46.0-0.0-2.0-1.0,,,,,,,,,,,,,,,5d30f3d2d2938d0001bfbd1e,12:19:22,03/04/2024
,"<div style=""font-size: 10rem; color: #0000FF"">K</div>",,ospan,letter,9E0Tp2rqqzNrvr2ehDVjj28RDAq1,html-keyboard-response,65,671667,0.0-46.0-0.0-2.0-2.0,,,,,,,,,,,,,,,5d30f3d2d2938d0001bfbd1e,12:19:22,03/04/2024
,"<div style=""font-size: 10rem; color: #0000FF"">R</div>",,ospan,letter,9E0Tp2rqqzNrvr2ehDVjj28RDAq1,html-keyboard-response,66,673432,0.0-46.0-0.0-2.0-3.0,,,,,,,,,,,,,,,5d30f3d2d2938d0001bfbd1e,12:19:22,03/04/2024
6827.0,"<div class = numbox><p style=""font-size: 2.4rem"">Please recall the letters you saw to the best of your ability. If you do not remember a particular letter, use the SKIP button.<br><b>(When you are ready to lock in your answer, press ENTER)</b></p><button id = button_1 class = ""square num-button"" onclick = ""recordClick(this)""><div class = content><div class = numbers>C</div></div></button><button id = button_2 class = ""square num-button"" onclick = ""recordClick(this)""><div class = content><div class = numbers>G</div></div></button><button id = button_3 class = ""square num-button"" onclick = ""recordClick(this)""><div class = content><div class = numbers>H</div></div></button><button id = button_4 class = ""square num-button"" onclick = ""recordClick(this)""><div class = content><div class = numbers>J</div></div></button><button id = button_5 class = ""square num-button"" onclick = ""recordClick(this)""><div class = content><div class = numbers>K</div></div></button><button id = button_6 class = ""square num-button"" onclick = ""recordClick(this)""><div class = content><div class = numbers>L</div></div></button><button id = button_7 class = ""square num-button"" onclick = ""recordClick(this)""><div class = content><div class = numbers>N</div></div></button><button id = button_8 class = ""square num-button"" onclick = ""recordClick(this)""><div class = content><div class = numbers>P</div></div></button><button id = button_9 class = ""square num-button"" onclick = ""recordClick(this)""><div class = content><div class = numbers>Q</div></div></button><button id = button_10 class = ""square num-button"" onclick = ""recordClick(this)""><div class = content><div class = numbers>R</div></div></button><button id = button_11 class = ""square num-button"" onclick = ""recordClick(this)""><div class = content><div class = numbers>S</div></div></button><button id = button_12 class = ""square num-button"" onclick = ""recordClick(this)""><div class = content><div class = numbers>Y</div></div></button><button class = clear_button id = ""ClearButton"" onclick = ""clearResponse()"">BACKSPACE</button><button class = blank_button id = ""BlankButton"" onclick = ""blankResponse()"">SKIP</button><p style=""font-size: 2.4rem""><u><b>Current Answer:</b></u></p><br><br><div id=echoed_txt style=""font-size: 5rem; color:blue;""><b></b></div></div>",enter,ospan,retrieval,9E0Tp2rqqzNrvr2ehDVjj28RDAq1,html-keyboard-response,67,681023,0.0-46.0-0.0-2.0-4.0,NA,NA,NA,3.0,"[""S"",""K"",""R""]","[""S"",""K"",""R""]",1.0,3.0,"['<font color=""green"">S</font>', '<font color=""green"">K</font>', '<font color=""green"">R</font>']",,,,,,5d30f3d2d2938d0001bfbd1e,12:19:22,03/04/2024
1694.6000000238419,"['<p style=""font-size:44px"">Letters:<br><br><br><font color=""green"">S</font> <font color=""green"">K</font> <font color=""green"">R</font></p><br><br>']",0,ospan,practice_feedback,9E0Tp2rqqzNrvr2ehDVjj28RDAq1,html-button-response,68,683228,0.0-46.0-0.0-2.0-5.0,,,,,,,,,,,,,,,5d30f3d2d2938d0001bfbd1e,12:19:22,03/04/2024
23329.30000001192,"<div class = 'left_align' style='font-size: 3.25rem; line-height: 1.3;'>Now you will practice doing the <b>symmetry judgment part</b> of the experiment.<br><br>A black and white grid picture will appear on the screen and you have to judge if it is <br>symmetrical or asymetrical.<br><br>A picture is 'mirror' symmetrical if its left half is identical to the right half when flipped.<br>Here are examples of a symmetrical and an asymetrical picture:<br><br><center><img src='Stimuli/img/symm_instructions_extra.png' style='height:420px; width:900'></img></center><br>To judge symmetry, imagine you were to fold each picture down the middle, like a book –<br>would the left half match the right half when folded onto each other?<br><br></div><br>",0,ospan,instruct,9E0Tp2rqqzNrvr2ehDVjj28RDAq1,html-button-response,69,706578,0.0-46.0-1.0-0.0-0.0,,,,,,,,,,,,,,,5d30f3d2d2938d0001bfbd1e,12:19:22,03/04/2024
7130.100000023842,"<div class = 'left_align' style='font-size: 3.25rem; line-height: 1.3;'>When you have viewed the picture and determined whether it is symmetrical or not,<br>you can <b>click the Yes or No button</b> below to answer.<br><br>If you take longer than 15 seconds, it will continue automatically<br>and record the answer as an error.</div><br>",0,ospan,instruct,9E0Tp2rqqzNrvr2ehDVjj28RDAq1,html-button-response,70,713972,0.0-46.0-1.0-0.0-1.0,,,,,,,,,,,,,,,5d30f3d2d2938d0001bfbd1e,12:19:22,03/04/2024
4748.699999988079,"<div class = 'left_align' style='font-size: 3.25rem; line-height: 1.3;'>It is <b>very</b> important that you make the symmetry judgment correctly.<br><br>It is also important that you try and judge the picture as quickly as you can.<br><br>When you are ready, click on the button below to try some practice problems.</div><br><br><br><br>",0,ospan,instruct,9E0Tp2rqqzNrvr2ehDVjj28RDAq1,html-button-response,71,718978,0.0-46.0-1.0-0.0-2.0,,,,,,,,,,,,,,,5d30f3d2d2938d0001bfbd1e,12:19:22,03/04/2024
3417.0,,,ospan,symmetry,9E0Tp2rqqzNrvr2ehDVjj28RDAq1,symmetry-judgement-task,72,723218,0.0-46.0-1.0-1.0-0.0,,,,,,,,,,1.0,1.0,,,,5d30f3d2d2938d0001bfbd1e,12:19:22,03/04/2024
,"<p style=""color:green; font-size: 35px"">Correct</p>",,ospan,feedback,9E0Tp2rqqzNrvr2ehDVjj28RDAq1,html-keyboard-response,73,723971,0.0-46.0-1.0-1.0-1.0,,,,,,,,,,,,,,,5d30f3d2d2938d0001bfbd1e,12:19:22,03/04/2024
2324.0,,,ospan,symmetry,9E0Tp2rqqzNrvr2ehDVjj28RDAq1,symmetry-judgement-task,74,729174,0.0-46.0-1.0-1.0-2.0,,,,,,,,,,1.0,1.0,,,,5d30f3d2d2938d0001bfbd1e,12:19:22,03/04/2024
,"<p style=""color:green; font-size: 35px"">Correct</p>",,ospan,feedback,9E0Tp2rqqzNrvr2ehDVjj28RDAq1,html-keyboard-response,75,729934,0.0-46.0-1.0-1.0-3.0,,,,,,,,,,,,,,,5d30f3d2d2938d0001bfbd1e,12:19:22,03/04/2024
1867.0,,,ospan,symmetry,9E0Tp2rqqzNrvr2ehDVjj28RDAq1,symmetry-judgement-task,76,734659,0.0-46.0-1.0-1.0-4.0,,,,,,,,,,1.0,1.0,,,,5d30f3d2d2938d0001bfbd1e,12:19:22,03/04/2024
,"<p style=""color:green; font-size: 35px"">Correct</p>",,ospan,feedback,9E0Tp2rqqzNrvr2ehDVjj28RDAq1,html-keyboard-response,77,735421,0.0-46.0-1.0-1.0-5.0,,,,,,,,,,,,,,,5d30f3d2d2938d0001bfbd1e,12:19:22,03/04/2024
1649.9000000357628,"<p style=""font-size: 3rem;"">You responded correctly on 3 of 3 symmetry judgments. Good job!</p><br><br>",0,ospan,practice,9E0Tp2rqqzNrvr2ehDVjj28RDAq1,html-button-response,78,739079,0.0-46.0-1.0-2.0,,,,,,,,,,,,,,,5d30f3d2d2938d0001bfbd1e,12:19:22,03/04/2024
11778.5,"<div class = 'left_align' style='font-size: 3.25rem; line-height: 1.3;'>Now you will practice doing both parts of the experiment at the same time.<br><br>In the next practice set, you will be given one grid picture to judge.<br>Then letter will appear on the screen. Try to remember the letter.<br><br>It is <b>very important</b> to make the symmetry judgment as quickly and accurately as possible.<br><br>Just as before, once you have make the symmetry judgment, you can click Yes or No.<br><b>Note that you will no longer see Correct or Incorrect feedback.</div><br><br><br><br>",0,ospan,instruct,9E0Tp2rqqzNrvr2ehDVjj28RDAq1,html-button-response,79,751115,0.0-46.0-2.0-0.0-0.0,,,,,,,,,,,,,,,5d30f3d2d2938d0001bfbd1e,12:19:22,03/04/2024
4543.800000011921,"<div class = 'left_align' style='font-size: 3.25rem; line-height: 1.3;'>After the letter goes away, another grid picture will appear, and then<br>another letter.<br><br>At the end of each set of letters and grids, you will recall the letters to the best<br>of your ability. Remember, try your best to get the letters in the correct order.<br><br>It is important to <b>quickly</b> and <b>accurately</b> make the symmetry judgments.</div><br><br><br><br>",0,ospan,instruct,9E0Tp2rqqzNrvr2ehDVjj28RDAq1,html-button-response,80,755922,0.0-46.0-2.0-0.0-1.0,,,,,,,,,,,,,,,5d30f3d2d2938d0001bfbd1e,12:19:22,03/04/2024
13529.300000011921,"<div class = 'left_align' style='font-size: 3.25rem; line-height: 1.3;'>On the feedback screen, if you are not doing well at the symmetry judgments,<br>you will also see a warning in the middle. This indicates your percent <br>correct for the grid pictures for the entire experiment.<br><br>It is <b>very</b> important for you to keep accuracy at least at 85%: <u>We can only use<br>data where the participant was at least 85% accurate on the judgments.</u> Therefore,<br> please try your best to perform well on the symmetry judgments, <b>at the same time</b><br>doing your best to recall as many letters as possible.<br><br>Click the button to try some practice problems.</div><br><br><br><br>",0,ospan,instruct,9E0Tp2rqqzNrvr2ehDVjj28RDAq1,html-button-response,81,769708,0.0-46.0-2.0-0.0-2.0,,,,,,,,,,,,,,,5d30f3d2d2938d0001bfbd1e,12:19:22,03/04/2024
,"<p style=""font-size:75px;"">...</p>",,ospan,iti,9E0Tp2rqqzNrvr2ehDVjj28RDAq1,html-keyboard-response,82,770975,0.0-46.0-2.0-1.0-0.0,,,,,,,,,,,,,,,5d30f3d2d2938d0001bfbd1e,12:19:22,03/04/2024
3766.0,,,ospan,symmetry,9E0Tp2rqqzNrvr2ehDVjj28RDAq1,symmetry-judgement-task,83,776140,0.0-46.0-2.0-1.0-1.0-0.0,,,,,,,,,,1.0,1.0,,,,5d30f3d2d2938d0001bfbd1e,12:19:22,03/04/2024
,"<div style=""font-size: 10rem; color: #0000FF"">P</div>",,ospan,letter,9E0Tp2rqqzNrvr2ehDVjj28RDAq1,html-keyboard-response,84,777144,0.0-46.0-2.0-1.0-1.0-1.0,,,,,,,,,,,,,,,5d30f3d2d2938d0001bfbd1e,12:19:22,03/04/2024
1708.0,,,ospan,symmetry,9E0Tp2rqqzNrvr2ehDVjj28RDAq1,symmetry-judgement-task,85,781008,0.0-46.0-2.0-1.0-1.0-2.0,,,,,,,,,,1.0,1.0,,,,5d30f3d2d2938d0001bfbd1e,12:19:22,03/04/2024
,"<div style=""font-size: 10rem; color: #0000FF"">Q</div>",,ospan,letter,9E0Tp2rqqzNrvr2ehDVjj28RDAq1,html-keyboard-response,86,782021,0.0-46.0-2.0-1.0-1.0-3.0,,,,,,,,,,,,,,,5d30f3d2d2938d0001bfbd1e,12:19:22,03/04/2024
2577.0,,,ospan,symmetry,9E0Tp2rqqzNrvr2ehDVjj28RDAq1,symmetry-judgement-task,87,786779,0.0-46.0-2.0-1.0-1.0-4.0,,,,,,,,,,1.0,1.0,,,,5d30f3d2d2938d0001bfbd1e,12:19:22,03/04/2024
,"<div style=""font-size: 10rem; color: #0000FF"">H</div>",,ospan,letter,9E0Tp2rqqzNrvr2ehDVjj28RDAq1,html-keyboard-response,88,787792,0.0-46.0-2.0-1.0-1.0-5.0,,,,,,,,,,,,,,,5d30f3d2d2938d0001bfbd1e,12:19:22,03/04/2024
7590.700000047684,"<div class = numbox><p style=""font-size: 2.4rem"">Please recall the letters you saw to the best of your ability. If you do not remember a particular letter, use the SKIP button.<br><b>(When you are ready to lock in your answer, press ENTER)</b></p><button id = button_1 class = ""square num-button"" onclick = ""recordClick(this)""><div class = content><div class = numbers>C</div></div></button><button id = button_2 class = ""square num-button"" onclick = ""recordClick(this)""><div class = content><div class = numbers>G</div></div></button><button id = button_3 class = ""square num-button"" onclick = ""recordClick(this)""><div class = content><div class = numbers>H</div></div></button><button id = button_4 class = ""square num-button"" onclick = ""recordClick(this)""><div class = content><div class = numbers>J</div></div></button><button id = button_5 class = ""square num-button"" onclick = ""recordClick(this)""><div class = content><div class = numbers>K</div></div></button><button id = button_6 class = ""square num-button"" onclick = ""recordClick(this)""><div class = content><div class = numbers>L</div></div></button><button id = button_7 class = ""square num-button"" onclick = ""recordClick(this)""><div class = content><div class = numbers>N</div></div></button><button id = button_8 class = ""square num-button"" onclick = ""recordClick(this)""><div class = content><div class = numbers>P</div></div></button><button id = button_9 class = ""square num-button"" onclick = ""recordClick(this)""><div class = content><div class = numbers>Q</div></div></button><button id = button_10 class = ""square num-button"" onclick = ""recordClick(this)""><div class = content><div class = numbers>R</div></div></button><button id = button_11 class = ""square num-button"" onclick = ""recordClick(this)""><div class = content><div class = numbers>S</div></div></button><button id = button_12 class = ""square num-button"" onclick = ""recordClick(this)""><div class = content><div class = numbers>Y</div></div></button><button class = clear_button id = ""ClearButton"" onclick = ""clearResponse()"">BACKSPACE</button><button class = blank_button id = ""BlankButton"" onclick = ""blankResponse()"">SKIP</button><p style=""font-size: 2.4rem""><u><b>Current Answer:</b></u></p><br><br><div id=echoed_txt style=""font-size: 5rem; color:blue;""><b></b></div></div>",enter,ospan,retrieval,9E0Tp2rqqzNrvr2ehDVjj28RDAq1,html-keyboard-response,89,796138,0.0-46.0-2.0-1.0-2.0-0.0,NA,NA,NA,3.0,"[""P"",""Q"",""H""]","[""P"",""Q"",""H""]",1.0,3.0,"['<font color=""green"">P</font>', '<font color=""green"">Q</font>', '<font color=""green"">H</font>']",,,,,,5d30f3d2d2938d0001bfbd1e,12:19:22,03/04/2024
1747.6000000238419,"['<p style=""font-size:44px"">Letters:<br><br><br><font color=""green"">P</font> <font color=""green"">Q</font> <font color=""green"">H</font></p><br><br><p style=""font-size:30px"">Symmetry:<br><br><font color=""green"">100%</font></p><br><br>']",0,ospan,practice_feedback,9E0Tp2rqqzNrvr2ehDVjj28RDAq1,html-button-response,90,798393,0.0-46.0-2.0-1.0-2.0-1.0,,,,,,,,,,,,,,,5d30f3d2d2938d0001bfbd1e,12:19:22,03/04/2024
,"<p style=""font-size:75px;"">...</p>",,ospan,iti,9E0Tp2rqqzNrvr2ehDVjj28RDAq1,html-keyboard-response,91,799408,0.0-46.0-2.0-2.0-0.0,,,,,,,,,,,,,,,5d30f3d2d2938d0001bfbd1e,12:19:22,03/04/2024
2167.0,,,ospan,symmetry,9E0Tp2rqqzNrvr2ehDVjj28RDAq1,symmetry-judgement-task,92,802930,0.0-46.0-2.0-2.0-1.0-0.0,,,,,,,,,,1.0,1.0,,,,5d30f3d2d2938d0001bfbd1e,12:19:22,03/04/2024
,"<div style=""font-size: 10rem; color: #0000FF"">R</div>",,ospan,letter,9E0Tp2rqqzNrvr2ehDVjj28RDAq1,html-keyboard-response,93,803938,0.0-46.0-2.0-2.0-1.0-1.0,,,,,,,,,,,,,,,5d30f3d2d2938d0001bfbd1e,12:19:22,03/04/2024
2020.0,,,ospan,symmetry,9E0Tp2rqqzNrvr2ehDVjj28RDAq1,symmetry-judgement-task,94,808053,0.0-46.0-2.0-2.0-1.0-2.0,,,,,,,,,,1.0,1.0,,,,5d30f3d2d2938d0001bfbd1e,12:19:22,03/04/2024
,"<div style=""font-size: 10rem; color: #0000FF"">Q</div>",,ospan,letter,9E0Tp2rqqzNrvr2ehDVjj28RDAq1,html-keyboard-response,95,809068,0.0-46.0-2.0-2.0-1.0-3.0,,,,,,,,,,,,,,,5d30f3d2d2938d0001bfbd1e,12:19:22,03/04/2024
3795.0,,,ospan,symmetry,9E0Tp2rqqzNrvr2ehDVjj28RDAq1,symmetry-judgement-task,96,814939,0.0-46.0-2.0-2.0-1.0-4.0,,,,,,,,,,1.0,1.0,,,,5d30f3d2d2938d0001bfbd1e,12:19:22,03/04/2024
,"<div style=""font-size: 10rem; color: #0000FF"">H</div>",,ospan,letter,9E0Tp2rqqzNrvr2ehDVjj28RDAq1,html-keyboard-response,97,815947,0.0-46.0-2.0-2.0-1.0-5.0,,,,,,,,,,,,,,,5d30f3d2d2938d0001bfbd1e,12:19:22,03/04/2024
5509.300000011921,"<div class = numbox><p style=""font-size: 2.4rem"">Please recall the letters you saw to the best of your ability. If you do not remember a particular letter, use the SKIP button.<br><b>(When you are ready to lock in your answer, press ENTER)</b></p><button id = button_1 class = ""square num-button"" onclick = ""recordClick(this)""><div class = content><div class = numbers>C</div></div></button><button id = button_2 class = ""square num-button"" onclick = ""recordClick(this)""><div class = content><div class = numbers>G</div></div></button><button id = button_3 class = ""square num-button"" onclick = ""recordClick(this)""><div class = content><div class = numbers>H</div></div></button><button id = button_4 class = ""square num-button"" onclick = ""recordClick(this)""><div class = content><div class = numbers>J</div></div></button><button id = button_5 class = ""square num-button"" onclick = ""recordClick(this)""><div class = content><div class = numbers>K</div></div></button><button id = button_6 class = ""square num-button"" onclick = ""recordClick(this)""><div class = content><div class = numbers>L</div></div></button><button id = button_7 class = ""square num-button"" onclick = ""recordClick(this)""><div class = content><div class = numbers>N</div></div></button><button id = button_8 class = ""square num-button"" onclick = ""recordClick(this)""><div class = content><div class = numbers>P</div></div></button><button id = button_9 class = ""square num-button"" onclick = ""recordClick(this)""><div class = content><div class = numbers>Q</div></div></button><button id = button_10 class = ""square num-button"" onclick = ""recordClick(this)""><div class = content><div class = numbers>R</div></div></button><button id = button_11 class = ""square num-button"" onclick = ""recordClick(this)""><div class = content><div class = numbers>S</div></div></button><button id = button_12 class = ""square num-button"" onclick = ""recordClick(this)""><div class = content><div class = numbers>Y</div></div></button><button class = clear_button id = ""ClearButton"" onclick = ""clearResponse()"">BACKSPACE</button><button class = blank_button id = ""BlankButton"" onclick = ""blankResponse()"">SKIP</button><p style=""font-size: 2.4rem""><u><b>Current Answer:</b></u></p><br><br><div id=echoed_txt style=""font-size: 5rem; color:blue;""><b></b></div></div>",enter,ospan,retrieval,9E0Tp2rqqzNrvr2ehDVjj28RDAq1,html-keyboard-response,98,822221,0.0-46.0-2.0-2.0-2.0-0.0,NA,NA,NA,3.0,"[""R"",""Q"",""H""]","[""R"",""Q"",""H""]",1.0,3.0,"['<font color=""green"">R</font>', '<font color=""green"">Q</font>', '<font color=""green"">H</font>']",,,,,,5d30f3d2d2938d0001bfbd1e,12:19:22,03/04/2024
1647.699999988079,"['<p style=""font-size:44px"">Letters:<br><br><br><font color=""green"">R</font> <font color=""green"">Q</font> <font color=""green"">H</font></p><br><br><p style=""font-size:30px"">Symmetry:<br><br><font color=""green"">100%</font></p><br><br>']",0,ospan,practice_feedback,9E0Tp2rqqzNrvr2ehDVjj28RDAq1,html-button-response,99,824372,0.0-46.0-2.0-2.0-2.0-1.0,,,,,,,,,,,,,,,5d30f3d2d2938d0001bfbd1e,12:19:22,03/04/2024
13677.600000023842,"<div class = 'left_align' style='font-size: 3rem; line-height: 1.3;'><b>Great work! That is the end of practice.</b><br><br>The real trials will look just like the practice trials you just completed.<br><br><u>Here, you will not see feedback</u>. First, you will see an grid picture to judge,<br>then a letter to remember. When the recall screen appears, report the letters in the<br>order presented. If you forget a letter, remember to use the <b>blank</b> button to move to the<br>next letter. Some of the sets will have more symmetry grids and letters than others.<br><br>It is important that you do your best on both the symmetry judgments and the letter recall<br>parts of the experiment. For for the symmetry judgments, try to work as <b>quickly</b> and <br>as <b>accurately</b> as possible. Remember to keep your symmetry accuracy at 85% or above.<br><br><b>For the letters, do NOT use any external aid (e.g., writing on paper, electronic device).</b><br><br>It is <u>very important</u> to our experiment to have a <b>true</b> view of your real performance.<br><br>Do not worry if you miss some when it gets hard! This task is meant to be very challenging!<br><br>Click the button to begin.</div><br><br><br><br>",0,ospan,starting_real_here,9E0Tp2rqqzNrvr2ehDVjj28RDAq1,html-button-response,100,838052,0.0-46.0-2.0-3.0,,,,,,,,,,,,,,,5d30f3d2d2938d0001bfbd1e,12:19:22,03/04/2024
,"<p style=""font-size:75px;"">...</p>",,ospan,iti,9E0Tp2rqqzNrvr2ehDVjj28RDAq1,html-keyboard-response,101,839322,0.0-46.0-3.0-0.0-0.0,,,,,,,,,,,,,,,5d30f3d2d2938d0001bfbd1e,12:19:22,03/04/2024
1438.0,,,ospan,symmetry,9E0Tp2rqqzNrvr2ehDVjj28RDAq1,symmetry-judgement-task,102,842082,0.0-46.0-3.0-0.0-1.0-0.0,,,,,,,,,,1.0,1.0,,,,5d30f3d2d2938d0001bfbd1e,12:19:22,03/04/2024
,"<div style=""font-size: 10rem; color: #0000FF"">Q</div>",,ospan,letter,9E0Tp2rqqzNrvr2ehDVjj28RDAq1,html-keyboard-response,103,843087,0.0-46.0-3.0-0.0-1.0-1.0,,,,,,,,,,,,,,,5d30f3d2d2938d0001bfbd1e,12:19:22,03/04/2024
1575.0,,,ospan,symmetry,9E0Tp2rqqzNrvr2ehDVjj28RDAq1,symmetry-judgement-task,104,846740,0.0-46.0-3.0-0.0-1.0-2.0,,,,,,,,,,1.0,1.0,,,,5d30f3d2d2938d0001bfbd1e,12:19:22,03/04/2024
,"<div style=""font-size: 10rem; color: #0000FF"">C</div>",,ospan,letter,9E0Tp2rqqzNrvr2ehDVjj28RDAq1,html-keyboard-response,105,847750,0.0-46.0-3.0-0.0-1.0-3.0,,,,,,,,,,,,,,,5d30f3d2d2938d0001bfbd1e,12:19:22,03/04/2024
2071.0,,,ospan,symmetry,9E0Tp2rqqzNrvr2ehDVjj28RDAq1,symmetry-judgement-task,106,851913,0.0-46.0-3.0-0.0-1.0-4.0,,,,,,,,,,1.0,1.0,,,,5d30f3d2d2938d0001bfbd1e,12:19:22,03/04/2024
,"<div style=""font-size: 10rem; color: #0000FF"">L</div>",,ospan,letter,9E0Tp2rqqzNrvr2ehDVjj28RDAq1,html-keyboard-response,107,852923,0.0-46.0-3.0-0.0-1.0-5.0,,,,,,,,,,,,,,,5d30f3d2d2938d0001bfbd1e,12:19:22,03/04/2024
4115.799999952316,"<div class = numbox><p style=""font-size: 2.4rem"">Please recall the letters you saw to the best of your ability. If you do not remember a particular letter, use the SKIP button.<br><b>(When you are ready to lock in your answer, press ENTER)</b></p><button id = button_1 class = ""square num-button"" onclick = ""recordClick(this)""><div class = content><div class = numbers>C</div></div></button><button id = button_2 class = ""square num-button"" onclick = ""recordClick(this)""><div class = content><div class = numbers>G</div></div></button><button id = button_3 class = ""square num-button"" onclick = ""recordClick(this)""><div class = content><div class = numbers>H</div></div></button><button id = button_4 class = ""square num-button"" onclick = ""recordClick(this)""><div class = content><div class = numbers>J</div></div></button><button id = button_5 class = ""square num-button"" onclick = ""recordClick(this)""><div class = content><div class = numbers>K</div></div></button><button id = button_6 class = ""square num-button"" onclick = ""recordClick(this)""><div class = content><div class = numbers>L</div></div></button><button id = button_7 class = ""square num-button"" onclick = ""recordClick(this)""><div class = content><div class = numbers>N</div></div></button><button id = button_8 class = ""square num-button"" onclick = ""recordClick(this)""><div class = content><div class = numbers>P</div></div></button><button id = button_9 class = ""square num-button"" onclick = ""recordClick(this)""><div class = content><div class = numbers>Q</div></div></button><button id = button_10 class = ""square num-button"" onclick = ""recordClick(this)""><div class = content><div class = numbers>R</div></div></button><button id = button_11 class = ""square num-button"" onclick = ""recordClick(this)""><div class = content><div class = numbers>S</div></div></button><button id = button_12 class = ""square num-button"" onclick = ""recordClick(this)""><div class = content><div class = numbers>Y</div></div></button><button class = clear_button id = ""ClearButton"" onclick = ""clearResponse()"">BACKSPACE</button><button class = blank_button id = ""BlankButton"" onclick = ""blankResponse()"">SKIP</button><p style=""font-size: 2.4rem""><u><b>Current Answer:</b></u></p><br><br><div id=echoed_txt style=""font-size: 5rem; color:blue;""><b></b></div></div>",enter,ospan,retrieval,9E0Tp2rqqzNrvr2ehDVjj28RDAq1,html-keyboard-response,108,857791,0.0-46.0-3.0-0.0-2.0,3,3,3,3.0,"[""Q"",""C"",""L""]","[""Q"",""C"",""L""]",1.0,3.0,,,,,,,5d30f3d2d2938d0001bfbd1e,12:19:22,03/04/2024
3913.599999964237,[''],0,ospan,feedback,9E0Tp2rqqzNrvr2ehDVjj28RDAq1,html-button-response,109,862209,0.0-46.0-3.0-0.0-3.0,,,,,,,,,,,,100.0,0.0,,5d30f3d2d2938d0001bfbd1e,12:19:22,03/04/2024
,"<p style=""font-size:75px;"">...</p>",,ospan,iti,9E0Tp2rqqzNrvr2ehDVjj28RDAq1,html-keyboard-response,110,863217,0.0-46.0-4.0-0.0-0.0,,,,,,,,,,,,,,,5d30f3d2d2938d0001bfbd1e,12:19:22,03/04/2024
2060.0,,,ospan,symmetry,9E0Tp2rqqzNrvr2ehDVjj28RDAq1,symmetry-judgement-task,111,866623,0.0-46.0-4.0-0.0-1.0-0.0,,,,,,,,,,1.0,1.0,,,,5d30f3d2d2938d0001bfbd1e,12:19:22,03/04/2024
,"<div style=""font-size: 10rem; color: #0000FF"">L</div>",,ospan,letter,9E0Tp2rqqzNrvr2ehDVjj28RDAq1,html-keyboard-response,112,867628,0.0-46.0-4.0-0.0-1.0-1.0,,,,,,,,,,,,,,,5d30f3d2d2938d0001bfbd1e,12:19:22,03/04/2024
1718.0,,,ospan,symmetry,9E0Tp2rqqzNrvr2ehDVjj28RDAq1,symmetry-judgement-task,113,871446,0.0-46.0-4.0-0.0-1.0-2.0,,,,,,,,,,1.0,1.0,,,,5d30f3d2d2938d0001bfbd1e,12:19:22,03/04/2024
,"<div style=""font-size: 10rem; color: #0000FF"">S</div>",,ospan,letter,9E0Tp2rqqzNrvr2ehDVjj28RDAq1,html-keyboard-response,114,872448,0.0-46.0-4.0-0.0-1.0-3.0,,,,,,,,,,,,,,,5d30f3d2d2938d0001bfbd1e,12:19:22,03/04/2024
1537.0,,,ospan,symmetry,9E0Tp2rqqzNrvr2ehDVjj28RDAq1,symmetry-judgement-task,115,876122,0.0-46.0-4.0-0.0-1.0-4.0,,,,,,,,,,1.0,1.0,,,,5d30f3d2d2938d0001bfbd1e,12:19:22,03/04/2024
,"<div style=""font-size: 10rem; color: #0000FF"">N</div>",,ospan,letter,9E0Tp2rqqzNrvr2ehDVjj28RDAq1,html-keyboard-response,116,877132,0.0-46.0-4.0-0.0-1.0-5.0,,,,,,,,,,,,,,,5d30f3d2d2938d0001bfbd1e,12:19:22,03/04/2024
3809.0,,,ospan,symmetry,9E0Tp2rqqzNrvr2ehDVjj28RDAq1,symmetry-judgement-task,117,883029,0.0-46.0-4.0-0.0-1.0-6.0,,,,,,,,,,1.0,1.0,,,,5d30f3d2d2938d0001bfbd1e,12:19:22,03/04/2024
,"<div style=""font-size: 10rem; color: #0000FF"">J</div>",,ospan,letter,9E0Tp2rqqzNrvr2ehDVjj28RDAq1,html-keyboard-response,118,884033,0.0-46.0-4.0-0.0-1.0-7.0,,,,,,,,,,,,,,,5d30f3d2d2938d0001bfbd1e,12:19:22,03/04/2024
6518.399999976158,"<div class = numbox><p style=""font-size: 2.4rem"">Please recall the letters you saw to the best of your ability. If you do not remember a particular letter, use the SKIP button.<br><b>(When you are ready to lock in your answer, press ENTER)</b></p><button id = button_1 class = ""square num-button"" onclick = ""recordClick(this)""><div class = content><div class = numbers>C</div></div></button><button id = button_2 class = ""square num-button"" onclick = ""recordClick(this)""><div class = content><div class = numbers>G</div></div></button><button id = button_3 class = ""square num-button"" onclick = ""recordClick(this)""><div class = content><div class = numbers>H</div></div></button><button id = button_4 class = ""square num-button"" onclick = ""recordClick(this)""><div class = content><div class = numbers>J</div></div></button><button id = button_5 class = ""square num-button"" onclick = ""recordClick(this)""><div class = content><div class = numbers>K</div></div></button><button id = button_6 class = ""square num-button"" onclick = ""recordClick(this)""><div class = content><div class = numbers>L</div></div></button><button id = button_7 class = ""square num-button"" onclick = ""recordClick(this)""><div class = content><div class = numbers>N</div></div></button><button id = button_8 class = ""square num-button"" onclick = ""recordClick(this)""><div class = content><div class = numbers>P</div></div></button><button id = button_9 class = ""square num-button"" onclick = ""recordClick(this)""><div class = content><div class = numbers>Q</div></div></button><button id = button_10 class = ""square num-button"" onclick = ""recordClick(this)""><div class = content><div class = numbers>R</div></div></button><button id = button_11 class = ""square num-button"" onclick = ""recordClick(this)""><div class = content><div class = numbers>S</div></div></button><button id = button_12 class = ""square num-button"" onclick = ""recordClick(this)""><div class = content><div class = numbers>Y</div></div></button><button class = clear_button id = ""ClearButton"" onclick = ""clearResponse()"">BACKSPACE</button><button class = blank_button id = ""BlankButton"" onclick = ""blankResponse()"">SKIP</button><p style=""font-size: 2.4rem""><u><b>Current Answer:</b></u></p><br><br><div id=echoed_txt style=""font-size: 5rem; color:blue;""><b></b></div></div>",enter,ospan,retrieval,9E0Tp2rqqzNrvr2ehDVjj28RDAq1,html-keyboard-response,119,891313,0.0-46.0-4.0-0.0-2.0,7,7,7,4.0,"[""L"",""S"",""N"",""J""]","[""L"",""S"",""N"",""J""]",1.0,4.0,,,,,,,5d30f3d2d2938d0001bfbd1e,12:19:22,03/04/2024
1489.7000000476837,[''],0,ospan,feedback,9E0Tp2rqqzNrvr2ehDVjj28RDAq1,html-button-response,120,893317,0.0-46.0-4.0-0.0-3.0,,,,,,,,,,,,100.0,0.0,,5d30f3d2d2938d0001bfbd1e,12:19:22,03/04/2024
,"<p style=""font-size:75px;"">...</p>",,ospan,iti,9E0Tp2rqqzNrvr2ehDVjj28RDAq1,html-keyboard-response,121,894326,0.0-46.0-4.0-1.0-0.0,,,,,,,,,,,,,,,5d30f3d2d2938d0001bfbd1e,12:19:22,03/04/2024
2080.0,,,ospan,symmetry,9E0Tp2rqqzNrvr2ehDVjj28RDAq1,symmetry-judgement-task,122,897733,0.0-46.0-4.0-1.0-1.0-0.0,,,,,,,,,,1.0,1.0,,,,5d30f3d2d2938d0001bfbd1e,12:19:22,03/04/2024
,"<div style=""font-size: 10rem; color: #0000FF"">J</div>",,ospan,letter,9E0Tp2rqqzNrvr2ehDVjj28RDAq1,html-keyboard-response,123,898734,0.0-46.0-4.0-1.0-1.0-1.0,,,,,,,,,,,,,,,5d30f3d2d2938d0001bfbd1e,12:19:22,03/04/2024
1397.0,,,ospan,symmetry,9E0Tp2rqqzNrvr2ehDVjj28RDAq1,symmetry-judgement-task,124,902220,0.0-46.0-4.0-1.0-1.0-2.0,,,,,,,,,,1.0,1.0,,,,5d30f3d2d2938d0001bfbd1e,12:19:22,03/04/2024
,"<div style=""font-size: 10rem; color: #0000FF"">R</div>",,ospan,letter,9E0Tp2rqqzNrvr2ehDVjj28RDAq1,html-keyboard-response,125,903231,0.0-46.0-4.0-1.0-1.0-3.0,,,,,,,,,,,,,,,5d30f3d2d2938d0001bfbd1e,12:19:22,03/04/2024
2064.0,,,ospan,symmetry,9E0Tp2rqqzNrvr2ehDVjj28RDAq1,symmetry-judgement-task,126,907436,0.0-46.0-4.0-1.0-1.0-4.0,,,,,,,,,,1.0,1.0,,,,5d30f3d2d2938d0001bfbd1e,12:19:22,03/04/2024
,"<div style=""font-size: 10rem; color: #0000FF"">Y</div>",,ospan,letter,9E0Tp2rqqzNrvr2ehDVjj28RDAq1,html-keyboard-response,127,908439,0.0-46.0-4.0-1.0-1.0-5.0,,,,,,,,,,,,,,,5d30f3d2d2938d0001bfbd1e,12:19:22,03/04/2024
1794.0,,,ospan,symmetry,9E0Tp2rqqzNrvr2ehDVjj28RDAq1,symmetry-judgement-task,128,912289,0.0-46.0-4.0-1.0-1.0-6.0,,,,,,,,,,1.0,1.0,,,,5d30f3d2d2938d0001bfbd1e,12:19:22,03/04/2024
,"<div style=""font-size: 10rem; color: #0000FF"">C</div>",,ospan,letter,9E0Tp2rqqzNrvr2ehDVjj28RDAq1,html-keyboard-response,129,913303,0.0-46.0-4.0-1.0-1.0-7.0,,,,,,,,,,,,,,,5d30f3d2d2938d0001bfbd1e,12:19:22,03/04/2024
2538.0,,,ospan,symmetry,9E0Tp2rqqzNrvr2ehDVjj28RDAq1,symmetry-judgement-task,130,917929,0.0-46.0-4.0-1.0-1.0-8.0,,,,,,,,,,1.0,1.0,,,,5d30f3d2d2938d0001bfbd1e,12:19:22,03/04/2024
,"<div style=""font-size: 10rem; color: #0000FF"">S</div>",,ospan,letter,9E0Tp2rqqzNrvr2ehDVjj28RDAq1,html-keyboard-response,131,918940,0.0-46.0-4.0-1.0-1.0-9.0,,,,,,,,,,,,,,,5d30f3d2d2938d0001bfbd1e,12:19:22,03/04/2024
14220.5,"<div class = numbox><p style=""font-size: 2.4rem"">Please recall the letters you saw to the best of your ability. If you do not remember a particular letter, use the SKIP button.<br><b>(When you are ready to lock in your answer, press ENTER)</b></p><button id = button_1 class = ""square num-button"" onclick = ""recordClick(this)""><div class = content><div class = numbers>C</div></div></button><button id = button_2 class = ""square num-button"" onclick = ""recordClick(this)""><div class = content><div class = numbers>G</div></div></button><button id = button_3 class = ""square num-button"" onclick = ""recordClick(this)""><div class = content><div class = numbers>H</div></div></button><button id = button_4 class = ""square num-button"" onclick = ""recordClick(this)""><div class = content><div class = numbers>J</div></div></button><button id = button_5 class = ""square num-button"" onclick = ""recordClick(this)""><div class = content><div class = numbers>K</div></div></button><button id = button_6 class = ""square num-button"" onclick = ""recordClick(this)""><div class = content><div class = numbers>L</div></div></button><button id = button_7 class = ""square num-button"" onclick = ""recordClick(this)""><div class = content><div class = numbers>N</div></div></button><button id = button_8 class = ""square num-button"" onclick = ""recordClick(this)""><div class = content><div class = numbers>P</div></div></button><button id = button_9 class = ""square num-button"" onclick = ""recordClick(this)""><div class = content><div class = numbers>Q</div></div></button><button id = button_10 class = ""square num-button"" onclick = ""recordClick(this)""><div class = content><div class = numbers>R</div></div></button><button id = button_11 class = ""square num-button"" onclick = ""recordClick(this)""><div class = content><div class = numbers>S</div></div></button><button id = button_12 class = ""square num-button"" onclick = ""recordClick(this)""><div class = content><div class = numbers>Y</div></div></button><button class = clear_button id = ""ClearButton"" onclick = ""clearResponse()"">BACKSPACE</button><button class = blank_button id = ""BlankButton"" onclick = ""blankResponse()"">SKIP</button><p style=""font-size: 2.4rem""><u><b>Current Answer:</b></u></p><br><br><div id=echoed_txt style=""font-size: 5rem; color:blue;""><b></b></div></div>",enter,ospan,retrieval,9E0Tp2rqqzNrvr2ehDVjj28RDAq1,html-keyboard-response,132,933923,0.0-46.0-4.0-1.0-2.0,12,12,12,5.0,"[""J"",""R"",""Y"",""C"",""S"",""_""]","[""J"",""R"",""Y"",""C"",""S""]",1.0,5.0,,,,,,,5d30f3d2d2938d0001bfbd1e,12:19:22,03/04/2024
1774.2999999523163,[''],0,ospan,feedback,9E0Tp2rqqzNrvr2ehDVjj28RDAq1,html-button-response,133,936209,0.0-46.0-4.0-1.0-3.0,,,,,,,,,,,,100.0,0.0,,5d30f3d2d2938d0001bfbd1e,12:19:22,03/04/2024
,"<p style=""font-size:75px;"">...</p>",,ospan,iti,9E0Tp2rqqzNrvr2ehDVjj28RDAq1,html-keyboard-response,134,937219,0.0-46.0-4.0-2.0-0.0,,,,,,,,,,,,,,,5d30f3d2d2938d0001bfbd1e,12:19:22,03/04/2024
2901.0,,,ospan,symmetry,9E0Tp2rqqzNrvr2ehDVjj28RDAq1,symmetry-judgement-task,135,941455,0.0-46.0-4.0-2.0-1.0-0.0,,,,,,,,,,1.0,1.0,,,,5d30f3d2d2938d0001bfbd1e,12:19:22,03/04/2024
,"<div style=""font-size: 10rem; color: #0000FF"">H</div>",,ospan,letter,9E0Tp2rqqzNrvr2ehDVjj28RDAq1,html-keyboard-response,136,942467,0.0-46.0-4.0-2.0-1.0-1.0,,,,,,,,,,,,,,,5d30f3d2d2938d0001bfbd1e,12:19:22,03/04/2024
1850.0,,,ospan,symmetry,9E0Tp2rqqzNrvr2ehDVjj28RDAq1,symmetry-judgement-task,137,946442,0.0-46.0-4.0-2.0-1.0-2.0,,,,,,,,,,1.0,1.0,,,,5d30f3d2d2938d0001bfbd1e,12:19:22,03/04/2024
,"<div style=""font-size: 10rem; color: #0000FF"">Y</div>",,ospan,letter,9E0Tp2rqqzNrvr2ehDVjj28RDAq1,html-keyboard-response,138,947445,0.0-46.0-4.0-2.0-1.0-3.0,,,,,,,,,,,,,,,5d30f3d2d2938d0001bfbd1e,12:19:22,03/04/2024
1704.0,,,ospan,symmetry,9E0Tp2rqqzNrvr2ehDVjj28RDAq1,symmetry-judgement-task,139,951264,0.0-46.0-4.0-2.0-1.0-4.0,,,,,,,,,,1.0,1.0,,,,5d30f3d2d2938d0001bfbd1e,12:19:22,03/04/2024
,"<div style=""font-size: 10rem; color: #0000FF"">L</div>",,ospan,letter,9E0Tp2rqqzNrvr2ehDVjj28RDAq1,html-keyboard-response,140,952270,0.0-46.0-4.0-2.0-1.0-5.0,,,,,,,,,,,,,,,5d30f3d2d2938d0001bfbd1e,12:19:22,03/04/2024
9789.100000023842,"<div class = numbox><p style=""font-size: 2.4rem"">Please recall the letters you saw to the best of your ability. If you do not remember a particular letter, use the SKIP button.<br><b>(When you are ready to lock in your answer, press ENTER)</b></p><button id = button_1 class = ""square num-button"" onclick = ""recordClick(this)""><div class = content><div class = numbers>C</div></div></button><button id = button_2 class = ""square num-button"" onclick = ""recordClick(this)""><div class = content><div class = numbers>G</div></div></button><button id = button_3 class = ""square num-button"" onclick = ""recordClick(this)""><div class = content><div class = numbers>H</div></div></button><button id = button_4 class = ""square num-button"" onclick = ""recordClick(this)""><div class = content><div class = numbers>J</div></div></button><button id = button_5 class = ""square num-button"" onclick = ""recordClick(this)""><div class = content><div class = numbers>K</div></div></button><button id = button_6 class = ""square num-button"" onclick = ""recordClick(this)""><div class = content><div class = numbers>L</div></div></button><button id = button_7 class = ""square num-button"" onclick = ""recordClick(this)""><div class = content><div class = numbers>N</div></div></button><button id = button_8 class = ""square num-button"" onclick = ""recordClick(this)""><div class = content><div class = numbers>P</div></div></button><button id = button_9 class = ""square num-button"" onclick = ""recordClick(this)""><div class = content><div class = numbers>Q</div></div></button><button id = button_10 class = ""square num-button"" onclick = ""recordClick(this)""><div class = content><div class = numbers>R</div></div></button><button id = button_11 class = ""square num-button"" onclick = ""recordClick(this)""><div class = content><div class = numbers>S</div></div></button><button id = button_12 class = ""square num-button"" onclick = ""recordClick(this)""><div class = content><div class = numbers>Y</div></div></button><button class = clear_button id = ""ClearButton"" onclick = ""clearResponse()"">BACKSPACE</button><button class = blank_button id = ""BlankButton"" onclick = ""blankResponse()"">SKIP</button><p style=""font-size: 2.4rem""><u><b>Current Answer:</b></u></p><br><br><div id=echoed_txt style=""font-size: 5rem; color:blue;""><b></b></div></div>",enter,ospan,retrieval,9E0Tp2rqqzNrvr2ehDVjj28RDAq1,html-keyboard-response,141,962816,0.0-46.0-4.0-2.0-2.0,15,15,15,3.0,"[""H"",""Y"",""L""]","[""H"",""Y"",""L""]",1.0,3.0,,,,,,,5d30f3d2d2938d0001bfbd1e,12:19:22,03/04/2024
1900.9000000357628,[''],0,ospan,feedback,9E0Tp2rqqzNrvr2ehDVjj28RDAq1,html-button-response,142,965222,0.0-46.0-4.0-2.0-3.0,,,,,,,,,,,,100.0,0.0,,5d30f3d2d2938d0001bfbd1e,12:19:22,03/04/2024
,"<p style=""font-size:75px;"">...</p>",,ospan,iti,9E0Tp2rqqzNrvr2ehDVjj28RDAq1,html-keyboard-response,143,966235,0.0-46.0-5.0-0.0-0.0,,,,,,,,,,,,,,,5d30f3d2d2938d0001bfbd1e,12:19:22,03/04/2024
2156.0,,,ospan,symmetry,9E0Tp2rqqzNrvr2ehDVjj28RDAq1,symmetry-judgement-task,144,969522,0.0-46.0-5.0-0.0-1.0-0.0,,,,,,,,,,1.0,1.0,,,,5d30f3d2d2938d0001bfbd1e,12:19:22,03/04/2024
,"<div style=""font-size: 10rem; color: #0000FF"">N</div>",,ospan,letter,9E0Tp2rqqzNrvr2ehDVjj28RDAq1,html-keyboard-response,145,970532,0.0-46.0-5.0-0.0-1.0-1.0,,,,,,,,,,,,,,,5d30f3d2d2938d0001bfbd1e,12:19:22,03/04/2024
1451.0,,,ospan,symmetry,9E0Tp2rqqzNrvr2ehDVjj28RDAq1,symmetry-judgement-task,146,974263,0.0-46.0-5.0-0.0-1.0-2.0,,,,,,,,,,1.0,1.0,,,,5d30f3d2d2938d0001bfbd1e,12:19:22,03/04/2024
,"<div style=""font-size: 10rem; color: #0000FF"">Q</div>",,ospan,letter,9E0Tp2rqqzNrvr2ehDVjj28RDAq1,html-keyboard-response,147,975274,0.0-46.0-5.0-0.0-1.0-3.0,,,,,,,,,,,,,,,5d30f3d2d2938d0001bfbd1e,12:19:22,03/04/2024
3388.0,,,ospan,symmetry,9E0Tp2rqqzNrvr2ehDVjj28RDAq1,symmetry-judgement-task,148,980917,0.0-46.0-5.0-0.0-1.0-4.0,,,,,,,,,,1.0,1.0,,,,5d30f3d2d2938d0001bfbd1e,12:19:22,03/04/2024
,"<div style=""font-size: 10rem; color: #0000FF"">Y</div>",,ospan,letter,9E0Tp2rqqzNrvr2ehDVjj28RDAq1,html-keyboard-response,149,981929,0.0-46.0-5.0-0.0-1.0-5.0,,,,,,,,,,,,,,,5d30f3d2d2938d0001bfbd1e,12:19:22,03/04/2024
1747.0,,,ospan,symmetry,9E0Tp2rqqzNrvr2ehDVjj28RDAq1,symmetry-judgement-task,150,985837,0.0-46.0-5.0-0.0-1.0-6.0,,,,,,,,,,1.0,1.0,,,,5d30f3d2d2938d0001bfbd1e,12:19:22,03/04/2024
,"<div style=""font-size: 10rem; color: #0000FF"">K</div>",,ospan,letter,9E0Tp2rqqzNrvr2ehDVjj28RDAq1,html-keyboard-response,151,986839,0.0-46.0-5.0-0.0-1.0-7.0,,,,,,,,,,,,,,,5d30f3d2d2938d0001bfbd1e,12:19:22,03/04/2024
1965.0,,,ospan,symmetry,9E0Tp2rqqzNrvr2ehDVjj28RDAq1,symmetry-judgement-task,152,990911,0.0-46.0-5.0-0.0-1.0-8.0,,,,,,,,,,1.0,1.0,,,,5d30f3d2d2938d0001bfbd1e,12:19:22,03/04/2024
,"<div style=""font-size: 10rem; color: #0000FF"">R</div>",,ospan,letter,9E0Tp2rqqzNrvr2ehDVjj28RDAq1,html-keyboard-response,153,991915,0.0-46.0-5.0-0.0-1.0-9.0,,,,,,,,,,,,,,,5d30f3d2d2938d0001bfbd1e,12:19:22,03/04/2024
2759.0,,,ospan,symmetry,9E0Tp2rqqzNrvr2ehDVjj28RDAq1,symmetry-judgement-task,154,996763,0.0-46.0-5.0-0.0-1.0-10.0,,,,,,,,,,1.0,1.0,,,,5d30f3d2d2938d0001bfbd1e,12:19:22,03/04/2024
,"<div style=""font-size: 10rem; color: #0000FF"">H</div>",,ospan,letter,9E0Tp2rqqzNrvr2ehDVjj28RDAq1,html-keyboard-response,155,997776,0.0-46.0-5.0-0.0-1.0-11.0,,,,,,,,,,,,,,,5d30f3d2d2938d0001bfbd1e,12:19:22,03/04/2024
11830.400000035763,"<div class = numbox><p style=""font-size: 2.4rem"">Please recall the letters you saw to the best of your ability. If you do not remember a particular letter, use the SKIP button.<br><b>(When you are ready to lock in your answer, press ENTER)</b></p><button id = button_1 class = ""square num-button"" onclick = ""recordClick(this)""><div class = content><div class = numbers>C</div></div></button><button id = button_2 class = ""square num-button"" onclick = ""recordClick(this)""><div class = content><div class = numbers>G</div></div></button><button id = button_3 class = ""square num-button"" onclick = ""recordClick(this)""><div class = content><div class = numbers>H</div></div></button><button id = button_4 class = ""square num-button"" onclick = ""recordClick(this)""><div class = content><div class = numbers>J</div></div></button><button id = button_5 class = ""square num-button"" onclick = ""recordClick(this)""><div class = content><div class = numbers>K</div></div></button><button id = button_6 class = ""square num-button"" onclick = ""recordClick(this)""><div class = content><div class = numbers>L</div></div></button><button id = button_7 class = ""square num-button"" onclick = ""recordClick(this)""><div class = content><div class = numbers>N</div></div></button><button id = button_8 class = ""square num-button"" onclick = ""recordClick(this)""><div class = content><div class = numbers>P</div></div></button><button id = button_9 class = ""square num-button"" onclick = ""recordClick(this)""><div class = content><div class = numbers>Q</div></div></button><button id = button_10 class = ""square num-button"" onclick = ""recordClick(this)""><div class = content><div class = numbers>R</div></div></button><button id = button_11 class = ""square num-button"" onclick = ""recordClick(this)""><div class = content><div class = numbers>S</div></div></button><button id = button_12 class = ""square num-button"" onclick = ""recordClick(this)""><div class = content><div class = numbers>Y</div></div></button><button class = clear_button id = ""ClearButton"" onclick = ""clearResponse()"">BACKSPACE</button><button class = blank_button id = ""BlankButton"" onclick = ""blankResponse()"">SKIP</button><p style=""font-size: 2.4rem""><u><b>Current Answer:</b></u></p><br><br><div id=echoed_txt style=""font-size: 5rem; color:blue;""><b></b></div></div>",enter,ospan,retrieval,9E0Tp2rqqzNrvr2ehDVjj28RDAq1,html-keyboard-response,156,1010369,0.0-46.0-5.0-0.0-2.0,21,21,21,6.0,"[""N"",""Q"",""Y"",""K"",""R"",""H""]","[""N"",""Q"",""Y"",""K"",""R"",""H""]",1.0,6.0,,,,,,,5d30f3d2d2938d0001bfbd1e,12:19:22,03/04/2024
2004.5,[''],0,ospan,feedback,9E0Tp2rqqzNrvr2ehDVjj28RDAq1,html-button-response,157,1012886,0.0-46.0-5.0-0.0-3.0,,,,,,,,,,,,100.0,0.0,,5d30f3d2d2938d0001bfbd1e,12:19:22,03/04/2024
,"<p style=""font-size:75px;"">...</p>",,ospan,iti,9E0Tp2rqqzNrvr2ehDVjj28RDAq1,html-keyboard-response,158,1013901,0.0-46.0-5.0-1.0-0.0,,,,,,,,,,,,,,,5d30f3d2d2938d0001bfbd1e,12:19:22,03/04/2024
1880.0,,,ospan,symmetry,9E0Tp2rqqzNrvr2ehDVjj28RDAq1,symmetry-judgement-task,159,1017115,0.0-46.0-5.0-1.0-1.0-0.0,,,,,,,,,,1.0,1.0,,,,5d30f3d2d2938d0001bfbd1e,12:19:22,03/04/2024
,"<div style=""font-size: 10rem; color: #0000FF"">S</div>",,ospan,letter,9E0Tp2rqqzNrvr2ehDVjj28RDAq1,html-keyboard-response,160,1018122,0.0-46.0-5.0-1.0-1.0-1.0,,,,,,,,,,,,,,,5d30f3d2d2938d0001bfbd1e,12:19:22,03/04/2024
2129.0,,,ospan,symmetry,9E0Tp2rqqzNrvr2ehDVjj28RDAq1,symmetry-judgement-task,161,1022341,0.0-46.0-5.0-1.0-1.0-2.0,,,,,,,,,,1.0,1.0,,,,5d30f3d2d2938d0001bfbd1e,12:19:22,03/04/2024
,"<div style=""font-size: 10rem; color: #0000FF"">Q</div>",,ospan,letter,9E0Tp2rqqzNrvr2ehDVjj28RDAq1,html-keyboard-response,162,1023343,0.0-46.0-5.0-1.0-1.0-3.0,,,,,,,,,,,,,,,5d30f3d2d2938d0001bfbd1e,12:19:22,03/04/2024
1367.0,,,ospan,symmetry,9E0Tp2rqqzNrvr2ehDVjj28RDAq1,symmetry-judgement-task,163,1026782,0.0-46.0-5.0-1.0-1.0-4.0,,,,,,,,,,1.0,1.0,,,,5d30f3d2d2938d0001bfbd1e,12:19:22,03/04/2024
,"<div style=""font-size: 10rem; color: #0000FF"">L</div>",,ospan,letter,9E0Tp2rqqzNrvr2ehDVjj28RDAq1,html-keyboard-response,164,1027783,0.0-46.0-5.0-1.0-1.0-5.0,,,,,,,,,,,,,,,5d30f3d2d2938d0001bfbd1e,12:19:22,03/04/2024
1021.0,,,ospan,symmetry,9E0Tp2rqqzNrvr2ehDVjj28RDAq1,symmetry-judgement-task,165,1030902,0.0-46.0-5.0-1.0-1.0-6.0,,,,,,,,,,1.0,1.0,,,,5d30f3d2d2938d0001bfbd1e,12:19:22,03/04/2024
,"<div style=""font-size: 10rem; color: #0000FF"">G</div>",,ospan,letter,9E0Tp2rqqzNrvr2ehDVjj28RDAq1,html-keyboard-response,166,1031908,0.0-46.0-5.0-1.0-1.0-7.0,,,,,,,,,,,,,,,5d30f3d2d2938d0001bfbd1e,12:19:22,03/04/2024
2310.0,,,ospan,symmetry,9E0Tp2rqqzNrvr2ehDVjj28RDAq1,symmetry-judgement-task,167,1036280,0.0-46.0-5.0-1.0-1.0-8.0,,,,,,,,,,1.0,1.0,,,,5d30f3d2d2938d0001bfbd1e,12:19:22,03/04/2024
,"<div style=""font-size: 10rem; color: #0000FF"">Y</div>",,ospan,letter,9E0Tp2rqqzNrvr2ehDVjj28RDAq1,html-keyboard-response,168,1037284,0.0-46.0-5.0-1.0-1.0-9.0,,,,,,,,,,,,,,,5d30f3d2d2938d0001bfbd1e,12:19:22,03/04/2024
1884.0,,,ospan,symmetry,9E0Tp2rqqzNrvr2ehDVjj28RDAq1,symmetry-judgement-task,169,1041243,0.0-46.0-5.0-1.0-1.0-10.0,,,,,,,,,,1.0,1.0,,,,5d30f3d2d2938d0001bfbd1e,12:19:22,03/04/2024
,"<div style=""font-size: 10rem; color: #0000FF"">R</div>",,ospan,letter,9E0Tp2rqqzNrvr2ehDVjj28RDAq1,html-keyboard-response,170,1042245,0.0-46.0-5.0-1.0-1.0-11.0,,,,,,,,,,,,,,,5d30f3d2d2938d0001bfbd1e,12:19:22,03/04/2024
3084.0,,,ospan,symmetry,9E0Tp2rqqzNrvr2ehDVjj28RDAq1,symmetry-judgement-task,171,1047382,0.0-46.0-5.0-1.0-1.0-12.0,,,,,,,,,,1.0,1.0,,,,5d30f3d2d2938d0001bfbd1e,12:19:22,03/04/2024
,"<div style=""font-size: 10rem; color: #0000FF"">N</div>",,ospan,letter,9E0Tp2rqqzNrvr2ehDVjj28RDAq1,html-keyboard-response,172,1048387,0.0-46.0-5.0-1.0-1.0-13.0,,,,,,,,,,,,,,,5d30f3d2d2938d0001bfbd1e,12:19:22,03/04/2024
15243.299999952316,"<div class = numbox><p style=""font-size: 2.4rem"">Please recall the letters you saw to the best of your ability. If you do not remember a particular letter, use the SKIP button.<br><b>(When you are ready to lock in your answer, press ENTER)</b></p><button id = button_1 class = ""square num-button"" onclick = ""recordClick(this)""><div class = content><div class = numbers>C</div></div></button><button id = button_2 class = ""square num-button"" onclick = ""recordClick(this)""><div class = content><div class = numbers>G</div></div></button><button id = button_3 class = ""square num-button"" onclick = ""recordClick(this)""><div class = content><div class = numbers>H</div></div></button><button id = button_4 class = ""square num-button"" onclick = ""recordClick(this)""><div class = content><div class = numbers>J</div></div></button><button id = button_5 class = ""square num-button"" onclick = ""recordClick(this)""><div class = content><div class = numbers>K</div></div></button><button id = button_6 class = ""square num-button"" onclick = ""recordClick(this)""><div class = content><div class = numbers>L</div></div></button><button id = button_7 class = ""square num-button"" onclick = ""recordClick(this)""><div class = content><div class = numbers>N</div></div></button><button id = button_8 class = ""square num-button"" onclick = ""recordClick(this)""><div class = content><div class = numbers>P</div></div></button><button id = button_9 class = ""square num-button"" onclick = ""recordClick(this)""><div class = content><div class = numbers>Q</div></div></button><button id = button_10 class = ""square num-button"" onclick = ""recordClick(this)""><div class = content><div class = numbers>R</div></div></button><button id = button_11 class = ""square num-button"" onclick = ""recordClick(this)""><div class = content><div class = numbers>S</div></div></button><button id = button_12 class = ""square num-button"" onclick = ""recordClick(this)""><div class = content><div class = numbers>Y</div></div></button><button class = clear_button id = ""ClearButton"" onclick = ""clearResponse()"">BACKSPACE</button><button class = blank_button id = ""BlankButton"" onclick = ""blankResponse()"">SKIP</button><p style=""font-size: 2.4rem""><u><b>Current Answer:</b></u></p><br><br><div id=echoed_txt style=""font-size: 5rem; color:blue;""><b></b></div></div>",enter,ospan,retrieval,9E0Tp2rqqzNrvr2ehDVjj28RDAq1,html-keyboard-response,173,1064389,0.0-46.0-5.0-1.0-2.0,28,28,28,7.0,"[""S"",""Q"",""L"",""G"",""Y"",""R"",""N""]","[""S"",""Q"",""L"",""G"",""Y"",""R"",""N""]",1.0,7.0,,,,,,,5d30f3d2d2938d0001bfbd1e,12:19:22,03/04/2024
1185.300000011921,[''],0,ospan,feedback,9E0Tp2rqqzNrvr2ehDVjj28RDAq1,html-button-response,174,1066085,0.0-46.0-5.0-1.0-3.0,,,,,,,,,,,,100.0,0.0,,5d30f3d2d2938d0001bfbd1e,12:19:22,03/04/2024
,"<p style=""font-size:75px;"">...</p>",,ospan,iti,9E0Tp2rqqzNrvr2ehDVjj28RDAq1,html-keyboard-response,175,1067087,0.0-46.0-6.0-0.0-0.0,,,,,,,,,,,,,,,5d30f3d2d2938d0001bfbd1e,12:19:22,03/04/2024
2479.0,,,ospan,symmetry,9E0Tp2rqqzNrvr2ehDVjj28RDAq1,symmetry-judgement-task,176,1070897,0.0-46.0-6.0-0.0-1.0-0.0,,,,,,,,,,1.0,1.0,,,,5d30f3d2d2938d0001bfbd1e,12:19:22,03/04/2024
,"<div style=""font-size: 10rem; color: #0000FF"">R</div>",,ospan,letter,9E0Tp2rqqzNrvr2ehDVjj28RDAq1,html-keyboard-response,177,1071898,0.0-46.0-6.0-0.0-1.0-1.0,,,,,,,,,,,,,,,5d30f3d2d2938d0001bfbd1e,12:19:22,03/04/2024
994.0,,,ospan,symmetry,9E0Tp2rqqzNrvr2ehDVjj28RDAq1,symmetry-judgement-task,178,1074990,0.0-46.0-6.0-0.0-1.0-2.0,,,,,,,,,,1.0,1.0,,,,5d30f3d2d2938d0001bfbd1e,12:19:22,03/04/2024
,"<div style=""font-size: 10rem; color: #0000FF"">S</div>",,ospan,letter,9E0Tp2rqqzNrvr2ehDVjj28RDAq1,html-keyboard-response,179,1075994,0.0-46.0-6.0-0.0-1.0-3.0,,,,,,,,,,,,,,,5d30f3d2d2938d0001bfbd1e,12:19:22,03/04/2024
932.0,,,ospan,symmetry,9E0Tp2rqqzNrvr2ehDVjj28RDAq1,symmetry-judgement-task,180,1079015,0.0-46.0-6.0-0.0-1.0-4.0,,,,,,,,,,1.0,1.0,,,,5d30f3d2d2938d0001bfbd1e,12:19:22,03/04/2024
,"<div style=""font-size: 10rem; color: #0000FF"">P</div>",,ospan,letter,9E0Tp2rqqzNrvr2ehDVjj28RDAq1,html-keyboard-response,181,1080019,0.0-46.0-6.0-0.0-1.0-5.0,,,,,,,,,,,,,,,5d30f3d2d2938d0001bfbd1e,12:19:22,03/04/2024
2277.0,,,ospan,symmetry,9E0Tp2rqqzNrvr2ehDVjj28RDAq1,symmetry-judgement-task,182,1084398,0.0-46.0-6.0-0.0-1.0-6.0,,,,,,,,,,1.0,1.0,,,,5d30f3d2d2938d0001bfbd1e,12:19:22,03/04/2024
,"<div style=""font-size: 10rem; color: #0000FF"">Q</div>",,ospan,letter,9E0Tp2rqqzNrvr2ehDVjj28RDAq1,html-keyboard-response,183,1085401,0.0-46.0-6.0-0.0-1.0-7.0,,,,,,,,,,,,,,,5d30f3d2d2938d0001bfbd1e,12:19:22,03/04/2024
1757.0,,,ospan,symmetry,9E0Tp2rqqzNrvr2ehDVjj28RDAq1,symmetry-judgement-task,184,1089247,0.0-46.0-6.0-0.0-1.0-8.0,,,,,,,,,,1.0,1.0,,,,5d30f3d2d2938d0001bfbd1e,12:19:22,03/04/2024
,"<div style=""font-size: 10rem; color: #0000FF"">H</div>",,ospan,letter,9E0Tp2rqqzNrvr2ehDVjj28RDAq1,html-keyboard-response,185,1090253,0.0-46.0-6.0-0.0-1.0-9.0,,,,,,,,,,,,,,,5d30f3d2d2938d0001bfbd1e,12:19:22,03/04/2024
8591.699999988079,"<div class = numbox><p style=""font-size: 2.4rem"">Please recall the letters you saw to the best of your ability. If you do not remember a particular letter, use the SKIP button.<br><b>(When you are ready to lock in your answer, press ENTER)</b></p><button id = button_1 class = ""square num-button"" onclick = ""recordClick(this)""><div class = content><div class = numbers>C</div></div></button><button id = button_2 class = ""square num-button"" onclick = ""recordClick(this)""><div class = content><div class = numbers>G</div></div></button><button id = button_3 class = ""square num-button"" onclick = ""recordClick(this)""><div class = content><div class = numbers>H</div></div></button><button id = button_4 class = ""square num-button"" onclick = ""recordClick(this)""><div class = content><div class = numbers>J</div></div></button><button id = button_5 class = ""square num-button"" onclick = ""recordClick(this)""><div class = content><div class = numbers>K</div></div></button><button id = button_6 class = ""square num-button"" onclick = ""recordClick(this)""><div class = content><div class = numbers>L</div></div></button><button id = button_7 class = ""square num-button"" onclick = ""recordClick(this)""><div class = content><div class = numbers>N</div></div></button><button id = button_8 class = ""square num-button"" onclick = ""recordClick(this)""><div class = content><div class = numbers>P</div></div></button><button id = button_9 class = ""square num-button"" onclick = ""recordClick(this)""><div class = content><div class = numbers>Q</div></div></button><button id = button_10 class = ""square num-button"" onclick = ""recordClick(this)""><div class = content><div class = numbers>R</div></div></button><button id = button_11 class = ""square num-button"" onclick = ""recordClick(this)""><div class = content><div class = numbers>S</div></div></button><button id = button_12 class = ""square num-button"" onclick = ""recordClick(this)""><div class = content><div class = numbers>Y</div></div></button><button class = clear_button id = ""ClearButton"" onclick = ""clearResponse()"">BACKSPACE</button><button class = blank_button id = ""BlankButton"" onclick = ""blankResponse()"">SKIP</button><p style=""font-size: 2.4rem""><u><b>Current Answer:</b></u></p><br><br><div id=echoed_txt style=""font-size: 5rem; color:blue;""><b></b></div></div>",enter,ospan,retrieval,9E0Tp2rqqzNrvr2ehDVjj28RDAq1,html-keyboard-response,186,1099603,0.0-46.0-6.0-0.0-2.0,33,33,33,5.0,"[""R"",""S"",""P"",""Q"",""H""]","[""R"",""S"",""P"",""Q"",""H""]",1.0,5.0,,,,,,,5d30f3d2d2938d0001bfbd1e,12:19:22,03/04/2024
1901.9000000357628,[''],0,ospan,feedback,9E0Tp2rqqzNrvr2ehDVjj28RDAq1,html-button-response,187,1102020,0.0-46.0-6.0-0.0-3.0,,,,,,,,,,,,100.0,0.0,,5d30f3d2d2938d0001bfbd1e,12:19:22,03/04/2024
,"<p style=""font-size:75px;"">...</p>",,ospan,iti,9E0Tp2rqqzNrvr2ehDVjj28RDAq1,html-keyboard-response,188,1103027,0.0-46.0-6.0-1.0-0.0,,,,,,,,,,,,,,,5d30f3d2d2938d0001bfbd1e,12:19:22,03/04/2024
2128.0,,,ospan,symmetry,9E0Tp2rqqzNrvr2ehDVjj28RDAq1,symmetry-judgement-task,189,1106474,0.0-46.0-6.0-1.0-1.0-0.0,,,,,,,,,,1.0,1.0,,,,5d30f3d2d2938d0001bfbd1e,12:19:22,03/04/2024
,"<div style=""font-size: 10rem; color: #0000FF"">Y</div>",,ospan,letter,9E0Tp2rqqzNrvr2ehDVjj28RDAq1,html-keyboard-response,190,1107480,0.0-46.0-6.0-1.0-1.0-1.0,,,,,,,,,,,,,,,5d30f3d2d2938d0001bfbd1e,12:19:22,03/04/2024
912.0,,,ospan,symmetry,9E0Tp2rqqzNrvr2ehDVjj28RDAq1,symmetry-judgement-task,191,1110467,0.0-46.0-6.0-1.0-1.0-2.0,,,,,,,,,,1.0,1.0,,,,5d30f3d2d2938d0001bfbd1e,12:19:22,03/04/2024
,"<div style=""font-size: 10rem; color: #0000FF"">K</div>",,ospan,letter,9E0Tp2rqqzNrvr2ehDVjj28RDAq1,html-keyboard-response,192,1111473,0.0-46.0-6.0-1.0-1.0-3.0,,,,,,,,,,,,,,,5d30f3d2d2938d0001bfbd1e,12:19:22,03/04/2024
1357.0,,,ospan,symmetry,9E0Tp2rqqzNrvr2ehDVjj28RDAq1,symmetry-judgement-task,193,1114888,0.0-46.0-6.0-1.0-1.0-4.0,,,,,,,,,,1.0,1.0,,,,5d30f3d2d2938d0001bfbd1e,12:19:22,03/04/2024
,"<div style=""font-size: 10rem; color: #0000FF"">Q</div>",,ospan,letter,9E0Tp2rqqzNrvr2ehDVjj28RDAq1,html-keyboard-response,194,1115903,0.0-46.0-6.0-1.0-1.0-5.0,,,,,,,,,,,,,,,5d30f3d2d2938d0001bfbd1e,12:19:22,03/04/2024
1654.0,,,ospan,symmetry,9E0Tp2rqqzNrvr2ehDVjj28RDAq1,symmetry-judgement-task,195,1119675,0.0-46.0-6.0-1.0-1.0-6.0,,,,,,,,,,1.0,1.0,,,,5d30f3d2d2938d0001bfbd1e,12:19:22,03/04/2024
,"<div style=""font-size: 10rem; color: #0000FF"">N</div>",,ospan,letter,9E0Tp2rqqzNrvr2ehDVjj28RDAq1,html-keyboard-response,196,1120681,0.0-46.0-6.0-1.0-1.0-7.0,,,,,,,,,,,,,,,5d30f3d2d2938d0001bfbd1e,12:19:22,03/04/2024
3618.0,,,ospan,symmetry,9E0Tp2rqqzNrvr2ehDVjj28RDAq1,symmetry-judgement-task,197,1126377,0.0-46.0-6.0-1.0-1.0-8.0,,,,,,,,,,1.0,1.0,,,,5d30f3d2d2938d0001bfbd1e,12:19:22,03/04/2024
,"<div style=""font-size: 10rem; color: #0000FF"">P</div>",,ospan,letter,9E0Tp2rqqzNrvr2ehDVjj28RDAq1,html-keyboard-response,198,1127386,0.0-46.0-6.0-1.0-1.0-9.0,,,,,,,,,,,,,,,5d30f3d2d2938d0001bfbd1e,12:19:22,03/04/2024
1950.0,,,ospan,symmetry,9E0Tp2rqqzNrvr2ehDVjj28RDAq1,symmetry-judgement-task,199,1131401,0.0-46.0-6.0-1.0-1.0-10.0,,,,,,,,,,1.0,1.0,,,,5d30f3d2d2938d0001bfbd1e,12:19:22,03/04/2024
,"<div style=""font-size: 10rem; color: #0000FF"">H</div>",,ospan,letter,9E0Tp2rqqzNrvr2ehDVjj28RDAq1,html-keyboard-response,200,1132407,0.0-46.0-6.0-1.0-1.0-11.0,,,,,,,,,,,,,,,5d30f3d2d2938d0001bfbd1e,12:19:22,03/04/2024
1597.0,,,ospan,symmetry,9E0Tp2rqqzNrvr2ehDVjj28RDAq1,symmetry-judgement-task,201,1136067,0.0-46.0-6.0-1.0-1.0-12.0,,,,,,,,,,1.0,1.0,,,,5d30f3d2d2938d0001bfbd1e,12:19:22,03/04/2024
,"<div style=""font-size: 10rem; color: #0000FF"">R</div>",,ospan,letter,9E0Tp2rqqzNrvr2ehDVjj28RDAq1,html-keyboard-response,202,1137073,0.0-46.0-6.0-1.0-1.0-13.0,,,,,,,,,,,,,,,5d30f3d2d2938d0001bfbd1e,12:19:22,03/04/2024
1518.0,,,ospan,symmetry,9E0Tp2rqqzNrvr2ehDVjj28RDAq1,symmetry-judgement-task,203,1140651,0.0-46.0-6.0-1.0-1.0-14.0,,,,,,,,,,1.0,1.0,,,,5d30f3d2d2938d0001bfbd1e,12:19:22,03/04/2024
,"<div style=""font-size: 10rem; color: #0000FF"">L</div>",,ospan,letter,9E0Tp2rqqzNrvr2ehDVjj28RDAq1,html-keyboard-response,204,1141657,0.0-46.0-6.0-1.0-1.0-15.0,,,,,,,,,,,,,,,5d30f3d2d2938d0001bfbd1e,12:19:22,03/04/2024
16578.099999964237,"<div class = numbox><p style=""font-size: 2.4rem"">Please recall the letters you saw to the best of your ability. If you do not remember a particular letter, use the SKIP button.<br><b>(When you are ready to lock in your answer, press ENTER)</b></p><button id = button_1 class = ""square num-button"" onclick = ""recordClick(this)""><div class = content><div class = numbers>C</div></div></button><button id = button_2 class = ""square num-button"" onclick = ""recordClick(this)""><div class = content><div class = numbers>G</div></div></button><button id = button_3 class = ""square num-button"" onclick = ""recordClick(this)""><div class = content><div class = numbers>H</div></div></button><button id = button_4 class = ""square num-button"" onclick = ""recordClick(this)""><div class = content><div class = numbers>J</div></div></button><button id = button_5 class = ""square num-button"" onclick = ""recordClick(this)""><div class = content><div class = numbers>K</div></div></button><button id = button_6 class = ""square num-button"" onclick = ""recordClick(this)""><div class = content><div class = numbers>L</div></div></button><button id = button_7 class = ""square num-button"" onclick = ""recordClick(this)""><div class = content><div class = numbers>N</div></div></button><button id = button_8 class = ""square num-button"" onclick = ""recordClick(this)""><div class = content><div class = numbers>P</div></div></button><button id = button_9 class = ""square num-button"" onclick = ""recordClick(this)""><div class = content><div class = numbers>Q</div></div></button><button id = button_10 class = ""square num-button"" onclick = ""recordClick(this)""><div class = content><div class = numbers>R</div></div></button><button id = button_11 class = ""square num-button"" onclick = ""recordClick(this)""><div class = content><div class = numbers>S</div></div></button><button id = button_12 class = ""square num-button"" onclick = ""recordClick(this)""><div class = content><div class = numbers>Y</div></div></button><button class = clear_button id = ""ClearButton"" onclick = ""clearResponse()"">BACKSPACE</button><button class = blank_button id = ""BlankButton"" onclick = ""blankResponse()"">SKIP</button><p style=""font-size: 2.4rem""><u><b>Current Answer:</b></u></p><br><br><div id=echoed_txt style=""font-size: 5rem; color:blue;""><b></b></div></div>",enter,ospan,retrieval,9E0Tp2rqqzNrvr2ehDVjj28RDAq1,html-keyboard-response,205,1158992,0.0-46.0-6.0-1.0-2.0,41,38,33,8.0,"[""Y"",""N"",""Q"",""K"",""P"",""H"",""R""]","[""Y"",""K"",""Q"",""N"",""P"",""H"",""R"",""L""]",0.0,5.0,,,,,,,5d30f3d2d2938d0001bfbd1e,12:19:22,03/04/2024
1603.0,[''],0,ospan,feedback,9E0Tp2rqqzNrvr2ehDVjj28RDAq1,html-button-response,206,1161097,0.0-46.0-6.0-1.0-3.0,,,,,,,,,,,,100.0,0.0,,5d30f3d2d2938d0001bfbd1e,12:19:22,03/04/2024
15395.0,,{'Q0': 'N/ A'},ospan,survey_ospan,9E0Tp2rqqzNrvr2ehDVjj28RDAq1,lmdlab-survey-text,207,1177257,0.0-46.0-7.0,,,,,,,,,,,,,,9E0Tp2rqqzNrvr2ehDVjj28RDAq1,5d30f3d2d2938d0001bfbd1e,12:19:22,03/04/2024
1916.5,<p><p style='font-size: 3rem'>Great work!<br><br>This completes the symmetry and memory task.</p><br><br><br>,0,ospan,finish,9E0Tp2rqqzNrvr2ehDVjj28RDAq1,html-button-response,208,1179176,0.0-46.0-8.0,41,38,33,,,,,,,,,100.0,,,5d30f3d2d2938d0001bfbd1e,12:19:22,03/04/2024
