rt,stimulus,response,exp_name,exp_stage,subjectID,trial_type,trial_index,time_elapsed,internal_node_id,ospan_shown,ospan_total,ospan_abs,length,resp_actual,resp_correct,full_correct,num_correct,feedback,accuracy,correct,math_acc,math_warning,databaseID,prolificID,start_time,date
3658.5,<div class = 'left_align' style='font-size: 3.25rem; line-height: 1.3;'><p class = 'center_align'><b>Welcome to the Symmetry and Memory Task</b><br><br><br><br></p>Press 'continue' to show the instructions.<br><br><br><br></div>,0,ospan,instruct,5xuBLXk5ssfZuLxvYd0txgNJYsp2,html-button-response,54,650529,0.0-46.0-0.0-0.0-0.0,,,,,,,,,,,,,,,5ede1eacaa5dd5034089e865,09:37:38,04/04/2024
12357.899999976158,"<div class = 'left_align' style='font-size: 3.25rem; line-height: 1.3;'><p class = 'center_align'><b>Symmetry and Memory Task</b><br><br></p>In this task, you will try to memorize letters you see on the screen<br>while you also view black and white grid pictures.<br><br>In the next few minutes, you will have some practice to get you familiar<br>with how the task works.<br><br>It may be difficult sometimes, but please do not worry about making mistakes!<br><br>We will begin by practicing the letter part of the task.<br><br><br><br></div>",0,ospan,instruct,5xuBLXk5ssfZuLxvYd0txgNJYsp2,html-button-response,55,663145,0.0-46.0-0.0-0.0-1.0,,,,,,,,,,,,,,,5ede1eacaa5dd5034089e865,09:37:38,04/04/2024
11294.0,"<div class = 'left_align' style='font-size: 3.25rem; line-height: 1.3;'>For this practice part, letters will appear on the screen one at a time.<br><br>Try to remember each letter in the order presented.<br><br>After some letters have been shown, you will see a response screen. Your<br>goal is to report the letters you saw <b>in order</b>. If you do not remember<br>a particular letter, you will have the option to leave it blank.<br><br><br><br></div>",0,ospan,instruct,5xuBLXk5ssfZuLxvYd0txgNJYsp2,html-button-response,56,674699,0.0-46.0-0.0-0.0-2.0,,,,,,,,,,,,,,,5ede1eacaa5dd5034089e865,09:37:38,04/04/2024
3670.7999999523163,"<div class = 'left_align' style='font-size: 3.25rem; line-height: 1.3;'>Remember, it is very important to get the letters in the same<br>order as you see them.<br><br>When you are ready, you may begin the letter practice.</div><br><br><br><br>",0,ospan,instruct,5xuBLXk5ssfZuLxvYd0txgNJYsp2,html-button-response,57,678631,0.0-46.0-0.0-0.0-3.0,,,,,,,,,,,,,,,5ede1eacaa5dd5034089e865,09:37:38,04/04/2024
,"<p style=""font-size:75px;"">...</p>",,ospan,iti,5xuBLXk5ssfZuLxvYd0txgNJYsp2,html-keyboard-response,58,679903,0.0-46.0-0.0-1.0-0.0,,,,,,,,,,,,,,,5ede1eacaa5dd5034089e865,09:37:38,04/04/2024
,"<div style=""font-size: 10rem; color: #0000FF"">G</div>",,ospan,letter,5xuBLXk5ssfZuLxvYd0txgNJYsp2,html-keyboard-response,59,680914,0.0-46.0-0.0-1.0-1.0,,,,,,,,,,,,,,,5ede1eacaa5dd5034089e865,09:37:38,04/04/2024
,"<div style=""font-size: 10rem; color: #0000FF"">K</div>",,ospan,letter,5xuBLXk5ssfZuLxvYd0txgNJYsp2,html-keyboard-response,60,682692,0.0-46.0-0.0-1.0-2.0,,,,,,,,,,,,,,,5ede1eacaa5dd5034089e865,09:37:38,04/04/2024
12846.5,"<div class = numbox><p style=""font-size: 2.4rem"">Please recall the letters you saw to the best of your ability. If you do not remember a particular letter, use the SKIP button.<br><b>(When you are ready to lock in your answer, press ENTER)</b></p><button id = button_1 class = ""square num-button"" onclick = ""recordClick(this)""><div class = content><div class = numbers>C</div></div></button><button id = button_2 class = ""square num-button"" onclick = ""recordClick(this)""><div class = content><div class = numbers>G</div></div></button><button id = button_3 class = ""square num-button"" onclick = ""recordClick(this)""><div class = content><div class = numbers>H</div></div></button><button id = button_4 class = ""square num-button"" onclick = ""recordClick(this)""><div class = content><div class = numbers>J</div></div></button><button id = button_5 class = ""square num-button"" onclick = ""recordClick(this)""><div class = content><div class = numbers>K</div></div></button><button id = button_6 class = ""square num-button"" onclick = ""recordClick(this)""><div class = content><div class = numbers>L</div></div></button><button id = button_7 class = ""square num-button"" onclick = ""recordClick(this)""><div class = content><div class = numbers>N</div></div></button><button id = button_8 class = ""square num-button"" onclick = ""recordClick(this)""><div class = content><div class = numbers>P</div></div></button><button id = button_9 class = ""square num-button"" onclick = ""recordClick(this)""><div class = content><div class = numbers>Q</div></div></button><button id = button_10 class = ""square num-button"" onclick = ""recordClick(this)""><div class = content><div class = numbers>R</div></div></button><button id = button_11 class = ""square num-button"" onclick = ""recordClick(this)""><div class = content><div class = numbers>S</div></div></button><button id = button_12 class = ""square num-button"" onclick = ""recordClick(this)""><div class = content><div class = numbers>Y</div></div></button><button class = clear_button id = ""ClearButton"" onclick = ""clearResponse()"">BACKSPACE</button><button class = blank_button id = ""BlankButton"" onclick = ""blankResponse()"">SKIP</button><p style=""font-size: 2.4rem""><u><b>Current Answer:</b></u></p><br><br><div id=echoed_txt style=""font-size: 5rem; color:blue;""><b></b></div></div>",enter,ospan,retrieval,5xuBLXk5ssfZuLxvYd0txgNJYsp2,html-keyboard-response,61,696301,0.0-46.0-0.0-1.0-3.0,NA,NA,NA,2.0,"[""G"",""K""]","[""G"",""K""]",1.0,2.0,"['<font color=""green"">G</font>', '<font color=""green"">K</font>']",,,,,,5ede1eacaa5dd5034089e865,09:37:38,04/04/2024
1897.6000000238419,"['<p style=""font-size:44px"">Letters:<br><br><br><font color=""green"">G</font> <font color=""green"">K</font></p><br><br>']",0,ospan,practice_feedback,5xuBLXk5ssfZuLxvYd0txgNJYsp2,html-button-response,62,698711,0.0-46.0-0.0-1.0-4.0,,,,,,,,,,,,,,,5ede1eacaa5dd5034089e865,09:37:38,04/04/2024
,"<p style=""font-size:75px;"">...</p>",,ospan,iti,5xuBLXk5ssfZuLxvYd0txgNJYsp2,html-keyboard-response,63,699716,0.0-46.0-0.0-2.0-0.0,,,,,,,,,,,,,,,5ede1eacaa5dd5034089e865,09:37:38,04/04/2024
,"<div style=""font-size: 10rem; color: #0000FF"">K</div>",,ospan,letter,5xuBLXk5ssfZuLxvYd0txgNJYsp2,html-keyboard-response,64,700726,0.0-46.0-0.0-2.0-1.0,,,,,,,,,,,,,,,5ede1eacaa5dd5034089e865,09:37:38,04/04/2024
,"<div style=""font-size: 10rem; color: #0000FF"">J</div>",,ospan,letter,5xuBLXk5ssfZuLxvYd0txgNJYsp2,html-keyboard-response,65,702500,0.0-46.0-0.0-2.0-2.0,,,,,,,,,,,,,,,5ede1eacaa5dd5034089e865,09:37:38,04/04/2024
,"<div style=""font-size: 10rem; color: #0000FF"">P</div>",,ospan,letter,5xuBLXk5ssfZuLxvYd0txgNJYsp2,html-keyboard-response,66,704277,0.0-46.0-0.0-2.0-3.0,,,,,,,,,,,,,,,5ede1eacaa5dd5034089e865,09:37:38,04/04/2024
6641.100000023842,"<div class = numbox><p style=""font-size: 2.4rem"">Please recall the letters you saw to the best of your ability. If you do not remember a particular letter, use the SKIP button.<br><b>(When you are ready to lock in your answer, press ENTER)</b></p><button id = button_1 class = ""square num-button"" onclick = ""recordClick(this)""><div class = content><div class = numbers>C</div></div></button><button id = button_2 class = ""square num-button"" onclick = ""recordClick(this)""><div class = content><div class = numbers>G</div></div></button><button id = button_3 class = ""square num-button"" onclick = ""recordClick(this)""><div class = content><div class = numbers>H</div></div></button><button id = button_4 class = ""square num-button"" onclick = ""recordClick(this)""><div class = content><div class = numbers>J</div></div></button><button id = button_5 class = ""square num-button"" onclick = ""recordClick(this)""><div class = content><div class = numbers>K</div></div></button><button id = button_6 class = ""square num-button"" onclick = ""recordClick(this)""><div class = content><div class = numbers>L</div></div></button><button id = button_7 class = ""square num-button"" onclick = ""recordClick(this)""><div class = content><div class = numbers>N</div></div></button><button id = button_8 class = ""square num-button"" onclick = ""recordClick(this)""><div class = content><div class = numbers>P</div></div></button><button id = button_9 class = ""square num-button"" onclick = ""recordClick(this)""><div class = content><div class = numbers>Q</div></div></button><button id = button_10 class = ""square num-button"" onclick = ""recordClick(this)""><div class = content><div class = numbers>R</div></div></button><button id = button_11 class = ""square num-button"" onclick = ""recordClick(this)""><div class = content><div class = numbers>S</div></div></button><button id = button_12 class = ""square num-button"" onclick = ""recordClick(this)""><div class = content><div class = numbers>Y</div></div></button><button class = clear_button id = ""ClearButton"" onclick = ""clearResponse()"">BACKSPACE</button><button class = blank_button id = ""BlankButton"" onclick = ""blankResponse()"">SKIP</button><p style=""font-size: 2.4rem""><u><b>Current Answer:</b></u></p><br><br><div id=echoed_txt style=""font-size: 5rem; color:blue;""><b></b></div></div>",enter,ospan,retrieval,5xuBLXk5ssfZuLxvYd0txgNJYsp2,html-keyboard-response,67,711685,0.0-46.0-0.0-2.0-4.0,NA,NA,NA,3.0,"[""K"",""J"",""P""]","[""K"",""J"",""P""]",1.0,3.0,"['<font color=""green"">K</font>', '<font color=""green"">J</font>', '<font color=""green"">P</font>']",,,,,,5ede1eacaa5dd5034089e865,09:37:38,04/04/2024
1620.7999999523163,"['<p style=""font-size:44px"">Letters:<br><br><br><font color=""green"">K</font> <font color=""green"">J</font> <font color=""green"">P</font></p><br><br>']",0,ospan,practice_feedback,5xuBLXk5ssfZuLxvYd0txgNJYsp2,html-button-response,68,713822,0.0-46.0-0.0-2.0-5.0,,,,,,,,,,,,,,,5ede1eacaa5dd5034089e865,09:37:38,04/04/2024
22939.600000023842,"<div class = 'left_align' style='font-size: 3.25rem; line-height: 1.3;'>Now you will practice doing the <b>symmetry judgment part</b> of the experiment.<br><br>A black and white grid picture will appear on the screen and you have to judge if it is <br>symmetrical or asymetrical.<br><br>A picture is 'mirror' symmetrical if its left half is identical to the right half when flipped.<br>Here are examples of a symmetrical and an asymetrical picture:<br><br><center><img src='Stimuli/img/symm_instructions_extra.png' style='height:420px; width:900'></img></center><br>To judge symmetry, imagine you were to fold each picture down the middle, like a book –<br>would the left half match the right half when folded onto each other?<br><br></div><br>",0,ospan,instruct,5xuBLXk5ssfZuLxvYd0txgNJYsp2,html-button-response,69,736765,0.0-46.0-1.0-0.0-0.0,,,,,,,,,,,,,,,5ede1eacaa5dd5034089e865,09:37:38,04/04/2024
10752.199999928474,"<div class = 'left_align' style='font-size: 3.25rem; line-height: 1.3;'>When you have viewed the picture and determined whether it is symmetrical or not,<br>you can <b>click the Yes or No button</b> below to answer.<br><br>If you take longer than 15 seconds, it will continue automatically<br>and record the answer as an error.</div><br>",0,ospan,instruct,5xuBLXk5ssfZuLxvYd0txgNJYsp2,html-button-response,70,747778,0.0-46.0-1.0-0.0-1.0,,,,,,,,,,,,,,,5ede1eacaa5dd5034089e865,09:37:38,04/04/2024
6103.199999928474,"<div class = 'left_align' style='font-size: 3.25rem; line-height: 1.3;'>It is <b>very</b> important that you make the symmetry judgment correctly.<br><br>It is also important that you try and judge the picture as quickly as you can.<br><br>When you are ready, click on the button below to try some practice problems.</div><br><br><br><br>",0,ospan,instruct,5xuBLXk5ssfZuLxvYd0txgNJYsp2,html-button-response,71,754143,0.0-46.0-1.0-0.0-2.0,,,,,,,,,,,,,,,5ede1eacaa5dd5034089e865,09:37:38,04/04/2024
2987.0,,,ospan,symmetry,5xuBLXk5ssfZuLxvYd0txgNJYsp2,symmetry-judgement-task,72,758043,0.0-46.0-1.0-1.0-0.0,,,,,,,,,,1.0,1.0,,,,5ede1eacaa5dd5034089e865,09:37:38,04/04/2024
,"<p style=""color:green; font-size: 35px"">Correct</p>",,ospan,feedback,5xuBLXk5ssfZuLxvYd0txgNJYsp2,html-keyboard-response,73,758798,0.0-46.0-1.0-1.0-1.0,,,,,,,,,,,,,,,5ede1eacaa5dd5034089e865,09:37:38,04/04/2024
3338.0,,,ospan,symmetry,5xuBLXk5ssfZuLxvYd0txgNJYsp2,symmetry-judgement-task,74,764996,0.0-46.0-1.0-1.0-2.0,,,,,,,,,,1.0,1.0,,,,5ede1eacaa5dd5034089e865,09:37:38,04/04/2024
,"<p style=""color:green; font-size: 35px"">Correct</p>",,ospan,feedback,5xuBLXk5ssfZuLxvYd0txgNJYsp2,html-keyboard-response,75,765757,0.0-46.0-1.0-1.0-3.0,,,,,,,,,,,,,,,5ede1eacaa5dd5034089e865,09:37:38,04/04/2024
2528.0,,,ospan,symmetry,5xuBLXk5ssfZuLxvYd0txgNJYsp2,symmetry-judgement-task,76,771103,0.0-46.0-1.0-1.0-4.0,,,,,,,,,,1.0,1.0,,,,5ede1eacaa5dd5034089e865,09:37:38,04/04/2024
,"<p style=""color:green; font-size: 35px"">Correct</p>",,ospan,feedback,5xuBLXk5ssfZuLxvYd0txgNJYsp2,html-keyboard-response,77,771865,0.0-46.0-1.0-1.0-5.0,,,,,,,,,,,,,,,5ede1eacaa5dd5034089e865,09:37:38,04/04/2024
1962.7000000476837,"<p style=""font-size: 3rem;"">You responded correctly on 3 of 3 symmetry judgments. Good job!</p><br><br>",0,ospan,practice,5xuBLXk5ssfZuLxvYd0txgNJYsp2,html-button-response,78,775834,0.0-46.0-1.0-2.0,,,,,,,,,,,,,,,5ede1eacaa5dd5034089e865,09:37:38,04/04/2024
18097.300000071526,"<div class = 'left_align' style='font-size: 3.25rem; line-height: 1.3;'>Now you will practice doing both parts of the experiment at the same time.<br><br>In the next practice set, you will be given one grid picture to judge.<br>Then letter will appear on the screen. Try to remember the letter.<br><br>It is <b>very important</b> to make the symmetry judgment as quickly and accurately as possible.<br><br>Just as before, once you have make the symmetry judgment, you can click Yes or No.<br><b>Note that you will no longer see Correct or Incorrect feedback.</div><br><br><br><br>",0,ospan,instruct,5xuBLXk5ssfZuLxvYd0txgNJYsp2,html-button-response,79,794194,0.0-46.0-2.0-0.0-0.0,,,,,,,,,,,,,,,5ede1eacaa5dd5034089e865,09:37:38,04/04/2024
10300.299999952316,"<div class = 'left_align' style='font-size: 3.25rem; line-height: 1.3;'>After the letter goes away, another grid picture will appear, and then<br>another letter.<br><br>At the end of each set of letters and grids, you will recall the letters to the best<br>of your ability. Remember, try your best to get the letters in the correct order.<br><br>It is important to <b>quickly</b> and <b>accurately</b> make the symmetry judgments.</div><br><br><br><br>",0,ospan,instruct,5xuBLXk5ssfZuLxvYd0txgNJYsp2,html-button-response,80,804755,0.0-46.0-2.0-0.0-1.0,,,,,,,,,,,,,,,5ede1eacaa5dd5034089e865,09:37:38,04/04/2024
15606.399999976158,"<div class = 'left_align' style='font-size: 3.25rem; line-height: 1.3;'>On the feedback screen, if you are not doing well at the symmetry judgments,<br>you will also see a warning in the middle. This indicates your percent <br>correct for the grid pictures for the entire experiment.<br><br>It is <b>very</b> important for you to keep accuracy at least at 85%: <u>We can only use<br>data where the participant was at least 85% accurate on the judgments.</u> Therefore,<br> please try your best to perform well on the symmetry judgments, <b>at the same time</b><br>doing your best to recall as many letters as possible.<br><br>Click the button to try some practice problems.</div><br><br><br><br>",0,ospan,instruct,5xuBLXk5ssfZuLxvYd0txgNJYsp2,html-button-response,81,820623,0.0-46.0-2.0-0.0-2.0,,,,,,,,,,,,,,,5ede1eacaa5dd5034089e865,09:37:38,04/04/2024
,"<p style=""font-size:75px;"">...</p>",,ospan,iti,5xuBLXk5ssfZuLxvYd0txgNJYsp2,html-keyboard-response,82,821883,0.0-46.0-2.0-1.0-0.0,,,,,,,,,,,,,,,5ede1eacaa5dd5034089e865,09:37:38,04/04/2024
2693.0,,,ospan,symmetry,5xuBLXk5ssfZuLxvYd0txgNJYsp2,symmetry-judgement-task,83,825864,0.0-46.0-2.0-1.0-1.0-0.0,,,,,,,,,,1.0,1.0,,,,5ede1eacaa5dd5034089e865,09:37:38,04/04/2024
,"<div style=""font-size: 10rem; color: #0000FF"">N</div>",,ospan,letter,5xuBLXk5ssfZuLxvYd0txgNJYsp2,html-keyboard-response,84,826872,0.0-46.0-2.0-1.0-1.0-1.0,,,,,,,,,,,,,,,5ede1eacaa5dd5034089e865,09:37:38,04/04/2024
2916.0,,,ospan,symmetry,5xuBLXk5ssfZuLxvYd0txgNJYsp2,symmetry-judgement-task,85,831872,0.0-46.0-2.0-1.0-1.0-2.0,,,,,,,,,,1.0,1.0,,,,5ede1eacaa5dd5034089e865,09:37:38,04/04/2024
,"<div style=""font-size: 10rem; color: #0000FF"">L</div>",,ospan,letter,5xuBLXk5ssfZuLxvYd0txgNJYsp2,html-keyboard-response,86,832886,0.0-46.0-2.0-1.0-1.0-3.0,,,,,,,,,,,,,,,5ede1eacaa5dd5034089e865,09:37:38,04/04/2024
3392.0,,,ospan,symmetry,5xuBLXk5ssfZuLxvYd0txgNJYsp2,symmetry-judgement-task,87,838342,0.0-46.0-2.0-1.0-1.0-4.0,,,,,,,,,,1.0,1.0,,,,5ede1eacaa5dd5034089e865,09:37:38,04/04/2024
,"<div style=""font-size: 10rem; color: #0000FF"">Y</div>",,ospan,letter,5xuBLXk5ssfZuLxvYd0txgNJYsp2,html-keyboard-response,88,839354,0.0-46.0-2.0-1.0-1.0-5.0,,,,,,,,,,,,,,,5ede1eacaa5dd5034089e865,09:37:38,04/04/2024
5894.600000023842,"<div class = numbox><p style=""font-size: 2.4rem"">Please recall the letters you saw to the best of your ability. If you do not remember a particular letter, use the SKIP button.<br><b>(When you are ready to lock in your answer, press ENTER)</b></p><button id = button_1 class = ""square num-button"" onclick = ""recordClick(this)""><div class = content><div class = numbers>C</div></div></button><button id = button_2 class = ""square num-button"" onclick = ""recordClick(this)""><div class = content><div class = numbers>G</div></div></button><button id = button_3 class = ""square num-button"" onclick = ""recordClick(this)""><div class = content><div class = numbers>H</div></div></button><button id = button_4 class = ""square num-button"" onclick = ""recordClick(this)""><div class = content><div class = numbers>J</div></div></button><button id = button_5 class = ""square num-button"" onclick = ""recordClick(this)""><div class = content><div class = numbers>K</div></div></button><button id = button_6 class = ""square num-button"" onclick = ""recordClick(this)""><div class = content><div class = numbers>L</div></div></button><button id = button_7 class = ""square num-button"" onclick = ""recordClick(this)""><div class = content><div class = numbers>N</div></div></button><button id = button_8 class = ""square num-button"" onclick = ""recordClick(this)""><div class = content><div class = numbers>P</div></div></button><button id = button_9 class = ""square num-button"" onclick = ""recordClick(this)""><div class = content><div class = numbers>Q</div></div></button><button id = button_10 class = ""square num-button"" onclick = ""recordClick(this)""><div class = content><div class = numbers>R</div></div></button><button id = button_11 class = ""square num-button"" onclick = ""recordClick(this)""><div class = content><div class = numbers>S</div></div></button><button id = button_12 class = ""square num-button"" onclick = ""recordClick(this)""><div class = content><div class = numbers>Y</div></div></button><button class = clear_button id = ""ClearButton"" onclick = ""clearResponse()"">BACKSPACE</button><button class = blank_button id = ""BlankButton"" onclick = ""blankResponse()"">SKIP</button><p style=""font-size: 2.4rem""><u><b>Current Answer:</b></u></p><br><br><div id=echoed_txt style=""font-size: 5rem; color:blue;""><b></b></div></div>",enter,ospan,retrieval,5xuBLXk5ssfZuLxvYd0txgNJYsp2,html-keyboard-response,89,846015,0.0-46.0-2.0-1.0-2.0-0.0,NA,NA,NA,3.0,"[""N"",""L"",""Y""]","[""N"",""L"",""Y""]",1.0,3.0,"['<font color=""green"">N</font>', '<font color=""green"">L</font>', '<font color=""green"">Y</font>']",,,,,,5ede1eacaa5dd5034089e865,09:37:38,04/04/2024
2204.600000023842,"['<p style=""font-size:44px"">Letters:<br><br><br><font color=""green"">N</font> <font color=""green"">L</font> <font color=""green"">Y</font></p><br><br><p style=""font-size:30px"">Symmetry:<br><br><font color=""green"">100%</font></p><br><br>']",0,ospan,practice_feedback,5xuBLXk5ssfZuLxvYd0txgNJYsp2,html-button-response,90,848733,0.0-46.0-2.0-1.0-2.0-1.0,,,,,,,,,,,,,,,5ede1eacaa5dd5034089e865,09:37:38,04/04/2024
,"<p style=""font-size:75px;"">...</p>",,ospan,iti,5xuBLXk5ssfZuLxvYd0txgNJYsp2,html-keyboard-response,91,849743,0.0-46.0-2.0-2.0-0.0,,,,,,,,,,,,,,,5ede1eacaa5dd5034089e865,09:37:38,04/04/2024
2920.0,,,ospan,symmetry,5xuBLXk5ssfZuLxvYd0txgNJYsp2,symmetry-judgement-task,92,853962,0.0-46.0-2.0-2.0-1.0-0.0,,,,,,,,,,1.0,1.0,,,,5ede1eacaa5dd5034089e865,09:37:38,04/04/2024
,"<div style=""font-size: 10rem; color: #0000FF"">K</div>",,ospan,letter,5xuBLXk5ssfZuLxvYd0txgNJYsp2,html-keyboard-response,93,854975,0.0-46.0-2.0-2.0-1.0-1.0,,,,,,,,,,,,,,,5ede1eacaa5dd5034089e865,09:37:38,04/04/2024
3188.0,,,ospan,symmetry,5xuBLXk5ssfZuLxvYd0txgNJYsp2,symmetry-judgement-task,94,860273,0.0-46.0-2.0-2.0-1.0-2.0,,,,,,,,,,1.0,1.0,,,,5ede1eacaa5dd5034089e865,09:37:38,04/04/2024
,"<div style=""font-size: 10rem; color: #0000FF"">Q</div>",,ospan,letter,5xuBLXk5ssfZuLxvYd0txgNJYsp2,html-keyboard-response,95,861284,0.0-46.0-2.0-2.0-1.0-3.0,,,,,,,,,,,,,,,5ede1eacaa5dd5034089e865,09:37:38,04/04/2024
2233.0,,,ospan,symmetry,5xuBLXk5ssfZuLxvYd0txgNJYsp2,symmetry-judgement-task,96,865640,0.0-46.0-2.0-2.0-1.0-4.0,,,,,,,,,,1.0,1.0,,,,5ede1eacaa5dd5034089e865,09:37:38,04/04/2024
,"<div style=""font-size: 10rem; color: #0000FF"">L</div>",,ospan,letter,5xuBLXk5ssfZuLxvYd0txgNJYsp2,html-keyboard-response,97,866654,0.0-46.0-2.0-2.0-1.0-5.0,,,,,,,,,,,,,,,5ede1eacaa5dd5034089e865,09:37:38,04/04/2024
4651.299999952316,"<div class = numbox><p style=""font-size: 2.4rem"">Please recall the letters you saw to the best of your ability. If you do not remember a particular letter, use the SKIP button.<br><b>(When you are ready to lock in your answer, press ENTER)</b></p><button id = button_1 class = ""square num-button"" onclick = ""recordClick(this)""><div class = content><div class = numbers>C</div></div></button><button id = button_2 class = ""square num-button"" onclick = ""recordClick(this)""><div class = content><div class = numbers>G</div></div></button><button id = button_3 class = ""square num-button"" onclick = ""recordClick(this)""><div class = content><div class = numbers>H</div></div></button><button id = button_4 class = ""square num-button"" onclick = ""recordClick(this)""><div class = content><div class = numbers>J</div></div></button><button id = button_5 class = ""square num-button"" onclick = ""recordClick(this)""><div class = content><div class = numbers>K</div></div></button><button id = button_6 class = ""square num-button"" onclick = ""recordClick(this)""><div class = content><div class = numbers>L</div></div></button><button id = button_7 class = ""square num-button"" onclick = ""recordClick(this)""><div class = content><div class = numbers>N</div></div></button><button id = button_8 class = ""square num-button"" onclick = ""recordClick(this)""><div class = content><div class = numbers>P</div></div></button><button id = button_9 class = ""square num-button"" onclick = ""recordClick(this)""><div class = content><div class = numbers>Q</div></div></button><button id = button_10 class = ""square num-button"" onclick = ""recordClick(this)""><div class = content><div class = numbers>R</div></div></button><button id = button_11 class = ""square num-button"" onclick = ""recordClick(this)""><div class = content><div class = numbers>S</div></div></button><button id = button_12 class = ""square num-button"" onclick = ""recordClick(this)""><div class = content><div class = numbers>Y</div></div></button><button class = clear_button id = ""ClearButton"" onclick = ""clearResponse()"">BACKSPACE</button><button class = blank_button id = ""BlankButton"" onclick = ""blankResponse()"">SKIP</button><p style=""font-size: 2.4rem""><u><b>Current Answer:</b></u></p><br><br><div id=echoed_txt style=""font-size: 5rem; color:blue;""><b></b></div></div>",enter,ospan,retrieval,5xuBLXk5ssfZuLxvYd0txgNJYsp2,html-keyboard-response,98,872071,0.0-46.0-2.0-2.0-2.0-0.0,NA,NA,NA,3.0,"[""K"",""Q"",""L""]","[""K"",""Q"",""L""]",1.0,3.0,"['<font color=""green"">K</font>', '<font color=""green"">Q</font>', '<font color=""green"">L</font>']",,,,,,5ede1eacaa5dd5034089e865,09:37:38,04/04/2024
1681.3000000715256,"['<p style=""font-size:44px"">Letters:<br><br><br><font color=""green"">K</font> <font color=""green"">Q</font> <font color=""green"">L</font></p><br><br><p style=""font-size:30px"">Symmetry:<br><br><font color=""green"">100%</font></p><br><br>']",0,ospan,practice_feedback,5xuBLXk5ssfZuLxvYd0txgNJYsp2,html-button-response,99,874272,0.0-46.0-2.0-2.0-2.0-1.0,,,,,,,,,,,,,,,5ede1eacaa5dd5034089e865,09:37:38,04/04/2024
28458.400000095367,"<div class = 'left_align' style='font-size: 3rem; line-height: 1.3;'><b>Great work! That is the end of practice.</b><br><br>The real trials will look just like the practice trials you just completed.<br><br><u>Here, you will not see feedback</u>. First, you will see an grid picture to judge,<br>then a letter to remember. When the recall screen appears, report the letters in the<br>order presented. If you forget a letter, remember to use the <b>blank</b> button to move to the<br>next letter. Some of the sets will have more symmetry grids and letters than others.<br><br>It is important that you do your best on both the symmetry judgments and the letter recall<br>parts of the experiment. For for the symmetry judgments, try to work as <b>quickly</b> and <br>as <b>accurately</b> as possible. Remember to keep your symmetry accuracy at 85% or above.<br><br><b>For the letters, do NOT use any external aid (e.g., writing on paper, electronic device).</b><br><br>It is <u>very important</u> to our experiment to have a <b>true</b> view of your real performance.<br><br>Do not worry if you miss some when it gets hard! This task is meant to be very challenging!<br><br>Click the button to begin.</div><br><br><br><br>",0,ospan,starting_real_here,5xuBLXk5ssfZuLxvYd0txgNJYsp2,html-button-response,100,902736,0.0-46.0-2.0-3.0,,,,,,,,,,,,,,,5ede1eacaa5dd5034089e865,09:37:38,04/04/2024
,"<p style=""font-size:75px;"">...</p>",,ospan,iti,5xuBLXk5ssfZuLxvYd0txgNJYsp2,html-keyboard-response,101,904004,0.0-46.0-3.0-0.0-0.0,,,,,,,,,,,,,,,5ede1eacaa5dd5034089e865,09:37:38,04/04/2024
3296.0,,,ospan,symmetry,5xuBLXk5ssfZuLxvYd0txgNJYsp2,symmetry-judgement-task,102,908620,0.0-46.0-3.0-0.0-1.0-0.0,,,,,,,,,,1.0,1.0,,,,5ede1eacaa5dd5034089e865,09:37:38,04/04/2024
,"<div style=""font-size: 10rem; color: #0000FF"">P</div>",,ospan,letter,5xuBLXk5ssfZuLxvYd0txgNJYsp2,html-keyboard-response,103,909632,0.0-46.0-3.0-0.0-1.0-1.0,,,,,,,,,,,,,,,5ede1eacaa5dd5034089e865,09:37:38,04/04/2024
3158.0,,,ospan,symmetry,5xuBLXk5ssfZuLxvYd0txgNJYsp2,symmetry-judgement-task,104,914944,0.0-46.0-3.0-0.0-1.0-2.0,,,,,,,,,,1.0,1.0,,,,5ede1eacaa5dd5034089e865,09:37:38,04/04/2024
,"<div style=""font-size: 10rem; color: #0000FF"">H</div>",,ospan,letter,5xuBLXk5ssfZuLxvYd0txgNJYsp2,html-keyboard-response,105,915959,0.0-46.0-3.0-0.0-1.0-3.0,,,,,,,,,,,,,,,5ede1eacaa5dd5034089e865,09:37:38,04/04/2024
1964.0,,,ospan,symmetry,5xuBLXk5ssfZuLxvYd0txgNJYsp2,symmetry-judgement-task,106,920061,0.0-46.0-3.0-0.0-1.0-4.0,,,,,,,,,,1.0,1.0,,,,5ede1eacaa5dd5034089e865,09:37:38,04/04/2024
,"<div style=""font-size: 10rem; color: #0000FF"">J</div>",,ospan,letter,5xuBLXk5ssfZuLxvYd0txgNJYsp2,html-keyboard-response,107,921072,0.0-46.0-3.0-0.0-1.0-5.0,,,,,,,,,,,,,,,5ede1eacaa5dd5034089e865,09:37:38,04/04/2024
5507.300000071526,"<div class = numbox><p style=""font-size: 2.4rem"">Please recall the letters you saw to the best of your ability. If you do not remember a particular letter, use the SKIP button.<br><b>(When you are ready to lock in your answer, press ENTER)</b></p><button id = button_1 class = ""square num-button"" onclick = ""recordClick(this)""><div class = content><div class = numbers>C</div></div></button><button id = button_2 class = ""square num-button"" onclick = ""recordClick(this)""><div class = content><div class = numbers>G</div></div></button><button id = button_3 class = ""square num-button"" onclick = ""recordClick(this)""><div class = content><div class = numbers>H</div></div></button><button id = button_4 class = ""square num-button"" onclick = ""recordClick(this)""><div class = content><div class = numbers>J</div></div></button><button id = button_5 class = ""square num-button"" onclick = ""recordClick(this)""><div class = content><div class = numbers>K</div></div></button><button id = button_6 class = ""square num-button"" onclick = ""recordClick(this)""><div class = content><div class = numbers>L</div></div></button><button id = button_7 class = ""square num-button"" onclick = ""recordClick(this)""><div class = content><div class = numbers>N</div></div></button><button id = button_8 class = ""square num-button"" onclick = ""recordClick(this)""><div class = content><div class = numbers>P</div></div></button><button id = button_9 class = ""square num-button"" onclick = ""recordClick(this)""><div class = content><div class = numbers>Q</div></div></button><button id = button_10 class = ""square num-button"" onclick = ""recordClick(this)""><div class = content><div class = numbers>R</div></div></button><button id = button_11 class = ""square num-button"" onclick = ""recordClick(this)""><div class = content><div class = numbers>S</div></div></button><button id = button_12 class = ""square num-button"" onclick = ""recordClick(this)""><div class = content><div class = numbers>Y</div></div></button><button class = clear_button id = ""ClearButton"" onclick = ""clearResponse()"">BACKSPACE</button><button class = blank_button id = ""BlankButton"" onclick = ""blankResponse()"">SKIP</button><p style=""font-size: 2.4rem""><u><b>Current Answer:</b></u></p><br><br><div id=echoed_txt style=""font-size: 5rem; color:blue;""><b></b></div></div>",enter,ospan,retrieval,5xuBLXk5ssfZuLxvYd0txgNJYsp2,html-keyboard-response,108,927338,0.0-46.0-3.0-0.0-2.0,3,3,3,3.0,"[""P"",""H"",""J""]","[""P"",""H"",""J""]",1.0,3.0,,,,,,,5ede1eacaa5dd5034089e865,09:37:38,04/04/2024
1367.6999999284744,[''],0,ospan,feedback,5xuBLXk5ssfZuLxvYd0txgNJYsp2,html-button-response,109,929210,0.0-46.0-3.0-0.0-3.0,,,,,,,,,,,,100.0,0.0,,5ede1eacaa5dd5034089e865,09:37:38,04/04/2024
,"<p style=""font-size:75px;"">...</p>",,ospan,iti,5xuBLXk5ssfZuLxvYd0txgNJYsp2,html-keyboard-response,110,930229,0.0-46.0-4.0-0.0-0.0,,,,,,,,,,,,,,,5ede1eacaa5dd5034089e865,09:37:38,04/04/2024
2620.0,,,ospan,symmetry,5xuBLXk5ssfZuLxvYd0txgNJYsp2,symmetry-judgement-task,111,934234,0.0-46.0-4.0-0.0-1.0-0.0,,,,,,,,,,1.0,1.0,,,,5ede1eacaa5dd5034089e865,09:37:38,04/04/2024
,"<div style=""font-size: 10rem; color: #0000FF"">N</div>",,ospan,letter,5xuBLXk5ssfZuLxvYd0txgNJYsp2,html-keyboard-response,112,935248,0.0-46.0-4.0-0.0-1.0-1.0,,,,,,,,,,,,,,,5ede1eacaa5dd5034089e865,09:37:38,04/04/2024
1660.0,,,ospan,symmetry,5xuBLXk5ssfZuLxvYd0txgNJYsp2,symmetry-judgement-task,113,938980,0.0-46.0-4.0-0.0-1.0-2.0,,,,,,,,,,1.0,1.0,,,,5ede1eacaa5dd5034089e865,09:37:38,04/04/2024
,"<div style=""font-size: 10rem; color: #0000FF"">K</div>",,ospan,letter,5xuBLXk5ssfZuLxvYd0txgNJYsp2,html-keyboard-response,114,939995,0.0-46.0-4.0-0.0-1.0-3.0,,,,,,,,,,,,,,,5ede1eacaa5dd5034089e865,09:37:38,04/04/2024
1733.0,,,ospan,symmetry,5xuBLXk5ssfZuLxvYd0txgNJYsp2,symmetry-judgement-task,115,943838,0.0-46.0-4.0-0.0-1.0-4.0,,,,,,,,,,1.0,1.0,,,,5ede1eacaa5dd5034089e865,09:37:38,04/04/2024
,"<div style=""font-size: 10rem; color: #0000FF"">Y</div>",,ospan,letter,5xuBLXk5ssfZuLxvYd0txgNJYsp2,html-keyboard-response,116,944851,0.0-46.0-4.0-0.0-1.0-5.0,,,,,,,,,,,,,,,5ede1eacaa5dd5034089e865,09:37:38,04/04/2024
3706.0,,,ospan,symmetry,5xuBLXk5ssfZuLxvYd0txgNJYsp2,symmetry-judgement-task,117,950812,0.0-46.0-4.0-0.0-1.0-6.0,,,,,,,,,,1.0,1.0,,,,5ede1eacaa5dd5034089e865,09:37:38,04/04/2024
,"<div style=""font-size: 10rem; color: #0000FF"">G</div>",,ospan,letter,5xuBLXk5ssfZuLxvYd0txgNJYsp2,html-keyboard-response,118,951822,0.0-46.0-4.0-0.0-1.0-7.0,,,,,,,,,,,,,,,5ede1eacaa5dd5034089e865,09:37:38,04/04/2024
6699.100000023842,"<div class = numbox><p style=""font-size: 2.4rem"">Please recall the letters you saw to the best of your ability. If you do not remember a particular letter, use the SKIP button.<br><b>(When you are ready to lock in your answer, press ENTER)</b></p><button id = button_1 class = ""square num-button"" onclick = ""recordClick(this)""><div class = content><div class = numbers>C</div></div></button><button id = button_2 class = ""square num-button"" onclick = ""recordClick(this)""><div class = content><div class = numbers>G</div></div></button><button id = button_3 class = ""square num-button"" onclick = ""recordClick(this)""><div class = content><div class = numbers>H</div></div></button><button id = button_4 class = ""square num-button"" onclick = ""recordClick(this)""><div class = content><div class = numbers>J</div></div></button><button id = button_5 class = ""square num-button"" onclick = ""recordClick(this)""><div class = content><div class = numbers>K</div></div></button><button id = button_6 class = ""square num-button"" onclick = ""recordClick(this)""><div class = content><div class = numbers>L</div></div></button><button id = button_7 class = ""square num-button"" onclick = ""recordClick(this)""><div class = content><div class = numbers>N</div></div></button><button id = button_8 class = ""square num-button"" onclick = ""recordClick(this)""><div class = content><div class = numbers>P</div></div></button><button id = button_9 class = ""square num-button"" onclick = ""recordClick(this)""><div class = content><div class = numbers>Q</div></div></button><button id = button_10 class = ""square num-button"" onclick = ""recordClick(this)""><div class = content><div class = numbers>R</div></div></button><button id = button_11 class = ""square num-button"" onclick = ""recordClick(this)""><div class = content><div class = numbers>S</div></div></button><button id = button_12 class = ""square num-button"" onclick = ""recordClick(this)""><div class = content><div class = numbers>Y</div></div></button><button class = clear_button id = ""ClearButton"" onclick = ""clearResponse()"">BACKSPACE</button><button class = blank_button id = ""BlankButton"" onclick = ""blankResponse()"">SKIP</button><p style=""font-size: 2.4rem""><u><b>Current Answer:</b></u></p><br><br><div id=echoed_txt style=""font-size: 5rem; color:blue;""><b></b></div></div>",enter,ospan,retrieval,5xuBLXk5ssfZuLxvYd0txgNJYsp2,html-keyboard-response,119,959289,0.0-46.0-4.0-0.0-2.0,7,7,7,4.0,"[""N"",""K"",""Y"",""G""]","[""N"",""K"",""Y"",""G""]",1.0,4.0,,,,,,,5ede1eacaa5dd5034089e865,09:37:38,04/04/2024
1450.0,[''],0,ospan,feedback,5xuBLXk5ssfZuLxvYd0txgNJYsp2,html-button-response,120,961247,0.0-46.0-4.0-0.0-3.0,,,,,,,,,,,,100.0,0.0,,5ede1eacaa5dd5034089e865,09:37:38,04/04/2024
,"<p style=""font-size:75px;"">...</p>",,ospan,iti,5xuBLXk5ssfZuLxvYd0txgNJYsp2,html-keyboard-response,121,962267,0.0-46.0-4.0-1.0-0.0,,,,,,,,,,,,,,,5ede1eacaa5dd5034089e865,09:37:38,04/04/2024
1966.0,,,ospan,symmetry,5xuBLXk5ssfZuLxvYd0txgNJYsp2,symmetry-judgement-task,122,965552,0.0-46.0-4.0-1.0-1.0-0.0,,,,,,,,,,1.0,1.0,,,,5ede1eacaa5dd5034089e865,09:37:38,04/04/2024
,"<div style=""font-size: 10rem; color: #0000FF"">J</div>",,ospan,letter,5xuBLXk5ssfZuLxvYd0txgNJYsp2,html-keyboard-response,123,966559,0.0-46.0-4.0-1.0-1.0-1.0,,,,,,,,,,,,,,,5ede1eacaa5dd5034089e865,09:37:38,04/04/2024
2524.0,,,ospan,symmetry,5xuBLXk5ssfZuLxvYd0txgNJYsp2,symmetry-judgement-task,124,971219,0.0-46.0-4.0-1.0-1.0-2.0,,,,,,,,,,1.0,1.0,,,,5ede1eacaa5dd5034089e865,09:37:38,04/04/2024
,"<div style=""font-size: 10rem; color: #0000FF"">C</div>",,ospan,letter,5xuBLXk5ssfZuLxvYd0txgNJYsp2,html-keyboard-response,125,972233,0.0-46.0-4.0-1.0-1.0-3.0,,,,,,,,,,,,,,,5ede1eacaa5dd5034089e865,09:37:38,04/04/2024
3844.0,,,ospan,symmetry,5xuBLXk5ssfZuLxvYd0txgNJYsp2,symmetry-judgement-task,126,978158,0.0-46.0-4.0-1.0-1.0-4.0,,,,,,,,,,1.0,1.0,,,,5ede1eacaa5dd5034089e865,09:37:38,04/04/2024
,"<div style=""font-size: 10rem; color: #0000FF"">Q</div>",,ospan,letter,5xuBLXk5ssfZuLxvYd0txgNJYsp2,html-keyboard-response,127,979167,0.0-46.0-4.0-1.0-1.0-5.0,,,,,,,,,,,,,,,5ede1eacaa5dd5034089e865,09:37:38,04/04/2024
2729.0,,,ospan,symmetry,5xuBLXk5ssfZuLxvYd0txgNJYsp2,symmetry-judgement-task,128,983986,0.0-46.0-4.0-1.0-1.0-6.0,,,,,,,,,,1.0,1.0,,,,5ede1eacaa5dd5034089e865,09:37:38,04/04/2024
,"<div style=""font-size: 10rem; color: #0000FF"">P</div>",,ospan,letter,5xuBLXk5ssfZuLxvYd0txgNJYsp2,html-keyboard-response,129,984999,0.0-46.0-4.0-1.0-1.0-7.0,,,,,,,,,,,,,,,5ede1eacaa5dd5034089e865,09:37:38,04/04/2024
1529.0,,,ospan,symmetry,5xuBLXk5ssfZuLxvYd0txgNJYsp2,symmetry-judgement-task,130,988578,0.0-46.0-4.0-1.0-1.0-8.0,,,,,,,,,,1.0,1.0,,,,5ede1eacaa5dd5034089e865,09:37:38,04/04/2024
,"<div style=""font-size: 10rem; color: #0000FF"">S</div>",,ospan,letter,5xuBLXk5ssfZuLxvYd0txgNJYsp2,html-keyboard-response,131,989593,0.0-46.0-4.0-1.0-1.0-9.0,,,,,,,,,,,,,,,5ede1eacaa5dd5034089e865,09:37:38,04/04/2024
6403.300000071526,"<div class = numbox><p style=""font-size: 2.4rem"">Please recall the letters you saw to the best of your ability. If you do not remember a particular letter, use the SKIP button.<br><b>(When you are ready to lock in your answer, press ENTER)</b></p><button id = button_1 class = ""square num-button"" onclick = ""recordClick(this)""><div class = content><div class = numbers>C</div></div></button><button id = button_2 class = ""square num-button"" onclick = ""recordClick(this)""><div class = content><div class = numbers>G</div></div></button><button id = button_3 class = ""square num-button"" onclick = ""recordClick(this)""><div class = content><div class = numbers>H</div></div></button><button id = button_4 class = ""square num-button"" onclick = ""recordClick(this)""><div class = content><div class = numbers>J</div></div></button><button id = button_5 class = ""square num-button"" onclick = ""recordClick(this)""><div class = content><div class = numbers>K</div></div></button><button id = button_6 class = ""square num-button"" onclick = ""recordClick(this)""><div class = content><div class = numbers>L</div></div></button><button id = button_7 class = ""square num-button"" onclick = ""recordClick(this)""><div class = content><div class = numbers>N</div></div></button><button id = button_8 class = ""square num-button"" onclick = ""recordClick(this)""><div class = content><div class = numbers>P</div></div></button><button id = button_9 class = ""square num-button"" onclick = ""recordClick(this)""><div class = content><div class = numbers>Q</div></div></button><button id = button_10 class = ""square num-button"" onclick = ""recordClick(this)""><div class = content><div class = numbers>R</div></div></button><button id = button_11 class = ""square num-button"" onclick = ""recordClick(this)""><div class = content><div class = numbers>S</div></div></button><button id = button_12 class = ""square num-button"" onclick = ""recordClick(this)""><div class = content><div class = numbers>Y</div></div></button><button class = clear_button id = ""ClearButton"" onclick = ""clearResponse()"">BACKSPACE</button><button class = blank_button id = ""BlankButton"" onclick = ""blankResponse()"">SKIP</button><p style=""font-size: 2.4rem""><u><b>Current Answer:</b></u></p><br><br><div id=echoed_txt style=""font-size: 5rem; color:blue;""><b></b></div></div>",enter,ospan,retrieval,5xuBLXk5ssfZuLxvYd0txgNJYsp2,html-keyboard-response,132,996763,0.0-46.0-4.0-1.0-2.0,12,12,12,5.0,"[""J"",""C"",""Q"",""P"",""S""]","[""J"",""C"",""Q"",""P"",""S""]",1.0,5.0,,,,,,,5ede1eacaa5dd5034089e865,09:37:38,04/04/2024
1874.2000000476837,[''],0,ospan,feedback,5xuBLXk5ssfZuLxvYd0txgNJYsp2,html-button-response,133,999143,0.0-46.0-4.0-1.0-3.0,,,,,,,,,,,,100.0,0.0,,5ede1eacaa5dd5034089e865,09:37:38,04/04/2024
,"<p style=""font-size:75px;"">...</p>",,ospan,iti,5xuBLXk5ssfZuLxvYd0txgNJYsp2,html-keyboard-response,134,1000161,0.0-46.0-4.0-2.0-0.0,,,,,,,,,,,,,,,5ede1eacaa5dd5034089e865,09:37:38,04/04/2024
2573.0,,,ospan,symmetry,5xuBLXk5ssfZuLxvYd0txgNJYsp2,symmetry-judgement-task,135,1004076,0.0-46.0-4.0-2.0-1.0-0.0,,,,,,,,,,1.0,1.0,,,,5ede1eacaa5dd5034089e865,09:37:38,04/04/2024
,"<div style=""font-size: 10rem; color: #0000FF"">J</div>",,ospan,letter,5xuBLXk5ssfZuLxvYd0txgNJYsp2,html-keyboard-response,136,1005094,0.0-46.0-4.0-2.0-1.0-1.0,,,,,,,,,,,,,,,5ede1eacaa5dd5034089e865,09:37:38,04/04/2024
1220.0,,,ospan,symmetry,5xuBLXk5ssfZuLxvYd0txgNJYsp2,symmetry-judgement-task,137,1008436,0.0-46.0-4.0-2.0-1.0-2.0,,,,,,,,,,1.0,1.0,,,,5ede1eacaa5dd5034089e865,09:37:38,04/04/2024
,"<div style=""font-size: 10rem; color: #0000FF"">Y</div>",,ospan,letter,5xuBLXk5ssfZuLxvYd0txgNJYsp2,html-keyboard-response,138,1009450,0.0-46.0-4.0-2.0-1.0-3.0,,,,,,,,,,,,,,,5ede1eacaa5dd5034089e865,09:37:38,04/04/2024
1088.0,,,ospan,symmetry,5xuBLXk5ssfZuLxvYd0txgNJYsp2,symmetry-judgement-task,139,1012581,0.0-46.0-4.0-2.0-1.0-4.0,,,,,,,,,,1.0,1.0,,,,5ede1eacaa5dd5034089e865,09:37:38,04/04/2024
,"<div style=""font-size: 10rem; color: #0000FF"">R</div>",,ospan,letter,5xuBLXk5ssfZuLxvYd0txgNJYsp2,html-keyboard-response,140,1013599,0.0-46.0-4.0-2.0-1.0-5.0,,,,,,,,,,,,,,,5ede1eacaa5dd5034089e865,09:37:38,04/04/2024
4662.5,"<div class = numbox><p style=""font-size: 2.4rem"">Please recall the letters you saw to the best of your ability. If you do not remember a particular letter, use the SKIP button.<br><b>(When you are ready to lock in your answer, press ENTER)</b></p><button id = button_1 class = ""square num-button"" onclick = ""recordClick(this)""><div class = content><div class = numbers>C</div></div></button><button id = button_2 class = ""square num-button"" onclick = ""recordClick(this)""><div class = content><div class = numbers>G</div></div></button><button id = button_3 class = ""square num-button"" onclick = ""recordClick(this)""><div class = content><div class = numbers>H</div></div></button><button id = button_4 class = ""square num-button"" onclick = ""recordClick(this)""><div class = content><div class = numbers>J</div></div></button><button id = button_5 class = ""square num-button"" onclick = ""recordClick(this)""><div class = content><div class = numbers>K</div></div></button><button id = button_6 class = ""square num-button"" onclick = ""recordClick(this)""><div class = content><div class = numbers>L</div></div></button><button id = button_7 class = ""square num-button"" onclick = ""recordClick(this)""><div class = content><div class = numbers>N</div></div></button><button id = button_8 class = ""square num-button"" onclick = ""recordClick(this)""><div class = content><div class = numbers>P</div></div></button><button id = button_9 class = ""square num-button"" onclick = ""recordClick(this)""><div class = content><div class = numbers>Q</div></div></button><button id = button_10 class = ""square num-button"" onclick = ""recordClick(this)""><div class = content><div class = numbers>R</div></div></button><button id = button_11 class = ""square num-button"" onclick = ""recordClick(this)""><div class = content><div class = numbers>S</div></div></button><button id = button_12 class = ""square num-button"" onclick = ""recordClick(this)""><div class = content><div class = numbers>Y</div></div></button><button class = clear_button id = ""ClearButton"" onclick = ""clearResponse()"">BACKSPACE</button><button class = blank_button id = ""BlankButton"" onclick = ""blankResponse()"">SKIP</button><p style=""font-size: 2.4rem""><u><b>Current Answer:</b></u></p><br><br><div id=echoed_txt style=""font-size: 5rem; color:blue;""><b></b></div></div>",enter,ospan,retrieval,5xuBLXk5ssfZuLxvYd0txgNJYsp2,html-keyboard-response,141,1019019,0.0-46.0-4.0-2.0-2.0,15,15,15,3.0,"[""J"",""Y"",""R""]","[""J"",""Y"",""R""]",1.0,3.0,,,,,,,5ede1eacaa5dd5034089e865,09:37:38,04/04/2024
1684.6000000238419,[''],0,ospan,feedback,5xuBLXk5ssfZuLxvYd0txgNJYsp2,html-button-response,142,1021209,0.0-46.0-4.0-2.0-3.0,,,,,,,,,,,,100.0,0.0,,5ede1eacaa5dd5034089e865,09:37:38,04/04/2024
,"<p style=""font-size:75px;"">...</p>",,ospan,iti,5xuBLXk5ssfZuLxvYd0txgNJYsp2,html-keyboard-response,143,1022220,0.0-46.0-5.0-0.0-0.0,,,,,,,,,,,,,,,5ede1eacaa5dd5034089e865,09:37:38,04/04/2024
1663.0,,,ospan,symmetry,5xuBLXk5ssfZuLxvYd0txgNJYsp2,symmetry-judgement-task,144,1025149,0.0-46.0-5.0-0.0-1.0-0.0,,,,,,,,,,1.0,1.0,,,,5ede1eacaa5dd5034089e865,09:37:38,04/04/2024
,"<div style=""font-size: 10rem; color: #0000FF"">Q</div>",,ospan,letter,5xuBLXk5ssfZuLxvYd0txgNJYsp2,html-keyboard-response,145,1026164,0.0-46.0-5.0-0.0-1.0-1.0,,,,,,,,,,,,,,,5ede1eacaa5dd5034089e865,09:37:38,04/04/2024
2670.0,,,ospan,symmetry,5xuBLXk5ssfZuLxvYd0txgNJYsp2,symmetry-judgement-task,146,1030928,0.0-46.0-5.0-0.0-1.0-2.0,,,,,,,,,,1.0,1.0,,,,5ede1eacaa5dd5034089e865,09:37:38,04/04/2024
,"<div style=""font-size: 10rem; color: #0000FF"">H</div>",,ospan,letter,5xuBLXk5ssfZuLxvYd0txgNJYsp2,html-keyboard-response,147,1031945,0.0-46.0-5.0-0.0-1.0-3.0,,,,,,,,,,,,,,,5ede1eacaa5dd5034089e865,09:37:38,04/04/2024
1271.0,,,ospan,symmetry,5xuBLXk5ssfZuLxvYd0txgNJYsp2,symmetry-judgement-task,148,1035331,0.0-46.0-5.0-0.0-1.0-4.0,,,,,,,,,,1.0,1.0,,,,5ede1eacaa5dd5034089e865,09:37:38,04/04/2024
,"<div style=""font-size: 10rem; color: #0000FF"">P</div>",,ospan,letter,5xuBLXk5ssfZuLxvYd0txgNJYsp2,html-keyboard-response,149,1036341,0.0-46.0-5.0-0.0-1.0-5.0,,,,,,,,,,,,,,,5ede1eacaa5dd5034089e865,09:37:38,04/04/2024
2521.0,,,ospan,symmetry,5xuBLXk5ssfZuLxvYd0txgNJYsp2,symmetry-judgement-task,150,1040880,0.0-46.0-5.0-0.0-1.0-6.0,,,,,,,,,,1.0,1.0,,,,5ede1eacaa5dd5034089e865,09:37:38,04/04/2024
,"<div style=""font-size: 10rem; color: #0000FF"">S</div>",,ospan,letter,5xuBLXk5ssfZuLxvYd0txgNJYsp2,html-keyboard-response,151,1041898,0.0-46.0-5.0-0.0-1.0-7.0,,,,,,,,,,,,,,,5ede1eacaa5dd5034089e865,09:37:38,04/04/2024
1325.0,,,ospan,symmetry,5xuBLXk5ssfZuLxvYd0txgNJYsp2,symmetry-judgement-task,152,1045341,0.0-46.0-5.0-0.0-1.0-8.0,,,,,,,,,,1.0,1.0,,,,5ede1eacaa5dd5034089e865,09:37:38,04/04/2024
,"<div style=""font-size: 10rem; color: #0000FF"">N</div>",,ospan,letter,5xuBLXk5ssfZuLxvYd0txgNJYsp2,html-keyboard-response,153,1046353,0.0-46.0-5.0-0.0-1.0-9.0,,,,,,,,,,,,,,,5ede1eacaa5dd5034089e865,09:37:38,04/04/2024
1540.0,,,ospan,symmetry,5xuBLXk5ssfZuLxvYd0txgNJYsp2,symmetry-judgement-task,154,1049987,0.0-46.0-5.0-0.0-1.0-10.0,,,,,,,,,,1.0,1.0,,,,5ede1eacaa5dd5034089e865,09:37:38,04/04/2024
,"<div style=""font-size: 10rem; color: #0000FF"">C</div>",,ospan,letter,5xuBLXk5ssfZuLxvYd0txgNJYsp2,html-keyboard-response,155,1050996,0.0-46.0-5.0-0.0-1.0-11.0,,,,,,,,,,,,,,,5ede1eacaa5dd5034089e865,09:37:38,04/04/2024
23360.099999904633,"<div class = numbox><p style=""font-size: 2.4rem"">Please recall the letters you saw to the best of your ability. If you do not remember a particular letter, use the SKIP button.<br><b>(When you are ready to lock in your answer, press ENTER)</b></p><button id = button_1 class = ""square num-button"" onclick = ""recordClick(this)""><div class = content><div class = numbers>C</div></div></button><button id = button_2 class = ""square num-button"" onclick = ""recordClick(this)""><div class = content><div class = numbers>G</div></div></button><button id = button_3 class = ""square num-button"" onclick = ""recordClick(this)""><div class = content><div class = numbers>H</div></div></button><button id = button_4 class = ""square num-button"" onclick = ""recordClick(this)""><div class = content><div class = numbers>J</div></div></button><button id = button_5 class = ""square num-button"" onclick = ""recordClick(this)""><div class = content><div class = numbers>K</div></div></button><button id = button_6 class = ""square num-button"" onclick = ""recordClick(this)""><div class = content><div class = numbers>L</div></div></button><button id = button_7 class = ""square num-button"" onclick = ""recordClick(this)""><div class = content><div class = numbers>N</div></div></button><button id = button_8 class = ""square num-button"" onclick = ""recordClick(this)""><div class = content><div class = numbers>P</div></div></button><button id = button_9 class = ""square num-button"" onclick = ""recordClick(this)""><div class = content><div class = numbers>Q</div></div></button><button id = button_10 class = ""square num-button"" onclick = ""recordClick(this)""><div class = content><div class = numbers>R</div></div></button><button id = button_11 class = ""square num-button"" onclick = ""recordClick(this)""><div class = content><div class = numbers>S</div></div></button><button id = button_12 class = ""square num-button"" onclick = ""recordClick(this)""><div class = content><div class = numbers>Y</div></div></button><button class = clear_button id = ""ClearButton"" onclick = ""clearResponse()"">BACKSPACE</button><button class = blank_button id = ""BlankButton"" onclick = ""blankResponse()"">SKIP</button><p style=""font-size: 2.4rem""><u><b>Current Answer:</b></u></p><br><br><div id=echoed_txt style=""font-size: 5rem; color:blue;""><b></b></div></div>",enter,ospan,retrieval,5xuBLXk5ssfZuLxvYd0txgNJYsp2,html-keyboard-response,156,1075126,0.0-46.0-5.0-0.0-2.0,21,18,15,6.0,"[""Q"",""H"",""C"",""N"",""S"",""C""]","[""Q"",""H"",""P"",""S"",""N"",""C""]",0.0,3.0,,,,,,,5ede1eacaa5dd5034089e865,09:37:38,04/04/2024
1034.8999999761581,[''],0,ospan,feedback,5xuBLXk5ssfZuLxvYd0txgNJYsp2,html-button-response,157,1076666,0.0-46.0-5.0-0.0-3.0,,,,,,,,,,,,100.0,0.0,,5ede1eacaa5dd5034089e865,09:37:38,04/04/2024
,"<p style=""font-size:75px;"">...</p>",,ospan,iti,5xuBLXk5ssfZuLxvYd0txgNJYsp2,html-keyboard-response,158,1077674,0.0-46.0-5.0-1.0-0.0,,,,,,,,,,,,,,,5ede1eacaa5dd5034089e865,09:37:38,04/04/2024
2636.0,,,ospan,symmetry,5xuBLXk5ssfZuLxvYd0txgNJYsp2,symmetry-judgement-task,159,1081633,0.0-46.0-5.0-1.0-1.0-0.0,,,,,,,,,,1.0,1.0,,,,5ede1eacaa5dd5034089e865,09:37:38,04/04/2024
,"<div style=""font-size: 10rem; color: #0000FF"">Y</div>",,ospan,letter,5xuBLXk5ssfZuLxvYd0txgNJYsp2,html-keyboard-response,160,1082647,0.0-46.0-5.0-1.0-1.0-1.0,,,,,,,,,,,,,,,5ede1eacaa5dd5034089e865,09:37:38,04/04/2024
1250.0,,,ospan,symmetry,5xuBLXk5ssfZuLxvYd0txgNJYsp2,symmetry-judgement-task,161,1085969,0.0-46.0-5.0-1.0-1.0-2.0,,,,,,,,,,1.0,1.0,,,,5ede1eacaa5dd5034089e865,09:37:38,04/04/2024
,"<div style=""font-size: 10rem; color: #0000FF"">S</div>",,ospan,letter,5xuBLXk5ssfZuLxvYd0txgNJYsp2,html-keyboard-response,162,1086982,0.0-46.0-5.0-1.0-1.0-3.0,,,,,,,,,,,,,,,5ede1eacaa5dd5034089e865,09:37:38,04/04/2024
1605.0,,,ospan,symmetry,5xuBLXk5ssfZuLxvYd0txgNJYsp2,symmetry-judgement-task,163,1090702,0.0-46.0-5.0-1.0-1.0-4.0,,,,,,,,,,1.0,1.0,,,,5ede1eacaa5dd5034089e865,09:37:38,04/04/2024
,"<div style=""font-size: 10rem; color: #0000FF"">J</div>",,ospan,letter,5xuBLXk5ssfZuLxvYd0txgNJYsp2,html-keyboard-response,164,1091707,0.0-46.0-5.0-1.0-1.0-5.0,,,,,,,,,,,,,,,5ede1eacaa5dd5034089e865,09:37:38,04/04/2024
1322.0,,,ospan,symmetry,5xuBLXk5ssfZuLxvYd0txgNJYsp2,symmetry-judgement-task,165,1095111,0.0-46.0-5.0-1.0-1.0-6.0,,,,,,,,,,1.0,1.0,,,,5ede1eacaa5dd5034089e865,09:37:38,04/04/2024
,"<div style=""font-size: 10rem; color: #0000FF"">C</div>",,ospan,letter,5xuBLXk5ssfZuLxvYd0txgNJYsp2,html-keyboard-response,166,1096126,0.0-46.0-5.0-1.0-1.0-7.0,,,,,,,,,,,,,,,5ede1eacaa5dd5034089e865,09:37:38,04/04/2024
2575.0,,,ospan,symmetry,5xuBLXk5ssfZuLxvYd0txgNJYsp2,symmetry-judgement-task,167,1100779,0.0-46.0-5.0-1.0-1.0-8.0,,,,,,,,,,1.0,1.0,,,,5ede1eacaa5dd5034089e865,09:37:38,04/04/2024
,"<div style=""font-size: 10rem; color: #0000FF"">Q</div>",,ospan,letter,5xuBLXk5ssfZuLxvYd0txgNJYsp2,html-keyboard-response,168,1101786,0.0-46.0-5.0-1.0-1.0-9.0,,,,,,,,,,,,,,,5ede1eacaa5dd5034089e865,09:37:38,04/04/2024
1971.0,,,ospan,symmetry,5xuBLXk5ssfZuLxvYd0txgNJYsp2,symmetry-judgement-task,169,1105854,0.0-46.0-5.0-1.0-1.0-10.0,,,,,,,,,,1.0,1.0,,,,5ede1eacaa5dd5034089e865,09:37:38,04/04/2024
,"<div style=""font-size: 10rem; color: #0000FF"">R</div>",,ospan,letter,5xuBLXk5ssfZuLxvYd0txgNJYsp2,html-keyboard-response,170,1106870,0.0-46.0-5.0-1.0-1.0-11.0,,,,,,,,,,,,,,,5ede1eacaa5dd5034089e865,09:37:38,04/04/2024
2657.0,,,ospan,symmetry,5xuBLXk5ssfZuLxvYd0txgNJYsp2,symmetry-judgement-task,171,1111584,0.0-46.0-5.0-1.0-1.0-12.0,,,,,,,,,,1.0,1.0,,,,5ede1eacaa5dd5034089e865,09:37:38,04/04/2024
,"<div style=""font-size: 10rem; color: #0000FF"">P</div>",,ospan,letter,5xuBLXk5ssfZuLxvYd0txgNJYsp2,html-keyboard-response,172,1112595,0.0-46.0-5.0-1.0-1.0-13.0,,,,,,,,,,,,,,,5ede1eacaa5dd5034089e865,09:37:38,04/04/2024
12890.200000047684,"<div class = numbox><p style=""font-size: 2.4rem"">Please recall the letters you saw to the best of your ability. If you do not remember a particular letter, use the SKIP button.<br><b>(When you are ready to lock in your answer, press ENTER)</b></p><button id = button_1 class = ""square num-button"" onclick = ""recordClick(this)""><div class = content><div class = numbers>C</div></div></button><button id = button_2 class = ""square num-button"" onclick = ""recordClick(this)""><div class = content><div class = numbers>G</div></div></button><button id = button_3 class = ""square num-button"" onclick = ""recordClick(this)""><div class = content><div class = numbers>H</div></div></button><button id = button_4 class = ""square num-button"" onclick = ""recordClick(this)""><div class = content><div class = numbers>J</div></div></button><button id = button_5 class = ""square num-button"" onclick = ""recordClick(this)""><div class = content><div class = numbers>K</div></div></button><button id = button_6 class = ""square num-button"" onclick = ""recordClick(this)""><div class = content><div class = numbers>L</div></div></button><button id = button_7 class = ""square num-button"" onclick = ""recordClick(this)""><div class = content><div class = numbers>N</div></div></button><button id = button_8 class = ""square num-button"" onclick = ""recordClick(this)""><div class = content><div class = numbers>P</div></div></button><button id = button_9 class = ""square num-button"" onclick = ""recordClick(this)""><div class = content><div class = numbers>Q</div></div></button><button id = button_10 class = ""square num-button"" onclick = ""recordClick(this)""><div class = content><div class = numbers>R</div></div></button><button id = button_11 class = ""square num-button"" onclick = ""recordClick(this)""><div class = content><div class = numbers>S</div></div></button><button id = button_12 class = ""square num-button"" onclick = ""recordClick(this)""><div class = content><div class = numbers>Y</div></div></button><button class = clear_button id = ""ClearButton"" onclick = ""clearResponse()"">BACKSPACE</button><button class = blank_button id = ""BlankButton"" onclick = ""blankResponse()"">SKIP</button><p style=""font-size: 2.4rem""><u><b>Current Answer:</b></u></p><br><br><div id=echoed_txt style=""font-size: 5rem; color:blue;""><b></b></div></div>",enter,ospan,retrieval,5xuBLXk5ssfZuLxvYd0txgNJYsp2,html-keyboard-response,173,1126254,0.0-46.0-5.0-1.0-2.0,28,22,15,7.0,"[""Y"",""J"",""C"",""S"",""Q"",""R"",""P""]","[""Y"",""S"",""J"",""C"",""Q"",""R"",""P""]",0.0,4.0,,,,,,,5ede1eacaa5dd5034089e865,09:37:38,04/04/2024
1048.0,[''],0,ospan,feedback,5xuBLXk5ssfZuLxvYd0txgNJYsp2,html-button-response,174,1127818,0.0-46.0-5.0-1.0-3.0,,,,,,,,,,,,100.0,0.0,,5ede1eacaa5dd5034089e865,09:37:38,04/04/2024
,"<p style=""font-size:75px;"">...</p>",,ospan,iti,5xuBLXk5ssfZuLxvYd0txgNJYsp2,html-keyboard-response,175,1128836,0.0-46.0-6.0-0.0-0.0,,,,,,,,,,,,,,,5ede1eacaa5dd5034089e865,09:37:38,04/04/2024
1584.0,,,ospan,symmetry,5xuBLXk5ssfZuLxvYd0txgNJYsp2,symmetry-judgement-task,176,1131556,0.0-46.0-6.0-0.0-1.0-0.0,,,,,,,,,,1.0,1.0,,,,5ede1eacaa5dd5034089e865,09:37:38,04/04/2024
,"<div style=""font-size: 10rem; color: #0000FF"">R</div>",,ospan,letter,5xuBLXk5ssfZuLxvYd0txgNJYsp2,html-keyboard-response,177,1132567,0.0-46.0-6.0-0.0-1.0-1.0,,,,,,,,,,,,,,,5ede1eacaa5dd5034089e865,09:37:38,04/04/2024
1344.0,,,ospan,symmetry,5xuBLXk5ssfZuLxvYd0txgNJYsp2,symmetry-judgement-task,178,1136014,0.0-46.0-6.0-0.0-1.0-2.0,,,,,,,,,,1.0,1.0,,,,5ede1eacaa5dd5034089e865,09:37:38,04/04/2024
,"<div style=""font-size: 10rem; color: #0000FF"">L</div>",,ospan,letter,5xuBLXk5ssfZuLxvYd0txgNJYsp2,html-keyboard-response,179,1137027,0.0-46.0-6.0-0.0-1.0-3.0,,,,,,,,,,,,,,,5ede1eacaa5dd5034089e865,09:37:38,04/04/2024
2207.0,,,ospan,symmetry,5xuBLXk5ssfZuLxvYd0txgNJYsp2,symmetry-judgement-task,180,1141310,0.0-46.0-6.0-0.0-1.0-4.0,,,,,,,,,,1.0,1.0,,,,5ede1eacaa5dd5034089e865,09:37:38,04/04/2024
,"<div style=""font-size: 10rem; color: #0000FF"">K</div>",,ospan,letter,5xuBLXk5ssfZuLxvYd0txgNJYsp2,html-keyboard-response,181,1142321,0.0-46.0-6.0-0.0-1.0-5.0,,,,,,,,,,,,,,,5ede1eacaa5dd5034089e865,09:37:38,04/04/2024
1435.0,,,ospan,symmetry,5xuBLXk5ssfZuLxvYd0txgNJYsp2,symmetry-judgement-task,182,1145837,0.0-46.0-6.0-0.0-1.0-6.0,,,,,,,,,,1.0,1.0,,,,5ede1eacaa5dd5034089e865,09:37:38,04/04/2024
,"<div style=""font-size: 10rem; color: #0000FF"">Q</div>",,ospan,letter,5xuBLXk5ssfZuLxvYd0txgNJYsp2,html-keyboard-response,183,1146849,0.0-46.0-6.0-0.0-1.0-7.0,,,,,,,,,,,,,,,5ede1eacaa5dd5034089e865,09:37:38,04/04/2024
1398.0,,,ospan,symmetry,5xuBLXk5ssfZuLxvYd0txgNJYsp2,symmetry-judgement-task,184,1150371,0.0-46.0-6.0-0.0-1.0-8.0,,,,,,,,,,1.0,1.0,,,,5ede1eacaa5dd5034089e865,09:37:38,04/04/2024
,"<div style=""font-size: 10rem; color: #0000FF"">P</div>",,ospan,letter,5xuBLXk5ssfZuLxvYd0txgNJYsp2,html-keyboard-response,185,1151387,0.0-46.0-6.0-0.0-1.0-9.0,,,,,,,,,,,,,,,5ede1eacaa5dd5034089e865,09:37:38,04/04/2024
7031.599999904633,"<div class = numbox><p style=""font-size: 2.4rem"">Please recall the letters you saw to the best of your ability. If you do not remember a particular letter, use the SKIP button.<br><b>(When you are ready to lock in your answer, press ENTER)</b></p><button id = button_1 class = ""square num-button"" onclick = ""recordClick(this)""><div class = content><div class = numbers>C</div></div></button><button id = button_2 class = ""square num-button"" onclick = ""recordClick(this)""><div class = content><div class = numbers>G</div></div></button><button id = button_3 class = ""square num-button"" onclick = ""recordClick(this)""><div class = content><div class = numbers>H</div></div></button><button id = button_4 class = ""square num-button"" onclick = ""recordClick(this)""><div class = content><div class = numbers>J</div></div></button><button id = button_5 class = ""square num-button"" onclick = ""recordClick(this)""><div class = content><div class = numbers>K</div></div></button><button id = button_6 class = ""square num-button"" onclick = ""recordClick(this)""><div class = content><div class = numbers>L</div></div></button><button id = button_7 class = ""square num-button"" onclick = ""recordClick(this)""><div class = content><div class = numbers>N</div></div></button><button id = button_8 class = ""square num-button"" onclick = ""recordClick(this)""><div class = content><div class = numbers>P</div></div></button><button id = button_9 class = ""square num-button"" onclick = ""recordClick(this)""><div class = content><div class = numbers>Q</div></div></button><button id = button_10 class = ""square num-button"" onclick = ""recordClick(this)""><div class = content><div class = numbers>R</div></div></button><button id = button_11 class = ""square num-button"" onclick = ""recordClick(this)""><div class = content><div class = numbers>S</div></div></button><button id = button_12 class = ""square num-button"" onclick = ""recordClick(this)""><div class = content><div class = numbers>Y</div></div></button><button class = clear_button id = ""ClearButton"" onclick = ""clearResponse()"">BACKSPACE</button><button class = blank_button id = ""BlankButton"" onclick = ""blankResponse()"">SKIP</button><p style=""font-size: 2.4rem""><u><b>Current Answer:</b></u></p><br><br><div id=echoed_txt style=""font-size: 5rem; color:blue;""><b></b></div></div>",enter,ospan,retrieval,5xuBLXk5ssfZuLxvYd0txgNJYsp2,html-keyboard-response,186,1159185,0.0-46.0-6.0-0.0-2.0,33,27,20,5.0,"[""R"",""L"",""K"",""Q"",""P""]","[""R"",""L"",""K"",""Q"",""P""]",1.0,5.0,,,,,,,5ede1eacaa5dd5034089e865,09:37:38,04/04/2024
1016.4000000953674,[''],0,ospan,feedback,5xuBLXk5ssfZuLxvYd0txgNJYsp2,html-button-response,187,1160712,0.0-46.0-6.0-0.0-3.0,,,,,,,,,,,,100.0,0.0,,5ede1eacaa5dd5034089e865,09:37:38,04/04/2024
,"<p style=""font-size:75px;"">...</p>",,ospan,iti,5xuBLXk5ssfZuLxvYd0txgNJYsp2,html-keyboard-response,188,1161729,0.0-46.0-6.0-1.0-0.0,,,,,,,,,,,,,,,5ede1eacaa5dd5034089e865,09:37:38,04/04/2024
2205.0,,,ospan,symmetry,5xuBLXk5ssfZuLxvYd0txgNJYsp2,symmetry-judgement-task,189,1165273,0.0-46.0-6.0-1.0-1.0-0.0,,,,,,,,,,1.0,1.0,,,,5ede1eacaa5dd5034089e865,09:37:38,04/04/2024
,"<div style=""font-size: 10rem; color: #0000FF"">N</div>",,ospan,letter,5xuBLXk5ssfZuLxvYd0txgNJYsp2,html-keyboard-response,190,1166286,0.0-46.0-6.0-1.0-1.0-1.0,,,,,,,,,,,,,,,5ede1eacaa5dd5034089e865,09:37:38,04/04/2024
2333.0,,,ospan,symmetry,5xuBLXk5ssfZuLxvYd0txgNJYsp2,symmetry-judgement-task,191,1170680,0.0-46.0-6.0-1.0-1.0-2.0,,,,,,,,,,1.0,1.0,,,,5ede1eacaa5dd5034089e865,09:37:38,04/04/2024
,"<div style=""font-size: 10rem; color: #0000FF"">G</div>",,ospan,letter,5xuBLXk5ssfZuLxvYd0txgNJYsp2,html-keyboard-response,192,1171690,0.0-46.0-6.0-1.0-1.0-3.0,,,,,,,,,,,,,,,5ede1eacaa5dd5034089e865,09:37:38,04/04/2024
1176.0,,,ospan,symmetry,5xuBLXk5ssfZuLxvYd0txgNJYsp2,symmetry-judgement-task,193,1175005,0.0-46.0-6.0-1.0-1.0-4.0,,,,,,,,,,1.0,1.0,,,,5ede1eacaa5dd5034089e865,09:37:38,04/04/2024
,"<div style=""font-size: 10rem; color: #0000FF"">J</div>",,ospan,letter,5xuBLXk5ssfZuLxvYd0txgNJYsp2,html-keyboard-response,194,1176019,0.0-46.0-6.0-1.0-1.0-5.0,,,,,,,,,,,,,,,5ede1eacaa5dd5034089e865,09:37:38,04/04/2024
1153.0,,,ospan,symmetry,5xuBLXk5ssfZuLxvYd0txgNJYsp2,symmetry-judgement-task,195,1179299,0.0-46.0-6.0-1.0-1.0-6.0,,,,,,,,,,1.0,1.0,,,,5ede1eacaa5dd5034089e865,09:37:38,04/04/2024
,"<div style=""font-size: 10rem; color: #0000FF"">S</div>",,ospan,letter,5xuBLXk5ssfZuLxvYd0txgNJYsp2,html-keyboard-response,196,1180314,0.0-46.0-6.0-1.0-1.0-7.0,,,,,,,,,,,,,,,5ede1eacaa5dd5034089e865,09:37:38,04/04/2024
2321.0,,,ospan,symmetry,5xuBLXk5ssfZuLxvYd0txgNJYsp2,symmetry-judgement-task,197,1184717,0.0-46.0-6.0-1.0-1.0-8.0,,,,,,,,,,1.0,1.0,,,,5ede1eacaa5dd5034089e865,09:37:38,04/04/2024
,"<div style=""font-size: 10rem; color: #0000FF"">Y</div>",,ospan,letter,5xuBLXk5ssfZuLxvYd0txgNJYsp2,html-keyboard-response,198,1185729,0.0-46.0-6.0-1.0-1.0-9.0,,,,,,,,,,,,,,,5ede1eacaa5dd5034089e865,09:37:38,04/04/2024
1363.0,,,ospan,symmetry,5xuBLXk5ssfZuLxvYd0txgNJYsp2,symmetry-judgement-task,199,1189202,0.0-46.0-6.0-1.0-1.0-10.0,,,,,,,,,,1.0,1.0,,,,5ede1eacaa5dd5034089e865,09:37:38,04/04/2024
,"<div style=""font-size: 10rem; color: #0000FF"">H</div>",,ospan,letter,5xuBLXk5ssfZuLxvYd0txgNJYsp2,html-keyboard-response,200,1190213,0.0-46.0-6.0-1.0-1.0-11.0,,,,,,,,,,,,,,,5ede1eacaa5dd5034089e865,09:37:38,04/04/2024
1478.0,,,ospan,symmetry,5xuBLXk5ssfZuLxvYd0txgNJYsp2,symmetry-judgement-task,201,1193822,0.0-46.0-6.0-1.0-1.0-12.0,,,,,,,,,,1.0,1.0,,,,5ede1eacaa5dd5034089e865,09:37:38,04/04/2024
,"<div style=""font-size: 10rem; color: #0000FF"">P</div>",,ospan,letter,5xuBLXk5ssfZuLxvYd0txgNJYsp2,html-keyboard-response,202,1194836,0.0-46.0-6.0-1.0-1.0-13.0,,,,,,,,,,,,,,,5ede1eacaa5dd5034089e865,09:37:38,04/04/2024
1840.0,,,ospan,symmetry,5xuBLXk5ssfZuLxvYd0txgNJYsp2,symmetry-judgement-task,203,1198782,0.0-46.0-6.0-1.0-1.0-14.0,,,,,,,,,,1.0,1.0,,,,5ede1eacaa5dd5034089e865,09:37:38,04/04/2024
,"<div style=""font-size: 10rem; color: #0000FF"">K</div>",,ospan,letter,5xuBLXk5ssfZuLxvYd0txgNJYsp2,html-keyboard-response,204,1199788,0.0-46.0-6.0-1.0-1.0-15.0,,,,,,,,,,,,,,,5ede1eacaa5dd5034089e865,09:37:38,04/04/2024
21345.899999976158,"<div class = numbox><p style=""font-size: 2.4rem"">Please recall the letters you saw to the best of your ability. If you do not remember a particular letter, use the SKIP button.<br><b>(When you are ready to lock in your answer, press ENTER)</b></p><button id = button_1 class = ""square num-button"" onclick = ""recordClick(this)""><div class = content><div class = numbers>C</div></div></button><button id = button_2 class = ""square num-button"" onclick = ""recordClick(this)""><div class = content><div class = numbers>G</div></div></button><button id = button_3 class = ""square num-button"" onclick = ""recordClick(this)""><div class = content><div class = numbers>H</div></div></button><button id = button_4 class = ""square num-button"" onclick = ""recordClick(this)""><div class = content><div class = numbers>J</div></div></button><button id = button_5 class = ""square num-button"" onclick = ""recordClick(this)""><div class = content><div class = numbers>K</div></div></button><button id = button_6 class = ""square num-button"" onclick = ""recordClick(this)""><div class = content><div class = numbers>L</div></div></button><button id = button_7 class = ""square num-button"" onclick = ""recordClick(this)""><div class = content><div class = numbers>N</div></div></button><button id = button_8 class = ""square num-button"" onclick = ""recordClick(this)""><div class = content><div class = numbers>P</div></div></button><button id = button_9 class = ""square num-button"" onclick = ""recordClick(this)""><div class = content><div class = numbers>Q</div></div></button><button id = button_10 class = ""square num-button"" onclick = ""recordClick(this)""><div class = content><div class = numbers>R</div></div></button><button id = button_11 class = ""square num-button"" onclick = ""recordClick(this)""><div class = content><div class = numbers>S</div></div></button><button id = button_12 class = ""square num-button"" onclick = ""recordClick(this)""><div class = content><div class = numbers>Y</div></div></button><button class = clear_button id = ""ClearButton"" onclick = ""clearResponse()"">BACKSPACE</button><button class = blank_button id = ""BlankButton"" onclick = ""blankResponse()"">SKIP</button><p style=""font-size: 2.4rem""><u><b>Current Answer:</b></u></p><br><br><div id=echoed_txt style=""font-size: 5rem; color:blue;""><b></b></div></div>",enter,ospan,retrieval,5xuBLXk5ssfZuLxvYd0txgNJYsp2,html-keyboard-response,205,1221899,0.0-46.0-6.0-1.0-2.0,41,32,20,8.0,"[""N"",""G"",""J"",""S"",""N"",""Q"",""P""]","[""N"",""G"",""J"",""S"",""Y"",""H"",""P"",""K""]",0.0,5.0,,,,,,,5ede1eacaa5dd5034089e865,09:37:38,04/04/2024
1005.2999999523163,[''],0,ospan,feedback,5xuBLXk5ssfZuLxvYd0txgNJYsp2,html-button-response,206,1223420,0.0-46.0-6.0-1.0-3.0,,,,,,,,,,,,100.0,0.0,,5ede1eacaa5dd5034089e865,09:37:38,04/04/2024
15948.399999976158,,{'Q0': 'it was hard to remember the order of the letters'},ospan,survey_ospan,5xuBLXk5ssfZuLxvYd0txgNJYsp2,lmdlab-survey-text,207,1240130,0.0-46.0-7.0,,,,,,,,,,,,,,5xuBLXk5ssfZuLxvYd0txgNJYsp2,5ede1eacaa5dd5034089e865,09:37:38,04/04/2024
1894.3000000715256,<p><p style='font-size: 3rem'>Great work!<br><br>This completes the symmetry and memory task.</p><br><br><br>,0,ospan,finish,5xuBLXk5ssfZuLxvYd0txgNJYsp2,html-button-response,208,1242031,0.0-46.0-8.0,41,32,20,,,,,,,,,100.0,,,5ede1eacaa5dd5034089e865,09:37:38,04/04/2024
