rt,stimulus,response,exp_name,exp_stage,subjectID,trial_type,trial_index,time_elapsed,internal_node_id,ospan_shown,ospan_total,ospan_abs,length,resp_actual,resp_correct,full_correct,num_correct,feedback,accuracy,correct,math_acc,math_warning,databaseID,prolificID,start_time,date
2343.5,<div class = 'left_align' style='font-size: 3.25rem; line-height: 1.3;'><p class = 'center_align'><b>Welcome to the Symmetry and Memory Task</b><br><br><br><br></p>Press 'continue' to show the instructions.<br><br><br><br></div>,0,ospan,instruct,2fjnPA8JtQXy0kNKNMqttBW48cb2,html-button-response,51,639442,0.0-43.0-0.0-0.0-0.0,,,,,,,,,,,,,,,6543af72769aacc0bf14521e,17:30:52,06/03/2024
8352.5,"<div class = 'left_align' style='font-size: 3.25rem; line-height: 1.3;'><p class = 'center_align'><b>Symmetry and Memory Task</b><br><br></p>In this task, you will try to memorize letters you see on the screen<br>while you also view black and white grid pictures.<br><br>In the next few minutes, you will have some practice to get you familiar<br>with how the task works.<br><br>It may be difficult sometimes, but please do not worry about making mistakes!<br><br>We will begin by practicing the letter part of the task.<br><br><br><br></div>",0,ospan,instruct,2fjnPA8JtQXy0kNKNMqttBW48cb2,html-button-response,52,648057,0.0-43.0-0.0-0.0-1.0,,,,,,,,,,,,,,,6543af72769aacc0bf14521e,17:30:52,06/03/2024
9281.599999904633,"<div class = 'left_align' style='font-size: 3.25rem; line-height: 1.3;'>For this practice part, letters will appear on the screen one at a time.<br><br>Try to remember each letter in the order presented.<br><br>After some letters have been shown, you will see a response screen. Your<br>goal is to report the letters you saw <b>in order</b>. If you do not remember<br>a particular letter, you will have the option to leave it blank.<br><br><br><br></div>",0,ospan,instruct,2fjnPA8JtQXy0kNKNMqttBW48cb2,html-button-response,53,657601,0.0-43.0-0.0-0.0-2.0,,,,,,,,,,,,,,,6543af72769aacc0bf14521e,17:30:52,06/03/2024
6757.799999952316,"<div class = 'left_align' style='font-size: 3.25rem; line-height: 1.3;'>Remember, it is very important to get the letters in the same<br>order as you see them.<br><br>When you are ready, you may begin the letter practice.</div><br><br><br><br>",0,ospan,instruct,2fjnPA8JtQXy0kNKNMqttBW48cb2,html-button-response,54,664622,0.0-43.0-0.0-0.0-3.0,,,,,,,,,,,,,,,6543af72769aacc0bf14521e,17:30:52,06/03/2024
,"<p style=""font-size:75px;"">...</p>",,ospan,iti,2fjnPA8JtQXy0kNKNMqttBW48cb2,html-keyboard-response,55,665899,0.0-43.0-0.0-1.0-0.0,,,,,,,,,,,,,,,6543af72769aacc0bf14521e,17:30:52,06/03/2024
,"<div style=""font-size: 10rem; color: #0000FF"">P</div>",,ospan,letter,2fjnPA8JtQXy0kNKNMqttBW48cb2,html-keyboard-response,56,666911,0.0-43.0-0.0-1.0-1.0,,,,,,,,,,,,,,,6543af72769aacc0bf14521e,17:30:52,06/03/2024
,"<div style=""font-size: 10rem; color: #0000FF"">S</div>",,ospan,letter,2fjnPA8JtQXy0kNKNMqttBW48cb2,html-keyboard-response,57,668675,0.0-43.0-0.0-1.0-2.0,,,,,,,,,,,,,,,6543af72769aacc0bf14521e,17:30:52,06/03/2024
11110.0,"<div class = numbox><p style=""font-size: 2.4rem"">Please recall the letters you saw to the best of your ability. If you do not remember a particular letter, use the SKIP button.<br><b>(When you are ready to lock in your answer, press ENTER)</b></p><button id = button_1 class = ""square num-button"" onclick = ""recordClick(this)""><div class = content><div class = numbers>C</div></div></button><button id = button_2 class = ""square num-button"" onclick = ""recordClick(this)""><div class = content><div class = numbers>G</div></div></button><button id = button_3 class = ""square num-button"" onclick = ""recordClick(this)""><div class = content><div class = numbers>H</div></div></button><button id = button_4 class = ""square num-button"" onclick = ""recordClick(this)""><div class = content><div class = numbers>J</div></div></button><button id = button_5 class = ""square num-button"" onclick = ""recordClick(this)""><div class = content><div class = numbers>K</div></div></button><button id = button_6 class = ""square num-button"" onclick = ""recordClick(this)""><div class = content><div class = numbers>L</div></div></button><button id = button_7 class = ""square num-button"" onclick = ""recordClick(this)""><div class = content><div class = numbers>N</div></div></button><button id = button_8 class = ""square num-button"" onclick = ""recordClick(this)""><div class = content><div class = numbers>P</div></div></button><button id = button_9 class = ""square num-button"" onclick = ""recordClick(this)""><div class = content><div class = numbers>Q</div></div></button><button id = button_10 class = ""square num-button"" onclick = ""recordClick(this)""><div class = content><div class = numbers>R</div></div></button><button id = button_11 class = ""square num-button"" onclick = ""recordClick(this)""><div class = content><div class = numbers>S</div></div></button><button id = button_12 class = ""square num-button"" onclick = ""recordClick(this)""><div class = content><div class = numbers>Y</div></div></button><button class = clear_button id = ""ClearButton"" onclick = ""clearResponse()"">BACKSPACE</button><button class = blank_button id = ""BlankButton"" onclick = ""blankResponse()"">SKIP</button><p style=""font-size: 2.4rem""><u><b>Current Answer:</b></u></p><br><br><div id=echoed_txt style=""font-size: 5rem; color:blue;""><b></b></div></div>",enter,ospan,retrieval,2fjnPA8JtQXy0kNKNMqttBW48cb2,html-keyboard-response,58,680537,0.0-43.0-0.0-1.0-3.0,NA,NA,NA,2.0,"[""P"",""S""]","[""P"",""S""]",1.0,2.0,"['<font color=""green"">P</font>', '<font color=""green"">S</font>']",,,,,,6543af72769aacc0bf14521e,17:30:52,06/03/2024
1933.7999999523163,"['<p style=""font-size:44px"">Letters:<br><br><br><font color=""green"">P</font> <font color=""green"">S</font></p><br><br>']",0,ospan,practice_feedback,2fjnPA8JtQXy0kNKNMqttBW48cb2,html-button-response,59,682984,0.0-43.0-0.0-1.0-4.0,,,,,,,,,,,,,,,6543af72769aacc0bf14521e,17:30:52,06/03/2024
,"<p style=""font-size:75px;"">...</p>",,ospan,iti,2fjnPA8JtQXy0kNKNMqttBW48cb2,html-keyboard-response,60,683998,0.0-43.0-0.0-2.0-0.0,,,,,,,,,,,,,,,6543af72769aacc0bf14521e,17:30:52,06/03/2024
,"<div style=""font-size: 10rem; color: #0000FF"">P</div>",,ospan,letter,2fjnPA8JtQXy0kNKNMqttBW48cb2,html-keyboard-response,61,685009,0.0-43.0-0.0-2.0-1.0,,,,,,,,,,,,,,,6543af72769aacc0bf14521e,17:30:52,06/03/2024
,"<div style=""font-size: 10rem; color: #0000FF"">Y</div>",,ospan,letter,2fjnPA8JtQXy0kNKNMqttBW48cb2,html-keyboard-response,62,686786,0.0-43.0-0.0-2.0-2.0,,,,,,,,,,,,,,,6543af72769aacc0bf14521e,17:30:52,06/03/2024
,"<div style=""font-size: 10rem; color: #0000FF"">K</div>",,ospan,letter,2fjnPA8JtQXy0kNKNMqttBW48cb2,html-keyboard-response,63,688554,0.0-43.0-0.0-2.0-3.0,,,,,,,,,,,,,,,6543af72769aacc0bf14521e,17:30:52,06/03/2024
6058.199999809265,"<div class = numbox><p style=""font-size: 2.4rem"">Please recall the letters you saw to the best of your ability. If you do not remember a particular letter, use the SKIP button.<br><b>(When you are ready to lock in your answer, press ENTER)</b></p><button id = button_1 class = ""square num-button"" onclick = ""recordClick(this)""><div class = content><div class = numbers>C</div></div></button><button id = button_2 class = ""square num-button"" onclick = ""recordClick(this)""><div class = content><div class = numbers>G</div></div></button><button id = button_3 class = ""square num-button"" onclick = ""recordClick(this)""><div class = content><div class = numbers>H</div></div></button><button id = button_4 class = ""square num-button"" onclick = ""recordClick(this)""><div class = content><div class = numbers>J</div></div></button><button id = button_5 class = ""square num-button"" onclick = ""recordClick(this)""><div class = content><div class = numbers>K</div></div></button><button id = button_6 class = ""square num-button"" onclick = ""recordClick(this)""><div class = content><div class = numbers>L</div></div></button><button id = button_7 class = ""square num-button"" onclick = ""recordClick(this)""><div class = content><div class = numbers>N</div></div></button><button id = button_8 class = ""square num-button"" onclick = ""recordClick(this)""><div class = content><div class = numbers>P</div></div></button><button id = button_9 class = ""square num-button"" onclick = ""recordClick(this)""><div class = content><div class = numbers>Q</div></div></button><button id = button_10 class = ""square num-button"" onclick = ""recordClick(this)""><div class = content><div class = numbers>R</div></div></button><button id = button_11 class = ""square num-button"" onclick = ""recordClick(this)""><div class = content><div class = numbers>S</div></div></button><button id = button_12 class = ""square num-button"" onclick = ""recordClick(this)""><div class = content><div class = numbers>Y</div></div></button><button class = clear_button id = ""ClearButton"" onclick = ""clearResponse()"">BACKSPACE</button><button class = blank_button id = ""BlankButton"" onclick = ""blankResponse()"">SKIP</button><p style=""font-size: 2.4rem""><u><b>Current Answer:</b></u></p><br><br><div id=echoed_txt style=""font-size: 5rem; color:blue;""><b></b></div></div>",enter,ospan,retrieval,2fjnPA8JtQXy0kNKNMqttBW48cb2,html-keyboard-response,64,695377,0.0-43.0-0.0-2.0-4.0,NA,NA,NA,3.0,"[""P"",""Y"",""K""]","[""P"",""Y"",""K""]",1.0,3.0,"['<font color=""green"">P</font>', '<font color=""green"">Y</font>', '<font color=""green"">K</font>']",,,,,,6543af72769aacc0bf14521e,17:30:52,06/03/2024
1524.5,"['<p style=""font-size:44px"">Letters:<br><br><br><font color=""green"">P</font> <font color=""green"">Y</font> <font color=""green"">K</font></p><br><br>']",0,ospan,practice_feedback,2fjnPA8JtQXy0kNKNMqttBW48cb2,html-button-response,65,697405,0.0-43.0-0.0-2.0-5.0,,,,,,,,,,,,,,,6543af72769aacc0bf14521e,17:30:52,06/03/2024
16064.400000095367,"<div class = 'left_align' style='font-size: 3.25rem; line-height: 1.3;'>Now you will practice doing the <b>symmetry judgment part</b> of the experiment.<br><br>A black and white grid picture will appear on the screen and you have to judge if it is <br>symmetrical or asymetrical.<br><br>A picture is 'mirror' symmetrical if its left half is identical to the right half when flipped.<br>Here are examples of a symmetrical and an asymetrical picture:<br><br><center><img src='Stimuli/img/symm_instructions_extra.png' style='height:420px; width:900'></img></center><br>To judge symmetry, imagine you were to fold each picture down the middle, like a book –<br>would the left half match the right half when folded onto each other?<br><br></div><br>",0,ospan,instruct,2fjnPA8JtQXy0kNKNMqttBW48cb2,html-button-response,66,713471,0.0-43.0-1.0-0.0-0.0,,,,,,,,,,,,,,,6543af72769aacc0bf14521e,17:30:52,06/03/2024
4771.099999904633,"<div class = 'left_align' style='font-size: 3.25rem; line-height: 1.3;'>When you have viewed the picture and determined whether it is symmetrical or not,<br>you can <b>click the Yes or No button</b> below to answer.<br><br>If you take longer than 15 seconds, it will continue automatically<br>and record the answer as an error.</div><br>",0,ospan,instruct,2fjnPA8JtQXy0kNKNMqttBW48cb2,html-button-response,67,718494,0.0-43.0-1.0-0.0-1.0,,,,,,,,,,,,,,,6543af72769aacc0bf14521e,17:30:52,06/03/2024
4047.0,"<div class = 'left_align' style='font-size: 3.25rem; line-height: 1.3;'>It is <b>very</b> important that you make the symmetry judgment correctly.<br><br>It is also important that you try and judge the picture as quickly as you can.<br><br>When you are ready, click on the button below to try some practice problems.</div><br><br><br><br>",0,ospan,instruct,2fjnPA8JtQXy0kNKNMqttBW48cb2,html-button-response,68,722801,0.0-43.0-1.0-0.0-2.0,,,,,,,,,,,,,,,6543af72769aacc0bf14521e,17:30:52,06/03/2024
1959.0,,,ospan,symmetry,2fjnPA8JtQXy0kNKNMqttBW48cb2,symmetry-judgement-task,69,725559,0.0-43.0-1.0-1.0-0.0,,,,,,,,,,1.0,1.0,,,,6543af72769aacc0bf14521e,17:30:52,06/03/2024
,"<p style=""color:green; font-size: 35px"">Correct</p>",,ospan,feedback,2fjnPA8JtQXy0kNKNMqttBW48cb2,html-keyboard-response,70,726322,0.0-43.0-1.0-1.0-1.0,,,,,,,,,,,,,,,6543af72769aacc0bf14521e,17:30:52,06/03/2024
2004.0,,,ospan,symmetry,2fjnPA8JtQXy0kNKNMqttBW48cb2,symmetry-judgement-task,71,730942,0.0-43.0-1.0-1.0-2.0,,,,,,,,,,1.0,1.0,,,,6543af72769aacc0bf14521e,17:30:52,06/03/2024
,"<p style=""color:green; font-size: 35px"">Correct</p>",,ospan,feedback,2fjnPA8JtQXy0kNKNMqttBW48cb2,html-keyboard-response,72,731701,0.0-43.0-1.0-1.0-3.0,,,,,,,,,,,,,,,6543af72769aacc0bf14521e,17:30:52,06/03/2024
1052.0,,,ospan,symmetry,2fjnPA8JtQXy0kNKNMqttBW48cb2,symmetry-judgement-task,73,735384,0.0-43.0-1.0-1.0-4.0,,,,,,,,,,1.0,1.0,,,,6543af72769aacc0bf14521e,17:30:52,06/03/2024
,"<p style=""color:green; font-size: 35px"">Correct</p>",,ospan,feedback,2fjnPA8JtQXy0kNKNMqttBW48cb2,html-keyboard-response,74,736145,0.0-43.0-1.0-1.0-5.0,,,,,,,,,,,,,,,6543af72769aacc0bf14521e,17:30:52,06/03/2024
1207.2000000476837,"<p style=""font-size: 3rem;"">You responded correctly on 3 of 3 symmetry judgments. Good job!</p><br><br>",0,ospan,practice,2fjnPA8JtQXy0kNKNMqttBW48cb2,html-button-response,75,739359,0.0-43.0-1.0-2.0,,,,,,,,,,,,,,,6543af72769aacc0bf14521e,17:30:52,06/03/2024
8308.400000095367,"<div class = 'left_align' style='font-size: 3.25rem; line-height: 1.3;'>Now you will practice doing both parts of the experiment at the same time.<br><br>In the next practice set, you will be given one grid picture to judge.<br>Then letter will appear on the screen. Try to remember the letter.<br><br>It is <b>very important</b> to make the symmetry judgment as quickly and accurately as possible.<br><br>Just as before, once you have make the symmetry judgment, you can click Yes or No.<br><b>Note that you will no longer see Correct or Incorrect feedback.</div><br><br><br><br>",0,ospan,instruct,2fjnPA8JtQXy0kNKNMqttBW48cb2,html-button-response,76,747922,0.0-43.0-2.0-0.0-0.0,,,,,,,,,,,,,,,6543af72769aacc0bf14521e,17:30:52,06/03/2024
7188.5,"<div class = 'left_align' style='font-size: 3.25rem; line-height: 1.3;'>After the letter goes away, another grid picture will appear, and then<br>another letter.<br><br>At the end of each set of letters and grids, you will recall the letters to the best<br>of your ability. Remember, try your best to get the letters in the correct order.<br><br>It is important to <b>quickly</b> and <b>accurately</b> make the symmetry judgments.</div><br><br><br><br>",0,ospan,instruct,2fjnPA8JtQXy0kNKNMqttBW48cb2,html-button-response,77,755373,0.0-43.0-2.0-0.0-1.0,,,,,,,,,,,,,,,6543af72769aacc0bf14521e,17:30:52,06/03/2024
15794.899999856949,"<div class = 'left_align' style='font-size: 3.25rem; line-height: 1.3;'>On the feedback screen, if you are not doing well at the symmetry judgments,<br>you will also see a warning in the middle. This indicates your percent <br>correct for the grid pictures for the entire experiment.<br><br>It is <b>very</b> important for you to keep accuracy at least at 85%: <u>We can only use<br>data where the participant was at least 85% accurate on the judgments.</u> Therefore,<br> please try your best to perform well on the symmetry judgments, <b>at the same time</b><br>doing your best to recall as many letters as possible.<br><br>Click the button to try some practice problems.</div><br><br><br><br>",0,ospan,instruct,2fjnPA8JtQXy0kNKNMqttBW48cb2,html-button-response,78,771431,0.0-43.0-2.0-0.0-2.0,,,,,,,,,,,,,,,6543af72769aacc0bf14521e,17:30:52,06/03/2024
,"<p style=""font-size:75px;"">...</p>",,ospan,iti,2fjnPA8JtQXy0kNKNMqttBW48cb2,html-keyboard-response,79,772704,0.0-43.0-2.0-1.0-0.0,,,,,,,,,,,,,,,6543af72769aacc0bf14521e,17:30:52,06/03/2024
1385.0,,,ospan,symmetry,2fjnPA8JtQXy0kNKNMqttBW48cb2,symmetry-judgement-task,80,775205,0.0-43.0-2.0-1.0-1.0-0.0,,,,,,,,,,1.0,1.0,,,,6543af72769aacc0bf14521e,17:30:52,06/03/2024
,"<div style=""font-size: 10rem; color: #0000FF"">S</div>",,ospan,letter,2fjnPA8JtQXy0kNKNMqttBW48cb2,html-keyboard-response,81,776216,0.0-43.0-2.0-1.0-1.0-1.0,,,,,,,,,,,,,,,6543af72769aacc0bf14521e,17:30:52,06/03/2024
1484.0,,,ospan,symmetry,2fjnPA8JtQXy0kNKNMqttBW48cb2,symmetry-judgement-task,82,779590,0.0-43.0-2.0-1.0-1.0-2.0,,,,,,,,,,1.0,1.0,,,,6543af72769aacc0bf14521e,17:30:52,06/03/2024
,"<div style=""font-size: 10rem; color: #0000FF"">C</div>",,ospan,letter,2fjnPA8JtQXy0kNKNMqttBW48cb2,html-keyboard-response,83,780601,0.0-43.0-2.0-1.0-1.0-3.0,,,,,,,,,,,,,,,6543af72769aacc0bf14521e,17:30:52,06/03/2024
1606.0,,,ospan,symmetry,2fjnPA8JtQXy0kNKNMqttBW48cb2,symmetry-judgement-task,84,784087,0.0-43.0-2.0-1.0-1.0-4.0,,,,,,,,,,1.0,1.0,,,,6543af72769aacc0bf14521e,17:30:52,06/03/2024
,"<div style=""font-size: 10rem; color: #0000FF"">G</div>",,ospan,letter,2fjnPA8JtQXy0kNKNMqttBW48cb2,html-keyboard-response,85,785100,0.0-43.0-2.0-1.0-1.0-5.0,,,,,,,,,,,,,,,6543af72769aacc0bf14521e,17:30:52,06/03/2024
4351.900000095367,"<div class = numbox><p style=""font-size: 2.4rem"">Please recall the letters you saw to the best of your ability. If you do not remember a particular letter, use the SKIP button.<br><b>(When you are ready to lock in your answer, press ENTER)</b></p><button id = button_1 class = ""square num-button"" onclick = ""recordClick(this)""><div class = content><div class = numbers>C</div></div></button><button id = button_2 class = ""square num-button"" onclick = ""recordClick(this)""><div class = content><div class = numbers>G</div></div></button><button id = button_3 class = ""square num-button"" onclick = ""recordClick(this)""><div class = content><div class = numbers>H</div></div></button><button id = button_4 class = ""square num-button"" onclick = ""recordClick(this)""><div class = content><div class = numbers>J</div></div></button><button id = button_5 class = ""square num-button"" onclick = ""recordClick(this)""><div class = content><div class = numbers>K</div></div></button><button id = button_6 class = ""square num-button"" onclick = ""recordClick(this)""><div class = content><div class = numbers>L</div></div></button><button id = button_7 class = ""square num-button"" onclick = ""recordClick(this)""><div class = content><div class = numbers>N</div></div></button><button id = button_8 class = ""square num-button"" onclick = ""recordClick(this)""><div class = content><div class = numbers>P</div></div></button><button id = button_9 class = ""square num-button"" onclick = ""recordClick(this)""><div class = content><div class = numbers>Q</div></div></button><button id = button_10 class = ""square num-button"" onclick = ""recordClick(this)""><div class = content><div class = numbers>R</div></div></button><button id = button_11 class = ""square num-button"" onclick = ""recordClick(this)""><div class = content><div class = numbers>S</div></div></button><button id = button_12 class = ""square num-button"" onclick = ""recordClick(this)""><div class = content><div class = numbers>Y</div></div></button><button class = clear_button id = ""ClearButton"" onclick = ""clearResponse()"">BACKSPACE</button><button class = blank_button id = ""BlankButton"" onclick = ""blankResponse()"">SKIP</button><p style=""font-size: 2.4rem""><u><b>Current Answer:</b></u></p><br><br><div id=echoed_txt style=""font-size: 5rem; color:blue;""><b></b></div></div>",enter,ospan,retrieval,2fjnPA8JtQXy0kNKNMqttBW48cb2,html-keyboard-response,86,790215,0.0-43.0-2.0-1.0-2.0-0.0,NA,NA,NA,3.0,"[""S"",""C"",""G""]","[""S"",""C"",""G""]",1.0,3.0,"['<font color=""green"">S</font>', '<font color=""green"">C</font>', '<font color=""green"">G</font>']",,,,,,6543af72769aacc0bf14521e,17:30:52,06/03/2024
1629.7999999523163,"['<p style=""font-size:44px"">Letters:<br><br><br><font color=""green"">S</font> <font color=""green"">C</font> <font color=""green"">G</font></p><br><br><p style=""font-size:30px"">Symmetry:<br><br><font color=""green"">100%</font></p><br><br>']",0,ospan,practice_feedback,2fjnPA8JtQXy0kNKNMqttBW48cb2,html-button-response,87,792357,0.0-43.0-2.0-1.0-2.0-1.0,,,,,,,,,,,,,,,6543af72769aacc0bf14521e,17:30:52,06/03/2024
,"<p style=""font-size:75px;"">...</p>",,ospan,iti,2fjnPA8JtQXy0kNKNMqttBW48cb2,html-keyboard-response,88,793367,0.0-43.0-2.0-2.0-0.0,,,,,,,,,,,,,,,6543af72769aacc0bf14521e,17:30:52,06/03/2024
1319.0,,,ospan,symmetry,2fjnPA8JtQXy0kNKNMqttBW48cb2,symmetry-judgement-task,89,795791,0.0-43.0-2.0-2.0-1.0-0.0,,,,,,,,,,1.0,1.0,,,,6543af72769aacc0bf14521e,17:30:52,06/03/2024
,"<div style=""font-size: 10rem; color: #0000FF"">S</div>",,ospan,letter,2fjnPA8JtQXy0kNKNMqttBW48cb2,html-keyboard-response,90,796799,0.0-43.0-2.0-2.0-1.0-1.0,,,,,,,,,,,,,,,6543af72769aacc0bf14521e,17:30:52,06/03/2024
2336.0,,,ospan,symmetry,2fjnPA8JtQXy0kNKNMqttBW48cb2,symmetry-judgement-task,91,801002,0.0-43.0-2.0-2.0-1.0-2.0,,,,,,,,,,1.0,1.0,,,,6543af72769aacc0bf14521e,17:30:52,06/03/2024
,"<div style=""font-size: 10rem; color: #0000FF"">N</div>",,ospan,letter,2fjnPA8JtQXy0kNKNMqttBW48cb2,html-keyboard-response,92,802011,0.0-43.0-2.0-2.0-1.0-3.0,,,,,,,,,,,,,,,6543af72769aacc0bf14521e,17:30:52,06/03/2024
1602.0,,,ospan,symmetry,2fjnPA8JtQXy0kNKNMqttBW48cb2,symmetry-judgement-task,93,805489,0.0-43.0-2.0-2.0-1.0-4.0,,,,,,,,,,1.0,1.0,,,,6543af72769aacc0bf14521e,17:30:52,06/03/2024
,"<div style=""font-size: 10rem; color: #0000FF"">L</div>",,ospan,letter,2fjnPA8JtQXy0kNKNMqttBW48cb2,html-keyboard-response,94,806501,0.0-43.0-2.0-2.0-1.0-5.0,,,,,,,,,,,,,,,6543af72769aacc0bf14521e,17:30:52,06/03/2024
4431.599999904633,"<div class = numbox><p style=""font-size: 2.4rem"">Please recall the letters you saw to the best of your ability. If you do not remember a particular letter, use the SKIP button.<br><b>(When you are ready to lock in your answer, press ENTER)</b></p><button id = button_1 class = ""square num-button"" onclick = ""recordClick(this)""><div class = content><div class = numbers>C</div></div></button><button id = button_2 class = ""square num-button"" onclick = ""recordClick(this)""><div class = content><div class = numbers>G</div></div></button><button id = button_3 class = ""square num-button"" onclick = ""recordClick(this)""><div class = content><div class = numbers>H</div></div></button><button id = button_4 class = ""square num-button"" onclick = ""recordClick(this)""><div class = content><div class = numbers>J</div></div></button><button id = button_5 class = ""square num-button"" onclick = ""recordClick(this)""><div class = content><div class = numbers>K</div></div></button><button id = button_6 class = ""square num-button"" onclick = ""recordClick(this)""><div class = content><div class = numbers>L</div></div></button><button id = button_7 class = ""square num-button"" onclick = ""recordClick(this)""><div class = content><div class = numbers>N</div></div></button><button id = button_8 class = ""square num-button"" onclick = ""recordClick(this)""><div class = content><div class = numbers>P</div></div></button><button id = button_9 class = ""square num-button"" onclick = ""recordClick(this)""><div class = content><div class = numbers>Q</div></div></button><button id = button_10 class = ""square num-button"" onclick = ""recordClick(this)""><div class = content><div class = numbers>R</div></div></button><button id = button_11 class = ""square num-button"" onclick = ""recordClick(this)""><div class = content><div class = numbers>S</div></div></button><button id = button_12 class = ""square num-button"" onclick = ""recordClick(this)""><div class = content><div class = numbers>Y</div></div></button><button class = clear_button id = ""ClearButton"" onclick = ""clearResponse()"">BACKSPACE</button><button class = blank_button id = ""BlankButton"" onclick = ""blankResponse()"">SKIP</button><p style=""font-size: 2.4rem""><u><b>Current Answer:</b></u></p><br><br><div id=echoed_txt style=""font-size: 5rem; color:blue;""><b></b></div></div>",enter,ospan,retrieval,2fjnPA8JtQXy0kNKNMqttBW48cb2,html-keyboard-response,95,811693,0.0-43.0-2.0-2.0-2.0-0.0,NA,NA,NA,3.0,"[""S"",""N"",""L""]","[""S"",""N"",""L""]",1.0,3.0,"['<font color=""green"">S</font>', '<font color=""green"">N</font>', '<font color=""green"">L</font>']",,,,,,6543af72769aacc0bf14521e,17:30:52,06/03/2024
1234.7999999523163,"['<p style=""font-size:44px"">Letters:<br><br><br><font color=""green"">S</font> <font color=""green"">N</font> <font color=""green"">L</font></p><br><br><p style=""font-size:30px"">Symmetry:<br><br><font color=""green"">100%</font></p><br><br>']",0,ospan,practice_feedback,2fjnPA8JtQXy0kNKNMqttBW48cb2,html-button-response,96,813439,0.0-43.0-2.0-2.0-2.0-1.0,,,,,,,,,,,,,,,6543af72769aacc0bf14521e,17:30:52,06/03/2024
23265.0,"<div class = 'left_align' style='font-size: 3rem; line-height: 1.3;'><b>Great work! That is the end of practice.</b><br><br>The real trials will look just like the practice trials you just completed.<br><br><u>Here, you will not see feedback</u>. First, you will see an grid picture to judge,<br>then a letter to remember. When the recall screen appears, report the letters in the<br>order presented. If you forget a letter, remember to use the <b>blank</b> button to move to the<br>next letter. Some of the sets will have more symmetry grids and letters than others.<br><br>It is important that you do your best on both the symmetry judgments and the letter recall<br>parts of the experiment. For for the symmetry judgments, try to work as <b>quickly</b> and <br>as <b>accurately</b> as possible. Remember to keep your symmetry accuracy at 85% or above.<br><br><b>For the letters, do NOT use any external aid (e.g., writing on paper, electronic device).</b><br><br>It is <u>very important</u> to our experiment to have a <b>true</b> view of your real performance.<br><br>Do not worry if you miss some when it gets hard! This task is meant to be very challenging!<br><br>Click the button to begin.</div><br><br><br><br>",0,ospan,starting_real_here,2fjnPA8JtQXy0kNKNMqttBW48cb2,html-button-response,97,836705,0.0-43.0-2.0-3.0,,,,,,,,,,,,,,,6543af72769aacc0bf14521e,17:30:52,06/03/2024
,"<p style=""font-size:75px;"">...</p>",,ospan,iti,2fjnPA8JtQXy0kNKNMqttBW48cb2,html-keyboard-response,98,837973,0.0-43.0-3.0-0.0-0.0,,,,,,,,,,,,,,,6543af72769aacc0bf14521e,17:30:52,06/03/2024
1732.0,,,ospan,symmetry,2fjnPA8JtQXy0kNKNMqttBW48cb2,symmetry-judgement-task,99,840736,0.0-43.0-3.0-0.0-1.0-0.0,,,,,,,,,,1.0,1.0,,,,6543af72769aacc0bf14521e,17:30:52,06/03/2024
,"<div style=""font-size: 10rem; color: #0000FF"">Y</div>",,ospan,letter,2fjnPA8JtQXy0kNKNMqttBW48cb2,html-keyboard-response,100,841746,0.0-43.0-3.0-0.0-1.0-1.0,,,,,,,,,,,,,,,6543af72769aacc0bf14521e,17:30:52,06/03/2024
1626.0,,,ospan,symmetry,2fjnPA8JtQXy0kNKNMqttBW48cb2,symmetry-judgement-task,101,845252,0.0-43.0-3.0-0.0-1.0-2.0,,,,,,,,,,1.0,1.0,,,,6543af72769aacc0bf14521e,17:30:52,06/03/2024
,"<div style=""font-size: 10rem; color: #0000FF"">G</div>",,ospan,letter,2fjnPA8JtQXy0kNKNMqttBW48cb2,html-keyboard-response,102,846260,0.0-43.0-3.0-0.0-1.0-3.0,,,,,,,,,,,,,,,6543af72769aacc0bf14521e,17:30:52,06/03/2024
1401.0,,,ospan,symmetry,2fjnPA8JtQXy0kNKNMqttBW48cb2,symmetry-judgement-task,103,849527,0.0-43.0-3.0-0.0-1.0-4.0,,,,,,,,,,1.0,1.0,,,,6543af72769aacc0bf14521e,17:30:52,06/03/2024
,"<div style=""font-size: 10rem; color: #0000FF"">J</div>",,ospan,letter,2fjnPA8JtQXy0kNKNMqttBW48cb2,html-keyboard-response,104,850538,0.0-43.0-3.0-0.0-1.0-5.0,,,,,,,,,,,,,,,6543af72769aacc0bf14521e,17:30:52,06/03/2024
5906.5,"<div class = numbox><p style=""font-size: 2.4rem"">Please recall the letters you saw to the best of your ability. If you do not remember a particular letter, use the SKIP button.<br><b>(When you are ready to lock in your answer, press ENTER)</b></p><button id = button_1 class = ""square num-button"" onclick = ""recordClick(this)""><div class = content><div class = numbers>C</div></div></button><button id = button_2 class = ""square num-button"" onclick = ""recordClick(this)""><div class = content><div class = numbers>G</div></div></button><button id = button_3 class = ""square num-button"" onclick = ""recordClick(this)""><div class = content><div class = numbers>H</div></div></button><button id = button_4 class = ""square num-button"" onclick = ""recordClick(this)""><div class = content><div class = numbers>J</div></div></button><button id = button_5 class = ""square num-button"" onclick = ""recordClick(this)""><div class = content><div class = numbers>K</div></div></button><button id = button_6 class = ""square num-button"" onclick = ""recordClick(this)""><div class = content><div class = numbers>L</div></div></button><button id = button_7 class = ""square num-button"" onclick = ""recordClick(this)""><div class = content><div class = numbers>N</div></div></button><button id = button_8 class = ""square num-button"" onclick = ""recordClick(this)""><div class = content><div class = numbers>P</div></div></button><button id = button_9 class = ""square num-button"" onclick = ""recordClick(this)""><div class = content><div class = numbers>Q</div></div></button><button id = button_10 class = ""square num-button"" onclick = ""recordClick(this)""><div class = content><div class = numbers>R</div></div></button><button id = button_11 class = ""square num-button"" onclick = ""recordClick(this)""><div class = content><div class = numbers>S</div></div></button><button id = button_12 class = ""square num-button"" onclick = ""recordClick(this)""><div class = content><div class = numbers>Y</div></div></button><button class = clear_button id = ""ClearButton"" onclick = ""clearResponse()"">BACKSPACE</button><button class = blank_button id = ""BlankButton"" onclick = ""blankResponse()"">SKIP</button><p style=""font-size: 2.4rem""><u><b>Current Answer:</b></u></p><br><br><div id=echoed_txt style=""font-size: 5rem; color:blue;""><b></b></div></div>",enter,ospan,retrieval,2fjnPA8JtQXy0kNKNMqttBW48cb2,html-keyboard-response,105,857205,0.0-43.0-3.0-0.0-2.0,3,3,3,3.0,"[""Y"",""G"",""J""]","[""Y"",""G"",""J""]",1.0,3.0,,,,,,,6543af72769aacc0bf14521e,17:30:52,06/03/2024
1412.7000000476837,[''],0,ospan,feedback,2fjnPA8JtQXy0kNKNMqttBW48cb2,html-button-response,106,859124,0.0-43.0-3.0-0.0-3.0,,,,,,,,,,,,100.0,0.0,,6543af72769aacc0bf14521e,17:30:52,06/03/2024
,"<p style=""font-size:75px;"">...</p>",,ospan,iti,2fjnPA8JtQXy0kNKNMqttBW48cb2,html-keyboard-response,107,860134,0.0-43.0-4.0-0.0-0.0,,,,,,,,,,,,,,,6543af72769aacc0bf14521e,17:30:52,06/03/2024
1789.0,,,ospan,symmetry,2fjnPA8JtQXy0kNKNMqttBW48cb2,symmetry-judgement-task,108,863044,0.0-43.0-4.0-0.0-1.0-0.0,,,,,,,,,,1.0,1.0,,,,6543af72769aacc0bf14521e,17:30:52,06/03/2024
,"<div style=""font-size: 10rem; color: #0000FF"">P</div>",,ospan,letter,2fjnPA8JtQXy0kNKNMqttBW48cb2,html-keyboard-response,109,864051,0.0-43.0-4.0-0.0-1.0-1.0,,,,,,,,,,,,,,,6543af72769aacc0bf14521e,17:30:52,06/03/2024
1577.0,,,ospan,symmetry,2fjnPA8JtQXy0kNKNMqttBW48cb2,symmetry-judgement-task,110,867504,0.0-43.0-4.0-0.0-1.0-2.0,,,,,,,,,,1.0,1.0,,,,6543af72769aacc0bf14521e,17:30:52,06/03/2024
,"<div style=""font-size: 10rem; color: #0000FF"">G</div>",,ospan,letter,2fjnPA8JtQXy0kNKNMqttBW48cb2,html-keyboard-response,111,868515,0.0-43.0-4.0-0.0-1.0-3.0,,,,,,,,,,,,,,,6543af72769aacc0bf14521e,17:30:52,06/03/2024
1125.0,,,ospan,symmetry,2fjnPA8JtQXy0kNKNMqttBW48cb2,symmetry-judgement-task,112,871512,0.0-43.0-4.0-0.0-1.0-4.0,,,,,,,,,,1.0,1.0,,,,6543af72769aacc0bf14521e,17:30:52,06/03/2024
,"<div style=""font-size: 10rem; color: #0000FF"">S</div>",,ospan,letter,2fjnPA8JtQXy0kNKNMqttBW48cb2,html-keyboard-response,113,872520,0.0-43.0-4.0-0.0-1.0-5.0,,,,,,,,,,,,,,,6543af72769aacc0bf14521e,17:30:52,06/03/2024
1769.0,,,ospan,symmetry,2fjnPA8JtQXy0kNKNMqttBW48cb2,symmetry-judgement-task,114,876162,0.0-43.0-4.0-0.0-1.0-6.0,,,,,,,,,,1.0,1.0,,,,6543af72769aacc0bf14521e,17:30:52,06/03/2024
,"<div style=""font-size: 10rem; color: #0000FF"">N</div>",,ospan,letter,2fjnPA8JtQXy0kNKNMqttBW48cb2,html-keyboard-response,115,877170,0.0-43.0-4.0-0.0-1.0-7.0,,,,,,,,,,,,,,,6543af72769aacc0bf14521e,17:30:52,06/03/2024
4975.599999904633,"<div class = numbox><p style=""font-size: 2.4rem"">Please recall the letters you saw to the best of your ability. If you do not remember a particular letter, use the SKIP button.<br><b>(When you are ready to lock in your answer, press ENTER)</b></p><button id = button_1 class = ""square num-button"" onclick = ""recordClick(this)""><div class = content><div class = numbers>C</div></div></button><button id = button_2 class = ""square num-button"" onclick = ""recordClick(this)""><div class = content><div class = numbers>G</div></div></button><button id = button_3 class = ""square num-button"" onclick = ""recordClick(this)""><div class = content><div class = numbers>H</div></div></button><button id = button_4 class = ""square num-button"" onclick = ""recordClick(this)""><div class = content><div class = numbers>J</div></div></button><button id = button_5 class = ""square num-button"" onclick = ""recordClick(this)""><div class = content><div class = numbers>K</div></div></button><button id = button_6 class = ""square num-button"" onclick = ""recordClick(this)""><div class = content><div class = numbers>L</div></div></button><button id = button_7 class = ""square num-button"" onclick = ""recordClick(this)""><div class = content><div class = numbers>N</div></div></button><button id = button_8 class = ""square num-button"" onclick = ""recordClick(this)""><div class = content><div class = numbers>P</div></div></button><button id = button_9 class = ""square num-button"" onclick = ""recordClick(this)""><div class = content><div class = numbers>Q</div></div></button><button id = button_10 class = ""square num-button"" onclick = ""recordClick(this)""><div class = content><div class = numbers>R</div></div></button><button id = button_11 class = ""square num-button"" onclick = ""recordClick(this)""><div class = content><div class = numbers>S</div></div></button><button id = button_12 class = ""square num-button"" onclick = ""recordClick(this)""><div class = content><div class = numbers>Y</div></div></button><button class = clear_button id = ""ClearButton"" onclick = ""clearResponse()"">BACKSPACE</button><button class = blank_button id = ""BlankButton"" onclick = ""blankResponse()"">SKIP</button><p style=""font-size: 2.4rem""><u><b>Current Answer:</b></u></p><br><br><div id=echoed_txt style=""font-size: 5rem; color:blue;""><b></b></div></div>",enter,ospan,retrieval,2fjnPA8JtQXy0kNKNMqttBW48cb2,html-keyboard-response,116,882909,0.0-43.0-4.0-0.0-2.0,7,7,7,4.0,"[""P"",""G"",""S"",""N""]","[""P"",""G"",""S"",""N""]",1.0,4.0,,,,,,,6543af72769aacc0bf14521e,17:30:52,06/03/2024
1585.2999999523163,[''],0,ospan,feedback,2fjnPA8JtQXy0kNKNMqttBW48cb2,html-button-response,117,885007,0.0-43.0-4.0-0.0-3.0,,,,,,,,,,,,100.0,0.0,,6543af72769aacc0bf14521e,17:30:52,06/03/2024
,"<p style=""font-size:75px;"">...</p>",,ospan,iti,2fjnPA8JtQXy0kNKNMqttBW48cb2,html-keyboard-response,118,886016,0.0-43.0-4.0-1.0-0.0,,,,,,,,,,,,,,,6543af72769aacc0bf14521e,17:30:52,06/03/2024
1389.0,,,ospan,symmetry,2fjnPA8JtQXy0kNKNMqttBW48cb2,symmetry-judgement-task,119,888520,0.0-43.0-4.0-1.0-1.0-0.0,,,,,,,,,,1.0,1.0,,,,6543af72769aacc0bf14521e,17:30:52,06/03/2024
,"<div style=""font-size: 10rem; color: #0000FF"">H</div>",,ospan,letter,2fjnPA8JtQXy0kNKNMqttBW48cb2,html-keyboard-response,120,889534,0.0-43.0-4.0-1.0-1.0-1.0,,,,,,,,,,,,,,,6543af72769aacc0bf14521e,17:30:52,06/03/2024
2074.0,,,ospan,symmetry,2fjnPA8JtQXy0kNKNMqttBW48cb2,symmetry-judgement-task,121,893475,0.0-43.0-4.0-1.0-1.0-2.0,,,,,,,,,,1.0,1.0,,,,6543af72769aacc0bf14521e,17:30:52,06/03/2024
,"<div style=""font-size: 10rem; color: #0000FF"">G</div>",,ospan,letter,2fjnPA8JtQXy0kNKNMqttBW48cb2,html-keyboard-response,122,894483,0.0-43.0-4.0-1.0-1.0-3.0,,,,,,,,,,,,,,,6543af72769aacc0bf14521e,17:30:52,06/03/2024
1865.0,,,ospan,symmetry,2fjnPA8JtQXy0kNKNMqttBW48cb2,symmetry-judgement-task,123,898226,0.0-43.0-4.0-1.0-1.0-4.0,,,,,,,,,,1.0,1.0,,,,6543af72769aacc0bf14521e,17:30:52,06/03/2024
,"<div style=""font-size: 10rem; color: #0000FF"">J</div>",,ospan,letter,2fjnPA8JtQXy0kNKNMqttBW48cb2,html-keyboard-response,124,899234,0.0-43.0-4.0-1.0-1.0-5.0,,,,,,,,,,,,,,,6543af72769aacc0bf14521e,17:30:52,06/03/2024
2114.0,,,ospan,symmetry,2fjnPA8JtQXy0kNKNMqttBW48cb2,symmetry-judgement-task,125,903220,0.0-43.0-4.0-1.0-1.0-6.0,,,,,,,,,,1.0,1.0,,,,6543af72769aacc0bf14521e,17:30:52,06/03/2024
,"<div style=""font-size: 10rem; color: #0000FF"">Y</div>",,ospan,letter,2fjnPA8JtQXy0kNKNMqttBW48cb2,html-keyboard-response,126,904228,0.0-43.0-4.0-1.0-1.0-7.0,,,,,,,,,,,,,,,6543af72769aacc0bf14521e,17:30:52,06/03/2024
2181.0,,,ospan,symmetry,2fjnPA8JtQXy0kNKNMqttBW48cb2,symmetry-judgement-task,127,908276,0.0-43.0-4.0-1.0-1.0-8.0,,,,,,,,,,1.0,1.0,,,,6543af72769aacc0bf14521e,17:30:52,06/03/2024
,"<div style=""font-size: 10rem; color: #0000FF"">Q</div>",,ospan,letter,2fjnPA8JtQXy0kNKNMqttBW48cb2,html-keyboard-response,128,909290,0.0-43.0-4.0-1.0-1.0-9.0,,,,,,,,,,,,,,,6543af72769aacc0bf14521e,17:30:52,06/03/2024
6280.700000047684,"<div class = numbox><p style=""font-size: 2.4rem"">Please recall the letters you saw to the best of your ability. If you do not remember a particular letter, use the SKIP button.<br><b>(When you are ready to lock in your answer, press ENTER)</b></p><button id = button_1 class = ""square num-button"" onclick = ""recordClick(this)""><div class = content><div class = numbers>C</div></div></button><button id = button_2 class = ""square num-button"" onclick = ""recordClick(this)""><div class = content><div class = numbers>G</div></div></button><button id = button_3 class = ""square num-button"" onclick = ""recordClick(this)""><div class = content><div class = numbers>H</div></div></button><button id = button_4 class = ""square num-button"" onclick = ""recordClick(this)""><div class = content><div class = numbers>J</div></div></button><button id = button_5 class = ""square num-button"" onclick = ""recordClick(this)""><div class = content><div class = numbers>K</div></div></button><button id = button_6 class = ""square num-button"" onclick = ""recordClick(this)""><div class = content><div class = numbers>L</div></div></button><button id = button_7 class = ""square num-button"" onclick = ""recordClick(this)""><div class = content><div class = numbers>N</div></div></button><button id = button_8 class = ""square num-button"" onclick = ""recordClick(this)""><div class = content><div class = numbers>P</div></div></button><button id = button_9 class = ""square num-button"" onclick = ""recordClick(this)""><div class = content><div class = numbers>Q</div></div></button><button id = button_10 class = ""square num-button"" onclick = ""recordClick(this)""><div class = content><div class = numbers>R</div></div></button><button id = button_11 class = ""square num-button"" onclick = ""recordClick(this)""><div class = content><div class = numbers>S</div></div></button><button id = button_12 class = ""square num-button"" onclick = ""recordClick(this)""><div class = content><div class = numbers>Y</div></div></button><button class = clear_button id = ""ClearButton"" onclick = ""clearResponse()"">BACKSPACE</button><button class = blank_button id = ""BlankButton"" onclick = ""blankResponse()"">SKIP</button><p style=""font-size: 2.4rem""><u><b>Current Answer:</b></u></p><br><br><div id=echoed_txt style=""font-size: 5rem; color:blue;""><b></b></div></div>",enter,ospan,retrieval,2fjnPA8JtQXy0kNKNMqttBW48cb2,html-keyboard-response,129,916333,0.0-43.0-4.0-1.0-2.0,12,12,12,5.0,"[""H"",""G"",""J"",""Y"",""Q""]","[""H"",""G"",""J"",""Y"",""Q""]",1.0,5.0,,,,,,,6543af72769aacc0bf14521e,17:30:52,06/03/2024
1048.4000000953674,[''],0,ospan,feedback,2fjnPA8JtQXy0kNKNMqttBW48cb2,html-button-response,130,917898,0.0-43.0-4.0-1.0-3.0,,,,,,,,,,,,100.0,0.0,,6543af72769aacc0bf14521e,17:30:52,06/03/2024
,"<p style=""font-size:75px;"">...</p>",,ospan,iti,2fjnPA8JtQXy0kNKNMqttBW48cb2,html-keyboard-response,131,918901,0.0-43.0-4.0-2.0-0.0,,,,,,,,,,,,,,,6543af72769aacc0bf14521e,17:30:52,06/03/2024
1834.0,,,ospan,symmetry,2fjnPA8JtQXy0kNKNMqttBW48cb2,symmetry-judgement-task,132,921846,0.0-43.0-4.0-2.0-1.0-0.0,,,,,,,,,,1.0,1.0,,,,6543af72769aacc0bf14521e,17:30:52,06/03/2024
,"<div style=""font-size: 10rem; color: #0000FF"">S</div>",,ospan,letter,2fjnPA8JtQXy0kNKNMqttBW48cb2,html-keyboard-response,133,922858,0.0-43.0-4.0-2.0-1.0-1.0,,,,,,,,,,,,,,,6543af72769aacc0bf14521e,17:30:52,06/03/2024
2101.0,,,ospan,symmetry,2fjnPA8JtQXy0kNKNMqttBW48cb2,symmetry-judgement-task,134,926838,0.0-43.0-4.0-2.0-1.0-2.0,,,,,,,,,,1.0,1.0,,,,6543af72769aacc0bf14521e,17:30:52,06/03/2024
,"<div style=""font-size: 10rem; color: #0000FF"">Y</div>",,ospan,letter,2fjnPA8JtQXy0kNKNMqttBW48cb2,html-keyboard-response,135,927847,0.0-43.0-4.0-2.0-1.0-3.0,,,,,,,,,,,,,,,6543af72769aacc0bf14521e,17:30:52,06/03/2024
1497.0,,,ospan,symmetry,2fjnPA8JtQXy0kNKNMqttBW48cb2,symmetry-judgement-task,136,931222,0.0-43.0-4.0-2.0-1.0-4.0,,,,,,,,,,1.0,1.0,,,,6543af72769aacc0bf14521e,17:30:52,06/03/2024
,"<div style=""font-size: 10rem; color: #0000FF"">R</div>",,ospan,letter,2fjnPA8JtQXy0kNKNMqttBW48cb2,html-keyboard-response,137,932235,0.0-43.0-4.0-2.0-1.0-5.0,,,,,,,,,,,,,,,6543af72769aacc0bf14521e,17:30:52,06/03/2024
4983.700000047684,"<div class = numbox><p style=""font-size: 2.4rem"">Please recall the letters you saw to the best of your ability. If you do not remember a particular letter, use the SKIP button.<br><b>(When you are ready to lock in your answer, press ENTER)</b></p><button id = button_1 class = ""square num-button"" onclick = ""recordClick(this)""><div class = content><div class = numbers>C</div></div></button><button id = button_2 class = ""square num-button"" onclick = ""recordClick(this)""><div class = content><div class = numbers>G</div></div></button><button id = button_3 class = ""square num-button"" onclick = ""recordClick(this)""><div class = content><div class = numbers>H</div></div></button><button id = button_4 class = ""square num-button"" onclick = ""recordClick(this)""><div class = content><div class = numbers>J</div></div></button><button id = button_5 class = ""square num-button"" onclick = ""recordClick(this)""><div class = content><div class = numbers>K</div></div></button><button id = button_6 class = ""square num-button"" onclick = ""recordClick(this)""><div class = content><div class = numbers>L</div></div></button><button id = button_7 class = ""square num-button"" onclick = ""recordClick(this)""><div class = content><div class = numbers>N</div></div></button><button id = button_8 class = ""square num-button"" onclick = ""recordClick(this)""><div class = content><div class = numbers>P</div></div></button><button id = button_9 class = ""square num-button"" onclick = ""recordClick(this)""><div class = content><div class = numbers>Q</div></div></button><button id = button_10 class = ""square num-button"" onclick = ""recordClick(this)""><div class = content><div class = numbers>R</div></div></button><button id = button_11 class = ""square num-button"" onclick = ""recordClick(this)""><div class = content><div class = numbers>S</div></div></button><button id = button_12 class = ""square num-button"" onclick = ""recordClick(this)""><div class = content><div class = numbers>Y</div></div></button><button class = clear_button id = ""ClearButton"" onclick = ""clearResponse()"">BACKSPACE</button><button class = blank_button id = ""BlankButton"" onclick = ""blankResponse()"">SKIP</button><p style=""font-size: 2.4rem""><u><b>Current Answer:</b></u></p><br><br><div id=echoed_txt style=""font-size: 5rem; color:blue;""><b></b></div></div>",enter,ospan,retrieval,2fjnPA8JtQXy0kNKNMqttBW48cb2,html-keyboard-response,138,937984,0.0-43.0-4.0-2.0-2.0,15,15,15,3.0,"[""S"",""Y"",""R""]","[""S"",""Y"",""R""]",1.0,3.0,,,,,,,6543af72769aacc0bf14521e,17:30:52,06/03/2024
1580.5,[''],0,ospan,feedback,2fjnPA8JtQXy0kNKNMqttBW48cb2,html-button-response,139,940081,0.0-43.0-4.0-2.0-3.0,,,,,,,,,,,,100.0,0.0,,6543af72769aacc0bf14521e,17:30:52,06/03/2024
,"<p style=""font-size:75px;"">...</p>",,ospan,iti,2fjnPA8JtQXy0kNKNMqttBW48cb2,html-keyboard-response,140,941083,0.0-43.0-5.0-0.0-0.0,,,,,,,,,,,,,,,6543af72769aacc0bf14521e,17:30:52,06/03/2024
1219.0,,,ospan,symmetry,2fjnPA8JtQXy0kNKNMqttBW48cb2,symmetry-judgement-task,141,943419,0.0-43.0-5.0-0.0-1.0-0.0,,,,,,,,,,1.0,1.0,,,,6543af72769aacc0bf14521e,17:30:52,06/03/2024
,"<div style=""font-size: 10rem; color: #0000FF"">G</div>",,ospan,letter,2fjnPA8JtQXy0kNKNMqttBW48cb2,html-keyboard-response,142,944429,0.0-43.0-5.0-0.0-1.0-1.0,,,,,,,,,,,,,,,6543af72769aacc0bf14521e,17:30:52,06/03/2024
1865.0,,,ospan,symmetry,2fjnPA8JtQXy0kNKNMqttBW48cb2,symmetry-judgement-task,143,948171,0.0-43.0-5.0-0.0-1.0-2.0,,,,,,,,,,1.0,1.0,,,,6543af72769aacc0bf14521e,17:30:52,06/03/2024
,"<div style=""font-size: 10rem; color: #0000FF"">S</div>",,ospan,letter,2fjnPA8JtQXy0kNKNMqttBW48cb2,html-keyboard-response,144,949182,0.0-43.0-5.0-0.0-1.0-3.0,,,,,,,,,,,,,,,6543af72769aacc0bf14521e,17:30:52,06/03/2024
1208.0,,,ospan,symmetry,2fjnPA8JtQXy0kNKNMqttBW48cb2,symmetry-judgement-task,145,952276,0.0-43.0-5.0-0.0-1.0-4.0,,,,,,,,,,1.0,1.0,,,,6543af72769aacc0bf14521e,17:30:52,06/03/2024
,"<div style=""font-size: 10rem; color: #0000FF"">P</div>",,ospan,letter,2fjnPA8JtQXy0kNKNMqttBW48cb2,html-keyboard-response,146,953285,0.0-43.0-5.0-0.0-1.0-5.0,,,,,,,,,,,,,,,6543af72769aacc0bf14521e,17:30:52,06/03/2024
1102.0,,,ospan,symmetry,2fjnPA8JtQXy0kNKNMqttBW48cb2,symmetry-judgement-task,147,956261,0.0-43.0-5.0-0.0-1.0-6.0,,,,,,,,,,1.0,1.0,,,,6543af72769aacc0bf14521e,17:30:52,06/03/2024
,"<div style=""font-size: 10rem; color: #0000FF"">Y</div>",,ospan,letter,2fjnPA8JtQXy0kNKNMqttBW48cb2,html-keyboard-response,148,957272,0.0-43.0-5.0-0.0-1.0-7.0,,,,,,,,,,,,,,,6543af72769aacc0bf14521e,17:30:52,06/03/2024
1035.0,,,ospan,symmetry,2fjnPA8JtQXy0kNKNMqttBW48cb2,symmetry-judgement-task,149,960178,0.0-43.0-5.0-0.0-1.0-8.0,,,,,,,,,,1.0,1.0,,,,6543af72769aacc0bf14521e,17:30:52,06/03/2024
,"<div style=""font-size: 10rem; color: #0000FF"">J</div>",,ospan,letter,2fjnPA8JtQXy0kNKNMqttBW48cb2,html-keyboard-response,150,961188,0.0-43.0-5.0-0.0-1.0-9.0,,,,,,,,,,,,,,,6543af72769aacc0bf14521e,17:30:52,06/03/2024
1624.0,,,ospan,symmetry,2fjnPA8JtQXy0kNKNMqttBW48cb2,symmetry-judgement-task,151,964684,0.0-43.0-5.0-0.0-1.0-10.0,,,,,,,,,,1.0,1.0,,,,6543af72769aacc0bf14521e,17:30:52,06/03/2024
,"<div style=""font-size: 10rem; color: #0000FF"">C</div>",,ospan,letter,2fjnPA8JtQXy0kNKNMqttBW48cb2,html-keyboard-response,152,965695,0.0-43.0-5.0-0.0-1.0-11.0,,,,,,,,,,,,,,,6543af72769aacc0bf14521e,17:30:52,06/03/2024
7036.799999952316,"<div class = numbox><p style=""font-size: 2.4rem"">Please recall the letters you saw to the best of your ability. If you do not remember a particular letter, use the SKIP button.<br><b>(When you are ready to lock in your answer, press ENTER)</b></p><button id = button_1 class = ""square num-button"" onclick = ""recordClick(this)""><div class = content><div class = numbers>C</div></div></button><button id = button_2 class = ""square num-button"" onclick = ""recordClick(this)""><div class = content><div class = numbers>G</div></div></button><button id = button_3 class = ""square num-button"" onclick = ""recordClick(this)""><div class = content><div class = numbers>H</div></div></button><button id = button_4 class = ""square num-button"" onclick = ""recordClick(this)""><div class = content><div class = numbers>J</div></div></button><button id = button_5 class = ""square num-button"" onclick = ""recordClick(this)""><div class = content><div class = numbers>K</div></div></button><button id = button_6 class = ""square num-button"" onclick = ""recordClick(this)""><div class = content><div class = numbers>L</div></div></button><button id = button_7 class = ""square num-button"" onclick = ""recordClick(this)""><div class = content><div class = numbers>N</div></div></button><button id = button_8 class = ""square num-button"" onclick = ""recordClick(this)""><div class = content><div class = numbers>P</div></div></button><button id = button_9 class = ""square num-button"" onclick = ""recordClick(this)""><div class = content><div class = numbers>Q</div></div></button><button id = button_10 class = ""square num-button"" onclick = ""recordClick(this)""><div class = content><div class = numbers>R</div></div></button><button id = button_11 class = ""square num-button"" onclick = ""recordClick(this)""><div class = content><div class = numbers>S</div></div></button><button id = button_12 class = ""square num-button"" onclick = ""recordClick(this)""><div class = content><div class = numbers>Y</div></div></button><button class = clear_button id = ""ClearButton"" onclick = ""clearResponse()"">BACKSPACE</button><button class = blank_button id = ""BlankButton"" onclick = ""blankResponse()"">SKIP</button><p style=""font-size: 2.4rem""><u><b>Current Answer:</b></u></p><br><br><div id=echoed_txt style=""font-size: 5rem; color:blue;""><b></b></div></div>",enter,ospan,retrieval,2fjnPA8JtQXy0kNKNMqttBW48cb2,html-keyboard-response,153,973495,0.0-43.0-5.0-0.0-2.0,21,21,21,6.0,"[""G"",""S"",""P"",""Y"",""J"",""C""]","[""G"",""S"",""P"",""Y"",""J"",""C""]",1.0,6.0,,,,,,,6543af72769aacc0bf14521e,17:30:52,06/03/2024
1177.2999999523163,[''],0,ospan,feedback,2fjnPA8JtQXy0kNKNMqttBW48cb2,html-button-response,154,975187,0.0-43.0-5.0-0.0-3.0,,,,,,,,,,,,100.0,0.0,,6543af72769aacc0bf14521e,17:30:52,06/03/2024
,"<p style=""font-size:75px;"">...</p>",,ospan,iti,2fjnPA8JtQXy0kNKNMqttBW48cb2,html-keyboard-response,155,976191,0.0-43.0-5.0-1.0-0.0,,,,,,,,,,,,,,,6543af72769aacc0bf14521e,17:30:52,06/03/2024
1236.0,,,ospan,symmetry,2fjnPA8JtQXy0kNKNMqttBW48cb2,symmetry-judgement-task,156,978528,0.0-43.0-5.0-1.0-1.0-0.0,,,,,,,,,,1.0,1.0,,,,6543af72769aacc0bf14521e,17:30:52,06/03/2024
,"<div style=""font-size: 10rem; color: #0000FF"">S</div>",,ospan,letter,2fjnPA8JtQXy0kNKNMqttBW48cb2,html-keyboard-response,157,979542,0.0-43.0-5.0-1.0-1.0-1.0,,,,,,,,,,,,,,,6543af72769aacc0bf14521e,17:30:52,06/03/2024
1042.0,,,ospan,symmetry,2fjnPA8JtQXy0kNKNMqttBW48cb2,symmetry-judgement-task,158,982453,0.0-43.0-5.0-1.0-1.0-2.0,,,,,,,,,,1.0,1.0,,,,6543af72769aacc0bf14521e,17:30:52,06/03/2024
,"<div style=""font-size: 10rem; color: #0000FF"">Y</div>",,ospan,letter,2fjnPA8JtQXy0kNKNMqttBW48cb2,html-keyboard-response,159,983467,0.0-43.0-5.0-1.0-1.0-3.0,,,,,,,,,,,,,,,6543af72769aacc0bf14521e,17:30:52,06/03/2024
822.0,,,ospan,symmetry,2fjnPA8JtQXy0kNKNMqttBW48cb2,symmetry-judgement-task,160,986162,0.0-43.0-5.0-1.0-1.0-4.0,,,,,,,,,,1.0,1.0,,,,6543af72769aacc0bf14521e,17:30:52,06/03/2024
,"<div style=""font-size: 10rem; color: #0000FF"">R</div>",,ospan,letter,2fjnPA8JtQXy0kNKNMqttBW48cb2,html-keyboard-response,161,987176,0.0-43.0-5.0-1.0-1.0-5.0,,,,,,,,,,,,,,,6543af72769aacc0bf14521e,17:30:52,06/03/2024
1791.0,,,ospan,symmetry,2fjnPA8JtQXy0kNKNMqttBW48cb2,symmetry-judgement-task,162,990846,0.0-43.0-5.0-1.0-1.0-6.0,,,,,,,,,,1.0,1.0,,,,6543af72769aacc0bf14521e,17:30:52,06/03/2024
,"<div style=""font-size: 10rem; color: #0000FF"">H</div>",,ospan,letter,2fjnPA8JtQXy0kNKNMqttBW48cb2,html-keyboard-response,163,991856,0.0-43.0-5.0-1.0-1.0-7.0,,,,,,,,,,,,,,,6543af72769aacc0bf14521e,17:30:52,06/03/2024
970.0,,,ospan,symmetry,2fjnPA8JtQXy0kNKNMqttBW48cb2,symmetry-judgement-task,164,994700,0.0-43.0-5.0-1.0-1.0-8.0,,,,,,,,,,1.0,1.0,,,,6543af72769aacc0bf14521e,17:30:52,06/03/2024
,"<div style=""font-size: 10rem; color: #0000FF"">N</div>",,ospan,letter,2fjnPA8JtQXy0kNKNMqttBW48cb2,html-keyboard-response,165,995714,0.0-43.0-5.0-1.0-1.0-9.0,,,,,,,,,,,,,,,6543af72769aacc0bf14521e,17:30:52,06/03/2024
1078.0,,,ospan,symmetry,2fjnPA8JtQXy0kNKNMqttBW48cb2,symmetry-judgement-task,166,998668,0.0-43.0-5.0-1.0-1.0-10.0,,,,,,,,,,1.0,1.0,,,,6543af72769aacc0bf14521e,17:30:52,06/03/2024
,"<div style=""font-size: 10rem; color: #0000FF"">G</div>",,ospan,letter,2fjnPA8JtQXy0kNKNMqttBW48cb2,html-keyboard-response,167,999678,0.0-43.0-5.0-1.0-1.0-11.0,,,,,,,,,,,,,,,6543af72769aacc0bf14521e,17:30:52,06/03/2024
1090.0,,,ospan,symmetry,2fjnPA8JtQXy0kNKNMqttBW48cb2,symmetry-judgement-task,168,1002641,0.0-43.0-5.0-1.0-1.0-12.0,,,,,,,,,,1.0,1.0,,,,6543af72769aacc0bf14521e,17:30:52,06/03/2024
,"<div style=""font-size: 10rem; color: #0000FF"">Q</div>",,ospan,letter,2fjnPA8JtQXy0kNKNMqttBW48cb2,html-keyboard-response,169,1003649,0.0-43.0-5.0-1.0-1.0-13.0,,,,,,,,,,,,,,,6543af72769aacc0bf14521e,17:30:52,06/03/2024
13451.799999952316,"<div class = numbox><p style=""font-size: 2.4rem"">Please recall the letters you saw to the best of your ability. If you do not remember a particular letter, use the SKIP button.<br><b>(When you are ready to lock in your answer, press ENTER)</b></p><button id = button_1 class = ""square num-button"" onclick = ""recordClick(this)""><div class = content><div class = numbers>C</div></div></button><button id = button_2 class = ""square num-button"" onclick = ""recordClick(this)""><div class = content><div class = numbers>G</div></div></button><button id = button_3 class = ""square num-button"" onclick = ""recordClick(this)""><div class = content><div class = numbers>H</div></div></button><button id = button_4 class = ""square num-button"" onclick = ""recordClick(this)""><div class = content><div class = numbers>J</div></div></button><button id = button_5 class = ""square num-button"" onclick = ""recordClick(this)""><div class = content><div class = numbers>K</div></div></button><button id = button_6 class = ""square num-button"" onclick = ""recordClick(this)""><div class = content><div class = numbers>L</div></div></button><button id = button_7 class = ""square num-button"" onclick = ""recordClick(this)""><div class = content><div class = numbers>N</div></div></button><button id = button_8 class = ""square num-button"" onclick = ""recordClick(this)""><div class = content><div class = numbers>P</div></div></button><button id = button_9 class = ""square num-button"" onclick = ""recordClick(this)""><div class = content><div class = numbers>Q</div></div></button><button id = button_10 class = ""square num-button"" onclick = ""recordClick(this)""><div class = content><div class = numbers>R</div></div></button><button id = button_11 class = ""square num-button"" onclick = ""recordClick(this)""><div class = content><div class = numbers>S</div></div></button><button id = button_12 class = ""square num-button"" onclick = ""recordClick(this)""><div class = content><div class = numbers>Y</div></div></button><button class = clear_button id = ""ClearButton"" onclick = ""clearResponse()"">BACKSPACE</button><button class = blank_button id = ""BlankButton"" onclick = ""blankResponse()"">SKIP</button><p style=""font-size: 2.4rem""><u><b>Current Answer:</b></u></p><br><br><div id=echoed_txt style=""font-size: 5rem; color:blue;""><b></b></div></div>",enter,ospan,retrieval,2fjnPA8JtQXy0kNKNMqttBW48cb2,html-keyboard-response,170,1017864,0.0-43.0-5.0-1.0-2.0,28,27,21,7.0,"[""S"",""Y"",""R"",""H"",""N"",""_"",""Q""]","[""S"",""Y"",""R"",""H"",""N"",""G"",""Q""]",0.0,6.0,,,,,,,6543af72769aacc0bf14521e,17:30:52,06/03/2024
787.5,[''],0,ospan,feedback,2fjnPA8JtQXy0kNKNMqttBW48cb2,html-button-response,171,1019153,0.0-43.0-5.0-1.0-3.0,,,,,,,,,,,,100.0,0.0,,6543af72769aacc0bf14521e,17:30:52,06/03/2024
,"<p style=""font-size:75px;"">...</p>",,ospan,iti,2fjnPA8JtQXy0kNKNMqttBW48cb2,html-keyboard-response,172,1020156,0.0-43.0-6.0-0.0-0.0,,,,,,,,,,,,,,,6543af72769aacc0bf14521e,17:30:52,06/03/2024
1412.0,,,ospan,symmetry,2fjnPA8JtQXy0kNKNMqttBW48cb2,symmetry-judgement-task,173,1022688,0.0-43.0-6.0-0.0-1.0-0.0,,,,,,,,,,1.0,1.0,,,,6543af72769aacc0bf14521e,17:30:52,06/03/2024
,"<div style=""font-size: 10rem; color: #0000FF"">H</div>",,ospan,letter,2fjnPA8JtQXy0kNKNMqttBW48cb2,html-keyboard-response,174,1023696,0.0-43.0-6.0-0.0-1.0-1.0,,,,,,,,,,,,,,,6543af72769aacc0bf14521e,17:30:52,06/03/2024
1035.0,,,ospan,symmetry,2fjnPA8JtQXy0kNKNMqttBW48cb2,symmetry-judgement-task,175,1026601,0.0-43.0-6.0-0.0-1.0-2.0,,,,,,,,,,1.0,1.0,,,,6543af72769aacc0bf14521e,17:30:52,06/03/2024
,"<div style=""font-size: 10rem; color: #0000FF"">N</div>",,ospan,letter,2fjnPA8JtQXy0kNKNMqttBW48cb2,html-keyboard-response,176,1027612,0.0-43.0-6.0-0.0-1.0-3.0,,,,,,,,,,,,,,,6543af72769aacc0bf14521e,17:30:52,06/03/2024
1019.0,,,ospan,symmetry,2fjnPA8JtQXy0kNKNMqttBW48cb2,symmetry-judgement-task,177,1030509,0.0-43.0-6.0-0.0-1.0-4.0,,,,,,,,,,1.0,1.0,,,,6543af72769aacc0bf14521e,17:30:52,06/03/2024
,"<div style=""font-size: 10rem; color: #0000FF"">L</div>",,ospan,letter,2fjnPA8JtQXy0kNKNMqttBW48cb2,html-keyboard-response,178,1031518,0.0-43.0-6.0-0.0-1.0-5.0,,,,,,,,,,,,,,,6543af72769aacc0bf14521e,17:30:52,06/03/2024
878.0,,,ospan,symmetry,2fjnPA8JtQXy0kNKNMqttBW48cb2,symmetry-judgement-task,179,1034257,0.0-43.0-6.0-0.0-1.0-6.0,,,,,,,,,,1.0,1.0,,,,6543af72769aacc0bf14521e,17:30:52,06/03/2024
,"<div style=""font-size: 10rem; color: #0000FF"">R</div>",,ospan,letter,2fjnPA8JtQXy0kNKNMqttBW48cb2,html-keyboard-response,180,1035266,0.0-43.0-6.0-0.0-1.0-7.0,,,,,,,,,,,,,,,6543af72769aacc0bf14521e,17:30:52,06/03/2024
1056.0,,,ospan,symmetry,2fjnPA8JtQXy0kNKNMqttBW48cb2,symmetry-judgement-task,181,1038181,0.0-43.0-6.0-0.0-1.0-8.0,,,,,,,,,,1.0,1.0,,,,6543af72769aacc0bf14521e,17:30:52,06/03/2024
,"<div style=""font-size: 10rem; color: #0000FF"">G</div>",,ospan,letter,2fjnPA8JtQXy0kNKNMqttBW48cb2,html-keyboard-response,182,1039191,0.0-43.0-6.0-0.0-1.0-9.0,,,,,,,,,,,,,,,6543af72769aacc0bf14521e,17:30:52,06/03/2024
5225.900000095367,"<div class = numbox><p style=""font-size: 2.4rem"">Please recall the letters you saw to the best of your ability. If you do not remember a particular letter, use the SKIP button.<br><b>(When you are ready to lock in your answer, press ENTER)</b></p><button id = button_1 class = ""square num-button"" onclick = ""recordClick(this)""><div class = content><div class = numbers>C</div></div></button><button id = button_2 class = ""square num-button"" onclick = ""recordClick(this)""><div class = content><div class = numbers>G</div></div></button><button id = button_3 class = ""square num-button"" onclick = ""recordClick(this)""><div class = content><div class = numbers>H</div></div></button><button id = button_4 class = ""square num-button"" onclick = ""recordClick(this)""><div class = content><div class = numbers>J</div></div></button><button id = button_5 class = ""square num-button"" onclick = ""recordClick(this)""><div class = content><div class = numbers>K</div></div></button><button id = button_6 class = ""square num-button"" onclick = ""recordClick(this)""><div class = content><div class = numbers>L</div></div></button><button id = button_7 class = ""square num-button"" onclick = ""recordClick(this)""><div class = content><div class = numbers>N</div></div></button><button id = button_8 class = ""square num-button"" onclick = ""recordClick(this)""><div class = content><div class = numbers>P</div></div></button><button id = button_9 class = ""square num-button"" onclick = ""recordClick(this)""><div class = content><div class = numbers>Q</div></div></button><button id = button_10 class = ""square num-button"" onclick = ""recordClick(this)""><div class = content><div class = numbers>R</div></div></button><button id = button_11 class = ""square num-button"" onclick = ""recordClick(this)""><div class = content><div class = numbers>S</div></div></button><button id = button_12 class = ""square num-button"" onclick = ""recordClick(this)""><div class = content><div class = numbers>Y</div></div></button><button class = clear_button id = ""ClearButton"" onclick = ""clearResponse()"">BACKSPACE</button><button class = blank_button id = ""BlankButton"" onclick = ""blankResponse()"">SKIP</button><p style=""font-size: 2.4rem""><u><b>Current Answer:</b></u></p><br><br><div id=echoed_txt style=""font-size: 5rem; color:blue;""><b></b></div></div>",enter,ospan,retrieval,2fjnPA8JtQXy0kNKNMqttBW48cb2,html-keyboard-response,183,1045178,0.0-43.0-6.0-0.0-2.0,33,32,26,5.0,"[""H"",""N"",""L"",""R"",""G""]","[""H"",""N"",""L"",""R"",""G""]",1.0,5.0,,,,,,,6543af72769aacc0bf14521e,17:30:52,06/03/2024
1415.3999998569489,[''],0,ospan,feedback,2fjnPA8JtQXy0kNKNMqttBW48cb2,html-button-response,184,1047097,0.0-43.0-6.0-0.0-3.0,,,,,,,,,,,,100.0,0.0,,6543af72769aacc0bf14521e,17:30:52,06/03/2024
,"<p style=""font-size:75px;"">...</p>",,ospan,iti,2fjnPA8JtQXy0kNKNMqttBW48cb2,html-keyboard-response,185,1048106,0.0-43.0-6.0-1.0-0.0,,,,,,,,,,,,,,,6543af72769aacc0bf14521e,17:30:52,06/03/2024
1254.0,,,ospan,symmetry,2fjnPA8JtQXy0kNKNMqttBW48cb2,symmetry-judgement-task,186,1050466,0.0-43.0-6.0-1.0-1.0-0.0,,,,,,,,,,1.0,1.0,,,,6543af72769aacc0bf14521e,17:30:52,06/03/2024
,"<div style=""font-size: 10rem; color: #0000FF"">L</div>",,ospan,letter,2fjnPA8JtQXy0kNKNMqttBW48cb2,html-keyboard-response,187,1051478,0.0-43.0-6.0-1.0-1.0-1.0,,,,,,,,,,,,,,,6543af72769aacc0bf14521e,17:30:52,06/03/2024
1191.0,,,ospan,symmetry,2fjnPA8JtQXy0kNKNMqttBW48cb2,symmetry-judgement-task,188,1054557,0.0-43.0-6.0-1.0-1.0-2.0,,,,,,,,,,1.0,1.0,,,,6543af72769aacc0bf14521e,17:30:52,06/03/2024
,"<div style=""font-size: 10rem; color: #0000FF"">Q</div>",,ospan,letter,2fjnPA8JtQXy0kNKNMqttBW48cb2,html-keyboard-response,189,1055566,0.0-43.0-6.0-1.0-1.0-3.0,,,,,,,,,,,,,,,6543af72769aacc0bf14521e,17:30:52,06/03/2024
1372.0,,,ospan,symmetry,2fjnPA8JtQXy0kNKNMqttBW48cb2,symmetry-judgement-task,190,1058812,0.0-43.0-6.0-1.0-1.0-4.0,,,,,,,,,,1.0,1.0,,,,6543af72769aacc0bf14521e,17:30:52,06/03/2024
,"<div style=""font-size: 10rem; color: #0000FF"">H</div>",,ospan,letter,2fjnPA8JtQXy0kNKNMqttBW48cb2,html-keyboard-response,191,1059821,0.0-43.0-6.0-1.0-1.0-5.0,,,,,,,,,,,,,,,6543af72769aacc0bf14521e,17:30:52,06/03/2024
1177.0,,,ospan,symmetry,2fjnPA8JtQXy0kNKNMqttBW48cb2,symmetry-judgement-task,192,1062869,0.0-43.0-6.0-1.0-1.0-6.0,,,,,,,,,,1.0,1.0,,,,6543af72769aacc0bf14521e,17:30:52,06/03/2024
,"<div style=""font-size: 10rem; color: #0000FF"">S</div>",,ospan,letter,2fjnPA8JtQXy0kNKNMqttBW48cb2,html-keyboard-response,193,1063883,0.0-43.0-6.0-1.0-1.0-7.0,,,,,,,,,,,,,,,6543af72769aacc0bf14521e,17:30:52,06/03/2024
1638.0,,,ospan,symmetry,2fjnPA8JtQXy0kNKNMqttBW48cb2,symmetry-judgement-task,194,1067399,0.0-43.0-6.0-1.0-1.0-8.0,,,,,,,,,,1.0,1.0,,,,6543af72769aacc0bf14521e,17:30:52,06/03/2024
,"<div style=""font-size: 10rem; color: #0000FF"">P</div>",,ospan,letter,2fjnPA8JtQXy0kNKNMqttBW48cb2,html-keyboard-response,195,1068413,0.0-43.0-6.0-1.0-1.0-9.0,,,,,,,,,,,,,,,6543af72769aacc0bf14521e,17:30:52,06/03/2024
1224.0,,,ospan,symmetry,2fjnPA8JtQXy0kNKNMqttBW48cb2,symmetry-judgement-task,196,1071507,0.0-43.0-6.0-1.0-1.0-10.0,,,,,,,,,,1.0,1.0,,,,6543af72769aacc0bf14521e,17:30:52,06/03/2024
,"<div style=""font-size: 10rem; color: #0000FF"">G</div>",,ospan,letter,2fjnPA8JtQXy0kNKNMqttBW48cb2,html-keyboard-response,197,1072515,0.0-43.0-6.0-1.0-1.0-11.0,,,,,,,,,,,,,,,6543af72769aacc0bf14521e,17:30:52,06/03/2024
1313.0,,,ospan,symmetry,2fjnPA8JtQXy0kNKNMqttBW48cb2,symmetry-judgement-task,198,1075690,0.0-43.0-6.0-1.0-1.0-12.0,,,,,,,,,,1.0,1.0,,,,6543af72769aacc0bf14521e,17:30:52,06/03/2024
,"<div style=""font-size: 10rem; color: #0000FF"">C</div>",,ospan,letter,2fjnPA8JtQXy0kNKNMqttBW48cb2,html-keyboard-response,199,1076697,0.0-43.0-6.0-1.0-1.0-13.0,,,,,,,,,,,,,,,6543af72769aacc0bf14521e,17:30:52,06/03/2024
1505.0,,,ospan,symmetry,2fjnPA8JtQXy0kNKNMqttBW48cb2,symmetry-judgement-task,200,1080076,0.0-43.0-6.0-1.0-1.0-14.0,,,,,,,,,,1.0,1.0,,,,6543af72769aacc0bf14521e,17:30:52,06/03/2024
,"<div style=""font-size: 10rem; color: #0000FF"">N</div>",,ospan,letter,2fjnPA8JtQXy0kNKNMqttBW48cb2,html-keyboard-response,201,1081089,0.0-43.0-6.0-1.0-1.0-15.0,,,,,,,,,,,,,,,6543af72769aacc0bf14521e,17:30:52,06/03/2024
7949.799999952316,"<div class = numbox><p style=""font-size: 2.4rem"">Please recall the letters you saw to the best of your ability. If you do not remember a particular letter, use the SKIP button.<br><b>(When you are ready to lock in your answer, press ENTER)</b></p><button id = button_1 class = ""square num-button"" onclick = ""recordClick(this)""><div class = content><div class = numbers>C</div></div></button><button id = button_2 class = ""square num-button"" onclick = ""recordClick(this)""><div class = content><div class = numbers>G</div></div></button><button id = button_3 class = ""square num-button"" onclick = ""recordClick(this)""><div class = content><div class = numbers>H</div></div></button><button id = button_4 class = ""square num-button"" onclick = ""recordClick(this)""><div class = content><div class = numbers>J</div></div></button><button id = button_5 class = ""square num-button"" onclick = ""recordClick(this)""><div class = content><div class = numbers>K</div></div></button><button id = button_6 class = ""square num-button"" onclick = ""recordClick(this)""><div class = content><div class = numbers>L</div></div></button><button id = button_7 class = ""square num-button"" onclick = ""recordClick(this)""><div class = content><div class = numbers>N</div></div></button><button id = button_8 class = ""square num-button"" onclick = ""recordClick(this)""><div class = content><div class = numbers>P</div></div></button><button id = button_9 class = ""square num-button"" onclick = ""recordClick(this)""><div class = content><div class = numbers>Q</div></div></button><button id = button_10 class = ""square num-button"" onclick = ""recordClick(this)""><div class = content><div class = numbers>R</div></div></button><button id = button_11 class = ""square num-button"" onclick = ""recordClick(this)""><div class = content><div class = numbers>S</div></div></button><button id = button_12 class = ""square num-button"" onclick = ""recordClick(this)""><div class = content><div class = numbers>Y</div></div></button><button class = clear_button id = ""ClearButton"" onclick = ""clearResponse()"">BACKSPACE</button><button class = blank_button id = ""BlankButton"" onclick = ""blankResponse()"">SKIP</button><p style=""font-size: 2.4rem""><u><b>Current Answer:</b></u></p><br><br><div id=echoed_txt style=""font-size: 5rem; color:blue;""><b></b></div></div>",enter,ospan,retrieval,2fjnPA8JtQXy0kNKNMqttBW48cb2,html-keyboard-response,202,1089804,0.0-43.0-6.0-1.0-2.0,41,33,26,8.0,"[""H"",""L"",""S"",""_"",""P"",""_"",""G""]","[""L"",""Q"",""H"",""S"",""P"",""G"",""C"",""N""]",0.0,1.0,,,,,,,6543af72769aacc0bf14521e,17:30:52,06/03/2024
927.8999998569489,[''],0,ospan,feedback,2fjnPA8JtQXy0kNKNMqttBW48cb2,html-button-response,203,1091236,0.0-43.0-6.0-1.0-3.0,,,,,,,,,,,,100.0,0.0,,6543af72769aacc0bf14521e,17:30:52,06/03/2024
9221.0,,"{'Q0': 'Was good, very tricky'}",ospan,survey_ospan,2fjnPA8JtQXy0kNKNMqttBW48cb2,lmdlab-survey-text,204,1101214,0.0-43.0-7.0,,,,,,,,,,,,,,2fjnPA8JtQXy0kNKNMqttBW48cb2,6543af72769aacc0bf14521e,17:30:52,06/03/2024
1319.5,<p><p style='font-size: 3rem'>Great work!<br><br>This completes the symmetry and memory task.</p><br><br><br>,0,ospan,finish,2fjnPA8JtQXy0kNKNMqttBW48cb2,html-button-response,205,1102536,0.0-43.0-8.0,41,33,26,,,,,,,,,100.0,,,6543af72769aacc0bf14521e,17:30:52,06/03/2024
