rt,stimulus,response,exp_name,exp_stage,subjectID,trial_type,trial_index,time_elapsed,internal_node_id,ospan_shown,ospan_total,ospan_abs,length,resp_actual,resp_correct,full_correct,num_correct,feedback,accuracy,correct,math_acc,math_warning,databaseID,prolificID,start_time,date
3519.100000143051,<div class = 'left_align' style='font-size: 3.25rem; line-height: 1.3;'><p class = 'center_align'><b>Welcome to the Symmetry and Memory Task</b><br><br><br><br></p>Press 'continue' to show the instructions.<br><br><br><br></div>,0,ospan,instruct,7Qr0HTIsC9VrF9vP9aILlaRR68O2,html-button-response,54,606492,0.0-46.0-0.0-0.0-0.0,,,,,,,,,,,,,,,63ea551bae34b6edcd5bb799,09:28:47,03/04/2024
17727.700000047684,"<div class = 'left_align' style='font-size: 3.25rem; line-height: 1.3;'><p class = 'center_align'><b>Symmetry and Memory Task</b><br><br></p>In this task, you will try to memorize letters you see on the screen<br>while you also view black and white grid pictures.<br><br>In the next few minutes, you will have some practice to get you familiar<br>with how the task works.<br><br>It may be difficult sometimes, but please do not worry about making mistakes!<br><br>We will begin by practicing the letter part of the task.<br><br><br><br></div>",0,ospan,instruct,7Qr0HTIsC9VrF9vP9aILlaRR68O2,html-button-response,55,624472,0.0-46.0-0.0-0.0-1.0,,,,,,,,,,,,,,,63ea551bae34b6edcd5bb799,09:28:47,03/04/2024
55069.299999952316,"<div class = 'left_align' style='font-size: 3.25rem; line-height: 1.3;'>For this practice part, letters will appear on the screen one at a time.<br><br>Try to remember each letter in the order presented.<br><br>After some letters have been shown, you will see a response screen. Your<br>goal is to report the letters you saw <b>in order</b>. If you do not remember<br>a particular letter, you will have the option to leave it blank.<br><br><br><br></div>",0,ospan,instruct,7Qr0HTIsC9VrF9vP9aILlaRR68O2,html-button-response,56,679801,0.0-46.0-0.0-0.0-2.0,,,,,,,,,,,,,,,63ea551bae34b6edcd5bb799,09:28:47,03/04/2024
5034.5,"<div class = 'left_align' style='font-size: 3.25rem; line-height: 1.3;'>Remember, it is very important to get the letters in the same<br>order as you see them.<br><br>When you are ready, you may begin the letter practice.</div><br><br><br><br>",0,ospan,instruct,7Qr0HTIsC9VrF9vP9aILlaRR68O2,html-button-response,57,685097,0.0-46.0-0.0-0.0-3.0,,,,,,,,,,,,,,,63ea551bae34b6edcd5bb799,09:28:47,03/04/2024
,"<p style=""font-size:75px;"">...</p>",,ospan,iti,7Qr0HTIsC9VrF9vP9aILlaRR68O2,html-keyboard-response,58,686351,0.0-46.0-0.0-1.0-0.0,,,,,,,,,,,,,,,63ea551bae34b6edcd5bb799,09:28:47,03/04/2024
,"<div style=""font-size: 10rem; color: #0000FF"">P</div>",,ospan,letter,7Qr0HTIsC9VrF9vP9aILlaRR68O2,html-keyboard-response,59,687354,0.0-46.0-0.0-1.0-1.0,,,,,,,,,,,,,,,63ea551bae34b6edcd5bb799,09:28:47,03/04/2024
,"<div style=""font-size: 10rem; color: #0000FF"">H</div>",,ospan,letter,7Qr0HTIsC9VrF9vP9aILlaRR68O2,html-keyboard-response,60,689111,0.0-46.0-0.0-1.0-2.0,,,,,,,,,,,,,,,63ea551bae34b6edcd5bb799,09:28:47,03/04/2024
12105.200000047684,"<div class = numbox><p style=""font-size: 2.4rem"">Please recall the letters you saw to the best of your ability. If you do not remember a particular letter, use the SKIP button.<br><b>(When you are ready to lock in your answer, press ENTER)</b></p><button id = button_1 class = ""square num-button"" onclick = ""recordClick(this)""><div class = content><div class = numbers>C</div></div></button><button id = button_2 class = ""square num-button"" onclick = ""recordClick(this)""><div class = content><div class = numbers>G</div></div></button><button id = button_3 class = ""square num-button"" onclick = ""recordClick(this)""><div class = content><div class = numbers>H</div></div></button><button id = button_4 class = ""square num-button"" onclick = ""recordClick(this)""><div class = content><div class = numbers>J</div></div></button><button id = button_5 class = ""square num-button"" onclick = ""recordClick(this)""><div class = content><div class = numbers>K</div></div></button><button id = button_6 class = ""square num-button"" onclick = ""recordClick(this)""><div class = content><div class = numbers>L</div></div></button><button id = button_7 class = ""square num-button"" onclick = ""recordClick(this)""><div class = content><div class = numbers>N</div></div></button><button id = button_8 class = ""square num-button"" onclick = ""recordClick(this)""><div class = content><div class = numbers>P</div></div></button><button id = button_9 class = ""square num-button"" onclick = ""recordClick(this)""><div class = content><div class = numbers>Q</div></div></button><button id = button_10 class = ""square num-button"" onclick = ""recordClick(this)""><div class = content><div class = numbers>R</div></div></button><button id = button_11 class = ""square num-button"" onclick = ""recordClick(this)""><div class = content><div class = numbers>S</div></div></button><button id = button_12 class = ""square num-button"" onclick = ""recordClick(this)""><div class = content><div class = numbers>Y</div></div></button><button class = clear_button id = ""ClearButton"" onclick = ""clearResponse()"">BACKSPACE</button><button class = blank_button id = ""BlankButton"" onclick = ""blankResponse()"">SKIP</button><p style=""font-size: 2.4rem""><u><b>Current Answer:</b></u></p><br><br><div id=echoed_txt style=""font-size: 5rem; color:blue;""><b></b></div></div>",enter,ospan,retrieval,7Qr0HTIsC9VrF9vP9aILlaRR68O2,html-keyboard-response,61,701971,0.0-46.0-0.0-1.0-3.0,NA,NA,NA,2.0,"[""P"",""H""]","[""P"",""H""]",1.0,2.0,"['<font color=""green"">P</font>', '<font color=""green"">H</font>']",,,,,,63ea551bae34b6edcd5bb799,09:28:47,03/04/2024
2092.5999999046326,"['<p style=""font-size:44px"">Letters:<br><br><br><font color=""green"">P</font> <font color=""green"">H</font></p><br><br>']",0,ospan,practice_feedback,7Qr0HTIsC9VrF9vP9aILlaRR68O2,html-button-response,62,704569,0.0-46.0-0.0-1.0-4.0,,,,,,,,,,,,,,,63ea551bae34b6edcd5bb799,09:28:47,03/04/2024
,"<p style=""font-size:75px;"">...</p>",,ospan,iti,7Qr0HTIsC9VrF9vP9aILlaRR68O2,html-keyboard-response,63,705577,0.0-46.0-0.0-2.0-0.0,,,,,,,,,,,,,,,63ea551bae34b6edcd5bb799,09:28:47,03/04/2024
,"<div style=""font-size: 10rem; color: #0000FF"">Q</div>",,ospan,letter,7Qr0HTIsC9VrF9vP9aILlaRR68O2,html-keyboard-response,64,706583,0.0-46.0-0.0-2.0-1.0,,,,,,,,,,,,,,,63ea551bae34b6edcd5bb799,09:28:47,03/04/2024
,"<div style=""font-size: 10rem; color: #0000FF"">H</div>",,ospan,letter,7Qr0HTIsC9VrF9vP9aILlaRR68O2,html-keyboard-response,65,708340,0.0-46.0-0.0-2.0-2.0,,,,,,,,,,,,,,,63ea551bae34b6edcd5bb799,09:28:47,03/04/2024
,"<div style=""font-size: 10rem; color: #0000FF"">R</div>",,ospan,letter,7Qr0HTIsC9VrF9vP9aILlaRR68O2,html-keyboard-response,66,710095,0.0-46.0-0.0-2.0-3.0,,,,,,,,,,,,,,,63ea551bae34b6edcd5bb799,09:28:47,03/04/2024
4994.799999952316,"<div class = numbox><p style=""font-size: 2.4rem"">Please recall the letters you saw to the best of your ability. If you do not remember a particular letter, use the SKIP button.<br><b>(When you are ready to lock in your answer, press ENTER)</b></p><button id = button_1 class = ""square num-button"" onclick = ""recordClick(this)""><div class = content><div class = numbers>C</div></div></button><button id = button_2 class = ""square num-button"" onclick = ""recordClick(this)""><div class = content><div class = numbers>G</div></div></button><button id = button_3 class = ""square num-button"" onclick = ""recordClick(this)""><div class = content><div class = numbers>H</div></div></button><button id = button_4 class = ""square num-button"" onclick = ""recordClick(this)""><div class = content><div class = numbers>J</div></div></button><button id = button_5 class = ""square num-button"" onclick = ""recordClick(this)""><div class = content><div class = numbers>K</div></div></button><button id = button_6 class = ""square num-button"" onclick = ""recordClick(this)""><div class = content><div class = numbers>L</div></div></button><button id = button_7 class = ""square num-button"" onclick = ""recordClick(this)""><div class = content><div class = numbers>N</div></div></button><button id = button_8 class = ""square num-button"" onclick = ""recordClick(this)""><div class = content><div class = numbers>P</div></div></button><button id = button_9 class = ""square num-button"" onclick = ""recordClick(this)""><div class = content><div class = numbers>Q</div></div></button><button id = button_10 class = ""square num-button"" onclick = ""recordClick(this)""><div class = content><div class = numbers>R</div></div></button><button id = button_11 class = ""square num-button"" onclick = ""recordClick(this)""><div class = content><div class = numbers>S</div></div></button><button id = button_12 class = ""square num-button"" onclick = ""recordClick(this)""><div class = content><div class = numbers>Y</div></div></button><button class = clear_button id = ""ClearButton"" onclick = ""clearResponse()"">BACKSPACE</button><button class = blank_button id = ""BlankButton"" onclick = ""blankResponse()"">SKIP</button><p style=""font-size: 2.4rem""><u><b>Current Answer:</b></u></p><br><br><div id=echoed_txt style=""font-size: 5rem; color:blue;""><b></b></div></div>",enter,ospan,retrieval,7Qr0HTIsC9VrF9vP9aILlaRR68O2,html-keyboard-response,67,715844,0.0-46.0-0.0-2.0-4.0,NA,NA,NA,3.0,"[""Q"",""H"",""R""]","[""Q"",""H"",""R""]",1.0,3.0,"['<font color=""green"">Q</font>', '<font color=""green"">H</font>', '<font color=""green"">R</font>']",,,,,,63ea551bae34b6edcd5bb799,09:28:47,03/04/2024
2915.699999809265,"['<p style=""font-size:44px"">Letters:<br><br><br><font color=""green"">Q</font> <font color=""green"">H</font> <font color=""green"">R</font></p><br><br>']",0,ospan,practice_feedback,7Qr0HTIsC9VrF9vP9aILlaRR68O2,html-button-response,68,719271,0.0-46.0-0.0-2.0-5.0,,,,,,,,,,,,,,,63ea551bae34b6edcd5bb799,09:28:47,03/04/2024
20323.900000095367,"<div class = 'left_align' style='font-size: 3.25rem; line-height: 1.3;'>Now you will practice doing the <b>symmetry judgment part</b> of the experiment.<br><br>A black and white grid picture will appear on the screen and you have to judge if it is <br>symmetrical or asymetrical.<br><br>A picture is 'mirror' symmetrical if its left half is identical to the right half when flipped.<br>Here are examples of a symmetrical and an asymetrical picture:<br><br><center><img src='Stimuli/img/symm_instructions_extra.png' style='height:420px; width:900'></img></center><br>To judge symmetry, imagine you were to fold each picture down the middle, like a book –<br>would the left half match the right half when folded onto each other?<br><br></div><br>",0,ospan,instruct,7Qr0HTIsC9VrF9vP9aILlaRR68O2,html-button-response,69,739605,0.0-46.0-1.0-0.0-0.0,,,,,,,,,,,,,,,63ea551bae34b6edcd5bb799,09:28:47,03/04/2024
12314.799999952316,"<div class = 'left_align' style='font-size: 3.25rem; line-height: 1.3;'>When you have viewed the picture and determined whether it is symmetrical or not,<br>you can <b>click the Yes or No button</b> below to answer.<br><br>If you take longer than 15 seconds, it will continue automatically<br>and record the answer as an error.</div><br>",0,ospan,instruct,7Qr0HTIsC9VrF9vP9aILlaRR68O2,html-button-response,70,752174,0.0-46.0-1.0-0.0-1.0,,,,,,,,,,,,,,,63ea551bae34b6edcd5bb799,09:28:47,03/04/2024
6583.200000047684,"<div class = 'left_align' style='font-size: 3.25rem; line-height: 1.3;'>It is <b>very</b> important that you make the symmetry judgment correctly.<br><br>It is also important that you try and judge the picture as quickly as you can.<br><br>When you are ready, click on the button below to try some practice problems.</div><br><br><br><br>",0,ospan,instruct,7Qr0HTIsC9VrF9vP9aILlaRR68O2,html-button-response,71,759009,0.0-46.0-1.0-0.0-2.0,,,,,,,,,,,,,,,63ea551bae34b6edcd5bb799,09:28:47,03/04/2024
2618.0,,,ospan,symmetry,7Qr0HTIsC9VrF9vP9aILlaRR68O2,symmetry-judgement-task,72,762412,0.0-46.0-1.0-1.0-0.0,,,,,,,,,,1.0,1.0,,,,63ea551bae34b6edcd5bb799,09:28:47,03/04/2024
,"<p style=""color:green; font-size: 35px"">Correct</p>",,ospan,feedback,7Qr0HTIsC9VrF9vP9aILlaRR68O2,html-keyboard-response,73,763168,0.0-46.0-1.0-1.0-1.0,,,,,,,,,,,,,,,63ea551bae34b6edcd5bb799,09:28:47,03/04/2024
1454.0,,,ospan,symmetry,7Qr0HTIsC9VrF9vP9aILlaRR68O2,symmetry-judgement-task,74,767246,0.0-46.0-1.0-1.0-2.0,,,,,,,,,,1.0,1.0,,,,63ea551bae34b6edcd5bb799,09:28:47,03/04/2024
,"<p style=""color:green; font-size: 35px"">Correct</p>",,ospan,feedback,7Qr0HTIsC9VrF9vP9aILlaRR68O2,html-keyboard-response,75,768011,0.0-46.0-1.0-1.0-3.0,,,,,,,,,,,,,,,63ea551bae34b6edcd5bb799,09:28:47,03/04/2024
1642.0,,,ospan,symmetry,7Qr0HTIsC9VrF9vP9aILlaRR68O2,symmetry-judgement-task,76,772274,0.0-46.0-1.0-1.0-4.0,,,,,,,,,,1.0,1.0,,,,63ea551bae34b6edcd5bb799,09:28:47,03/04/2024
,"<p style=""color:green; font-size: 35px"">Correct</p>",,ospan,feedback,7Qr0HTIsC9VrF9vP9aILlaRR68O2,html-keyboard-response,77,773029,0.0-46.0-1.0-1.0-5.0,,,,,,,,,,,,,,,63ea551bae34b6edcd5bb799,09:28:47,03/04/2024
2567.7000000476837,"<p style=""font-size: 3rem;"">You responded correctly on 3 of 3 symmetry judgments. Good job!</p><br><br>",0,ospan,practice,7Qr0HTIsC9VrF9vP9aILlaRR68O2,html-button-response,78,777607,0.0-46.0-1.0-2.0,,,,,,,,,,,,,,,63ea551bae34b6edcd5bb799,09:28:47,03/04/2024
5864.299999952316,"<div class = 'left_align' style='font-size: 3.25rem; line-height: 1.3;'>Now you will practice doing both parts of the experiment at the same time.<br><br>In the next practice set, you will be given one grid picture to judge.<br>Then letter will appear on the screen. Try to remember the letter.<br><br>It is <b>very important</b> to make the symmetry judgment as quickly and accurately as possible.<br><br>Just as before, once you have make the symmetry judgment, you can click Yes or No.<br><b>Note that you will no longer see Correct or Incorrect feedback.</div><br><br><br><br>",0,ospan,instruct,7Qr0HTIsC9VrF9vP9aILlaRR68O2,html-button-response,79,783726,0.0-46.0-2.0-0.0-0.0,,,,,,,,,,,,,,,63ea551bae34b6edcd5bb799,09:28:47,03/04/2024
10036.100000143051,"<div class = 'left_align' style='font-size: 3.25rem; line-height: 1.3;'>After the letter goes away, another grid picture will appear, and then<br>another letter.<br><br>At the end of each set of letters and grids, you will recall the letters to the best<br>of your ability. Remember, try your best to get the letters in the correct order.<br><br>It is important to <b>quickly</b> and <b>accurately</b> make the symmetry judgments.</div><br><br><br><br>",0,ospan,instruct,7Qr0HTIsC9VrF9vP9aILlaRR68O2,html-button-response,80,794016,0.0-46.0-2.0-0.0-1.0,,,,,,,,,,,,,,,63ea551bae34b6edcd5bb799,09:28:47,03/04/2024
10035.799999952316,"<div class = 'left_align' style='font-size: 3.25rem; line-height: 1.3;'>On the feedback screen, if you are not doing well at the symmetry judgments,<br>you will also see a warning in the middle. This indicates your percent <br>correct for the grid pictures for the entire experiment.<br><br>It is <b>very</b> important for you to keep accuracy at least at 85%: <u>We can only use<br>data where the participant was at least 85% accurate on the judgments.</u> Therefore,<br> please try your best to perform well on the symmetry judgments, <b>at the same time</b><br>doing your best to recall as many letters as possible.<br><br>Click the button to try some practice problems.</div><br><br><br><br>",0,ospan,instruct,7Qr0HTIsC9VrF9vP9aILlaRR68O2,html-button-response,81,804303,0.0-46.0-2.0-0.0-2.0,,,,,,,,,,,,,,,63ea551bae34b6edcd5bb799,09:28:47,03/04/2024
,"<p style=""font-size:75px;"">...</p>",,ospan,iti,7Qr0HTIsC9VrF9vP9aILlaRR68O2,html-keyboard-response,82,805558,0.0-46.0-2.0-1.0-0.0,,,,,,,,,,,,,,,63ea551bae34b6edcd5bb799,09:28:47,03/04/2024
1722.0,,,ospan,symmetry,7Qr0HTIsC9VrF9vP9aILlaRR68O2,symmetry-judgement-task,83,808412,0.0-46.0-2.0-1.0-1.0-0.0,,,,,,,,,,1.0,1.0,,,,63ea551bae34b6edcd5bb799,09:28:47,03/04/2024
,"<div style=""font-size: 10rem; color: #0000FF"">S</div>",,ospan,letter,7Qr0HTIsC9VrF9vP9aILlaRR68O2,html-keyboard-response,84,809416,0.0-46.0-2.0-1.0-1.0-1.0,,,,,,,,,,,,,,,63ea551bae34b6edcd5bb799,09:28:47,03/04/2024
1450.0,,,ospan,symmetry,7Qr0HTIsC9VrF9vP9aILlaRR68O2,symmetry-judgement-task,85,812741,0.0-46.0-2.0-1.0-1.0-2.0,,,,,,,,,,1.0,1.0,,,,63ea551bae34b6edcd5bb799,09:28:47,03/04/2024
,"<div style=""font-size: 10rem; color: #0000FF"">P</div>",,ospan,letter,7Qr0HTIsC9VrF9vP9aILlaRR68O2,html-keyboard-response,86,813743,0.0-46.0-2.0-1.0-1.0-3.0,,,,,,,,,,,,,,,63ea551bae34b6edcd5bb799,09:28:47,03/04/2024
1428.0,,,ospan,symmetry,7Qr0HTIsC9VrF9vP9aILlaRR68O2,symmetry-judgement-task,87,817052,0.0-46.0-2.0-1.0-1.0-4.0,,,,,,,,,,1.0,1.0,,,,63ea551bae34b6edcd5bb799,09:28:47,03/04/2024
,"<div style=""font-size: 10rem; color: #0000FF"">Y</div>",,ospan,letter,7Qr0HTIsC9VrF9vP9aILlaRR68O2,html-keyboard-response,88,818058,0.0-46.0-2.0-1.0-1.0-5.0,,,,,,,,,,,,,,,63ea551bae34b6edcd5bb799,09:28:47,03/04/2024
4465.200000047684,"<div class = numbox><p style=""font-size: 2.4rem"">Please recall the letters you saw to the best of your ability. If you do not remember a particular letter, use the SKIP button.<br><b>(When you are ready to lock in your answer, press ENTER)</b></p><button id = button_1 class = ""square num-button"" onclick = ""recordClick(this)""><div class = content><div class = numbers>C</div></div></button><button id = button_2 class = ""square num-button"" onclick = ""recordClick(this)""><div class = content><div class = numbers>G</div></div></button><button id = button_3 class = ""square num-button"" onclick = ""recordClick(this)""><div class = content><div class = numbers>H</div></div></button><button id = button_4 class = ""square num-button"" onclick = ""recordClick(this)""><div class = content><div class = numbers>J</div></div></button><button id = button_5 class = ""square num-button"" onclick = ""recordClick(this)""><div class = content><div class = numbers>K</div></div></button><button id = button_6 class = ""square num-button"" onclick = ""recordClick(this)""><div class = content><div class = numbers>L</div></div></button><button id = button_7 class = ""square num-button"" onclick = ""recordClick(this)""><div class = content><div class = numbers>N</div></div></button><button id = button_8 class = ""square num-button"" onclick = ""recordClick(this)""><div class = content><div class = numbers>P</div></div></button><button id = button_9 class = ""square num-button"" onclick = ""recordClick(this)""><div class = content><div class = numbers>Q</div></div></button><button id = button_10 class = ""square num-button"" onclick = ""recordClick(this)""><div class = content><div class = numbers>R</div></div></button><button id = button_11 class = ""square num-button"" onclick = ""recordClick(this)""><div class = content><div class = numbers>S</div></div></button><button id = button_12 class = ""square num-button"" onclick = ""recordClick(this)""><div class = content><div class = numbers>Y</div></div></button><button class = clear_button id = ""ClearButton"" onclick = ""clearResponse()"">BACKSPACE</button><button class = blank_button id = ""BlankButton"" onclick = ""blankResponse()"">SKIP</button><p style=""font-size: 2.4rem""><u><b>Current Answer:</b></u></p><br><br><div id=echoed_txt style=""font-size: 5rem; color:blue;""><b></b></div></div>",enter,ospan,retrieval,7Qr0HTIsC9VrF9vP9aILlaRR68O2,html-keyboard-response,89,823276,0.0-46.0-2.0-1.0-2.0-0.0,NA,NA,NA,3.0,"[""S"",""P"",""Y""]","[""S"",""P"",""Y""]",1.0,3.0,"['<font color=""green"">S</font>', '<font color=""green"">P</font>', '<font color=""green"">Y</font>']",,,,,,63ea551bae34b6edcd5bb799,09:28:47,03/04/2024
2945.5999999046326,"['<p style=""font-size:44px"">Letters:<br><br><br><font color=""green"">S</font> <font color=""green"">P</font> <font color=""green"">Y</font></p><br><br><p style=""font-size:30px"">Symmetry:<br><br><font color=""green"">100%</font></p><br><br>']",0,ospan,practice_feedback,7Qr0HTIsC9VrF9vP9aILlaRR68O2,html-button-response,90,826727,0.0-46.0-2.0-1.0-2.0-1.0,,,,,,,,,,,,,,,63ea551bae34b6edcd5bb799,09:28:47,03/04/2024
,"<p style=""font-size:75px;"">...</p>",,ospan,iti,7Qr0HTIsC9VrF9vP9aILlaRR68O2,html-keyboard-response,91,827733,0.0-46.0-2.0-2.0-0.0,,,,,,,,,,,,,,,63ea551bae34b6edcd5bb799,09:28:47,03/04/2024
1527.0,,,ospan,symmetry,7Qr0HTIsC9VrF9vP9aILlaRR68O2,symmetry-judgement-task,92,830399,0.0-46.0-2.0-2.0-1.0-0.0,,,,,,,,,,1.0,1.0,,,,63ea551bae34b6edcd5bb799,09:28:47,03/04/2024
,"<div style=""font-size: 10rem; color: #0000FF"">K</div>",,ospan,letter,7Qr0HTIsC9VrF9vP9aILlaRR68O2,html-keyboard-response,93,831403,0.0-46.0-2.0-2.0-1.0-1.0,,,,,,,,,,,,,,,63ea551bae34b6edcd5bb799,09:28:47,03/04/2024
1162.0,,,ospan,symmetry,7Qr0HTIsC9VrF9vP9aILlaRR68O2,symmetry-judgement-task,94,834465,0.0-46.0-2.0-2.0-1.0-2.0,,,,,,,,,,1.0,1.0,,,,63ea551bae34b6edcd5bb799,09:28:47,03/04/2024
,"<div style=""font-size: 10rem; color: #0000FF"">Y</div>",,ospan,letter,7Qr0HTIsC9VrF9vP9aILlaRR68O2,html-keyboard-response,95,835469,0.0-46.0-2.0-2.0-1.0-3.0,,,,,,,,,,,,,,,63ea551bae34b6edcd5bb799,09:28:47,03/04/2024
1136.0,,,ospan,symmetry,7Qr0HTIsC9VrF9vP9aILlaRR68O2,symmetry-judgement-task,96,838541,0.0-46.0-2.0-2.0-1.0-4.0,,,,,,,,,,1.0,1.0,,,,63ea551bae34b6edcd5bb799,09:28:47,03/04/2024
,"<div style=""font-size: 10rem; color: #0000FF"">S</div>",,ospan,letter,7Qr0HTIsC9VrF9vP9aILlaRR68O2,html-keyboard-response,97,839544,0.0-46.0-2.0-2.0-1.0-5.0,,,,,,,,,,,,,,,63ea551bae34b6edcd5bb799,09:28:47,03/04/2024
5271.800000190735,"<div class = numbox><p style=""font-size: 2.4rem"">Please recall the letters you saw to the best of your ability. If you do not remember a particular letter, use the SKIP button.<br><b>(When you are ready to lock in your answer, press ENTER)</b></p><button id = button_1 class = ""square num-button"" onclick = ""recordClick(this)""><div class = content><div class = numbers>C</div></div></button><button id = button_2 class = ""square num-button"" onclick = ""recordClick(this)""><div class = content><div class = numbers>G</div></div></button><button id = button_3 class = ""square num-button"" onclick = ""recordClick(this)""><div class = content><div class = numbers>H</div></div></button><button id = button_4 class = ""square num-button"" onclick = ""recordClick(this)""><div class = content><div class = numbers>J</div></div></button><button id = button_5 class = ""square num-button"" onclick = ""recordClick(this)""><div class = content><div class = numbers>K</div></div></button><button id = button_6 class = ""square num-button"" onclick = ""recordClick(this)""><div class = content><div class = numbers>L</div></div></button><button id = button_7 class = ""square num-button"" onclick = ""recordClick(this)""><div class = content><div class = numbers>N</div></div></button><button id = button_8 class = ""square num-button"" onclick = ""recordClick(this)""><div class = content><div class = numbers>P</div></div></button><button id = button_9 class = ""square num-button"" onclick = ""recordClick(this)""><div class = content><div class = numbers>Q</div></div></button><button id = button_10 class = ""square num-button"" onclick = ""recordClick(this)""><div class = content><div class = numbers>R</div></div></button><button id = button_11 class = ""square num-button"" onclick = ""recordClick(this)""><div class = content><div class = numbers>S</div></div></button><button id = button_12 class = ""square num-button"" onclick = ""recordClick(this)""><div class = content><div class = numbers>Y</div></div></button><button class = clear_button id = ""ClearButton"" onclick = ""clearResponse()"">BACKSPACE</button><button class = blank_button id = ""BlankButton"" onclick = ""blankResponse()"">SKIP</button><p style=""font-size: 2.4rem""><u><b>Current Answer:</b></u></p><br><br><div id=echoed_txt style=""font-size: 5rem; color:blue;""><b></b></div></div>",enter,ospan,retrieval,7Qr0HTIsC9VrF9vP9aILlaRR68O2,html-keyboard-response,98,845571,0.0-46.0-2.0-2.0-2.0-0.0,NA,NA,NA,3.0,"[""K"",""Y"",""S""]","[""K"",""Y"",""S""]",1.0,3.0,"['<font color=""green"">K</font>', '<font color=""green"">Y</font>', '<font color=""green"">S</font>']",,,,,,63ea551bae34b6edcd5bb799,09:28:47,03/04/2024
2628.7000000476837,"['<p style=""font-size:44px"">Letters:<br><br><br><font color=""green"">K</font> <font color=""green"">Y</font> <font color=""green"">S</font></p><br><br><p style=""font-size:30px"">Symmetry:<br><br><font color=""green"">100%</font></p><br><br>']",0,ospan,practice_feedback,7Qr0HTIsC9VrF9vP9aILlaRR68O2,html-button-response,99,848714,0.0-46.0-2.0-2.0-2.0-1.0,,,,,,,,,,,,,,,63ea551bae34b6edcd5bb799,09:28:47,03/04/2024
18342.900000095367,"<div class = 'left_align' style='font-size: 3rem; line-height: 1.3;'><b>Great work! That is the end of practice.</b><br><br>The real trials will look just like the practice trials you just completed.<br><br><u>Here, you will not see feedback</u>. First, you will see an grid picture to judge,<br>then a letter to remember. When the recall screen appears, report the letters in the<br>order presented. If you forget a letter, remember to use the <b>blank</b> button to move to the<br>next letter. Some of the sets will have more symmetry grids and letters than others.<br><br>It is important that you do your best on both the symmetry judgments and the letter recall<br>parts of the experiment. For for the symmetry judgments, try to work as <b>quickly</b> and <br>as <b>accurately</b> as possible. Remember to keep your symmetry accuracy at 85% or above.<br><br><b>For the letters, do NOT use any external aid (e.g., writing on paper, electronic device).</b><br><br>It is <u>very important</u> to our experiment to have a <b>true</b> view of your real performance.<br><br>Do not worry if you miss some when it gets hard! This task is meant to be very challenging!<br><br>Click the button to begin.</div><br><br><br><br>",0,ospan,starting_real_here,7Qr0HTIsC9VrF9vP9aILlaRR68O2,html-button-response,100,867059,0.0-46.0-2.0-3.0,,,,,,,,,,,,,,,63ea551bae34b6edcd5bb799,09:28:47,03/04/2024
,"<p style=""font-size:75px;"">...</p>",,ospan,iti,7Qr0HTIsC9VrF9vP9aILlaRR68O2,html-keyboard-response,101,868324,0.0-46.0-3.0-0.0-0.0,,,,,,,,,,,,,,,63ea551bae34b6edcd5bb799,09:28:47,03/04/2024
1382.0,,,ospan,symmetry,7Qr0HTIsC9VrF9vP9aILlaRR68O2,symmetry-judgement-task,102,870832,0.0-46.0-3.0-0.0-1.0-0.0,,,,,,,,,,1.0,1.0,,,,63ea551bae34b6edcd5bb799,09:28:47,03/04/2024
,"<div style=""font-size: 10rem; color: #0000FF"">G</div>",,ospan,letter,7Qr0HTIsC9VrF9vP9aILlaRR68O2,html-keyboard-response,103,871836,0.0-46.0-3.0-0.0-1.0-1.0,,,,,,,,,,,,,,,63ea551bae34b6edcd5bb799,09:28:47,03/04/2024
1267.0,,,ospan,symmetry,7Qr0HTIsC9VrF9vP9aILlaRR68O2,symmetry-judgement-task,104,874973,0.0-46.0-3.0-0.0-1.0-2.0,,,,,,,,,,1.0,1.0,,,,63ea551bae34b6edcd5bb799,09:28:47,03/04/2024
,"<div style=""font-size: 10rem; color: #0000FF"">R</div>",,ospan,letter,7Qr0HTIsC9VrF9vP9aILlaRR68O2,html-keyboard-response,105,875977,0.0-46.0-3.0-0.0-1.0-3.0,,,,,,,,,,,,,,,63ea551bae34b6edcd5bb799,09:28:47,03/04/2024
1085.0,,,ospan,symmetry,7Qr0HTIsC9VrF9vP9aILlaRR68O2,symmetry-judgement-task,106,878924,0.0-46.0-3.0-0.0-1.0-4.0,,,,,,,,,,1.0,1.0,,,,63ea551bae34b6edcd5bb799,09:28:47,03/04/2024
,"<div style=""font-size: 10rem; color: #0000FF"">L</div>",,ospan,letter,7Qr0HTIsC9VrF9vP9aILlaRR68O2,html-keyboard-response,107,879929,0.0-46.0-3.0-0.0-1.0-5.0,,,,,,,,,,,,,,,63ea551bae34b6edcd5bb799,09:28:47,03/04/2024
4668.799999952316,"<div class = numbox><p style=""font-size: 2.4rem"">Please recall the letters you saw to the best of your ability. If you do not remember a particular letter, use the SKIP button.<br><b>(When you are ready to lock in your answer, press ENTER)</b></p><button id = button_1 class = ""square num-button"" onclick = ""recordClick(this)""><div class = content><div class = numbers>C</div></div></button><button id = button_2 class = ""square num-button"" onclick = ""recordClick(this)""><div class = content><div class = numbers>G</div></div></button><button id = button_3 class = ""square num-button"" onclick = ""recordClick(this)""><div class = content><div class = numbers>H</div></div></button><button id = button_4 class = ""square num-button"" onclick = ""recordClick(this)""><div class = content><div class = numbers>J</div></div></button><button id = button_5 class = ""square num-button"" onclick = ""recordClick(this)""><div class = content><div class = numbers>K</div></div></button><button id = button_6 class = ""square num-button"" onclick = ""recordClick(this)""><div class = content><div class = numbers>L</div></div></button><button id = button_7 class = ""square num-button"" onclick = ""recordClick(this)""><div class = content><div class = numbers>N</div></div></button><button id = button_8 class = ""square num-button"" onclick = ""recordClick(this)""><div class = content><div class = numbers>P</div></div></button><button id = button_9 class = ""square num-button"" onclick = ""recordClick(this)""><div class = content><div class = numbers>Q</div></div></button><button id = button_10 class = ""square num-button"" onclick = ""recordClick(this)""><div class = content><div class = numbers>R</div></div></button><button id = button_11 class = ""square num-button"" onclick = ""recordClick(this)""><div class = content><div class = numbers>S</div></div></button><button id = button_12 class = ""square num-button"" onclick = ""recordClick(this)""><div class = content><div class = numbers>Y</div></div></button><button class = clear_button id = ""ClearButton"" onclick = ""clearResponse()"">BACKSPACE</button><button class = blank_button id = ""BlankButton"" onclick = ""blankResponse()"">SKIP</button><p style=""font-size: 2.4rem""><u><b>Current Answer:</b></u></p><br><br><div id=echoed_txt style=""font-size: 5rem; color:blue;""><b></b></div></div>",enter,ospan,retrieval,7Qr0HTIsC9VrF9vP9aILlaRR68O2,html-keyboard-response,108,885351,0.0-46.0-3.0-0.0-2.0,3,3,3,3.0,"[""G"",""R"",""L""]","[""G"",""R"",""L""]",1.0,3.0,,,,,,,63ea551bae34b6edcd5bb799,09:28:47,03/04/2024
1508.5,[''],0,ospan,feedback,7Qr0HTIsC9VrF9vP9aILlaRR68O2,html-button-response,109,887368,0.0-46.0-3.0-0.0-3.0,,,,,,,,,,,,100.0,0.0,,63ea551bae34b6edcd5bb799,09:28:47,03/04/2024
,"<p style=""font-size:75px;"">...</p>",,ospan,iti,7Qr0HTIsC9VrF9vP9aILlaRR68O2,html-keyboard-response,110,888371,0.0-46.0-4.0-0.0-0.0,,,,,,,,,,,,,,,63ea551bae34b6edcd5bb799,09:28:47,03/04/2024
1531.0,,,ospan,symmetry,7Qr0HTIsC9VrF9vP9aILlaRR68O2,symmetry-judgement-task,111,890943,0.0-46.0-4.0-0.0-1.0-0.0,,,,,,,,,,1.0,1.0,,,,63ea551bae34b6edcd5bb799,09:28:47,03/04/2024
,"<div style=""font-size: 10rem; color: #0000FF"">K</div>",,ospan,letter,7Qr0HTIsC9VrF9vP9aILlaRR68O2,html-keyboard-response,112,891956,0.0-46.0-4.0-0.0-1.0-1.0,,,,,,,,,,,,,,,63ea551bae34b6edcd5bb799,09:28:47,03/04/2024
918.0,,,ospan,symmetry,7Qr0HTIsC9VrF9vP9aILlaRR68O2,symmetry-judgement-task,113,894761,0.0-46.0-4.0-0.0-1.0-2.0,,,,,,,,,,1.0,1.0,,,,63ea551bae34b6edcd5bb799,09:28:47,03/04/2024
,"<div style=""font-size: 10rem; color: #0000FF"">Q</div>",,ospan,letter,7Qr0HTIsC9VrF9vP9aILlaRR68O2,html-keyboard-response,114,895767,0.0-46.0-4.0-0.0-1.0-3.0,,,,,,,,,,,,,,,63ea551bae34b6edcd5bb799,09:28:47,03/04/2024
1557.0,,,ospan,symmetry,7Qr0HTIsC9VrF9vP9aILlaRR68O2,symmetry-judgement-task,115,899187,0.0-46.0-4.0-0.0-1.0-4.0,,,,,,,,,,1.0,1.0,,,,63ea551bae34b6edcd5bb799,09:28:47,03/04/2024
,"<div style=""font-size: 10rem; color: #0000FF"">L</div>",,ospan,letter,7Qr0HTIsC9VrF9vP9aILlaRR68O2,html-keyboard-response,116,900191,0.0-46.0-4.0-0.0-1.0-5.0,,,,,,,,,,,,,,,63ea551bae34b6edcd5bb799,09:28:47,03/04/2024
1639.0,,,ospan,symmetry,7Qr0HTIsC9VrF9vP9aILlaRR68O2,symmetry-judgement-task,117,903702,0.0-46.0-4.0-0.0-1.0-6.0,,,,,,,,,,1.0,1.0,,,,63ea551bae34b6edcd5bb799,09:28:47,03/04/2024
,"<div style=""font-size: 10rem; color: #0000FF"">G</div>",,ospan,letter,7Qr0HTIsC9VrF9vP9aILlaRR68O2,html-keyboard-response,118,904707,0.0-46.0-4.0-0.0-1.0-7.0,,,,,,,,,,,,,,,63ea551bae34b6edcd5bb799,09:28:47,03/04/2024
6290.400000095367,"<div class = numbox><p style=""font-size: 2.4rem"">Please recall the letters you saw to the best of your ability. If you do not remember a particular letter, use the SKIP button.<br><b>(When you are ready to lock in your answer, press ENTER)</b></p><button id = button_1 class = ""square num-button"" onclick = ""recordClick(this)""><div class = content><div class = numbers>C</div></div></button><button id = button_2 class = ""square num-button"" onclick = ""recordClick(this)""><div class = content><div class = numbers>G</div></div></button><button id = button_3 class = ""square num-button"" onclick = ""recordClick(this)""><div class = content><div class = numbers>H</div></div></button><button id = button_4 class = ""square num-button"" onclick = ""recordClick(this)""><div class = content><div class = numbers>J</div></div></button><button id = button_5 class = ""square num-button"" onclick = ""recordClick(this)""><div class = content><div class = numbers>K</div></div></button><button id = button_6 class = ""square num-button"" onclick = ""recordClick(this)""><div class = content><div class = numbers>L</div></div></button><button id = button_7 class = ""square num-button"" onclick = ""recordClick(this)""><div class = content><div class = numbers>N</div></div></button><button id = button_8 class = ""square num-button"" onclick = ""recordClick(this)""><div class = content><div class = numbers>P</div></div></button><button id = button_9 class = ""square num-button"" onclick = ""recordClick(this)""><div class = content><div class = numbers>Q</div></div></button><button id = button_10 class = ""square num-button"" onclick = ""recordClick(this)""><div class = content><div class = numbers>R</div></div></button><button id = button_11 class = ""square num-button"" onclick = ""recordClick(this)""><div class = content><div class = numbers>S</div></div></button><button id = button_12 class = ""square num-button"" onclick = ""recordClick(this)""><div class = content><div class = numbers>Y</div></div></button><button class = clear_button id = ""ClearButton"" onclick = ""clearResponse()"">BACKSPACE</button><button class = blank_button id = ""BlankButton"" onclick = ""blankResponse()"">SKIP</button><p style=""font-size: 2.4rem""><u><b>Current Answer:</b></u></p><br><br><div id=echoed_txt style=""font-size: 5rem; color:blue;""><b></b></div></div>",enter,ospan,retrieval,7Qr0HTIsC9VrF9vP9aILlaRR68O2,html-keyboard-response,119,911752,0.0-46.0-4.0-0.0-2.0,7,7,7,4.0,"[""K"",""Q"",""L"",""G""]","[""K"",""Q"",""L"",""G""]",1.0,4.0,,,,,,,63ea551bae34b6edcd5bb799,09:28:47,03/04/2024
2505.7000000476837,[''],0,ospan,feedback,7Qr0HTIsC9VrF9vP9aILlaRR68O2,html-button-response,120,914772,0.0-46.0-4.0-0.0-3.0,,,,,,,,,,,,100.0,0.0,,63ea551bae34b6edcd5bb799,09:28:47,03/04/2024
,"<p style=""font-size:75px;"">...</p>",,ospan,iti,7Qr0HTIsC9VrF9vP9aILlaRR68O2,html-keyboard-response,121,915775,0.0-46.0-4.0-1.0-0.0,,,,,,,,,,,,,,,63ea551bae34b6edcd5bb799,09:28:47,03/04/2024
1281.0,,,ospan,symmetry,7Qr0HTIsC9VrF9vP9aILlaRR68O2,symmetry-judgement-task,122,918195,0.0-46.0-4.0-1.0-1.0-0.0,,,,,,,,,,1.0,1.0,,,,63ea551bae34b6edcd5bb799,09:28:47,03/04/2024
,"<div style=""font-size: 10rem; color: #0000FF"">Q</div>",,ospan,letter,7Qr0HTIsC9VrF9vP9aILlaRR68O2,html-keyboard-response,123,919196,0.0-46.0-4.0-1.0-1.0-1.0,,,,,,,,,,,,,,,63ea551bae34b6edcd5bb799,09:28:47,03/04/2024
1012.0,,,ospan,symmetry,7Qr0HTIsC9VrF9vP9aILlaRR68O2,symmetry-judgement-task,124,922085,0.0-46.0-4.0-1.0-1.0-2.0,,,,,,,,,,1.0,1.0,,,,63ea551bae34b6edcd5bb799,09:28:47,03/04/2024
,"<div style=""font-size: 10rem; color: #0000FF"">N</div>",,ospan,letter,7Qr0HTIsC9VrF9vP9aILlaRR68O2,html-keyboard-response,125,923087,0.0-46.0-4.0-1.0-1.0-3.0,,,,,,,,,,,,,,,63ea551bae34b6edcd5bb799,09:28:47,03/04/2024
978.0,,,ospan,symmetry,7Qr0HTIsC9VrF9vP9aILlaRR68O2,symmetry-judgement-task,126,925942,0.0-46.0-4.0-1.0-1.0-4.0,,,,,,,,,,1.0,1.0,,,,63ea551bae34b6edcd5bb799,09:28:47,03/04/2024
,"<div style=""font-size: 10rem; color: #0000FF"">G</div>",,ospan,letter,7Qr0HTIsC9VrF9vP9aILlaRR68O2,html-keyboard-response,127,926945,0.0-46.0-4.0-1.0-1.0-5.0,,,,,,,,,,,,,,,63ea551bae34b6edcd5bb799,09:28:47,03/04/2024
1508.0,,,ospan,symmetry,7Qr0HTIsC9VrF9vP9aILlaRR68O2,symmetry-judgement-task,128,930254,0.0-46.0-4.0-1.0-1.0-6.0,,,,,,,,,,1.0,1.0,,,,63ea551bae34b6edcd5bb799,09:28:47,03/04/2024
,"<div style=""font-size: 10rem; color: #0000FF"">L</div>",,ospan,letter,7Qr0HTIsC9VrF9vP9aILlaRR68O2,html-keyboard-response,129,931257,0.0-46.0-4.0-1.0-1.0-7.0,,,,,,,,,,,,,,,63ea551bae34b6edcd5bb799,09:28:47,03/04/2024
1498.0,,,ospan,symmetry,7Qr0HTIsC9VrF9vP9aILlaRR68O2,symmetry-judgement-task,130,934628,0.0-46.0-4.0-1.0-1.0-8.0,,,,,,,,,,1.0,1.0,,,,63ea551bae34b6edcd5bb799,09:28:47,03/04/2024
,"<div style=""font-size: 10rem; color: #0000FF"">K</div>",,ospan,letter,7Qr0HTIsC9VrF9vP9aILlaRR68O2,html-keyboard-response,131,935632,0.0-46.0-4.0-1.0-1.0-9.0,,,,,,,,,,,,,,,63ea551bae34b6edcd5bb799,09:28:47,03/04/2024
10588.700000047684,"<div class = numbox><p style=""font-size: 2.4rem"">Please recall the letters you saw to the best of your ability. If you do not remember a particular letter, use the SKIP button.<br><b>(When you are ready to lock in your answer, press ENTER)</b></p><button id = button_1 class = ""square num-button"" onclick = ""recordClick(this)""><div class = content><div class = numbers>C</div></div></button><button id = button_2 class = ""square num-button"" onclick = ""recordClick(this)""><div class = content><div class = numbers>G</div></div></button><button id = button_3 class = ""square num-button"" onclick = ""recordClick(this)""><div class = content><div class = numbers>H</div></div></button><button id = button_4 class = ""square num-button"" onclick = ""recordClick(this)""><div class = content><div class = numbers>J</div></div></button><button id = button_5 class = ""square num-button"" onclick = ""recordClick(this)""><div class = content><div class = numbers>K</div></div></button><button id = button_6 class = ""square num-button"" onclick = ""recordClick(this)""><div class = content><div class = numbers>L</div></div></button><button id = button_7 class = ""square num-button"" onclick = ""recordClick(this)""><div class = content><div class = numbers>N</div></div></button><button id = button_8 class = ""square num-button"" onclick = ""recordClick(this)""><div class = content><div class = numbers>P</div></div></button><button id = button_9 class = ""square num-button"" onclick = ""recordClick(this)""><div class = content><div class = numbers>Q</div></div></button><button id = button_10 class = ""square num-button"" onclick = ""recordClick(this)""><div class = content><div class = numbers>R</div></div></button><button id = button_11 class = ""square num-button"" onclick = ""recordClick(this)""><div class = content><div class = numbers>S</div></div></button><button id = button_12 class = ""square num-button"" onclick = ""recordClick(this)""><div class = content><div class = numbers>Y</div></div></button><button class = clear_button id = ""ClearButton"" onclick = ""clearResponse()"">BACKSPACE</button><button class = blank_button id = ""BlankButton"" onclick = ""blankResponse()"">SKIP</button><p style=""font-size: 2.4rem""><u><b>Current Answer:</b></u></p><br><br><div id=echoed_txt style=""font-size: 5rem; color:blue;""><b></b></div></div>",enter,ospan,retrieval,7Qr0HTIsC9VrF9vP9aILlaRR68O2,html-keyboard-response,132,946976,0.0-46.0-4.0-1.0-2.0,12,12,12,5.0,"[""Q"",""N"",""G"",""L"",""K""]","[""Q"",""N"",""G"",""L"",""K""]",1.0,5.0,,,,,,,63ea551bae34b6edcd5bb799,09:28:47,03/04/2024
3186.2999999523163,[''],0,ospan,feedback,7Qr0HTIsC9VrF9vP9aILlaRR68O2,html-button-response,133,950677,0.0-46.0-4.0-1.0-3.0,,,,,,,,,,,,100.0,0.0,,63ea551bae34b6edcd5bb799,09:28:47,03/04/2024
,"<p style=""font-size:75px;"">...</p>",,ospan,iti,7Qr0HTIsC9VrF9vP9aILlaRR68O2,html-keyboard-response,134,951694,0.0-46.0-4.0-2.0-0.0,,,,,,,,,,,,,,,63ea551bae34b6edcd5bb799,09:28:47,03/04/2024
1385.0,,,ospan,symmetry,7Qr0HTIsC9VrF9vP9aILlaRR68O2,symmetry-judgement-task,135,954202,0.0-46.0-4.0-2.0-1.0-0.0,,,,,,,,,,1.0,1.0,,,,63ea551bae34b6edcd5bb799,09:28:47,03/04/2024
,"<div style=""font-size: 10rem; color: #0000FF"">N</div>",,ospan,letter,7Qr0HTIsC9VrF9vP9aILlaRR68O2,html-keyboard-response,136,955208,0.0-46.0-4.0-2.0-1.0-1.0,,,,,,,,,,,,,,,63ea551bae34b6edcd5bb799,09:28:47,03/04/2024
1120.0,,,ospan,symmetry,7Qr0HTIsC9VrF9vP9aILlaRR68O2,symmetry-judgement-task,137,958203,0.0-46.0-4.0-2.0-1.0-2.0,,,,,,,,,,1.0,1.0,,,,63ea551bae34b6edcd5bb799,09:28:47,03/04/2024
,"<div style=""font-size: 10rem; color: #0000FF"">L</div>",,ospan,letter,7Qr0HTIsC9VrF9vP9aILlaRR68O2,html-keyboard-response,138,959212,0.0-46.0-4.0-2.0-1.0-3.0,,,,,,,,,,,,,,,63ea551bae34b6edcd5bb799,09:28:47,03/04/2024
1223.0,,,ospan,symmetry,7Qr0HTIsC9VrF9vP9aILlaRR68O2,symmetry-judgement-task,139,962312,0.0-46.0-4.0-2.0-1.0-4.0,,,,,,,,,,1.0,1.0,,,,63ea551bae34b6edcd5bb799,09:28:47,03/04/2024
,"<div style=""font-size: 10rem; color: #0000FF"">P</div>",,ospan,letter,7Qr0HTIsC9VrF9vP9aILlaRR68O2,html-keyboard-response,140,963327,0.0-46.0-4.0-2.0-1.0-5.0,,,,,,,,,,,,,,,63ea551bae34b6edcd5bb799,09:28:47,03/04/2024
4256.200000047684,"<div class = numbox><p style=""font-size: 2.4rem"">Please recall the letters you saw to the best of your ability. If you do not remember a particular letter, use the SKIP button.<br><b>(When you are ready to lock in your answer, press ENTER)</b></p><button id = button_1 class = ""square num-button"" onclick = ""recordClick(this)""><div class = content><div class = numbers>C</div></div></button><button id = button_2 class = ""square num-button"" onclick = ""recordClick(this)""><div class = content><div class = numbers>G</div></div></button><button id = button_3 class = ""square num-button"" onclick = ""recordClick(this)""><div class = content><div class = numbers>H</div></div></button><button id = button_4 class = ""square num-button"" onclick = ""recordClick(this)""><div class = content><div class = numbers>J</div></div></button><button id = button_5 class = ""square num-button"" onclick = ""recordClick(this)""><div class = content><div class = numbers>K</div></div></button><button id = button_6 class = ""square num-button"" onclick = ""recordClick(this)""><div class = content><div class = numbers>L</div></div></button><button id = button_7 class = ""square num-button"" onclick = ""recordClick(this)""><div class = content><div class = numbers>N</div></div></button><button id = button_8 class = ""square num-button"" onclick = ""recordClick(this)""><div class = content><div class = numbers>P</div></div></button><button id = button_9 class = ""square num-button"" onclick = ""recordClick(this)""><div class = content><div class = numbers>Q</div></div></button><button id = button_10 class = ""square num-button"" onclick = ""recordClick(this)""><div class = content><div class = numbers>R</div></div></button><button id = button_11 class = ""square num-button"" onclick = ""recordClick(this)""><div class = content><div class = numbers>S</div></div></button><button id = button_12 class = ""square num-button"" onclick = ""recordClick(this)""><div class = content><div class = numbers>Y</div></div></button><button class = clear_button id = ""ClearButton"" onclick = ""clearResponse()"">BACKSPACE</button><button class = blank_button id = ""BlankButton"" onclick = ""blankResponse()"">SKIP</button><p style=""font-size: 2.4rem""><u><b>Current Answer:</b></u></p><br><br><div id=echoed_txt style=""font-size: 5rem; color:blue;""><b></b></div></div>",enter,ospan,retrieval,7Qr0HTIsC9VrF9vP9aILlaRR68O2,html-keyboard-response,141,968339,0.0-46.0-4.0-2.0-2.0,15,15,15,3.0,"[""N"",""L"",""P""]","[""N"",""L"",""P""]",1.0,3.0,,,,,,,63ea551bae34b6edcd5bb799,09:28:47,03/04/2024
1527.7999999523163,[''],0,ospan,feedback,7Qr0HTIsC9VrF9vP9aILlaRR68O2,html-button-response,142,970382,0.0-46.0-4.0-2.0-3.0,,,,,,,,,,,,100.0,0.0,,63ea551bae34b6edcd5bb799,09:28:47,03/04/2024
,"<p style=""font-size:75px;"">...</p>",,ospan,iti,7Qr0HTIsC9VrF9vP9aILlaRR68O2,html-keyboard-response,143,971394,0.0-46.0-5.0-0.0-0.0,,,,,,,,,,,,,,,63ea551bae34b6edcd5bb799,09:28:47,03/04/2024
1345.0,,,ospan,symmetry,7Qr0HTIsC9VrF9vP9aILlaRR68O2,symmetry-judgement-task,144,973869,0.0-46.0-5.0-0.0-1.0-0.0,,,,,,,,,,1.0,1.0,,,,63ea551bae34b6edcd5bb799,09:28:47,03/04/2024
,"<div style=""font-size: 10rem; color: #0000FF"">N</div>",,ospan,letter,7Qr0HTIsC9VrF9vP9aILlaRR68O2,html-keyboard-response,145,974873,0.0-46.0-5.0-0.0-1.0-1.0,,,,,,,,,,,,,,,63ea551bae34b6edcd5bb799,09:28:47,03/04/2024
1526.0,,,ospan,symmetry,7Qr0HTIsC9VrF9vP9aILlaRR68O2,symmetry-judgement-task,146,978277,0.0-46.0-5.0-0.0-1.0-2.0,,,,,,,,,,1.0,1.0,,,,63ea551bae34b6edcd5bb799,09:28:47,03/04/2024
,"<div style=""font-size: 10rem; color: #0000FF"">R</div>",,ospan,letter,7Qr0HTIsC9VrF9vP9aILlaRR68O2,html-keyboard-response,147,979296,0.0-46.0-5.0-0.0-1.0-3.0,,,,,,,,,,,,,,,63ea551bae34b6edcd5bb799,09:28:47,03/04/2024
1858.0,,,ospan,symmetry,7Qr0HTIsC9VrF9vP9aILlaRR68O2,symmetry-judgement-task,148,983030,0.0-46.0-5.0-0.0-1.0-4.0,,,,,,,,,,1.0,1.0,,,,63ea551bae34b6edcd5bb799,09:28:47,03/04/2024
,"<div style=""font-size: 10rem; color: #0000FF"">Y</div>",,ospan,letter,7Qr0HTIsC9VrF9vP9aILlaRR68O2,html-keyboard-response,149,984032,0.0-46.0-5.0-0.0-1.0-5.0,,,,,,,,,,,,,,,63ea551bae34b6edcd5bb799,09:28:47,03/04/2024
1197.0,,,ospan,symmetry,7Qr0HTIsC9VrF9vP9aILlaRR68O2,symmetry-judgement-task,150,987121,0.0-46.0-5.0-0.0-1.0-6.0,,,,,,,,,,1.0,1.0,,,,63ea551bae34b6edcd5bb799,09:28:47,03/04/2024
,"<div style=""font-size: 10rem; color: #0000FF"">J</div>",,ospan,letter,7Qr0HTIsC9VrF9vP9aILlaRR68O2,html-keyboard-response,151,988125,0.0-46.0-5.0-0.0-1.0-7.0,,,,,,,,,,,,,,,63ea551bae34b6edcd5bb799,09:28:47,03/04/2024
1874.0,,,ospan,symmetry,7Qr0HTIsC9VrF9vP9aILlaRR68O2,symmetry-judgement-task,152,991889,0.0-46.0-5.0-0.0-1.0-8.0,,,,,,,,,,1.0,1.0,,,,63ea551bae34b6edcd5bb799,09:28:47,03/04/2024
,"<div style=""font-size: 10rem; color: #0000FF"">H</div>",,ospan,letter,7Qr0HTIsC9VrF9vP9aILlaRR68O2,html-keyboard-response,153,992892,0.0-46.0-5.0-0.0-1.0-9.0,,,,,,,,,,,,,,,63ea551bae34b6edcd5bb799,09:28:47,03/04/2024
4373.0,,,ospan,symmetry,7Qr0HTIsC9VrF9vP9aILlaRR68O2,symmetry-judgement-task,154,999136,0.0-46.0-5.0-0.0-1.0-10.0,,,,,,,,,,1.0,1.0,,,,63ea551bae34b6edcd5bb799,09:28:47,03/04/2024
,"<div style=""font-size: 10rem; color: #0000FF"">L</div>",,ospan,letter,7Qr0HTIsC9VrF9vP9aILlaRR68O2,html-keyboard-response,155,1000140,0.0-46.0-5.0-0.0-1.0-11.0,,,,,,,,,,,,,,,63ea551bae34b6edcd5bb799,09:28:47,03/04/2024
10039.100000143051,"<div class = numbox><p style=""font-size: 2.4rem"">Please recall the letters you saw to the best of your ability. If you do not remember a particular letter, use the SKIP button.<br><b>(When you are ready to lock in your answer, press ENTER)</b></p><button id = button_1 class = ""square num-button"" onclick = ""recordClick(this)""><div class = content><div class = numbers>C</div></div></button><button id = button_2 class = ""square num-button"" onclick = ""recordClick(this)""><div class = content><div class = numbers>G</div></div></button><button id = button_3 class = ""square num-button"" onclick = ""recordClick(this)""><div class = content><div class = numbers>H</div></div></button><button id = button_4 class = ""square num-button"" onclick = ""recordClick(this)""><div class = content><div class = numbers>J</div></div></button><button id = button_5 class = ""square num-button"" onclick = ""recordClick(this)""><div class = content><div class = numbers>K</div></div></button><button id = button_6 class = ""square num-button"" onclick = ""recordClick(this)""><div class = content><div class = numbers>L</div></div></button><button id = button_7 class = ""square num-button"" onclick = ""recordClick(this)""><div class = content><div class = numbers>N</div></div></button><button id = button_8 class = ""square num-button"" onclick = ""recordClick(this)""><div class = content><div class = numbers>P</div></div></button><button id = button_9 class = ""square num-button"" onclick = ""recordClick(this)""><div class = content><div class = numbers>Q</div></div></button><button id = button_10 class = ""square num-button"" onclick = ""recordClick(this)""><div class = content><div class = numbers>R</div></div></button><button id = button_11 class = ""square num-button"" onclick = ""recordClick(this)""><div class = content><div class = numbers>S</div></div></button><button id = button_12 class = ""square num-button"" onclick = ""recordClick(this)""><div class = content><div class = numbers>Y</div></div></button><button class = clear_button id = ""ClearButton"" onclick = ""clearResponse()"">BACKSPACE</button><button class = blank_button id = ""BlankButton"" onclick = ""blankResponse()"">SKIP</button><p style=""font-size: 2.4rem""><u><b>Current Answer:</b></u></p><br><br><div id=echoed_txt style=""font-size: 5rem; color:blue;""><b></b></div></div>",enter,ospan,retrieval,7Qr0HTIsC9VrF9vP9aILlaRR68O2,html-keyboard-response,156,1010932,0.0-46.0-5.0-0.0-2.0,21,20,15,6.0,"[""N"",""R"",""Y"",""J"",""H""]","[""N"",""R"",""Y"",""J"",""H"",""L""]",0.0,5.0,,,,,,,63ea551bae34b6edcd5bb799,09:28:47,03/04/2024
3345.9000000953674,[''],0,ospan,feedback,7Qr0HTIsC9VrF9vP9aILlaRR68O2,html-button-response,157,1014794,0.0-46.0-5.0-0.0-3.0,,,,,,,,,,,,100.0,0.0,,63ea551bae34b6edcd5bb799,09:28:47,03/04/2024
,"<p style=""font-size:75px;"">...</p>",,ospan,iti,7Qr0HTIsC9VrF9vP9aILlaRR68O2,html-keyboard-response,158,1015806,0.0-46.0-5.0-1.0-0.0,,,,,,,,,,,,,,,63ea551bae34b6edcd5bb799,09:28:47,03/04/2024
1944.0,,,ospan,symmetry,7Qr0HTIsC9VrF9vP9aILlaRR68O2,symmetry-judgement-task,159,1018865,0.0-46.0-5.0-1.0-1.0-0.0,,,,,,,,,,1.0,1.0,,,,63ea551bae34b6edcd5bb799,09:28:47,03/04/2024
,"<div style=""font-size: 10rem; color: #0000FF"">C</div>",,ospan,letter,7Qr0HTIsC9VrF9vP9aILlaRR68O2,html-keyboard-response,160,1019869,0.0-46.0-5.0-1.0-1.0-1.0,,,,,,,,,,,,,,,63ea551bae34b6edcd5bb799,09:28:47,03/04/2024
1555.0,,,ospan,symmetry,7Qr0HTIsC9VrF9vP9aILlaRR68O2,symmetry-judgement-task,161,1023303,0.0-46.0-5.0-1.0-1.0-2.0,,,,,,,,,,1.0,1.0,,,,63ea551bae34b6edcd5bb799,09:28:47,03/04/2024
,"<div style=""font-size: 10rem; color: #0000FF"">Y</div>",,ospan,letter,7Qr0HTIsC9VrF9vP9aILlaRR68O2,html-keyboard-response,162,1024306,0.0-46.0-5.0-1.0-1.0-3.0,,,,,,,,,,,,,,,63ea551bae34b6edcd5bb799,09:28:47,03/04/2024
1036.0,,,ospan,symmetry,7Qr0HTIsC9VrF9vP9aILlaRR68O2,symmetry-judgement-task,163,1027223,0.0-46.0-5.0-1.0-1.0-4.0,,,,,,,,,,1.0,1.0,,,,63ea551bae34b6edcd5bb799,09:28:47,03/04/2024
,"<div style=""font-size: 10rem; color: #0000FF"">H</div>",,ospan,letter,7Qr0HTIsC9VrF9vP9aILlaRR68O2,html-keyboard-response,164,1028228,0.0-46.0-5.0-1.0-1.0-5.0,,,,,,,,,,,,,,,63ea551bae34b6edcd5bb799,09:28:47,03/04/2024
1493.0,,,ospan,symmetry,7Qr0HTIsC9VrF9vP9aILlaRR68O2,symmetry-judgement-task,165,1031600,0.0-46.0-5.0-1.0-1.0-6.0,,,,,,,,,,1.0,1.0,,,,63ea551bae34b6edcd5bb799,09:28:47,03/04/2024
,"<div style=""font-size: 10rem; color: #0000FF"">G</div>",,ospan,letter,7Qr0HTIsC9VrF9vP9aILlaRR68O2,html-keyboard-response,166,1032603,0.0-46.0-5.0-1.0-1.0-7.0,,,,,,,,,,,,,,,63ea551bae34b6edcd5bb799,09:28:47,03/04/2024
1149.0,,,ospan,symmetry,7Qr0HTIsC9VrF9vP9aILlaRR68O2,symmetry-judgement-task,167,1035628,0.0-46.0-5.0-1.0-1.0-8.0,,,,,,,,,,1.0,1.0,,,,63ea551bae34b6edcd5bb799,09:28:47,03/04/2024
,"<div style=""font-size: 10rem; color: #0000FF"">N</div>",,ospan,letter,7Qr0HTIsC9VrF9vP9aILlaRR68O2,html-keyboard-response,168,1036633,0.0-46.0-5.0-1.0-1.0-9.0,,,,,,,,,,,,,,,63ea551bae34b6edcd5bb799,09:28:47,03/04/2024
1869.0,,,ospan,symmetry,7Qr0HTIsC9VrF9vP9aILlaRR68O2,symmetry-judgement-task,169,1040380,0.0-46.0-5.0-1.0-1.0-10.0,,,,,,,,,,1.0,1.0,,,,63ea551bae34b6edcd5bb799,09:28:47,03/04/2024
,"<div style=""font-size: 10rem; color: #0000FF"">L</div>",,ospan,letter,7Qr0HTIsC9VrF9vP9aILlaRR68O2,html-keyboard-response,170,1041385,0.0-46.0-5.0-1.0-1.0-11.0,,,,,,,,,,,,,,,63ea551bae34b6edcd5bb799,09:28:47,03/04/2024
2612.0,,,ospan,symmetry,7Qr0HTIsC9VrF9vP9aILlaRR68O2,symmetry-judgement-task,171,1045886,0.0-46.0-5.0-1.0-1.0-12.0,,,,,,,,,,1.0,1.0,,,,63ea551bae34b6edcd5bb799,09:28:47,03/04/2024
,"<div style=""font-size: 10rem; color: #0000FF"">P</div>",,ospan,letter,7Qr0HTIsC9VrF9vP9aILlaRR68O2,html-keyboard-response,172,1046891,0.0-46.0-5.0-1.0-1.0-13.0,,,,,,,,,,,,,,,63ea551bae34b6edcd5bb799,09:28:47,03/04/2024
16524.099999904633,"<div class = numbox><p style=""font-size: 2.4rem"">Please recall the letters you saw to the best of your ability. If you do not remember a particular letter, use the SKIP button.<br><b>(When you are ready to lock in your answer, press ENTER)</b></p><button id = button_1 class = ""square num-button"" onclick = ""recordClick(this)""><div class = content><div class = numbers>C</div></div></button><button id = button_2 class = ""square num-button"" onclick = ""recordClick(this)""><div class = content><div class = numbers>G</div></div></button><button id = button_3 class = ""square num-button"" onclick = ""recordClick(this)""><div class = content><div class = numbers>H</div></div></button><button id = button_4 class = ""square num-button"" onclick = ""recordClick(this)""><div class = content><div class = numbers>J</div></div></button><button id = button_5 class = ""square num-button"" onclick = ""recordClick(this)""><div class = content><div class = numbers>K</div></div></button><button id = button_6 class = ""square num-button"" onclick = ""recordClick(this)""><div class = content><div class = numbers>L</div></div></button><button id = button_7 class = ""square num-button"" onclick = ""recordClick(this)""><div class = content><div class = numbers>N</div></div></button><button id = button_8 class = ""square num-button"" onclick = ""recordClick(this)""><div class = content><div class = numbers>P</div></div></button><button id = button_9 class = ""square num-button"" onclick = ""recordClick(this)""><div class = content><div class = numbers>Q</div></div></button><button id = button_10 class = ""square num-button"" onclick = ""recordClick(this)""><div class = content><div class = numbers>R</div></div></button><button id = button_11 class = ""square num-button"" onclick = ""recordClick(this)""><div class = content><div class = numbers>S</div></div></button><button id = button_12 class = ""square num-button"" onclick = ""recordClick(this)""><div class = content><div class = numbers>Y</div></div></button><button class = clear_button id = ""ClearButton"" onclick = ""clearResponse()"">BACKSPACE</button><button class = blank_button id = ""BlankButton"" onclick = ""blankResponse()"">SKIP</button><p style=""font-size: 2.4rem""><u><b>Current Answer:</b></u></p><br><br><div id=echoed_txt style=""font-size: 5rem; color:blue;""><b></b></div></div>",enter,ospan,retrieval,7Qr0HTIsC9VrF9vP9aILlaRR68O2,html-keyboard-response,173,1064167,0.0-46.0-5.0-1.0-2.0,28,27,22,7.0,"[""C"",""Y"",""H"",""G"",""N"",""L"",""P""]","[""C"",""Y"",""H"",""G"",""N"",""L"",""P""]",1.0,7.0,,,,,,,63ea551bae34b6edcd5bb799,09:28:47,03/04/2024
1793.0,[''],0,ospan,feedback,7Qr0HTIsC9VrF9vP9aILlaRR68O2,html-button-response,174,1066469,0.0-46.0-5.0-1.0-3.0,,,,,,,,,,,,100.0,0.0,,63ea551bae34b6edcd5bb799,09:28:47,03/04/2024
,"<p style=""font-size:75px;"">...</p>",,ospan,iti,7Qr0HTIsC9VrF9vP9aILlaRR68O2,html-keyboard-response,175,1067479,0.0-46.0-6.0-0.0-0.0,,,,,,,,,,,,,,,63ea551bae34b6edcd5bb799,09:28:47,03/04/2024
1438.0,,,ospan,symmetry,7Qr0HTIsC9VrF9vP9aILlaRR68O2,symmetry-judgement-task,176,1070044,0.0-46.0-6.0-0.0-1.0-0.0,,,,,,,,,,1.0,1.0,,,,63ea551bae34b6edcd5bb799,09:28:47,03/04/2024
,"<div style=""font-size: 10rem; color: #0000FF"">J</div>",,ospan,letter,7Qr0HTIsC9VrF9vP9aILlaRR68O2,html-keyboard-response,177,1071058,0.0-46.0-6.0-0.0-1.0-1.0,,,,,,,,,,,,,,,63ea551bae34b6edcd5bb799,09:28:47,03/04/2024
1264.0,,,ospan,symmetry,7Qr0HTIsC9VrF9vP9aILlaRR68O2,symmetry-judgement-task,178,1074194,0.0-46.0-6.0-0.0-1.0-2.0,,,,,,,,,,1.0,1.0,,,,63ea551bae34b6edcd5bb799,09:28:47,03/04/2024
,"<div style=""font-size: 10rem; color: #0000FF"">L</div>",,ospan,letter,7Qr0HTIsC9VrF9vP9aILlaRR68O2,html-keyboard-response,179,1075198,0.0-46.0-6.0-0.0-1.0-3.0,,,,,,,,,,,,,,,63ea551bae34b6edcd5bb799,09:28:47,03/04/2024
1259.0,,,ospan,symmetry,7Qr0HTIsC9VrF9vP9aILlaRR68O2,symmetry-judgement-task,180,1078335,0.0-46.0-6.0-0.0-1.0-4.0,,,,,,,,,,1.0,1.0,,,,63ea551bae34b6edcd5bb799,09:28:47,03/04/2024
,"<div style=""font-size: 10rem; color: #0000FF"">Y</div>",,ospan,letter,7Qr0HTIsC9VrF9vP9aILlaRR68O2,html-keyboard-response,181,1079338,0.0-46.0-6.0-0.0-1.0-5.0,,,,,,,,,,,,,,,63ea551bae34b6edcd5bb799,09:28:47,03/04/2024
1353.0,,,ospan,symmetry,7Qr0HTIsC9VrF9vP9aILlaRR68O2,symmetry-judgement-task,182,1082554,0.0-46.0-6.0-0.0-1.0-6.0,,,,,,,,,,1.0,1.0,,,,63ea551bae34b6edcd5bb799,09:28:47,03/04/2024
,"<div style=""font-size: 10rem; color: #0000FF"">P</div>",,ospan,letter,7Qr0HTIsC9VrF9vP9aILlaRR68O2,html-keyboard-response,183,1083559,0.0-46.0-6.0-0.0-1.0-7.0,,,,,,,,,,,,,,,63ea551bae34b6edcd5bb799,09:28:47,03/04/2024
1466.0,,,ospan,symmetry,7Qr0HTIsC9VrF9vP9aILlaRR68O2,symmetry-judgement-task,184,1086805,0.0-46.0-6.0-0.0-1.0-8.0,,,,,,,,,,1.0,1.0,,,,63ea551bae34b6edcd5bb799,09:28:47,03/04/2024
,"<div style=""font-size: 10rem; color: #0000FF"">Q</div>",,ospan,letter,7Qr0HTIsC9VrF9vP9aILlaRR68O2,html-keyboard-response,185,1087808,0.0-46.0-6.0-0.0-1.0-9.0,,,,,,,,,,,,,,,63ea551bae34b6edcd5bb799,09:28:47,03/04/2024
8749.600000143051,"<div class = numbox><p style=""font-size: 2.4rem"">Please recall the letters you saw to the best of your ability. If you do not remember a particular letter, use the SKIP button.<br><b>(When you are ready to lock in your answer, press ENTER)</b></p><button id = button_1 class = ""square num-button"" onclick = ""recordClick(this)""><div class = content><div class = numbers>C</div></div></button><button id = button_2 class = ""square num-button"" onclick = ""recordClick(this)""><div class = content><div class = numbers>G</div></div></button><button id = button_3 class = ""square num-button"" onclick = ""recordClick(this)""><div class = content><div class = numbers>H</div></div></button><button id = button_4 class = ""square num-button"" onclick = ""recordClick(this)""><div class = content><div class = numbers>J</div></div></button><button id = button_5 class = ""square num-button"" onclick = ""recordClick(this)""><div class = content><div class = numbers>K</div></div></button><button id = button_6 class = ""square num-button"" onclick = ""recordClick(this)""><div class = content><div class = numbers>L</div></div></button><button id = button_7 class = ""square num-button"" onclick = ""recordClick(this)""><div class = content><div class = numbers>N</div></div></button><button id = button_8 class = ""square num-button"" onclick = ""recordClick(this)""><div class = content><div class = numbers>P</div></div></button><button id = button_9 class = ""square num-button"" onclick = ""recordClick(this)""><div class = content><div class = numbers>Q</div></div></button><button id = button_10 class = ""square num-button"" onclick = ""recordClick(this)""><div class = content><div class = numbers>R</div></div></button><button id = button_11 class = ""square num-button"" onclick = ""recordClick(this)""><div class = content><div class = numbers>S</div></div></button><button id = button_12 class = ""square num-button"" onclick = ""recordClick(this)""><div class = content><div class = numbers>Y</div></div></button><button class = clear_button id = ""ClearButton"" onclick = ""clearResponse()"">BACKSPACE</button><button class = blank_button id = ""BlankButton"" onclick = ""blankResponse()"">SKIP</button><p style=""font-size: 2.4rem""><u><b>Current Answer:</b></u></p><br><br><div id=echoed_txt style=""font-size: 5rem; color:blue;""><b></b></div></div>",enter,ospan,retrieval,7Qr0HTIsC9VrF9vP9aILlaRR68O2,html-keyboard-response,186,1097312,0.0-46.0-6.0-0.0-2.0,33,32,27,5.0,"[""J"",""L"",""Y"",""P"",""Q""]","[""J"",""L"",""Y"",""P"",""Q""]",1.0,5.0,,,,,,,63ea551bae34b6edcd5bb799,09:28:47,03/04/2024
1682.8999998569489,[''],0,ospan,feedback,7Qr0HTIsC9VrF9vP9aILlaRR68O2,html-button-response,187,1099512,0.0-46.0-6.0-0.0-3.0,,,,,,,,,,,,100.0,0.0,,63ea551bae34b6edcd5bb799,09:28:47,03/04/2024
,"<p style=""font-size:75px;"">...</p>",,ospan,iti,7Qr0HTIsC9VrF9vP9aILlaRR68O2,html-keyboard-response,188,1100528,0.0-46.0-6.0-1.0-0.0,,,,,,,,,,,,,,,63ea551bae34b6edcd5bb799,09:28:47,03/04/2024
1384.0,,,ospan,symmetry,7Qr0HTIsC9VrF9vP9aILlaRR68O2,symmetry-judgement-task,189,1103037,0.0-46.0-6.0-1.0-1.0-0.0,,,,,,,,,,1.0,1.0,,,,63ea551bae34b6edcd5bb799,09:28:47,03/04/2024
,"<div style=""font-size: 10rem; color: #0000FF"">S</div>",,ospan,letter,7Qr0HTIsC9VrF9vP9aILlaRR68O2,html-keyboard-response,190,1104041,0.0-46.0-6.0-1.0-1.0-1.0,,,,,,,,,,,,,,,63ea551bae34b6edcd5bb799,09:28:47,03/04/2024
1496.0,,,ospan,symmetry,7Qr0HTIsC9VrF9vP9aILlaRR68O2,symmetry-judgement-task,191,1107412,0.0-46.0-6.0-1.0-1.0-2.0,,,,,,,,,,1.0,1.0,,,,63ea551bae34b6edcd5bb799,09:28:47,03/04/2024
,"<div style=""font-size: 10rem; color: #0000FF"">N</div>",,ospan,letter,7Qr0HTIsC9VrF9vP9aILlaRR68O2,html-keyboard-response,192,1108417,0.0-46.0-6.0-1.0-1.0-3.0,,,,,,,,,,,,,,,63ea551bae34b6edcd5bb799,09:28:47,03/04/2024
904.0,,,ospan,symmetry,7Qr0HTIsC9VrF9vP9aILlaRR68O2,symmetry-judgement-task,193,1111193,0.0-46.0-6.0-1.0-1.0-4.0,,,,,,,,,,1.0,1.0,,,,63ea551bae34b6edcd5bb799,09:28:47,03/04/2024
,"<div style=""font-size: 10rem; color: #0000FF"">G</div>",,ospan,letter,7Qr0HTIsC9VrF9vP9aILlaRR68O2,html-keyboard-response,194,1112195,0.0-46.0-6.0-1.0-1.0-5.0,,,,,,,,,,,,,,,63ea551bae34b6edcd5bb799,09:28:47,03/04/2024
1683.0,,,ospan,symmetry,7Qr0HTIsC9VrF9vP9aILlaRR68O2,symmetry-judgement-task,195,1115662,0.0-46.0-6.0-1.0-1.0-6.0,,,,,,,,,,1.0,1.0,,,,63ea551bae34b6edcd5bb799,09:28:47,03/04/2024
,"<div style=""font-size: 10rem; color: #0000FF"">R</div>",,ospan,letter,7Qr0HTIsC9VrF9vP9aILlaRR68O2,html-keyboard-response,196,1116666,0.0-46.0-6.0-1.0-1.0-7.0,,,,,,,,,,,,,,,63ea551bae34b6edcd5bb799,09:28:47,03/04/2024
1429.0,,,ospan,symmetry,7Qr0HTIsC9VrF9vP9aILlaRR68O2,symmetry-judgement-task,197,1119976,0.0-46.0-6.0-1.0-1.0-8.0,,,,,,,,,,1.0,1.0,,,,63ea551bae34b6edcd5bb799,09:28:47,03/04/2024
,"<div style=""font-size: 10rem; color: #0000FF"">J</div>",,ospan,letter,7Qr0HTIsC9VrF9vP9aILlaRR68O2,html-keyboard-response,198,1120980,0.0-46.0-6.0-1.0-1.0-9.0,,,,,,,,,,,,,,,63ea551bae34b6edcd5bb799,09:28:47,03/04/2024
1600.0,,,ospan,symmetry,7Qr0HTIsC9VrF9vP9aILlaRR68O2,symmetry-judgement-task,199,1124604,0.0-46.0-6.0-1.0-1.0-10.0,,,,,,,,,,1.0,1.0,,,,63ea551bae34b6edcd5bb799,09:28:47,03/04/2024
,"<div style=""font-size: 10rem; color: #0000FF"">H</div>",,ospan,letter,7Qr0HTIsC9VrF9vP9aILlaRR68O2,html-keyboard-response,200,1125608,0.0-46.0-6.0-1.0-1.0-11.0,,,,,,,,,,,,,,,63ea551bae34b6edcd5bb799,09:28:47,03/04/2024
1412.0,,,ospan,symmetry,7Qr0HTIsC9VrF9vP9aILlaRR68O2,symmetry-judgement-task,201,1128930,0.0-46.0-6.0-1.0-1.0-12.0,,,,,,,,,,1.0,1.0,,,,63ea551bae34b6edcd5bb799,09:28:47,03/04/2024
,"<div style=""font-size: 10rem; color: #0000FF"">Y</div>",,ospan,letter,7Qr0HTIsC9VrF9vP9aILlaRR68O2,html-keyboard-response,202,1129936,0.0-46.0-6.0-1.0-1.0-13.0,,,,,,,,,,,,,,,63ea551bae34b6edcd5bb799,09:28:47,03/04/2024
1612.0,,,ospan,symmetry,7Qr0HTIsC9VrF9vP9aILlaRR68O2,symmetry-judgement-task,203,1133462,0.0-46.0-6.0-1.0-1.0-14.0,,,,,,,,,,1.0,1.0,,,,63ea551bae34b6edcd5bb799,09:28:47,03/04/2024
,"<div style=""font-size: 10rem; color: #0000FF"">Q</div>",,ospan,letter,7Qr0HTIsC9VrF9vP9aILlaRR68O2,html-keyboard-response,204,1134475,0.0-46.0-6.0-1.0-1.0-15.0,,,,,,,,,,,,,,,63ea551bae34b6edcd5bb799,09:28:47,03/04/2024
13686.300000190735,"<div class = numbox><p style=""font-size: 2.4rem"">Please recall the letters you saw to the best of your ability. If you do not remember a particular letter, use the SKIP button.<br><b>(When you are ready to lock in your answer, press ENTER)</b></p><button id = button_1 class = ""square num-button"" onclick = ""recordClick(this)""><div class = content><div class = numbers>C</div></div></button><button id = button_2 class = ""square num-button"" onclick = ""recordClick(this)""><div class = content><div class = numbers>G</div></div></button><button id = button_3 class = ""square num-button"" onclick = ""recordClick(this)""><div class = content><div class = numbers>H</div></div></button><button id = button_4 class = ""square num-button"" onclick = ""recordClick(this)""><div class = content><div class = numbers>J</div></div></button><button id = button_5 class = ""square num-button"" onclick = ""recordClick(this)""><div class = content><div class = numbers>K</div></div></button><button id = button_6 class = ""square num-button"" onclick = ""recordClick(this)""><div class = content><div class = numbers>L</div></div></button><button id = button_7 class = ""square num-button"" onclick = ""recordClick(this)""><div class = content><div class = numbers>N</div></div></button><button id = button_8 class = ""square num-button"" onclick = ""recordClick(this)""><div class = content><div class = numbers>P</div></div></button><button id = button_9 class = ""square num-button"" onclick = ""recordClick(this)""><div class = content><div class = numbers>Q</div></div></button><button id = button_10 class = ""square num-button"" onclick = ""recordClick(this)""><div class = content><div class = numbers>R</div></div></button><button id = button_11 class = ""square num-button"" onclick = ""recordClick(this)""><div class = content><div class = numbers>S</div></div></button><button id = button_12 class = ""square num-button"" onclick = ""recordClick(this)""><div class = content><div class = numbers>Y</div></div></button><button class = clear_button id = ""ClearButton"" onclick = ""clearResponse()"">BACKSPACE</button><button class = blank_button id = ""BlankButton"" onclick = ""blankResponse()"">SKIP</button><p style=""font-size: 2.4rem""><u><b>Current Answer:</b></u></p><br><br><div id=echoed_txt style=""font-size: 5rem; color:blue;""><b></b></div></div>",enter,ospan,retrieval,7Qr0HTIsC9VrF9vP9aILlaRR68O2,html-keyboard-response,205,1148924,0.0-46.0-6.0-1.0-2.0,41,40,35,8.0,"[""S"",""N"",""G"",""R"",""J"",""H"",""Y"",""Q""]","[""S"",""N"",""G"",""R"",""J"",""H"",""Y"",""Q""]",1.0,8.0,,,,,,,63ea551bae34b6edcd5bb799,09:28:47,03/04/2024
1422.7999999523163,[''],0,ospan,feedback,7Qr0HTIsC9VrF9vP9aILlaRR68O2,html-button-response,206,1150852,0.0-46.0-6.0-1.0-3.0,,,,,,,,,,,,100.0,0.0,,63ea551bae34b6edcd5bb799,09:28:47,03/04/2024
15503.400000095367,,{'Q0': 'I enjoyed the challenge'},ospan,survey_ospan,7Qr0HTIsC9VrF9vP9aILlaRR68O2,lmdlab-survey-text,207,1167121,0.0-46.0-7.0,,,,,,,,,,,,,,7Qr0HTIsC9VrF9vP9aILlaRR68O2,63ea551bae34b6edcd5bb799,09:28:47,03/04/2024
1800.7999999523163,<p><p style='font-size: 3rem'>Great work!<br><br>This completes the symmetry and memory task.</p><br><br><br>,0,ospan,finish,7Qr0HTIsC9VrF9vP9aILlaRR68O2,html-button-response,208,1168924,0.0-46.0-8.0,41,40,35,,,,,,,,,100.0,,,63ea551bae34b6edcd5bb799,09:28:47,03/04/2024
