rt,stimulus,response,exp_name,exp_stage,subjectID,trial_type,trial_index,time_elapsed,internal_node_id,ospan_shown,ospan_total,ospan_abs,length,resp_actual,resp_correct,full_correct,num_correct,feedback,accuracy,correct,math_acc,math_warning,databaseID,prolificID,start_time,date
1044.7000000476837,<div class = 'left_align' style='font-size: 3.25rem; line-height: 1.3;'><p class = 'center_align'><b>Welcome to the Symmetry and Memory Task</b><br><br><br><br></p>Press 'continue' to show the instructions.<br><br><br><br></div>,0,ospan,instruct,DTKLqDvgjvadT0JrTyG0W3ghiLb2,html-button-response,54,508628,0.0-46.0-0.0-0.0-0.0,,,,,,,,,,,,,,,63e4bb5f5db4ae5ba8d51578,09:38:21,03/04/2024
2894.0,"<div class = 'left_align' style='font-size: 3.25rem; line-height: 1.3;'><p class = 'center_align'><b>Symmetry and Memory Task</b><br><br></p>In this task, you will try to memorize letters you see on the screen<br>while you also view black and white grid pictures.<br><br>In the next few minutes, you will have some practice to get you familiar<br>with how the task works.<br><br>It may be difficult sometimes, but please do not worry about making mistakes!<br><br>We will begin by practicing the letter part of the task.<br><br><br><br></div>",0,ospan,instruct,DTKLqDvgjvadT0JrTyG0W3ghiLb2,html-button-response,55,511780,0.0-46.0-0.0-0.0-1.0,,,,,,,,,,,,,,,63e4bb5f5db4ae5ba8d51578,09:38:21,03/04/2024
10294.0,"<div class = 'left_align' style='font-size: 3.25rem; line-height: 1.3;'>For this practice part, letters will appear on the screen one at a time.<br><br>Try to remember each letter in the order presented.<br><br>After some letters have been shown, you will see a response screen. Your<br>goal is to report the letters you saw <b>in order</b>. If you do not remember<br>a particular letter, you will have the option to leave it blank.<br><br><br><br></div>",0,ospan,instruct,DTKLqDvgjvadT0JrTyG0W3ghiLb2,html-button-response,56,522332,0.0-46.0-0.0-0.0-2.0,,,,,,,,,,,,,,,63e4bb5f5db4ae5ba8d51578,09:38:21,03/04/2024
3298.199999988079,"<div class = 'left_align' style='font-size: 3.25rem; line-height: 1.3;'>Remember, it is very important to get the letters in the same<br>order as you see them.<br><br>When you are ready, you may begin the letter practice.</div><br><br><br><br>",0,ospan,instruct,DTKLqDvgjvadT0JrTyG0W3ghiLb2,html-button-response,57,525884,0.0-46.0-0.0-0.0-3.0,,,,,,,,,,,,,,,63e4bb5f5db4ae5ba8d51578,09:38:21,03/04/2024
,"<p style=""font-size:75px;"">...</p>",,ospan,iti,DTKLqDvgjvadT0JrTyG0W3ghiLb2,html-keyboard-response,58,527152,0.0-46.0-0.0-1.0-0.0,,,,,,,,,,,,,,,63e4bb5f5db4ae5ba8d51578,09:38:21,03/04/2024
,"<div style=""font-size: 10rem; color: #0000FF"">S</div>",,ospan,letter,DTKLqDvgjvadT0JrTyG0W3ghiLb2,html-keyboard-response,59,528167,0.0-46.0-0.0-1.0-1.0,,,,,,,,,,,,,,,63e4bb5f5db4ae5ba8d51578,09:38:21,03/04/2024
,"<div style=""font-size: 10rem; color: #0000FF"">Y</div>",,ospan,letter,DTKLqDvgjvadT0JrTyG0W3ghiLb2,html-keyboard-response,60,529928,0.0-46.0-0.0-1.0-2.0,,,,,,,,,,,,,,,63e4bb5f5db4ae5ba8d51578,09:38:21,03/04/2024
5864.800000011921,"<div class = numbox><p style=""font-size: 2.4rem"">Please recall the letters you saw to the best of your ability. If you do not remember a particular letter, use the SKIP button.<br><b>(When you are ready to lock in your answer, press ENTER)</b></p><button id = button_1 class = ""square num-button"" onclick = ""recordClick(this)""><div class = content><div class = numbers>C</div></div></button><button id = button_2 class = ""square num-button"" onclick = ""recordClick(this)""><div class = content><div class = numbers>G</div></div></button><button id = button_3 class = ""square num-button"" onclick = ""recordClick(this)""><div class = content><div class = numbers>H</div></div></button><button id = button_4 class = ""square num-button"" onclick = ""recordClick(this)""><div class = content><div class = numbers>J</div></div></button><button id = button_5 class = ""square num-button"" onclick = ""recordClick(this)""><div class = content><div class = numbers>K</div></div></button><button id = button_6 class = ""square num-button"" onclick = ""recordClick(this)""><div class = content><div class = numbers>L</div></div></button><button id = button_7 class = ""square num-button"" onclick = ""recordClick(this)""><div class = content><div class = numbers>N</div></div></button><button id = button_8 class = ""square num-button"" onclick = ""recordClick(this)""><div class = content><div class = numbers>P</div></div></button><button id = button_9 class = ""square num-button"" onclick = ""recordClick(this)""><div class = content><div class = numbers>Q</div></div></button><button id = button_10 class = ""square num-button"" onclick = ""recordClick(this)""><div class = content><div class = numbers>R</div></div></button><button id = button_11 class = ""square num-button"" onclick = ""recordClick(this)""><div class = content><div class = numbers>S</div></div></button><button id = button_12 class = ""square num-button"" onclick = ""recordClick(this)""><div class = content><div class = numbers>Y</div></div></button><button class = clear_button id = ""ClearButton"" onclick = ""clearResponse()"">BACKSPACE</button><button class = blank_button id = ""BlankButton"" onclick = ""blankResponse()"">SKIP</button><p style=""font-size: 2.4rem""><u><b>Current Answer:</b></u></p><br><br><div id=echoed_txt style=""font-size: 5rem; color:blue;""><b></b></div></div>",enter,ospan,retrieval,DTKLqDvgjvadT0JrTyG0W3ghiLb2,html-keyboard-response,61,536551,0.0-46.0-0.0-1.0-3.0,NA,NA,NA,2.0,"[""S"",""Y""]","[""S"",""Y""]",1.0,2.0,"['<font color=""green"">S</font>', '<font color=""green"">Y</font>']",,,,,,63e4bb5f5db4ae5ba8d51578,09:38:21,03/04/2024
1342.5,"['<p style=""font-size:44px"">Letters:<br><br><br><font color=""green"">S</font> <font color=""green"">Y</font></p><br><br>']",0,ospan,practice_feedback,DTKLqDvgjvadT0JrTyG0W3ghiLb2,html-button-response,62,538397,0.0-46.0-0.0-1.0-4.0,,,,,,,,,,,,,,,63e4bb5f5db4ae5ba8d51578,09:38:21,03/04/2024
,"<p style=""font-size:75px;"">...</p>",,ospan,iti,DTKLqDvgjvadT0JrTyG0W3ghiLb2,html-keyboard-response,63,539411,0.0-46.0-0.0-2.0-0.0,,,,,,,,,,,,,,,63e4bb5f5db4ae5ba8d51578,09:38:21,03/04/2024
,"<div style=""font-size: 10rem; color: #0000FF"">J</div>",,ospan,letter,DTKLqDvgjvadT0JrTyG0W3ghiLb2,html-keyboard-response,64,540414,0.0-46.0-0.0-2.0-1.0,,,,,,,,,,,,,,,63e4bb5f5db4ae5ba8d51578,09:38:21,03/04/2024
,"<div style=""font-size: 10rem; color: #0000FF"">C</div>",,ospan,letter,DTKLqDvgjvadT0JrTyG0W3ghiLb2,html-keyboard-response,65,542185,0.0-46.0-0.0-2.0-2.0,,,,,,,,,,,,,,,63e4bb5f5db4ae5ba8d51578,09:38:21,03/04/2024
,"<div style=""font-size: 10rem; color: #0000FF"">H</div>",,ospan,letter,DTKLqDvgjvadT0JrTyG0W3ghiLb2,html-keyboard-response,66,543945,0.0-46.0-0.0-2.0-3.0,,,,,,,,,,,,,,,63e4bb5f5db4ae5ba8d51578,09:38:21,03/04/2024
4931.699999988079,"<div class = numbox><p style=""font-size: 2.4rem"">Please recall the letters you saw to the best of your ability. If you do not remember a particular letter, use the SKIP button.<br><b>(When you are ready to lock in your answer, press ENTER)</b></p><button id = button_1 class = ""square num-button"" onclick = ""recordClick(this)""><div class = content><div class = numbers>C</div></div></button><button id = button_2 class = ""square num-button"" onclick = ""recordClick(this)""><div class = content><div class = numbers>G</div></div></button><button id = button_3 class = ""square num-button"" onclick = ""recordClick(this)""><div class = content><div class = numbers>H</div></div></button><button id = button_4 class = ""square num-button"" onclick = ""recordClick(this)""><div class = content><div class = numbers>J</div></div></button><button id = button_5 class = ""square num-button"" onclick = ""recordClick(this)""><div class = content><div class = numbers>K</div></div></button><button id = button_6 class = ""square num-button"" onclick = ""recordClick(this)""><div class = content><div class = numbers>L</div></div></button><button id = button_7 class = ""square num-button"" onclick = ""recordClick(this)""><div class = content><div class = numbers>N</div></div></button><button id = button_8 class = ""square num-button"" onclick = ""recordClick(this)""><div class = content><div class = numbers>P</div></div></button><button id = button_9 class = ""square num-button"" onclick = ""recordClick(this)""><div class = content><div class = numbers>Q</div></div></button><button id = button_10 class = ""square num-button"" onclick = ""recordClick(this)""><div class = content><div class = numbers>R</div></div></button><button id = button_11 class = ""square num-button"" onclick = ""recordClick(this)""><div class = content><div class = numbers>S</div></div></button><button id = button_12 class = ""square num-button"" onclick = ""recordClick(this)""><div class = content><div class = numbers>Y</div></div></button><button class = clear_button id = ""ClearButton"" onclick = ""clearResponse()"">BACKSPACE</button><button class = blank_button id = ""BlankButton"" onclick = ""blankResponse()"">SKIP</button><p style=""font-size: 2.4rem""><u><b>Current Answer:</b></u></p><br><br><div id=echoed_txt style=""font-size: 5rem; color:blue;""><b></b></div></div>",enter,ospan,retrieval,DTKLqDvgjvadT0JrTyG0W3ghiLb2,html-keyboard-response,67,549634,0.0-46.0-0.0-2.0-4.0,NA,NA,NA,3.0,"[""J"",""C"",""H""]","[""J"",""C"",""H""]",1.0,3.0,"['<font color=""green"">J</font>', '<font color=""green"">C</font>', '<font color=""green"">H</font>']",,,,,,63e4bb5f5db4ae5ba8d51578,09:38:21,03/04/2024
969.3000000119209,"['<p style=""font-size:44px"">Letters:<br><br><br><font color=""green"">J</font> <font color=""green"">C</font> <font color=""green"">H</font></p><br><br>']",0,ospan,practice_feedback,DTKLqDvgjvadT0JrTyG0W3ghiLb2,html-button-response,68,551107,0.0-46.0-0.0-2.0-5.0,,,,,,,,,,,,,,,63e4bb5f5db4ae5ba8d51578,09:38:21,03/04/2024
20511.400000035763,"<div class = 'left_align' style='font-size: 3.25rem; line-height: 1.3;'>Now you will practice doing the <b>symmetry judgment part</b> of the experiment.<br><br>A black and white grid picture will appear on the screen and you have to judge if it is <br>symmetrical or asymetrical.<br><br>A picture is 'mirror' symmetrical if its left half is identical to the right half when flipped.<br>Here are examples of a symmetrical and an asymetrical picture:<br><br><center><img src='Stimuli/img/symm_instructions_extra.png' style='height:420px; width:900'></img></center><br>To judge symmetry, imagine you were to fold each picture down the middle, like a book –<br>would the left half match the right half when folded onto each other?<br><br></div><br>",0,ospan,instruct,DTKLqDvgjvadT0JrTyG0W3ghiLb2,html-button-response,69,571620,0.0-46.0-1.0-0.0-0.0,,,,,,,,,,,,,,,63e4bb5f5db4ae5ba8d51578,09:38:21,03/04/2024
6369.100000023842,"<div class = 'left_align' style='font-size: 3.25rem; line-height: 1.3;'>When you have viewed the picture and determined whether it is symmetrical or not,<br>you can <b>click the Yes or No button</b> below to answer.<br><br>If you take longer than 15 seconds, it will continue automatically<br>and record the answer as an error.</div><br>",0,ospan,instruct,DTKLqDvgjvadT0JrTyG0W3ghiLb2,html-button-response,70,578244,0.0-46.0-1.0-0.0-1.0,,,,,,,,,,,,,,,63e4bb5f5db4ae5ba8d51578,09:38:21,03/04/2024
2788.400000035763,"<div class = 'left_align' style='font-size: 3.25rem; line-height: 1.3;'>It is <b>very</b> important that you make the symmetry judgment correctly.<br><br>It is also important that you try and judge the picture as quickly as you can.<br><br>When you are ready, click on the button below to try some practice problems.</div><br><br><br><br>",0,ospan,instruct,DTKLqDvgjvadT0JrTyG0W3ghiLb2,html-button-response,71,581291,0.0-46.0-1.0-0.0-2.0,,,,,,,,,,,,,,,63e4bb5f5db4ae5ba8d51578,09:38:21,03/04/2024
3074.0,,,ospan,symmetry,DTKLqDvgjvadT0JrTyG0W3ghiLb2,symmetry-judgement-task,72,585163,0.0-46.0-1.0-1.0-0.0,,,,,,,,,,1.0,1.0,,,,63e4bb5f5db4ae5ba8d51578,09:38:21,03/04/2024
,"<p style=""color:green; font-size: 35px"">Correct</p>",,ospan,feedback,DTKLqDvgjvadT0JrTyG0W3ghiLb2,html-keyboard-response,73,585920,0.0-46.0-1.0-1.0-1.0,,,,,,,,,,,,,,,63e4bb5f5db4ae5ba8d51578,09:38:21,03/04/2024
1656.0,,,ospan,symmetry,DTKLqDvgjvadT0JrTyG0W3ghiLb2,symmetry-judgement-task,74,590193,0.0-46.0-1.0-1.0-2.0,,,,,,,,,,1.0,1.0,,,,63e4bb5f5db4ae5ba8d51578,09:38:21,03/04/2024
,"<p style=""color:green; font-size: 35px"">Correct</p>",,ospan,feedback,DTKLqDvgjvadT0JrTyG0W3ghiLb2,html-keyboard-response,75,590953,0.0-46.0-1.0-1.0-3.0,,,,,,,,,,,,,,,63e4bb5f5db4ae5ba8d51578,09:38:21,03/04/2024
2414.0,,,ospan,symmetry,DTKLqDvgjvadT0JrTyG0W3ghiLb2,symmetry-judgement-task,76,596013,0.0-46.0-1.0-1.0-4.0,,,,,,,,,,0.0,0.0,,,,63e4bb5f5db4ae5ba8d51578,09:38:21,03/04/2024
,"<p style=""color:red; font-size: 35px"">Incorrect</p>",,ospan,feedback,DTKLqDvgjvadT0JrTyG0W3ghiLb2,html-keyboard-response,77,596778,0.0-46.0-1.0-1.0-5.0,,,,,,,,,,,,,,,63e4bb5f5db4ae5ba8d51578,09:38:21,03/04/2024
2744.5,"<p style=""font-size: 3rem;"">You only responded correctly on 2 of 3 symmetry judgments.<br><br><b>In the main task, you must try harder to answer accurately.</b></p><br><br>",0,ospan,practice,DTKLqDvgjvadT0JrTyG0W3ghiLb2,html-button-response,78,601532,0.0-46.0-1.0-2.0,,,,,,,,,,,,,,,63e4bb5f5db4ae5ba8d51578,09:38:21,03/04/2024
6503.100000023842,"<div class = 'left_align' style='font-size: 3.25rem; line-height: 1.3;'>Now you will practice doing both parts of the experiment at the same time.<br><br>In the next practice set, you will be given one grid picture to judge.<br>Then letter will appear on the screen. Try to remember the letter.<br><br>It is <b>very important</b> to make the symmetry judgment as quickly and accurately as possible.<br><br>Just as before, once you have make the symmetry judgment, you can click Yes or No.<br><b>Note that you will no longer see Correct or Incorrect feedback.</div><br><br><br><br>",0,ospan,instruct,DTKLqDvgjvadT0JrTyG0W3ghiLb2,html-button-response,79,608292,0.0-46.0-2.0-0.0-0.0,,,,,,,,,,,,,,,63e4bb5f5db4ae5ba8d51578,09:38:21,03/04/2024
3902.199999988079,"<div class = 'left_align' style='font-size: 3.25rem; line-height: 1.3;'>After the letter goes away, another grid picture will appear, and then<br>another letter.<br><br>At the end of each set of letters and grids, you will recall the letters to the best<br>of your ability. Remember, try your best to get the letters in the correct order.<br><br>It is important to <b>quickly</b> and <b>accurately</b> make the symmetry judgments.</div><br><br><br><br>",0,ospan,instruct,DTKLqDvgjvadT0JrTyG0W3ghiLb2,html-button-response,80,612452,0.0-46.0-2.0-0.0-1.0,,,,,,,,,,,,,,,63e4bb5f5db4ae5ba8d51578,09:38:21,03/04/2024
14179.900000035763,"<div class = 'left_align' style='font-size: 3.25rem; line-height: 1.3;'>On the feedback screen, if you are not doing well at the symmetry judgments,<br>you will also see a warning in the middle. This indicates your percent <br>correct for the grid pictures for the entire experiment.<br><br>It is <b>very</b> important for you to keep accuracy at least at 85%: <u>We can only use<br>data where the participant was at least 85% accurate on the judgments.</u> Therefore,<br> please try your best to perform well on the symmetry judgments, <b>at the same time</b><br>doing your best to recall as many letters as possible.<br><br>Click the button to try some practice problems.</div><br><br><br><br>",0,ospan,instruct,DTKLqDvgjvadT0JrTyG0W3ghiLb2,html-button-response,81,626900,0.0-46.0-2.0-0.0-2.0,,,,,,,,,,,,,,,63e4bb5f5db4ae5ba8d51578,09:38:21,03/04/2024
,"<p style=""font-size:75px;"">...</p>",,ospan,iti,DTKLqDvgjvadT0JrTyG0W3ghiLb2,html-keyboard-response,82,628157,0.0-46.0-2.0-1.0-0.0,,,,,,,,,,,,,,,63e4bb5f5db4ae5ba8d51578,09:38:21,03/04/2024
2501.0,,,ospan,symmetry,DTKLqDvgjvadT0JrTyG0W3ghiLb2,symmetry-judgement-task,83,631780,0.0-46.0-2.0-1.0-1.0-0.0,,,,,,,,,,1.0,1.0,,,,63e4bb5f5db4ae5ba8d51578,09:38:21,03/04/2024
,"<div style=""font-size: 10rem; color: #0000FF"">N</div>",,ospan,letter,DTKLqDvgjvadT0JrTyG0W3ghiLb2,html-keyboard-response,84,632786,0.0-46.0-2.0-1.0-1.0-1.0,,,,,,,,,,,,,,,63e4bb5f5db4ae5ba8d51578,09:38:21,03/04/2024
5357.0,,,ospan,symmetry,DTKLqDvgjvadT0JrTyG0W3ghiLb2,symmetry-judgement-task,85,640010,0.0-46.0-2.0-1.0-1.0-2.0,,,,,,,,,,1.0,1.0,,,,63e4bb5f5db4ae5ba8d51578,09:38:21,03/04/2024
,"<div style=""font-size: 10rem; color: #0000FF"">K</div>",,ospan,letter,DTKLqDvgjvadT0JrTyG0W3ghiLb2,html-keyboard-response,86,641019,0.0-46.0-2.0-1.0-1.0-3.0,,,,,,,,,,,,,,,63e4bb5f5db4ae5ba8d51578,09:38:21,03/04/2024
4471.0,,,ospan,symmetry,DTKLqDvgjvadT0JrTyG0W3ghiLb2,symmetry-judgement-task,87,647357,0.0-46.0-2.0-1.0-1.0-4.0,,,,,,,,,,1.0,1.0,,,,63e4bb5f5db4ae5ba8d51578,09:38:21,03/04/2024
,"<div style=""font-size: 10rem; color: #0000FF"">C</div>",,ospan,letter,DTKLqDvgjvadT0JrTyG0W3ghiLb2,html-keyboard-response,88,648368,0.0-46.0-2.0-1.0-1.0-5.0,,,,,,,,,,,,,,,63e4bb5f5db4ae5ba8d51578,09:38:21,03/04/2024
18871.100000023842,"<div class = numbox><p style=""font-size: 2.4rem"">Please recall the letters you saw to the best of your ability. If you do not remember a particular letter, use the SKIP button.<br><b>(When you are ready to lock in your answer, press ENTER)</b></p><button id = button_1 class = ""square num-button"" onclick = ""recordClick(this)""><div class = content><div class = numbers>C</div></div></button><button id = button_2 class = ""square num-button"" onclick = ""recordClick(this)""><div class = content><div class = numbers>G</div></div></button><button id = button_3 class = ""square num-button"" onclick = ""recordClick(this)""><div class = content><div class = numbers>H</div></div></button><button id = button_4 class = ""square num-button"" onclick = ""recordClick(this)""><div class = content><div class = numbers>J</div></div></button><button id = button_5 class = ""square num-button"" onclick = ""recordClick(this)""><div class = content><div class = numbers>K</div></div></button><button id = button_6 class = ""square num-button"" onclick = ""recordClick(this)""><div class = content><div class = numbers>L</div></div></button><button id = button_7 class = ""square num-button"" onclick = ""recordClick(this)""><div class = content><div class = numbers>N</div></div></button><button id = button_8 class = ""square num-button"" onclick = ""recordClick(this)""><div class = content><div class = numbers>P</div></div></button><button id = button_9 class = ""square num-button"" onclick = ""recordClick(this)""><div class = content><div class = numbers>Q</div></div></button><button id = button_10 class = ""square num-button"" onclick = ""recordClick(this)""><div class = content><div class = numbers>R</div></div></button><button id = button_11 class = ""square num-button"" onclick = ""recordClick(this)""><div class = content><div class = numbers>S</div></div></button><button id = button_12 class = ""square num-button"" onclick = ""recordClick(this)""><div class = content><div class = numbers>Y</div></div></button><button class = clear_button id = ""ClearButton"" onclick = ""clearResponse()"">BACKSPACE</button><button class = blank_button id = ""BlankButton"" onclick = ""blankResponse()"">SKIP</button><p style=""font-size: 2.4rem""><u><b>Current Answer:</b></u></p><br><br><div id=echoed_txt style=""font-size: 5rem; color:blue;""><b></b></div></div>",enter,ospan,retrieval,DTKLqDvgjvadT0JrTyG0W3ghiLb2,html-keyboard-response,89,668003,0.0-46.0-2.0-1.0-2.0-0.0,NA,NA,NA,3.0,"[""N"",""K"",""C""]","[""N"",""K"",""C""]",1.0,3.0,"['<font color=""green"">N</font>', '<font color=""green"">K</font>', '<font color=""green"">C</font>']",,,,,,63e4bb5f5db4ae5ba8d51578,09:38:21,03/04/2024
1091.800000011921,"['<p style=""font-size:44px"">Letters:<br><br><br><font color=""green"">N</font> <font color=""green"">K</font> <font color=""green"">C</font></p><br><br><p style=""font-size:30px"">Symmetry:<br><br><font color=""green"">100%</font></p><br><br>']",0,ospan,practice_feedback,DTKLqDvgjvadT0JrTyG0W3ghiLb2,html-button-response,90,669611,0.0-46.0-2.0-1.0-2.0-1.0,,,,,,,,,,,,,,,63e4bb5f5db4ae5ba8d51578,09:38:21,03/04/2024
,"<p style=""font-size:75px;"">...</p>",,ospan,iti,DTKLqDvgjvadT0JrTyG0W3ghiLb2,html-keyboard-response,91,670614,0.0-46.0-2.0-2.0-0.0,,,,,,,,,,,,,,,63e4bb5f5db4ae5ba8d51578,09:38:21,03/04/2024
3663.0,,,ospan,symmetry,DTKLqDvgjvadT0JrTyG0W3ghiLb2,symmetry-judgement-task,92,675396,0.0-46.0-2.0-2.0-1.0-0.0,,,,,,,,,,0.0,0.0,,,,63e4bb5f5db4ae5ba8d51578,09:38:21,03/04/2024
,"<div style=""font-size: 10rem; color: #0000FF"">S</div>",,ospan,letter,DTKLqDvgjvadT0JrTyG0W3ghiLb2,html-keyboard-response,93,676403,0.0-46.0-2.0-2.0-1.0-1.0,,,,,,,,,,,,,,,63e4bb5f5db4ae5ba8d51578,09:38:21,03/04/2024
4169.0,,,ospan,symmetry,DTKLqDvgjvadT0JrTyG0W3ghiLb2,symmetry-judgement-task,94,682459,0.0-46.0-2.0-2.0-1.0-2.0,,,,,,,,,,1.0,1.0,,,,63e4bb5f5db4ae5ba8d51578,09:38:21,03/04/2024
,"<div style=""font-size: 10rem; color: #0000FF"">R</div>",,ospan,letter,DTKLqDvgjvadT0JrTyG0W3ghiLb2,html-keyboard-response,95,683466,0.0-46.0-2.0-2.0-1.0-3.0,,,,,,,,,,,,,,,63e4bb5f5db4ae5ba8d51578,09:38:21,03/04/2024
2771.0,,,ospan,symmetry,DTKLqDvgjvadT0JrTyG0W3ghiLb2,symmetry-judgement-task,96,688113,0.0-46.0-2.0-2.0-1.0-4.0,,,,,,,,,,1.0,1.0,,,,63e4bb5f5db4ae5ba8d51578,09:38:21,03/04/2024
,"<div style=""font-size: 10rem; color: #0000FF"">C</div>",,ospan,letter,DTKLqDvgjvadT0JrTyG0W3ghiLb2,html-keyboard-response,97,689123,0.0-46.0-2.0-2.0-1.0-5.0,,,,,,,,,,,,,,,63e4bb5f5db4ae5ba8d51578,09:38:21,03/04/2024
9960.699999988079,"<div class = numbox><p style=""font-size: 2.4rem"">Please recall the letters you saw to the best of your ability. If you do not remember a particular letter, use the SKIP button.<br><b>(When you are ready to lock in your answer, press ENTER)</b></p><button id = button_1 class = ""square num-button"" onclick = ""recordClick(this)""><div class = content><div class = numbers>C</div></div></button><button id = button_2 class = ""square num-button"" onclick = ""recordClick(this)""><div class = content><div class = numbers>G</div></div></button><button id = button_3 class = ""square num-button"" onclick = ""recordClick(this)""><div class = content><div class = numbers>H</div></div></button><button id = button_4 class = ""square num-button"" onclick = ""recordClick(this)""><div class = content><div class = numbers>J</div></div></button><button id = button_5 class = ""square num-button"" onclick = ""recordClick(this)""><div class = content><div class = numbers>K</div></div></button><button id = button_6 class = ""square num-button"" onclick = ""recordClick(this)""><div class = content><div class = numbers>L</div></div></button><button id = button_7 class = ""square num-button"" onclick = ""recordClick(this)""><div class = content><div class = numbers>N</div></div></button><button id = button_8 class = ""square num-button"" onclick = ""recordClick(this)""><div class = content><div class = numbers>P</div></div></button><button id = button_9 class = ""square num-button"" onclick = ""recordClick(this)""><div class = content><div class = numbers>Q</div></div></button><button id = button_10 class = ""square num-button"" onclick = ""recordClick(this)""><div class = content><div class = numbers>R</div></div></button><button id = button_11 class = ""square num-button"" onclick = ""recordClick(this)""><div class = content><div class = numbers>S</div></div></button><button id = button_12 class = ""square num-button"" onclick = ""recordClick(this)""><div class = content><div class = numbers>Y</div></div></button><button class = clear_button id = ""ClearButton"" onclick = ""clearResponse()"">BACKSPACE</button><button class = blank_button id = ""BlankButton"" onclick = ""blankResponse()"">SKIP</button><p style=""font-size: 2.4rem""><u><b>Current Answer:</b></u></p><br><br><div id=echoed_txt style=""font-size: 5rem; color:blue;""><b></b></div></div>",enter,ospan,retrieval,DTKLqDvgjvadT0JrTyG0W3ghiLb2,html-keyboard-response,98,699847,0.0-46.0-2.0-2.0-2.0-0.0,NA,NA,NA,3.0,"[""K"",""S"",""R""]","[""S"",""R"",""C""]",0.0,0.0,"['<font color=""red"">S</font>', '<font color=""red"">R</font>', '<font color=""red"">C</font>']",,,,,,63e4bb5f5db4ae5ba8d51578,09:38:21,03/04/2024
1089.6000000238419,"['<p style=""font-size:44px"">Letters:<br><br><br><font color=""red"">S</font> <font color=""red"">R</font> <font color=""red"">C</font></p><br><br><p style=""font-size:30px"">Symmetry:<br><br><font color=""red"">83%</font></p><br><br>']",0,ospan,practice_feedback,DTKLqDvgjvadT0JrTyG0W3ghiLb2,html-button-response,99,701444,0.0-46.0-2.0-2.0-2.0-1.0,,,,,,,,,,,,,,,63e4bb5f5db4ae5ba8d51578,09:38:21,03/04/2024
13214.099999964237,"<div class = 'left_align' style='font-size: 3rem; line-height: 1.3;'><b>Great work! That is the end of practice.</b><br><br>The real trials will look just like the practice trials you just completed.<br><br><u>Here, you will not see feedback</u>. First, you will see an grid picture to judge,<br>then a letter to remember. When the recall screen appears, report the letters in the<br>order presented. If you forget a letter, remember to use the <b>blank</b> button to move to the<br>next letter. Some of the sets will have more symmetry grids and letters than others.<br><br>It is important that you do your best on both the symmetry judgments and the letter recall<br>parts of the experiment. For for the symmetry judgments, try to work as <b>quickly</b> and <br>as <b>accurately</b> as possible. Remember to keep your symmetry accuracy at 85% or above.<br><br><b>For the letters, do NOT use any external aid (e.g., writing on paper, electronic device).</b><br><br>It is <u>very important</u> to our experiment to have a <b>true</b> view of your real performance.<br><br>Do not worry if you miss some when it gets hard! This task is meant to be very challenging!<br><br>Click the button to begin.</div><br><br><br><br>",0,ospan,starting_real_here,DTKLqDvgjvadT0JrTyG0W3ghiLb2,html-button-response,100,714659,0.0-46.0-2.0-3.0,,,,,,,,,,,,,,,63e4bb5f5db4ae5ba8d51578,09:38:21,03/04/2024
,"<p style=""font-size:75px;"">...</p>",,ospan,iti,DTKLqDvgjvadT0JrTyG0W3ghiLb2,html-keyboard-response,101,715916,0.0-46.0-3.0-0.0-0.0,,,,,,,,,,,,,,,63e4bb5f5db4ae5ba8d51578,09:38:21,03/04/2024
3009.0,,,ospan,symmetry,DTKLqDvgjvadT0JrTyG0W3ghiLb2,symmetry-judgement-task,102,720057,0.0-46.0-3.0-0.0-1.0-0.0,,,,,,,,,,1.0,1.0,,,,63e4bb5f5db4ae5ba8d51578,09:38:21,03/04/2024
,"<div style=""font-size: 10rem; color: #0000FF"">R</div>",,ospan,letter,DTKLqDvgjvadT0JrTyG0W3ghiLb2,html-keyboard-response,103,721068,0.0-46.0-3.0-0.0-1.0-1.0,,,,,,,,,,,,,,,63e4bb5f5db4ae5ba8d51578,09:38:21,03/04/2024
2305.0,,,ospan,symmetry,DTKLqDvgjvadT0JrTyG0W3ghiLb2,symmetry-judgement-task,104,725233,0.0-46.0-3.0-0.0-1.0-2.0,,,,,,,,,,1.0,1.0,,,,63e4bb5f5db4ae5ba8d51578,09:38:21,03/04/2024
,"<div style=""font-size: 10rem; color: #0000FF"">P</div>",,ospan,letter,DTKLqDvgjvadT0JrTyG0W3ghiLb2,html-keyboard-response,105,726237,0.0-46.0-3.0-0.0-1.0-3.0,,,,,,,,,,,,,,,63e4bb5f5db4ae5ba8d51578,09:38:21,03/04/2024
2733.0,,,ospan,symmetry,DTKLqDvgjvadT0JrTyG0W3ghiLb2,symmetry-judgement-task,106,730768,0.0-46.0-3.0-0.0-1.0-4.0,,,,,,,,,,1.0,1.0,,,,63e4bb5f5db4ae5ba8d51578,09:38:21,03/04/2024
,"<div style=""font-size: 10rem; color: #0000FF"">K</div>",,ospan,letter,DTKLqDvgjvadT0JrTyG0W3ghiLb2,html-keyboard-response,107,731770,0.0-46.0-3.0-0.0-1.0-5.0,,,,,,,,,,,,,,,63e4bb5f5db4ae5ba8d51578,09:38:21,03/04/2024
3558.5,"<div class = numbox><p style=""font-size: 2.4rem"">Please recall the letters you saw to the best of your ability. If you do not remember a particular letter, use the SKIP button.<br><b>(When you are ready to lock in your answer, press ENTER)</b></p><button id = button_1 class = ""square num-button"" onclick = ""recordClick(this)""><div class = content><div class = numbers>C</div></div></button><button id = button_2 class = ""square num-button"" onclick = ""recordClick(this)""><div class = content><div class = numbers>G</div></div></button><button id = button_3 class = ""square num-button"" onclick = ""recordClick(this)""><div class = content><div class = numbers>H</div></div></button><button id = button_4 class = ""square num-button"" onclick = ""recordClick(this)""><div class = content><div class = numbers>J</div></div></button><button id = button_5 class = ""square num-button"" onclick = ""recordClick(this)""><div class = content><div class = numbers>K</div></div></button><button id = button_6 class = ""square num-button"" onclick = ""recordClick(this)""><div class = content><div class = numbers>L</div></div></button><button id = button_7 class = ""square num-button"" onclick = ""recordClick(this)""><div class = content><div class = numbers>N</div></div></button><button id = button_8 class = ""square num-button"" onclick = ""recordClick(this)""><div class = content><div class = numbers>P</div></div></button><button id = button_9 class = ""square num-button"" onclick = ""recordClick(this)""><div class = content><div class = numbers>Q</div></div></button><button id = button_10 class = ""square num-button"" onclick = ""recordClick(this)""><div class = content><div class = numbers>R</div></div></button><button id = button_11 class = ""square num-button"" onclick = ""recordClick(this)""><div class = content><div class = numbers>S</div></div></button><button id = button_12 class = ""square num-button"" onclick = ""recordClick(this)""><div class = content><div class = numbers>Y</div></div></button><button class = clear_button id = ""ClearButton"" onclick = ""clearResponse()"">BACKSPACE</button><button class = blank_button id = ""BlankButton"" onclick = ""blankResponse()"">SKIP</button><p style=""font-size: 2.4rem""><u><b>Current Answer:</b></u></p><br><br><div id=echoed_txt style=""font-size: 5rem; color:blue;""><b></b></div></div>",enter,ospan,retrieval,DTKLqDvgjvadT0JrTyG0W3ghiLb2,html-keyboard-response,108,736095,0.0-46.0-3.0-0.0-2.0,3,3,3,3.0,"[""R"",""P"",""K""]","[""R"",""P"",""K""]",1.0,3.0,,,,,,,63e4bb5f5db4ae5ba8d51578,09:38:21,03/04/2024
1136.800000011921,[''],0,ospan,feedback,DTKLqDvgjvadT0JrTyG0W3ghiLb2,html-button-response,109,737740,0.0-46.0-3.0-0.0-3.0,,,,,,,,,,,,100.0,0.0,,63e4bb5f5db4ae5ba8d51578,09:38:21,03/04/2024
,"<p style=""font-size:75px;"">...</p>",,ospan,iti,DTKLqDvgjvadT0JrTyG0W3ghiLb2,html-keyboard-response,110,738742,0.0-46.0-4.0-0.0-0.0,,,,,,,,,,,,,,,63e4bb5f5db4ae5ba8d51578,09:38:21,03/04/2024
2376.0,,,ospan,symmetry,DTKLqDvgjvadT0JrTyG0W3ghiLb2,symmetry-judgement-task,111,742239,0.0-46.0-4.0-0.0-1.0-0.0,,,,,,,,,,1.0,1.0,,,,63e4bb5f5db4ae5ba8d51578,09:38:21,03/04/2024
,"<div style=""font-size: 10rem; color: #0000FF"">H</div>",,ospan,letter,DTKLqDvgjvadT0JrTyG0W3ghiLb2,html-keyboard-response,112,743245,0.0-46.0-4.0-0.0-1.0-1.0,,,,,,,,,,,,,,,63e4bb5f5db4ae5ba8d51578,09:38:21,03/04/2024
2146.0,,,ospan,symmetry,DTKLqDvgjvadT0JrTyG0W3ghiLb2,symmetry-judgement-task,113,747249,0.0-46.0-4.0-0.0-1.0-2.0,,,,,,,,,,0.0,0.0,,,,63e4bb5f5db4ae5ba8d51578,09:38:21,03/04/2024
,"<div style=""font-size: 10rem; color: #0000FF"">Y</div>",,ospan,letter,DTKLqDvgjvadT0JrTyG0W3ghiLb2,html-keyboard-response,114,748252,0.0-46.0-4.0-0.0-1.0-3.0,,,,,,,,,,,,,,,63e4bb5f5db4ae5ba8d51578,09:38:21,03/04/2024
2185.0,,,ospan,symmetry,DTKLqDvgjvadT0JrTyG0W3ghiLb2,symmetry-judgement-task,115,752307,0.0-46.0-4.0-0.0-1.0-4.0,,,,,,,,,,1.0,1.0,,,,63e4bb5f5db4ae5ba8d51578,09:38:21,03/04/2024
,"<div style=""font-size: 10rem; color: #0000FF"">J</div>",,ospan,letter,DTKLqDvgjvadT0JrTyG0W3ghiLb2,html-keyboard-response,116,753320,0.0-46.0-4.0-0.0-1.0-5.0,,,,,,,,,,,,,,,63e4bb5f5db4ae5ba8d51578,09:38:21,03/04/2024
3624.0,,,ospan,symmetry,DTKLqDvgjvadT0JrTyG0W3ghiLb2,symmetry-judgement-task,117,758800,0.0-46.0-4.0-0.0-1.0-6.0,,,,,,,,,,1.0,1.0,,,,63e4bb5f5db4ae5ba8d51578,09:38:21,03/04/2024
,"<div style=""font-size: 10rem; color: #0000FF"">S</div>",,ospan,letter,DTKLqDvgjvadT0JrTyG0W3ghiLb2,html-keyboard-response,118,759814,0.0-46.0-4.0-0.0-1.0-7.0,,,,,,,,,,,,,,,63e4bb5f5db4ae5ba8d51578,09:38:21,03/04/2024
5276.699999988079,"<div class = numbox><p style=""font-size: 2.4rem"">Please recall the letters you saw to the best of your ability. If you do not remember a particular letter, use the SKIP button.<br><b>(When you are ready to lock in your answer, press ENTER)</b></p><button id = button_1 class = ""square num-button"" onclick = ""recordClick(this)""><div class = content><div class = numbers>C</div></div></button><button id = button_2 class = ""square num-button"" onclick = ""recordClick(this)""><div class = content><div class = numbers>G</div></div></button><button id = button_3 class = ""square num-button"" onclick = ""recordClick(this)""><div class = content><div class = numbers>H</div></div></button><button id = button_4 class = ""square num-button"" onclick = ""recordClick(this)""><div class = content><div class = numbers>J</div></div></button><button id = button_5 class = ""square num-button"" onclick = ""recordClick(this)""><div class = content><div class = numbers>K</div></div></button><button id = button_6 class = ""square num-button"" onclick = ""recordClick(this)""><div class = content><div class = numbers>L</div></div></button><button id = button_7 class = ""square num-button"" onclick = ""recordClick(this)""><div class = content><div class = numbers>N</div></div></button><button id = button_8 class = ""square num-button"" onclick = ""recordClick(this)""><div class = content><div class = numbers>P</div></div></button><button id = button_9 class = ""square num-button"" onclick = ""recordClick(this)""><div class = content><div class = numbers>Q</div></div></button><button id = button_10 class = ""square num-button"" onclick = ""recordClick(this)""><div class = content><div class = numbers>R</div></div></button><button id = button_11 class = ""square num-button"" onclick = ""recordClick(this)""><div class = content><div class = numbers>S</div></div></button><button id = button_12 class = ""square num-button"" onclick = ""recordClick(this)""><div class = content><div class = numbers>Y</div></div></button><button class = clear_button id = ""ClearButton"" onclick = ""clearResponse()"">BACKSPACE</button><button class = blank_button id = ""BlankButton"" onclick = ""blankResponse()"">SKIP</button><p style=""font-size: 2.4rem""><u><b>Current Answer:</b></u></p><br><br><div id=echoed_txt style=""font-size: 5rem; color:blue;""><b></b></div></div>",enter,ospan,retrieval,DTKLqDvgjvadT0JrTyG0W3ghiLb2,html-keyboard-response,119,765847,0.0-46.0-4.0-0.0-2.0,7,7,7,4.0,"[""H"",""Y"",""J"",""S""]","[""H"",""Y"",""J"",""S""]",1.0,4.0,,,,,,,63e4bb5f5db4ae5ba8d51578,09:38:21,03/04/2024
768.0,[''],0,ospan,feedback,DTKLqDvgjvadT0JrTyG0W3ghiLb2,html-button-response,120,767123,0.0-46.0-4.0-0.0-3.0,,,,,,,,,,,,86.0,0.0,,63e4bb5f5db4ae5ba8d51578,09:38:21,03/04/2024
,"<p style=""font-size:75px;"">...</p>",,ospan,iti,DTKLqDvgjvadT0JrTyG0W3ghiLb2,html-keyboard-response,121,768134,0.0-46.0-4.0-1.0-0.0,,,,,,,,,,,,,,,63e4bb5f5db4ae5ba8d51578,09:38:21,03/04/2024
4748.0,,,ospan,symmetry,DTKLqDvgjvadT0JrTyG0W3ghiLb2,symmetry-judgement-task,122,773909,0.0-46.0-4.0-1.0-1.0-0.0,,,,,,,,,,1.0,1.0,,,,63e4bb5f5db4ae5ba8d51578,09:38:21,03/04/2024
,"<div style=""font-size: 10rem; color: #0000FF"">J</div>",,ospan,letter,DTKLqDvgjvadT0JrTyG0W3ghiLb2,html-keyboard-response,123,774919,0.0-46.0-4.0-1.0-1.0-1.0,,,,,,,,,,,,,,,63e4bb5f5db4ae5ba8d51578,09:38:21,03/04/2024
1681.0,,,ospan,symmetry,DTKLqDvgjvadT0JrTyG0W3ghiLb2,symmetry-judgement-task,124,778492,0.0-46.0-4.0-1.0-1.0-2.0,,,,,,,,,,1.0,1.0,,,,63e4bb5f5db4ae5ba8d51578,09:38:21,03/04/2024
,"<div style=""font-size: 10rem; color: #0000FF"">R</div>",,ospan,letter,DTKLqDvgjvadT0JrTyG0W3ghiLb2,html-keyboard-response,125,779496,0.0-46.0-4.0-1.0-1.0-3.0,,,,,,,,,,,,,,,63e4bb5f5db4ae5ba8d51578,09:38:21,03/04/2024
1933.0,,,ospan,symmetry,DTKLqDvgjvadT0JrTyG0W3ghiLb2,symmetry-judgement-task,126,783310,0.0-46.0-4.0-1.0-1.0-4.0,,,,,,,,,,1.0,1.0,,,,63e4bb5f5db4ae5ba8d51578,09:38:21,03/04/2024
,"<div style=""font-size: 10rem; color: #0000FF"">H</div>",,ospan,letter,DTKLqDvgjvadT0JrTyG0W3ghiLb2,html-keyboard-response,127,784319,0.0-46.0-4.0-1.0-1.0-5.0,,,,,,,,,,,,,,,63e4bb5f5db4ae5ba8d51578,09:38:21,03/04/2024
2946.0,,,ospan,symmetry,DTKLqDvgjvadT0JrTyG0W3ghiLb2,symmetry-judgement-task,128,789142,0.0-46.0-4.0-1.0-1.0-6.0,,,,,,,,,,1.0,1.0,,,,63e4bb5f5db4ae5ba8d51578,09:38:21,03/04/2024
,"<div style=""font-size: 10rem; color: #0000FF"">N</div>",,ospan,letter,DTKLqDvgjvadT0JrTyG0W3ghiLb2,html-keyboard-response,129,790146,0.0-46.0-4.0-1.0-1.0-7.0,,,,,,,,,,,,,,,63e4bb5f5db4ae5ba8d51578,09:38:21,03/04/2024
4520.0,,,ospan,symmetry,DTKLqDvgjvadT0JrTyG0W3ghiLb2,symmetry-judgement-task,130,796538,0.0-46.0-4.0-1.0-1.0-8.0,,,,,,,,,,1.0,1.0,,,,63e4bb5f5db4ae5ba8d51578,09:38:21,03/04/2024
,"<div style=""font-size: 10rem; color: #0000FF"">G</div>",,ospan,letter,DTKLqDvgjvadT0JrTyG0W3ghiLb2,html-keyboard-response,131,797549,0.0-46.0-4.0-1.0-1.0-9.0,,,,,,,,,,,,,,,63e4bb5f5db4ae5ba8d51578,09:38:21,03/04/2024
5837.900000035763,"<div class = numbox><p style=""font-size: 2.4rem"">Please recall the letters you saw to the best of your ability. If you do not remember a particular letter, use the SKIP button.<br><b>(When you are ready to lock in your answer, press ENTER)</b></p><button id = button_1 class = ""square num-button"" onclick = ""recordClick(this)""><div class = content><div class = numbers>C</div></div></button><button id = button_2 class = ""square num-button"" onclick = ""recordClick(this)""><div class = content><div class = numbers>G</div></div></button><button id = button_3 class = ""square num-button"" onclick = ""recordClick(this)""><div class = content><div class = numbers>H</div></div></button><button id = button_4 class = ""square num-button"" onclick = ""recordClick(this)""><div class = content><div class = numbers>J</div></div></button><button id = button_5 class = ""square num-button"" onclick = ""recordClick(this)""><div class = content><div class = numbers>K</div></div></button><button id = button_6 class = ""square num-button"" onclick = ""recordClick(this)""><div class = content><div class = numbers>L</div></div></button><button id = button_7 class = ""square num-button"" onclick = ""recordClick(this)""><div class = content><div class = numbers>N</div></div></button><button id = button_8 class = ""square num-button"" onclick = ""recordClick(this)""><div class = content><div class = numbers>P</div></div></button><button id = button_9 class = ""square num-button"" onclick = ""recordClick(this)""><div class = content><div class = numbers>Q</div></div></button><button id = button_10 class = ""square num-button"" onclick = ""recordClick(this)""><div class = content><div class = numbers>R</div></div></button><button id = button_11 class = ""square num-button"" onclick = ""recordClick(this)""><div class = content><div class = numbers>S</div></div></button><button id = button_12 class = ""square num-button"" onclick = ""recordClick(this)""><div class = content><div class = numbers>Y</div></div></button><button class = clear_button id = ""ClearButton"" onclick = ""clearResponse()"">BACKSPACE</button><button class = blank_button id = ""BlankButton"" onclick = ""blankResponse()"">SKIP</button><p style=""font-size: 2.4rem""><u><b>Current Answer:</b></u></p><br><br><div id=echoed_txt style=""font-size: 5rem; color:blue;""><b></b></div></div>",enter,ospan,retrieval,DTKLqDvgjvadT0JrTyG0W3ghiLb2,html-keyboard-response,132,804142,0.0-46.0-4.0-1.0-2.0,12,12,12,5.0,"[""J"",""R"",""H"",""N"",""G""]","[""J"",""R"",""H"",""N"",""G""]",1.0,5.0,,,,,,,63e4bb5f5db4ae5ba8d51578,09:38:21,03/04/2024
1109.1000000238419,[''],0,ospan,feedback,DTKLqDvgjvadT0JrTyG0W3ghiLb2,html-button-response,133,805763,0.0-46.0-4.0-1.0-3.0,,,,,,,,,,,,92.0,0.0,,63e4bb5f5db4ae5ba8d51578,09:38:21,03/04/2024
,"<p style=""font-size:75px;"">...</p>",,ospan,iti,DTKLqDvgjvadT0JrTyG0W3ghiLb2,html-keyboard-response,134,806765,0.0-46.0-4.0-2.0-0.0,,,,,,,,,,,,,,,63e4bb5f5db4ae5ba8d51578,09:38:21,03/04/2024
2393.0,,,ospan,symmetry,DTKLqDvgjvadT0JrTyG0W3ghiLb2,symmetry-judgement-task,135,810199,0.0-46.0-4.0-2.0-1.0-0.0,,,,,,,,,,1.0,1.0,,,,63e4bb5f5db4ae5ba8d51578,09:38:21,03/04/2024
,"<div style=""font-size: 10rem; color: #0000FF"">N</div>",,ospan,letter,DTKLqDvgjvadT0JrTyG0W3ghiLb2,html-keyboard-response,136,811217,0.0-46.0-4.0-2.0-1.0-1.0,,,,,,,,,,,,,,,63e4bb5f5db4ae5ba8d51578,09:38:21,03/04/2024
2193.0,,,ospan,symmetry,DTKLqDvgjvadT0JrTyG0W3ghiLb2,symmetry-judgement-task,137,815274,0.0-46.0-4.0-2.0-1.0-2.0,,,,,,,,,,1.0,1.0,,,,63e4bb5f5db4ae5ba8d51578,09:38:21,03/04/2024
,"<div style=""font-size: 10rem; color: #0000FF"">K</div>",,ospan,letter,DTKLqDvgjvadT0JrTyG0W3ghiLb2,html-keyboard-response,138,816285,0.0-46.0-4.0-2.0-1.0-3.0,,,,,,,,,,,,,,,63e4bb5f5db4ae5ba8d51578,09:38:21,03/04/2024
2186.0,,,ospan,symmetry,DTKLqDvgjvadT0JrTyG0W3ghiLb2,symmetry-judgement-task,139,820327,0.0-46.0-4.0-2.0-1.0-4.0,,,,,,,,,,1.0,1.0,,,,63e4bb5f5db4ae5ba8d51578,09:38:21,03/04/2024
,"<div style=""font-size: 10rem; color: #0000FF"">G</div>",,ospan,letter,DTKLqDvgjvadT0JrTyG0W3ghiLb2,html-keyboard-response,140,821335,0.0-46.0-4.0-2.0-1.0-5.0,,,,,,,,,,,,,,,63e4bb5f5db4ae5ba8d51578,09:38:21,03/04/2024
3037.699999988079,"<div class = numbox><p style=""font-size: 2.4rem"">Please recall the letters you saw to the best of your ability. If you do not remember a particular letter, use the SKIP button.<br><b>(When you are ready to lock in your answer, press ENTER)</b></p><button id = button_1 class = ""square num-button"" onclick = ""recordClick(this)""><div class = content><div class = numbers>C</div></div></button><button id = button_2 class = ""square num-button"" onclick = ""recordClick(this)""><div class = content><div class = numbers>G</div></div></button><button id = button_3 class = ""square num-button"" onclick = ""recordClick(this)""><div class = content><div class = numbers>H</div></div></button><button id = button_4 class = ""square num-button"" onclick = ""recordClick(this)""><div class = content><div class = numbers>J</div></div></button><button id = button_5 class = ""square num-button"" onclick = ""recordClick(this)""><div class = content><div class = numbers>K</div></div></button><button id = button_6 class = ""square num-button"" onclick = ""recordClick(this)""><div class = content><div class = numbers>L</div></div></button><button id = button_7 class = ""square num-button"" onclick = ""recordClick(this)""><div class = content><div class = numbers>N</div></div></button><button id = button_8 class = ""square num-button"" onclick = ""recordClick(this)""><div class = content><div class = numbers>P</div></div></button><button id = button_9 class = ""square num-button"" onclick = ""recordClick(this)""><div class = content><div class = numbers>Q</div></div></button><button id = button_10 class = ""square num-button"" onclick = ""recordClick(this)""><div class = content><div class = numbers>R</div></div></button><button id = button_11 class = ""square num-button"" onclick = ""recordClick(this)""><div class = content><div class = numbers>S</div></div></button><button id = button_12 class = ""square num-button"" onclick = ""recordClick(this)""><div class = content><div class = numbers>Y</div></div></button><button class = clear_button id = ""ClearButton"" onclick = ""clearResponse()"">BACKSPACE</button><button class = blank_button id = ""BlankButton"" onclick = ""blankResponse()"">SKIP</button><p style=""font-size: 2.4rem""><u><b>Current Answer:</b></u></p><br><br><div id=echoed_txt style=""font-size: 5rem; color:blue;""><b></b></div></div>",enter,ospan,retrieval,DTKLqDvgjvadT0JrTyG0W3ghiLb2,html-keyboard-response,141,825124,0.0-46.0-4.0-2.0-2.0,15,15,15,3.0,"[""N"",""K"",""G""]","[""N"",""K"",""G""]",1.0,3.0,,,,,,,63e4bb5f5db4ae5ba8d51578,09:38:21,03/04/2024
852.9000000357628,[''],0,ospan,feedback,DTKLqDvgjvadT0JrTyG0W3ghiLb2,html-button-response,142,826483,0.0-46.0-4.0-2.0-3.0,,,,,,,,,,,,93.0,0.0,,63e4bb5f5db4ae5ba8d51578,09:38:21,03/04/2024
,"<p style=""font-size:75px;"">...</p>",,ospan,iti,DTKLqDvgjvadT0JrTyG0W3ghiLb2,html-keyboard-response,143,827490,0.0-46.0-5.0-0.0-0.0,,,,,,,,,,,,,,,63e4bb5f5db4ae5ba8d51578,09:38:21,03/04/2024
2151.0,,,ospan,symmetry,DTKLqDvgjvadT0JrTyG0W3ghiLb2,symmetry-judgement-task,144,830676,0.0-46.0-5.0-0.0-1.0-0.0,,,,,,,,,,1.0,1.0,,,,63e4bb5f5db4ae5ba8d51578,09:38:21,03/04/2024
,"<div style=""font-size: 10rem; color: #0000FF"">N</div>",,ospan,letter,DTKLqDvgjvadT0JrTyG0W3ghiLb2,html-keyboard-response,145,831687,0.0-46.0-5.0-0.0-1.0-1.0,,,,,,,,,,,,,,,63e4bb5f5db4ae5ba8d51578,09:38:21,03/04/2024
1874.0,,,ospan,symmetry,DTKLqDvgjvadT0JrTyG0W3ghiLb2,symmetry-judgement-task,146,835428,0.0-46.0-5.0-0.0-1.0-2.0,,,,,,,,,,1.0,1.0,,,,63e4bb5f5db4ae5ba8d51578,09:38:21,03/04/2024
,"<div style=""font-size: 10rem; color: #0000FF"">H</div>",,ospan,letter,DTKLqDvgjvadT0JrTyG0W3ghiLb2,html-keyboard-response,147,836443,0.0-46.0-5.0-0.0-1.0-3.0,,,,,,,,,,,,,,,63e4bb5f5db4ae5ba8d51578,09:38:21,03/04/2024
2427.0,,,ospan,symmetry,DTKLqDvgjvadT0JrTyG0W3ghiLb2,symmetry-judgement-task,148,840737,0.0-46.0-5.0-0.0-1.0-4.0,,,,,,,,,,1.0,1.0,,,,63e4bb5f5db4ae5ba8d51578,09:38:21,03/04/2024
,"<div style=""font-size: 10rem; color: #0000FF"">R</div>",,ospan,letter,DTKLqDvgjvadT0JrTyG0W3ghiLb2,html-keyboard-response,149,841749,0.0-46.0-5.0-0.0-1.0-5.0,,,,,,,,,,,,,,,63e4bb5f5db4ae5ba8d51578,09:38:21,03/04/2024
1933.0,,,ospan,symmetry,DTKLqDvgjvadT0JrTyG0W3ghiLb2,symmetry-judgement-task,150,845546,0.0-46.0-5.0-0.0-1.0-6.0,,,,,,,,,,1.0,1.0,,,,63e4bb5f5db4ae5ba8d51578,09:38:21,03/04/2024
,"<div style=""font-size: 10rem; color: #0000FF"">Q</div>",,ospan,letter,DTKLqDvgjvadT0JrTyG0W3ghiLb2,html-keyboard-response,151,846554,0.0-46.0-5.0-0.0-1.0-7.0,,,,,,,,,,,,,,,63e4bb5f5db4ae5ba8d51578,09:38:21,03/04/2024
3092.0,,,ospan,symmetry,DTKLqDvgjvadT0JrTyG0W3ghiLb2,symmetry-judgement-task,152,851523,0.0-46.0-5.0-0.0-1.0-8.0,,,,,,,,,,1.0,1.0,,,,63e4bb5f5db4ae5ba8d51578,09:38:21,03/04/2024
,"<div style=""font-size: 10rem; color: #0000FF"">Y</div>",,ospan,letter,DTKLqDvgjvadT0JrTyG0W3ghiLb2,html-keyboard-response,153,852533,0.0-46.0-5.0-0.0-1.0-9.0,,,,,,,,,,,,,,,63e4bb5f5db4ae5ba8d51578,09:38:21,03/04/2024
3212.0,,,ospan,symmetry,DTKLqDvgjvadT0JrTyG0W3ghiLb2,symmetry-judgement-task,154,857618,0.0-46.0-5.0-0.0-1.0-10.0,,,,,,,,,,1.0,1.0,,,,63e4bb5f5db4ae5ba8d51578,09:38:21,03/04/2024
,"<div style=""font-size: 10rem; color: #0000FF"">P</div>",,ospan,letter,DTKLqDvgjvadT0JrTyG0W3ghiLb2,html-keyboard-response,155,858635,0.0-46.0-5.0-0.0-1.0-11.0,,,,,,,,,,,,,,,63e4bb5f5db4ae5ba8d51578,09:38:21,03/04/2024
5789.300000011921,"<div class = numbox><p style=""font-size: 2.4rem"">Please recall the letters you saw to the best of your ability. If you do not remember a particular letter, use the SKIP button.<br><b>(When you are ready to lock in your answer, press ENTER)</b></p><button id = button_1 class = ""square num-button"" onclick = ""recordClick(this)""><div class = content><div class = numbers>C</div></div></button><button id = button_2 class = ""square num-button"" onclick = ""recordClick(this)""><div class = content><div class = numbers>G</div></div></button><button id = button_3 class = ""square num-button"" onclick = ""recordClick(this)""><div class = content><div class = numbers>H</div></div></button><button id = button_4 class = ""square num-button"" onclick = ""recordClick(this)""><div class = content><div class = numbers>J</div></div></button><button id = button_5 class = ""square num-button"" onclick = ""recordClick(this)""><div class = content><div class = numbers>K</div></div></button><button id = button_6 class = ""square num-button"" onclick = ""recordClick(this)""><div class = content><div class = numbers>L</div></div></button><button id = button_7 class = ""square num-button"" onclick = ""recordClick(this)""><div class = content><div class = numbers>N</div></div></button><button id = button_8 class = ""square num-button"" onclick = ""recordClick(this)""><div class = content><div class = numbers>P</div></div></button><button id = button_9 class = ""square num-button"" onclick = ""recordClick(this)""><div class = content><div class = numbers>Q</div></div></button><button id = button_10 class = ""square num-button"" onclick = ""recordClick(this)""><div class = content><div class = numbers>R</div></div></button><button id = button_11 class = ""square num-button"" onclick = ""recordClick(this)""><div class = content><div class = numbers>S</div></div></button><button id = button_12 class = ""square num-button"" onclick = ""recordClick(this)""><div class = content><div class = numbers>Y</div></div></button><button class = clear_button id = ""ClearButton"" onclick = ""clearResponse()"">BACKSPACE</button><button class = blank_button id = ""BlankButton"" onclick = ""blankResponse()"">SKIP</button><p style=""font-size: 2.4rem""><u><b>Current Answer:</b></u></p><br><br><div id=echoed_txt style=""font-size: 5rem; color:blue;""><b></b></div></div>",enter,ospan,retrieval,DTKLqDvgjvadT0JrTyG0W3ghiLb2,html-keyboard-response,156,865188,0.0-46.0-5.0-0.0-2.0,21,21,21,6.0,"[""N"",""H"",""R"",""Q"",""Y"",""P""]","[""N"",""H"",""R"",""Q"",""Y"",""P""]",1.0,6.0,,,,,,,63e4bb5f5db4ae5ba8d51578,09:38:21,03/04/2024
652.3000000119209,[''],0,ospan,feedback,DTKLqDvgjvadT0JrTyG0W3ghiLb2,html-button-response,157,866355,0.0-46.0-5.0-0.0-3.0,,,,,,,,,,,,95.0,0.0,,63e4bb5f5db4ae5ba8d51578,09:38:21,03/04/2024
,"<p style=""font-size:75px;"">...</p>",,ospan,iti,DTKLqDvgjvadT0JrTyG0W3ghiLb2,html-keyboard-response,158,867357,0.0-46.0-5.0-1.0-0.0,,,,,,,,,,,,,,,63e4bb5f5db4ae5ba8d51578,09:38:21,03/04/2024
4527.0,,,ospan,symmetry,DTKLqDvgjvadT0JrTyG0W3ghiLb2,symmetry-judgement-task,159,873005,0.0-46.0-5.0-1.0-1.0-0.0,,,,,,,,,,1.0,1.0,,,,63e4bb5f5db4ae5ba8d51578,09:38:21,03/04/2024
,"<div style=""font-size: 10rem; color: #0000FF"">S</div>",,ospan,letter,DTKLqDvgjvadT0JrTyG0W3ghiLb2,html-keyboard-response,160,874019,0.0-46.0-5.0-1.0-1.0-1.0,,,,,,,,,,,,,,,63e4bb5f5db4ae5ba8d51578,09:38:21,03/04/2024
3517.0,,,ospan,symmetry,DTKLqDvgjvadT0JrTyG0W3ghiLb2,symmetry-judgement-task,161,879403,0.0-46.0-5.0-1.0-1.0-2.0,,,,,,,,,,1.0,1.0,,,,63e4bb5f5db4ae5ba8d51578,09:38:21,03/04/2024
,"<div style=""font-size: 10rem; color: #0000FF"">Q</div>",,ospan,letter,DTKLqDvgjvadT0JrTyG0W3ghiLb2,html-keyboard-response,162,880420,0.0-46.0-5.0-1.0-1.0-3.0,,,,,,,,,,,,,,,63e4bb5f5db4ae5ba8d51578,09:38:21,03/04/2024
1366.0,,,ospan,symmetry,DTKLqDvgjvadT0JrTyG0W3ghiLb2,symmetry-judgement-task,163,883666,0.0-46.0-5.0-1.0-1.0-4.0,,,,,,,,,,1.0,1.0,,,,63e4bb5f5db4ae5ba8d51578,09:38:21,03/04/2024
,"<div style=""font-size: 10rem; color: #0000FF"">J</div>",,ospan,letter,DTKLqDvgjvadT0JrTyG0W3ghiLb2,html-keyboard-response,164,884676,0.0-46.0-5.0-1.0-1.0-5.0,,,,,,,,,,,,,,,63e4bb5f5db4ae5ba8d51578,09:38:21,03/04/2024
1726.0,,,ospan,symmetry,DTKLqDvgjvadT0JrTyG0W3ghiLb2,symmetry-judgement-task,165,888276,0.0-46.0-5.0-1.0-1.0-6.0,,,,,,,,,,1.0,1.0,,,,63e4bb5f5db4ae5ba8d51578,09:38:21,03/04/2024
,"<div style=""font-size: 10rem; color: #0000FF"">G</div>",,ospan,letter,DTKLqDvgjvadT0JrTyG0W3ghiLb2,html-keyboard-response,166,889285,0.0-46.0-5.0-1.0-1.0-7.0,,,,,,,,,,,,,,,63e4bb5f5db4ae5ba8d51578,09:38:21,03/04/2024
3174.0,,,ospan,symmetry,DTKLqDvgjvadT0JrTyG0W3ghiLb2,symmetry-judgement-task,167,894354,0.0-46.0-5.0-1.0-1.0-8.0,,,,,,,,,,0.0,0.0,,,,63e4bb5f5db4ae5ba8d51578,09:38:21,03/04/2024
,"<div style=""font-size: 10rem; color: #0000FF"">L</div>",,ospan,letter,DTKLqDvgjvadT0JrTyG0W3ghiLb2,html-keyboard-response,168,895366,0.0-46.0-5.0-1.0-1.0-9.0,,,,,,,,,,,,,,,63e4bb5f5db4ae5ba8d51578,09:38:21,03/04/2024
2504.0,,,ospan,symmetry,DTKLqDvgjvadT0JrTyG0W3ghiLb2,symmetry-judgement-task,169,899728,0.0-46.0-5.0-1.0-1.0-10.0,,,,,,,,,,1.0,1.0,,,,63e4bb5f5db4ae5ba8d51578,09:38:21,03/04/2024
,"<div style=""font-size: 10rem; color: #0000FF"">C</div>",,ospan,letter,DTKLqDvgjvadT0JrTyG0W3ghiLb2,html-keyboard-response,170,900733,0.0-46.0-5.0-1.0-1.0-11.0,,,,,,,,,,,,,,,63e4bb5f5db4ae5ba8d51578,09:38:21,03/04/2024
2236.0,,,ospan,symmetry,DTKLqDvgjvadT0JrTyG0W3ghiLb2,symmetry-judgement-task,171,904828,0.0-46.0-5.0-1.0-1.0-12.0,,,,,,,,,,0.0,0.0,,,,63e4bb5f5db4ae5ba8d51578,09:38:21,03/04/2024
,"<div style=""font-size: 10rem; color: #0000FF"">H</div>",,ospan,letter,DTKLqDvgjvadT0JrTyG0W3ghiLb2,html-keyboard-response,172,905841,0.0-46.0-5.0-1.0-1.0-13.0,,,,,,,,,,,,,,,63e4bb5f5db4ae5ba8d51578,09:38:21,03/04/2024
8140.5,"<div class = numbox><p style=""font-size: 2.4rem"">Please recall the letters you saw to the best of your ability. If you do not remember a particular letter, use the SKIP button.<br><b>(When you are ready to lock in your answer, press ENTER)</b></p><button id = button_1 class = ""square num-button"" onclick = ""recordClick(this)""><div class = content><div class = numbers>C</div></div></button><button id = button_2 class = ""square num-button"" onclick = ""recordClick(this)""><div class = content><div class = numbers>G</div></div></button><button id = button_3 class = ""square num-button"" onclick = ""recordClick(this)""><div class = content><div class = numbers>H</div></div></button><button id = button_4 class = ""square num-button"" onclick = ""recordClick(this)""><div class = content><div class = numbers>J</div></div></button><button id = button_5 class = ""square num-button"" onclick = ""recordClick(this)""><div class = content><div class = numbers>K</div></div></button><button id = button_6 class = ""square num-button"" onclick = ""recordClick(this)""><div class = content><div class = numbers>L</div></div></button><button id = button_7 class = ""square num-button"" onclick = ""recordClick(this)""><div class = content><div class = numbers>N</div></div></button><button id = button_8 class = ""square num-button"" onclick = ""recordClick(this)""><div class = content><div class = numbers>P</div></div></button><button id = button_9 class = ""square num-button"" onclick = ""recordClick(this)""><div class = content><div class = numbers>Q</div></div></button><button id = button_10 class = ""square num-button"" onclick = ""recordClick(this)""><div class = content><div class = numbers>R</div></div></button><button id = button_11 class = ""square num-button"" onclick = ""recordClick(this)""><div class = content><div class = numbers>S</div></div></button><button id = button_12 class = ""square num-button"" onclick = ""recordClick(this)""><div class = content><div class = numbers>Y</div></div></button><button class = clear_button id = ""ClearButton"" onclick = ""clearResponse()"">BACKSPACE</button><button class = blank_button id = ""BlankButton"" onclick = ""blankResponse()"">SKIP</button><p style=""font-size: 2.4rem""><u><b>Current Answer:</b></u></p><br><br><div id=echoed_txt style=""font-size: 5rem; color:blue;""><b></b></div></div>",enter,ospan,retrieval,DTKLqDvgjvadT0JrTyG0W3ghiLb2,html-keyboard-response,173,914744,0.0-46.0-5.0-1.0-2.0,28,27,21,7.0,"[""S"",""Q"",""J"",""G"",""L"",""C""]","[""S"",""Q"",""J"",""G"",""L"",""C"",""H""]",0.0,6.0,,,,,,,63e4bb5f5db4ae5ba8d51578,09:38:21,03/04/2024
741.5999999642372,[''],0,ospan,feedback,DTKLqDvgjvadT0JrTyG0W3ghiLb2,html-button-response,174,915995,0.0-46.0-5.0-1.0-3.0,,,,,,,,,,,,89.0,0.0,,63e4bb5f5db4ae5ba8d51578,09:38:21,03/04/2024
,"<p style=""font-size:75px;"">...</p>",,ospan,iti,DTKLqDvgjvadT0JrTyG0W3ghiLb2,html-keyboard-response,175,917003,0.0-46.0-6.0-0.0-0.0,,,,,,,,,,,,,,,63e4bb5f5db4ae5ba8d51578,09:38:21,03/04/2024
2063.0,,,ospan,symmetry,DTKLqDvgjvadT0JrTyG0W3ghiLb2,symmetry-judgement-task,176,920184,0.0-46.0-6.0-0.0-1.0-0.0,,,,,,,,,,1.0,1.0,,,,63e4bb5f5db4ae5ba8d51578,09:38:21,03/04/2024
,"<div style=""font-size: 10rem; color: #0000FF"">S</div>",,ospan,letter,DTKLqDvgjvadT0JrTyG0W3ghiLb2,html-keyboard-response,177,921195,0.0-46.0-6.0-0.0-1.0-1.0,,,,,,,,,,,,,,,63e4bb5f5db4ae5ba8d51578,09:38:21,03/04/2024
2312.0,,,ospan,symmetry,DTKLqDvgjvadT0JrTyG0W3ghiLb2,symmetry-judgement-task,178,925372,0.0-46.0-6.0-0.0-1.0-2.0,,,,,,,,,,1.0,1.0,,,,63e4bb5f5db4ae5ba8d51578,09:38:21,03/04/2024
,"<div style=""font-size: 10rem; color: #0000FF"">J</div>",,ospan,letter,DTKLqDvgjvadT0JrTyG0W3ghiLb2,html-keyboard-response,179,926386,0.0-46.0-6.0-0.0-1.0-3.0,,,,,,,,,,,,,,,63e4bb5f5db4ae5ba8d51578,09:38:21,03/04/2024
2221.0,,,ospan,symmetry,DTKLqDvgjvadT0JrTyG0W3ghiLb2,symmetry-judgement-task,180,930489,0.0-46.0-6.0-0.0-1.0-4.0,,,,,,,,,,1.0,1.0,,,,63e4bb5f5db4ae5ba8d51578,09:38:21,03/04/2024
,"<div style=""font-size: 10rem; color: #0000FF"">P</div>",,ospan,letter,DTKLqDvgjvadT0JrTyG0W3ghiLb2,html-keyboard-response,181,931501,0.0-46.0-6.0-0.0-1.0-5.0,,,,,,,,,,,,,,,63e4bb5f5db4ae5ba8d51578,09:38:21,03/04/2024
1607.0,,,ospan,symmetry,DTKLqDvgjvadT0JrTyG0W3ghiLb2,symmetry-judgement-task,182,934964,0.0-46.0-6.0-0.0-1.0-6.0,,,,,,,,,,1.0,1.0,,,,63e4bb5f5db4ae5ba8d51578,09:38:21,03/04/2024
,"<div style=""font-size: 10rem; color: #0000FF"">Y</div>",,ospan,letter,DTKLqDvgjvadT0JrTyG0W3ghiLb2,html-keyboard-response,183,935967,0.0-46.0-6.0-0.0-1.0-7.0,,,,,,,,,,,,,,,63e4bb5f5db4ae5ba8d51578,09:38:21,03/04/2024
3117.0,,,ospan,symmetry,DTKLqDvgjvadT0JrTyG0W3ghiLb2,symmetry-judgement-task,184,940948,0.0-46.0-6.0-0.0-1.0-8.0,,,,,,,,,,1.0,1.0,,,,63e4bb5f5db4ae5ba8d51578,09:38:21,03/04/2024
,"<div style=""font-size: 10rem; color: #0000FF"">H</div>",,ospan,letter,DTKLqDvgjvadT0JrTyG0W3ghiLb2,html-keyboard-response,185,941952,0.0-46.0-6.0-0.0-1.0-9.0,,,,,,,,,,,,,,,63e4bb5f5db4ae5ba8d51578,09:38:21,03/04/2024
5256.199999988079,"<div class = numbox><p style=""font-size: 2.4rem"">Please recall the letters you saw to the best of your ability. If you do not remember a particular letter, use the SKIP button.<br><b>(When you are ready to lock in your answer, press ENTER)</b></p><button id = button_1 class = ""square num-button"" onclick = ""recordClick(this)""><div class = content><div class = numbers>C</div></div></button><button id = button_2 class = ""square num-button"" onclick = ""recordClick(this)""><div class = content><div class = numbers>G</div></div></button><button id = button_3 class = ""square num-button"" onclick = ""recordClick(this)""><div class = content><div class = numbers>H</div></div></button><button id = button_4 class = ""square num-button"" onclick = ""recordClick(this)""><div class = content><div class = numbers>J</div></div></button><button id = button_5 class = ""square num-button"" onclick = ""recordClick(this)""><div class = content><div class = numbers>K</div></div></button><button id = button_6 class = ""square num-button"" onclick = ""recordClick(this)""><div class = content><div class = numbers>L</div></div></button><button id = button_7 class = ""square num-button"" onclick = ""recordClick(this)""><div class = content><div class = numbers>N</div></div></button><button id = button_8 class = ""square num-button"" onclick = ""recordClick(this)""><div class = content><div class = numbers>P</div></div></button><button id = button_9 class = ""square num-button"" onclick = ""recordClick(this)""><div class = content><div class = numbers>Q</div></div></button><button id = button_10 class = ""square num-button"" onclick = ""recordClick(this)""><div class = content><div class = numbers>R</div></div></button><button id = button_11 class = ""square num-button"" onclick = ""recordClick(this)""><div class = content><div class = numbers>S</div></div></button><button id = button_12 class = ""square num-button"" onclick = ""recordClick(this)""><div class = content><div class = numbers>Y</div></div></button><button class = clear_button id = ""ClearButton"" onclick = ""clearResponse()"">BACKSPACE</button><button class = blank_button id = ""BlankButton"" onclick = ""blankResponse()"">SKIP</button><p style=""font-size: 2.4rem""><u><b>Current Answer:</b></u></p><br><br><div id=echoed_txt style=""font-size: 5rem; color:blue;""><b></b></div></div>",enter,ospan,retrieval,DTKLqDvgjvadT0JrTyG0W3ghiLb2,html-keyboard-response,186,947960,0.0-46.0-6.0-0.0-2.0,33,32,26,5.0,"[""S"",""J"",""P"",""Y"",""H""]","[""S"",""J"",""P"",""Y"",""H""]",1.0,5.0,,,,,,,63e4bb5f5db4ae5ba8d51578,09:38:21,03/04/2024
861.7999999523163,[''],0,ospan,feedback,DTKLqDvgjvadT0JrTyG0W3ghiLb2,html-button-response,187,949331,0.0-46.0-6.0-0.0-3.0,,,,,,,,,,,,91.0,0.0,,63e4bb5f5db4ae5ba8d51578,09:38:21,03/04/2024
,"<p style=""font-size:75px;"">...</p>",,ospan,iti,DTKLqDvgjvadT0JrTyG0W3ghiLb2,html-keyboard-response,188,950346,0.0-46.0-6.0-1.0-0.0,,,,,,,,,,,,,,,63e4bb5f5db4ae5ba8d51578,09:38:21,03/04/2024
1771.0,,,ospan,symmetry,DTKLqDvgjvadT0JrTyG0W3ghiLb2,symmetry-judgement-task,189,953234,0.0-46.0-6.0-1.0-1.0-0.0,,,,,,,,,,1.0,1.0,,,,63e4bb5f5db4ae5ba8d51578,09:38:21,03/04/2024
,"<div style=""font-size: 10rem; color: #0000FF"">P</div>",,ospan,letter,DTKLqDvgjvadT0JrTyG0W3ghiLb2,html-keyboard-response,190,954252,0.0-46.0-6.0-1.0-1.0-1.0,,,,,,,,,,,,,,,63e4bb5f5db4ae5ba8d51578,09:38:21,03/04/2024
1560.0,,,ospan,symmetry,DTKLqDvgjvadT0JrTyG0W3ghiLb2,symmetry-judgement-task,191,957678,0.0-46.0-6.0-1.0-1.0-2.0,,,,,,,,,,1.0,1.0,,,,63e4bb5f5db4ae5ba8d51578,09:38:21,03/04/2024
,"<div style=""font-size: 10rem; color: #0000FF"">L</div>",,ospan,letter,DTKLqDvgjvadT0JrTyG0W3ghiLb2,html-keyboard-response,192,958680,0.0-46.0-6.0-1.0-1.0-3.0,,,,,,,,,,,,,,,63e4bb5f5db4ae5ba8d51578,09:38:21,03/04/2024
1785.0,,,ospan,symmetry,DTKLqDvgjvadT0JrTyG0W3ghiLb2,symmetry-judgement-task,193,962348,0.0-46.0-6.0-1.0-1.0-4.0,,,,,,,,,,1.0,1.0,,,,63e4bb5f5db4ae5ba8d51578,09:38:21,03/04/2024
,"<div style=""font-size: 10rem; color: #0000FF"">K</div>",,ospan,letter,DTKLqDvgjvadT0JrTyG0W3ghiLb2,html-keyboard-response,194,963354,0.0-46.0-6.0-1.0-1.0-5.0,,,,,,,,,,,,,,,63e4bb5f5db4ae5ba8d51578,09:38:21,03/04/2024
2212.0,,,ospan,symmetry,DTKLqDvgjvadT0JrTyG0W3ghiLb2,symmetry-judgement-task,195,967445,0.0-46.0-6.0-1.0-1.0-6.0,,,,,,,,,,1.0,1.0,,,,63e4bb5f5db4ae5ba8d51578,09:38:21,03/04/2024
,"<div style=""font-size: 10rem; color: #0000FF"">H</div>",,ospan,letter,DTKLqDvgjvadT0JrTyG0W3ghiLb2,html-keyboard-response,196,968453,0.0-46.0-6.0-1.0-1.0-7.0,,,,,,,,,,,,,,,63e4bb5f5db4ae5ba8d51578,09:38:21,03/04/2024
2382.0,,,ospan,symmetry,DTKLqDvgjvadT0JrTyG0W3ghiLb2,symmetry-judgement-task,197,972698,0.0-46.0-6.0-1.0-1.0-8.0,,,,,,,,,,1.0,1.0,,,,63e4bb5f5db4ae5ba8d51578,09:38:21,03/04/2024
,"<div style=""font-size: 10rem; color: #0000FF"">G</div>",,ospan,letter,DTKLqDvgjvadT0JrTyG0W3ghiLb2,html-keyboard-response,198,973701,0.0-46.0-6.0-1.0-1.0-9.0,,,,,,,,,,,,,,,63e4bb5f5db4ae5ba8d51578,09:38:21,03/04/2024
1915.0,,,ospan,symmetry,DTKLqDvgjvadT0JrTyG0W3ghiLb2,symmetry-judgement-task,199,977486,0.0-46.0-6.0-1.0-1.0-10.0,,,,,,,,,,1.0,1.0,,,,63e4bb5f5db4ae5ba8d51578,09:38:21,03/04/2024
,"<div style=""font-size: 10rem; color: #0000FF"">J</div>",,ospan,letter,DTKLqDvgjvadT0JrTyG0W3ghiLb2,html-keyboard-response,200,978498,0.0-46.0-6.0-1.0-1.0-11.0,,,,,,,,,,,,,,,63e4bb5f5db4ae5ba8d51578,09:38:21,03/04/2024
3448.0,,,ospan,symmetry,DTKLqDvgjvadT0JrTyG0W3ghiLb2,symmetry-judgement-task,201,983804,0.0-46.0-6.0-1.0-1.0-12.0,,,,,,,,,,1.0,1.0,,,,63e4bb5f5db4ae5ba8d51578,09:38:21,03/04/2024
,"<div style=""font-size: 10rem; color: #0000FF"">S</div>",,ospan,letter,DTKLqDvgjvadT0JrTyG0W3ghiLb2,html-keyboard-response,202,984821,0.0-46.0-6.0-1.0-1.0-13.0,,,,,,,,,,,,,,,63e4bb5f5db4ae5ba8d51578,09:38:21,03/04/2024
3994.0,,,ospan,symmetry,DTKLqDvgjvadT0JrTyG0W3ghiLb2,symmetry-judgement-task,203,990702,0.0-46.0-6.0-1.0-1.0-14.0,,,,,,,,,,1.0,1.0,,,,63e4bb5f5db4ae5ba8d51578,09:38:21,03/04/2024
,"<div style=""font-size: 10rem; color: #0000FF"">Q</div>",,ospan,letter,DTKLqDvgjvadT0JrTyG0W3ghiLb2,html-keyboard-response,204,991705,0.0-46.0-6.0-1.0-1.0-15.0,,,,,,,,,,,,,,,63e4bb5f5db4ae5ba8d51578,09:38:21,03/04/2024
8377.399999976158,"<div class = numbox><p style=""font-size: 2.4rem"">Please recall the letters you saw to the best of your ability. If you do not remember a particular letter, use the SKIP button.<br><b>(When you are ready to lock in your answer, press ENTER)</b></p><button id = button_1 class = ""square num-button"" onclick = ""recordClick(this)""><div class = content><div class = numbers>C</div></div></button><button id = button_2 class = ""square num-button"" onclick = ""recordClick(this)""><div class = content><div class = numbers>G</div></div></button><button id = button_3 class = ""square num-button"" onclick = ""recordClick(this)""><div class = content><div class = numbers>H</div></div></button><button id = button_4 class = ""square num-button"" onclick = ""recordClick(this)""><div class = content><div class = numbers>J</div></div></button><button id = button_5 class = ""square num-button"" onclick = ""recordClick(this)""><div class = content><div class = numbers>K</div></div></button><button id = button_6 class = ""square num-button"" onclick = ""recordClick(this)""><div class = content><div class = numbers>L</div></div></button><button id = button_7 class = ""square num-button"" onclick = ""recordClick(this)""><div class = content><div class = numbers>N</div></div></button><button id = button_8 class = ""square num-button"" onclick = ""recordClick(this)""><div class = content><div class = numbers>P</div></div></button><button id = button_9 class = ""square num-button"" onclick = ""recordClick(this)""><div class = content><div class = numbers>Q</div></div></button><button id = button_10 class = ""square num-button"" onclick = ""recordClick(this)""><div class = content><div class = numbers>R</div></div></button><button id = button_11 class = ""square num-button"" onclick = ""recordClick(this)""><div class = content><div class = numbers>S</div></div></button><button id = button_12 class = ""square num-button"" onclick = ""recordClick(this)""><div class = content><div class = numbers>Y</div></div></button><button class = clear_button id = ""ClearButton"" onclick = ""clearResponse()"">BACKSPACE</button><button class = blank_button id = ""BlankButton"" onclick = ""blankResponse()"">SKIP</button><p style=""font-size: 2.4rem""><u><b>Current Answer:</b></u></p><br><br><div id=echoed_txt style=""font-size: 5rem; color:blue;""><b></b></div></div>",enter,ospan,retrieval,DTKLqDvgjvadT0JrTyG0W3ghiLb2,html-keyboard-response,205,1000848,0.0-46.0-6.0-1.0-2.0,41,35,26,8.0,"[""P"",""L"",""J"",""K"",""G"",""S"",""Q""]","[""P"",""L"",""K"",""H"",""G"",""J"",""S"",""Q""]",0.0,3.0,,,,,,,63e4bb5f5db4ae5ba8d51578,09:38:21,03/04/2024
640.8999999761581,[''],0,ospan,feedback,DTKLqDvgjvadT0JrTyG0W3ghiLb2,html-button-response,206,1001995,0.0-46.0-6.0-1.0-3.0,,,,,,,,,,,,93.0,0.0,,63e4bb5f5db4ae5ba8d51578,09:38:21,03/04/2024
20102.099999964237,,{'Q0': 'I like using my brain and working memorizing the letters. '},ospan,survey_ospan,DTKLqDvgjvadT0JrTyG0W3ghiLb2,lmdlab-survey-text,207,1022852,0.0-46.0-7.0,,,,,,,,,,,,,,DTKLqDvgjvadT0JrTyG0W3ghiLb2,63e4bb5f5db4ae5ba8d51578,09:38:21,03/04/2024
979.3999999761581,<p><p style='font-size: 3rem'>Great work!<br><br>This completes the symmetry and memory task.</p><br><br><br>,0,ospan,finish,DTKLqDvgjvadT0JrTyG0W3ghiLb2,html-button-response,208,1023835,0.0-46.0-8.0,41,35,26,,,,,,,,,93.0,,,63e4bb5f5db4ae5ba8d51578,09:38:21,03/04/2024
