rt,stimulus,response,exp_name,exp_stage,subjectID,trial_type,trial_index,time_elapsed,internal_node_id,ospan_shown,ospan_total,ospan_abs,length,resp_actual,resp_correct,full_correct,num_correct,feedback,accuracy,correct,math_acc,math_warning,databaseID,prolificID,start_time,date
2710.89999999851,<div class = 'left_align' style='font-size: 3.25rem; line-height: 1.3;'><p class = 'center_align'><b>Welcome to the Symmetry and Memory Task</b><br><br><br><br></p>Press 'continue' to show the instructions.<br><br><br><br></div>,0,ospan,instruct,D83aj8RYVwOoyGvQO83gvEGVVtw1,html-button-response,51,485570,0.0-43.0-0.0-0.0-0.0,,,,,,,,,,,,,,,5cf66ed8912f0b0017c50b52,15:56:13,06/03/2024
10379.69999999553,"<div class = 'left_align' style='font-size: 3.25rem; line-height: 1.3;'><p class = 'center_align'><b>Symmetry and Memory Task</b><br><br></p>In this task, you will try to memorize letters you see on the screen<br>while you also view black and white grid pictures.<br><br>In the next few minutes, you will have some practice to get you familiar<br>with how the task works.<br><br>It may be difficult sometimes, but please do not worry about making mistakes!<br><br>We will begin by practicing the letter part of the task.<br><br><br><br></div>",0,ospan,instruct,D83aj8RYVwOoyGvQO83gvEGVVtw1,html-button-response,52,496203,0.0-43.0-0.0-0.0-1.0,,,,,,,,,,,,,,,5cf66ed8912f0b0017c50b52,15:56:13,06/03/2024
12062.0,"<div class = 'left_align' style='font-size: 3.25rem; line-height: 1.3;'>For this practice part, letters will appear on the screen one at a time.<br><br>Try to remember each letter in the order presented.<br><br>After some letters have been shown, you will see a response screen. Your<br>goal is to report the letters you saw <b>in order</b>. If you do not remember<br>a particular letter, you will have the option to leave it blank.<br><br><br><br></div>",0,ospan,instruct,D83aj8RYVwOoyGvQO83gvEGVVtw1,html-button-response,53,508519,0.0-43.0-0.0-0.0-2.0,,,,,,,,,,,,,,,5cf66ed8912f0b0017c50b52,15:56:13,06/03/2024
4112.0999999940395,"<div class = 'left_align' style='font-size: 3.25rem; line-height: 1.3;'>Remember, it is very important to get the letters in the same<br>order as you see them.<br><br>When you are ready, you may begin the letter practice.</div><br><br><br><br>",0,ospan,instruct,D83aj8RYVwOoyGvQO83gvEGVVtw1,html-button-response,54,512886,0.0-43.0-0.0-0.0-3.0,,,,,,,,,,,,,,,5cf66ed8912f0b0017c50b52,15:56:13,06/03/2024
,"<p style=""font-size:75px;"">...</p>",,ospan,iti,D83aj8RYVwOoyGvQO83gvEGVVtw1,html-keyboard-response,55,514141,0.0-43.0-0.0-1.0-0.0,,,,,,,,,,,,,,,5cf66ed8912f0b0017c50b52,15:56:13,06/03/2024
,"<div style=""font-size: 10rem; color: #0000FF"">G</div>",,ospan,letter,D83aj8RYVwOoyGvQO83gvEGVVtw1,html-keyboard-response,56,515145,0.0-43.0-0.0-1.0-1.0,,,,,,,,,,,,,,,5cf66ed8912f0b0017c50b52,15:56:13,06/03/2024
,"<div style=""font-size: 10rem; color: #0000FF"">C</div>",,ospan,letter,D83aj8RYVwOoyGvQO83gvEGVVtw1,html-keyboard-response,57,516900,0.0-43.0-0.0-1.0-2.0,,,,,,,,,,,,,,,5cf66ed8912f0b0017c50b52,15:56:13,06/03/2024
5581.10000000149,"<div class = numbox><p style=""font-size: 2.4rem"">Please recall the letters you saw to the best of your ability. If you do not remember a particular letter, use the SKIP button.<br><b>(When you are ready to lock in your answer, press ENTER)</b></p><button id = button_1 class = ""square num-button"" onclick = ""recordClick(this)""><div class = content><div class = numbers>C</div></div></button><button id = button_2 class = ""square num-button"" onclick = ""recordClick(this)""><div class = content><div class = numbers>G</div></div></button><button id = button_3 class = ""square num-button"" onclick = ""recordClick(this)""><div class = content><div class = numbers>H</div></div></button><button id = button_4 class = ""square num-button"" onclick = ""recordClick(this)""><div class = content><div class = numbers>J</div></div></button><button id = button_5 class = ""square num-button"" onclick = ""recordClick(this)""><div class = content><div class = numbers>K</div></div></button><button id = button_6 class = ""square num-button"" onclick = ""recordClick(this)""><div class = content><div class = numbers>L</div></div></button><button id = button_7 class = ""square num-button"" onclick = ""recordClick(this)""><div class = content><div class = numbers>N</div></div></button><button id = button_8 class = ""square num-button"" onclick = ""recordClick(this)""><div class = content><div class = numbers>P</div></div></button><button id = button_9 class = ""square num-button"" onclick = ""recordClick(this)""><div class = content><div class = numbers>Q</div></div></button><button id = button_10 class = ""square num-button"" onclick = ""recordClick(this)""><div class = content><div class = numbers>R</div></div></button><button id = button_11 class = ""square num-button"" onclick = ""recordClick(this)""><div class = content><div class = numbers>S</div></div></button><button id = button_12 class = ""square num-button"" onclick = ""recordClick(this)""><div class = content><div class = numbers>Y</div></div></button><button class = clear_button id = ""ClearButton"" onclick = ""clearResponse()"">BACKSPACE</button><button class = blank_button id = ""BlankButton"" onclick = ""blankResponse()"">SKIP</button><p style=""font-size: 2.4rem""><u><b>Current Answer:</b></u></p><br><br><div id=echoed_txt style=""font-size: 5rem; color:blue;""><b></b></div></div>",enter,ospan,retrieval,D83aj8RYVwOoyGvQO83gvEGVVtw1,html-keyboard-response,58,523235,0.0-43.0-0.0-1.0-3.0,NA,NA,NA,2.0,"[""G"",""C""]","[""G"",""C""]",1.0,2.0,"['<font color=""green"">G</font>', '<font color=""green"">C</font>']",,,,,,5cf66ed8912f0b0017c50b52,15:56:13,06/03/2024
1442.8999999985099,"['<p style=""font-size:44px"">Letters:<br><br><br><font color=""green"">G</font> <font color=""green"">C</font></p><br><br>']",0,ospan,practice_feedback,D83aj8RYVwOoyGvQO83gvEGVVtw1,html-button-response,59,525186,0.0-43.0-0.0-1.0-4.0,,,,,,,,,,,,,,,5cf66ed8912f0b0017c50b52,15:56:13,06/03/2024
,"<p style=""font-size:75px;"">...</p>",,ospan,iti,D83aj8RYVwOoyGvQO83gvEGVVtw1,html-keyboard-response,60,526190,0.0-43.0-0.0-2.0-0.0,,,,,,,,,,,,,,,5cf66ed8912f0b0017c50b52,15:56:13,06/03/2024
,"<div style=""font-size: 10rem; color: #0000FF"">R</div>",,ospan,letter,D83aj8RYVwOoyGvQO83gvEGVVtw1,html-keyboard-response,61,527193,0.0-43.0-0.0-2.0-1.0,,,,,,,,,,,,,,,5cf66ed8912f0b0017c50b52,15:56:13,06/03/2024
,"<div style=""font-size: 10rem; color: #0000FF"">P</div>",,ospan,letter,D83aj8RYVwOoyGvQO83gvEGVVtw1,html-keyboard-response,62,528948,0.0-43.0-0.0-2.0-2.0,,,,,,,,,,,,,,,5cf66ed8912f0b0017c50b52,15:56:13,06/03/2024
,"<div style=""font-size: 10rem; color: #0000FF"">J</div>",,ospan,letter,D83aj8RYVwOoyGvQO83gvEGVVtw1,html-keyboard-response,63,530703,0.0-43.0-0.0-2.0-3.0,,,,,,,,,,,,,,,5cf66ed8912f0b0017c50b52,15:56:13,06/03/2024
5485.5,"<div class = numbox><p style=""font-size: 2.4rem"">Please recall the letters you saw to the best of your ability. If you do not remember a particular letter, use the SKIP button.<br><b>(When you are ready to lock in your answer, press ENTER)</b></p><button id = button_1 class = ""square num-button"" onclick = ""recordClick(this)""><div class = content><div class = numbers>C</div></div></button><button id = button_2 class = ""square num-button"" onclick = ""recordClick(this)""><div class = content><div class = numbers>G</div></div></button><button id = button_3 class = ""square num-button"" onclick = ""recordClick(this)""><div class = content><div class = numbers>H</div></div></button><button id = button_4 class = ""square num-button"" onclick = ""recordClick(this)""><div class = content><div class = numbers>J</div></div></button><button id = button_5 class = ""square num-button"" onclick = ""recordClick(this)""><div class = content><div class = numbers>K</div></div></button><button id = button_6 class = ""square num-button"" onclick = ""recordClick(this)""><div class = content><div class = numbers>L</div></div></button><button id = button_7 class = ""square num-button"" onclick = ""recordClick(this)""><div class = content><div class = numbers>N</div></div></button><button id = button_8 class = ""square num-button"" onclick = ""recordClick(this)""><div class = content><div class = numbers>P</div></div></button><button id = button_9 class = ""square num-button"" onclick = ""recordClick(this)""><div class = content><div class = numbers>Q</div></div></button><button id = button_10 class = ""square num-button"" onclick = ""recordClick(this)""><div class = content><div class = numbers>R</div></div></button><button id = button_11 class = ""square num-button"" onclick = ""recordClick(this)""><div class = content><div class = numbers>S</div></div></button><button id = button_12 class = ""square num-button"" onclick = ""recordClick(this)""><div class = content><div class = numbers>Y</div></div></button><button class = clear_button id = ""ClearButton"" onclick = ""clearResponse()"">BACKSPACE</button><button class = blank_button id = ""BlankButton"" onclick = ""blankResponse()"">SKIP</button><p style=""font-size: 2.4rem""><u><b>Current Answer:</b></u></p><br><br><div id=echoed_txt style=""font-size: 5rem; color:blue;""><b></b></div></div>",enter,ospan,retrieval,D83aj8RYVwOoyGvQO83gvEGVVtw1,html-keyboard-response,64,536943,0.0-43.0-0.0-2.0-4.0,NA,NA,NA,3.0,"[""R"",""P"",""J""]","[""R"",""P"",""J""]",1.0,3.0,"['<font color=""green"">R</font>', '<font color=""green"">P</font>', '<font color=""green"">J</font>']",,,,,,5cf66ed8912f0b0017c50b52,15:56:13,06/03/2024
2523.10000000149,"['<p style=""font-size:44px"">Letters:<br><br><br><font color=""green"">R</font> <font color=""green"">P</font> <font color=""green"">J</font></p><br><br>']",0,ospan,practice_feedback,D83aj8RYVwOoyGvQO83gvEGVVtw1,html-button-response,65,539969,0.0-43.0-0.0-2.0-5.0,,,,,,,,,,,,,,,5cf66ed8912f0b0017c50b52,15:56:13,06/03/2024
14014.89999999851,"<div class = 'left_align' style='font-size: 3.25rem; line-height: 1.3;'>Now you will practice doing the <b>symmetry judgment part</b> of the experiment.<br><br>A black and white grid picture will appear on the screen and you have to judge if it is <br>symmetrical or asymetrical.<br><br>A picture is 'mirror' symmetrical if its left half is identical to the right half when flipped.<br>Here are examples of a symmetrical and an asymetrical picture:<br><br><center><img src='Stimuli/img/symm_instructions_extra.png' style='height:420px; width:900'></img></center><br>To judge symmetry, imagine you were to fold each picture down the middle, like a book –<br>would the left half match the right half when folded onto each other?<br><br></div><br>",0,ospan,instruct,D83aj8RYVwOoyGvQO83gvEGVVtw1,html-button-response,66,553986,0.0-43.0-1.0-0.0-0.0,,,,,,,,,,,,,,,5cf66ed8912f0b0017c50b52,15:56:13,06/03/2024
7680.80000000447,"<div class = 'left_align' style='font-size: 3.25rem; line-height: 1.3;'>When you have viewed the picture and determined whether it is symmetrical or not,<br>you can <b>click the Yes or No button</b> below to answer.<br><br>If you take longer than 15 seconds, it will continue automatically<br>and record the answer as an error.</div><br>",0,ospan,instruct,D83aj8RYVwOoyGvQO83gvEGVVtw1,html-button-response,67,561919,0.0-43.0-1.0-0.0-1.0,,,,,,,,,,,,,,,5cf66ed8912f0b0017c50b52,15:56:13,06/03/2024
4213.39999999851,"<div class = 'left_align' style='font-size: 3.25rem; line-height: 1.3;'>It is <b>very</b> important that you make the symmetry judgment correctly.<br><br>It is also important that you try and judge the picture as quickly as you can.<br><br>When you are ready, click on the button below to try some practice problems.</div><br><br><br><br>",0,ospan,instruct,D83aj8RYVwOoyGvQO83gvEGVVtw1,html-button-response,68,566386,0.0-43.0-1.0-0.0-2.0,,,,,,,,,,,,,,,5cf66ed8912f0b0017c50b52,15:56:13,06/03/2024
3931.0,,,ospan,symmetry,D83aj8RYVwOoyGvQO83gvEGVVtw1,symmetry-judgement-task,69,571121,0.0-43.0-1.0-1.0-0.0,,,,,,,,,,1.0,1.0,,,,5cf66ed8912f0b0017c50b52,15:56:13,06/03/2024
,"<p style=""color:green; font-size: 35px"">Correct</p>",,ospan,feedback,D83aj8RYVwOoyGvQO83gvEGVVtw1,html-keyboard-response,70,571875,0.0-43.0-1.0-1.0-1.0,,,,,,,,,,,,,,,5cf66ed8912f0b0017c50b52,15:56:13,06/03/2024
2714.0,,,ospan,symmetry,D83aj8RYVwOoyGvQO83gvEGVVtw1,symmetry-judgement-task,71,577205,0.0-43.0-1.0-1.0-2.0,,,,,,,,,,1.0,1.0,,,,5cf66ed8912f0b0017c50b52,15:56:13,06/03/2024
,"<p style=""color:green; font-size: 35px"">Correct</p>",,ospan,feedback,D83aj8RYVwOoyGvQO83gvEGVVtw1,html-keyboard-response,72,577960,0.0-43.0-1.0-1.0-3.0,,,,,,,,,,,,,,,5cf66ed8912f0b0017c50b52,15:56:13,06/03/2024
2256.0,,,ospan,symmetry,D83aj8RYVwOoyGvQO83gvEGVVtw1,symmetry-judgement-task,73,582837,0.0-43.0-1.0-1.0-4.0,,,,,,,,,,1.0,1.0,,,,5cf66ed8912f0b0017c50b52,15:56:13,06/03/2024
,"<p style=""color:green; font-size: 35px"">Correct</p>",,ospan,feedback,D83aj8RYVwOoyGvQO83gvEGVVtw1,html-keyboard-response,74,583591,0.0-43.0-1.0-1.0-5.0,,,,,,,,,,,,,,,5cf66ed8912f0b0017c50b52,15:56:13,06/03/2024
54058.89999999851,"<p style=""font-size: 3rem;"">You responded correctly on 3 of 3 symmetry judgments. Good job!</p><br><br>",0,ospan,practice,D83aj8RYVwOoyGvQO83gvEGVVtw1,html-button-response,75,639652,0.0-43.0-1.0-2.0,,,,,,,,,,,,,,,5cf66ed8912f0b0017c50b52,15:56:13,06/03/2024
12628.80000000447,"<div class = 'left_align' style='font-size: 3.25rem; line-height: 1.3;'>Now you will practice doing both parts of the experiment at the same time.<br><br>In the next practice set, you will be given one grid picture to judge.<br>Then letter will appear on the screen. Try to remember the letter.<br><br>It is <b>very important</b> to make the symmetry judgment as quickly and accurately as possible.<br><br>Just as before, once you have make the symmetry judgment, you can click Yes or No.<br><b>Note that you will no longer see Correct or Incorrect feedback.</div><br><br><br><br>",0,ospan,instruct,D83aj8RYVwOoyGvQO83gvEGVVtw1,html-button-response,76,652536,0.0-43.0-2.0-0.0-0.0,,,,,,,,,,,,,,,5cf66ed8912f0b0017c50b52,15:56:13,06/03/2024
6912.0,"<div class = 'left_align' style='font-size: 3.25rem; line-height: 1.3;'>After the letter goes away, another grid picture will appear, and then<br>another letter.<br><br>At the end of each set of letters and grids, you will recall the letters to the best<br>of your ability. Remember, try your best to get the letters in the correct order.<br><br>It is important to <b>quickly</b> and <b>accurately</b> make the symmetry judgments.</div><br><br><br><br>",0,ospan,instruct,D83aj8RYVwOoyGvQO83gvEGVVtw1,html-button-response,77,659703,0.0-43.0-2.0-0.0-1.0,,,,,,,,,,,,,,,5cf66ed8912f0b0017c50b52,15:56:13,06/03/2024
14179.29999999702,"<div class = 'left_align' style='font-size: 3.25rem; line-height: 1.3;'>On the feedback screen, if you are not doing well at the symmetry judgments,<br>you will also see a warning in the middle. This indicates your percent <br>correct for the grid pictures for the entire experiment.<br><br>It is <b>very</b> important for you to keep accuracy at least at 85%: <u>We can only use<br>data where the participant was at least 85% accurate on the judgments.</u> Therefore,<br> please try your best to perform well on the symmetry judgments, <b>at the same time</b><br>doing your best to recall as many letters as possible.<br><br>Click the button to try some practice problems.</div><br><br><br><br>",0,ospan,instruct,D83aj8RYVwOoyGvQO83gvEGVVtw1,html-button-response,78,674135,0.0-43.0-2.0-0.0-2.0,,,,,,,,,,,,,,,5cf66ed8912f0b0017c50b52,15:56:13,06/03/2024
,"<p style=""font-size:75px;"">...</p>",,ospan,iti,D83aj8RYVwOoyGvQO83gvEGVVtw1,html-keyboard-response,79,675391,0.0-43.0-2.0-1.0-0.0,,,,,,,,,,,,,,,5cf66ed8912f0b0017c50b52,15:56:13,06/03/2024
1964.0,,,ospan,symmetry,D83aj8RYVwOoyGvQO83gvEGVVtw1,symmetry-judgement-task,80,678405,0.0-43.0-2.0-1.0-1.0-0.0,,,,,,,,,,1.0,1.0,,,,5cf66ed8912f0b0017c50b52,15:56:13,06/03/2024
,"<div style=""font-size: 10rem; color: #0000FF"">N</div>",,ospan,letter,D83aj8RYVwOoyGvQO83gvEGVVtw1,html-keyboard-response,81,679409,0.0-43.0-2.0-1.0-1.0-1.0,,,,,,,,,,,,,,,5cf66ed8912f0b0017c50b52,15:56:13,06/03/2024
1902.0,,,ospan,symmetry,D83aj8RYVwOoyGvQO83gvEGVVtw1,symmetry-judgement-task,82,683189,0.0-43.0-2.0-1.0-1.0-2.0,,,,,,,,,,1.0,1.0,,,,5cf66ed8912f0b0017c50b52,15:56:13,06/03/2024
,"<div style=""font-size: 10rem; color: #0000FF"">K</div>",,ospan,letter,D83aj8RYVwOoyGvQO83gvEGVVtw1,html-keyboard-response,83,684193,0.0-43.0-2.0-1.0-1.0-3.0,,,,,,,,,,,,,,,5cf66ed8912f0b0017c50b52,15:56:13,06/03/2024
2503.0,,,ospan,symmetry,D83aj8RYVwOoyGvQO83gvEGVVtw1,symmetry-judgement-task,84,688571,0.0-43.0-2.0-1.0-1.0-4.0,,,,,,,,,,1.0,1.0,,,,5cf66ed8912f0b0017c50b52,15:56:13,06/03/2024
,"<div style=""font-size: 10rem; color: #0000FF"">J</div>",,ospan,letter,D83aj8RYVwOoyGvQO83gvEGVVtw1,html-keyboard-response,85,689576,0.0-43.0-2.0-1.0-1.0-5.0,,,,,,,,,,,,,,,5cf66ed8912f0b0017c50b52,15:56:13,06/03/2024
6139.5,"<div class = numbox><p style=""font-size: 2.4rem"">Please recall the letters you saw to the best of your ability. If you do not remember a particular letter, use the SKIP button.<br><b>(When you are ready to lock in your answer, press ENTER)</b></p><button id = button_1 class = ""square num-button"" onclick = ""recordClick(this)""><div class = content><div class = numbers>C</div></div></button><button id = button_2 class = ""square num-button"" onclick = ""recordClick(this)""><div class = content><div class = numbers>G</div></div></button><button id = button_3 class = ""square num-button"" onclick = ""recordClick(this)""><div class = content><div class = numbers>H</div></div></button><button id = button_4 class = ""square num-button"" onclick = ""recordClick(this)""><div class = content><div class = numbers>J</div></div></button><button id = button_5 class = ""square num-button"" onclick = ""recordClick(this)""><div class = content><div class = numbers>K</div></div></button><button id = button_6 class = ""square num-button"" onclick = ""recordClick(this)""><div class = content><div class = numbers>L</div></div></button><button id = button_7 class = ""square num-button"" onclick = ""recordClick(this)""><div class = content><div class = numbers>N</div></div></button><button id = button_8 class = ""square num-button"" onclick = ""recordClick(this)""><div class = content><div class = numbers>P</div></div></button><button id = button_9 class = ""square num-button"" onclick = ""recordClick(this)""><div class = content><div class = numbers>Q</div></div></button><button id = button_10 class = ""square num-button"" onclick = ""recordClick(this)""><div class = content><div class = numbers>R</div></div></button><button id = button_11 class = ""square num-button"" onclick = ""recordClick(this)""><div class = content><div class = numbers>S</div></div></button><button id = button_12 class = ""square num-button"" onclick = ""recordClick(this)""><div class = content><div class = numbers>Y</div></div></button><button class = clear_button id = ""ClearButton"" onclick = ""clearResponse()"">BACKSPACE</button><button class = blank_button id = ""BlankButton"" onclick = ""blankResponse()"">SKIP</button><p style=""font-size: 2.4rem""><u><b>Current Answer:</b></u></p><br><br><div id=echoed_txt style=""font-size: 5rem; color:blue;""><b></b></div></div>",enter,ospan,retrieval,D83aj8RYVwOoyGvQO83gvEGVVtw1,html-keyboard-response,86,696469,0.0-43.0-2.0-1.0-2.0-0.0,NA,NA,NA,3.0,"[""N"",""K"",""J""]","[""N"",""K"",""J""]",1.0,3.0,"['<font color=""green"">N</font>', '<font color=""green"">K</font>', '<font color=""green"">J</font>']",,,,,,5cf66ed8912f0b0017c50b52,15:56:13,06/03/2024
1545.6000000014901,"['<p style=""font-size:44px"">Letters:<br><br><br><font color=""green"">N</font> <font color=""green"">K</font> <font color=""green"">J</font></p><br><br><p style=""font-size:30px"">Symmetry:<br><br><font color=""green"">100%</font></p><br><br>']",0,ospan,practice_feedback,D83aj8RYVwOoyGvQO83gvEGVVtw1,html-button-response,87,698519,0.0-43.0-2.0-1.0-2.0-1.0,,,,,,,,,,,,,,,5cf66ed8912f0b0017c50b52,15:56:13,06/03/2024
,"<p style=""font-size:75px;"">...</p>",,ospan,iti,D83aj8RYVwOoyGvQO83gvEGVVtw1,html-keyboard-response,88,699523,0.0-43.0-2.0-2.0-0.0,,,,,,,,,,,,,,,5cf66ed8912f0b0017c50b52,15:56:13,06/03/2024
2629.0,,,ospan,symmetry,D83aj8RYVwOoyGvQO83gvEGVVtw1,symmetry-judgement-task,89,703272,0.0-43.0-2.0-2.0-1.0-0.0,,,,,,,,,,1.0,1.0,,,,5cf66ed8912f0b0017c50b52,15:56:13,06/03/2024
,"<div style=""font-size: 10rem; color: #0000FF"">P</div>",,ospan,letter,D83aj8RYVwOoyGvQO83gvEGVVtw1,html-keyboard-response,90,704276,0.0-43.0-2.0-2.0-1.0-1.0,,,,,,,,,,,,,,,5cf66ed8912f0b0017c50b52,15:56:13,06/03/2024
2622.0,,,ospan,symmetry,D83aj8RYVwOoyGvQO83gvEGVVtw1,symmetry-judgement-task,91,708772,0.0-43.0-2.0-2.0-1.0-2.0,,,,,,,,,,1.0,1.0,,,,5cf66ed8912f0b0017c50b52,15:56:13,06/03/2024
,"<div style=""font-size: 10rem; color: #0000FF"">S</div>",,ospan,letter,D83aj8RYVwOoyGvQO83gvEGVVtw1,html-keyboard-response,92,709776,0.0-43.0-2.0-2.0-1.0-3.0,,,,,,,,,,,,,,,5cf66ed8912f0b0017c50b52,15:56:13,06/03/2024
3158.0,,,ospan,symmetry,D83aj8RYVwOoyGvQO83gvEGVVtw1,symmetry-judgement-task,93,714805,0.0-43.0-2.0-2.0-1.0-4.0,,,,,,,,,,1.0,1.0,,,,5cf66ed8912f0b0017c50b52,15:56:13,06/03/2024
,"<div style=""font-size: 10rem; color: #0000FF"">Q</div>",,ospan,letter,D83aj8RYVwOoyGvQO83gvEGVVtw1,html-keyboard-response,94,715809,0.0-43.0-2.0-2.0-1.0-5.0,,,,,,,,,,,,,,,5cf66ed8912f0b0017c50b52,15:56:13,06/03/2024
4264.20000000298,"<div class = numbox><p style=""font-size: 2.4rem"">Please recall the letters you saw to the best of your ability. If you do not remember a particular letter, use the SKIP button.<br><b>(When you are ready to lock in your answer, press ENTER)</b></p><button id = button_1 class = ""square num-button"" onclick = ""recordClick(this)""><div class = content><div class = numbers>C</div></div></button><button id = button_2 class = ""square num-button"" onclick = ""recordClick(this)""><div class = content><div class = numbers>G</div></div></button><button id = button_3 class = ""square num-button"" onclick = ""recordClick(this)""><div class = content><div class = numbers>H</div></div></button><button id = button_4 class = ""square num-button"" onclick = ""recordClick(this)""><div class = content><div class = numbers>J</div></div></button><button id = button_5 class = ""square num-button"" onclick = ""recordClick(this)""><div class = content><div class = numbers>K</div></div></button><button id = button_6 class = ""square num-button"" onclick = ""recordClick(this)""><div class = content><div class = numbers>L</div></div></button><button id = button_7 class = ""square num-button"" onclick = ""recordClick(this)""><div class = content><div class = numbers>N</div></div></button><button id = button_8 class = ""square num-button"" onclick = ""recordClick(this)""><div class = content><div class = numbers>P</div></div></button><button id = button_9 class = ""square num-button"" onclick = ""recordClick(this)""><div class = content><div class = numbers>Q</div></div></button><button id = button_10 class = ""square num-button"" onclick = ""recordClick(this)""><div class = content><div class = numbers>R</div></div></button><button id = button_11 class = ""square num-button"" onclick = ""recordClick(this)""><div class = content><div class = numbers>S</div></div></button><button id = button_12 class = ""square num-button"" onclick = ""recordClick(this)""><div class = content><div class = numbers>Y</div></div></button><button class = clear_button id = ""ClearButton"" onclick = ""clearResponse()"">BACKSPACE</button><button class = blank_button id = ""BlankButton"" onclick = ""blankResponse()"">SKIP</button><p style=""font-size: 2.4rem""><u><b>Current Answer:</b></u></p><br><br><div id=echoed_txt style=""font-size: 5rem; color:blue;""><b></b></div></div>",enter,ospan,retrieval,D83aj8RYVwOoyGvQO83gvEGVVtw1,html-keyboard-response,95,720828,0.0-43.0-2.0-2.0-2.0-0.0,NA,NA,NA,3.0,"[""P"",""S"",""Q""]","[""P"",""S"",""Q""]",1.0,3.0,"['<font color=""green"">P</font>', '<font color=""green"">S</font>', '<font color=""green"">Q</font>']",,,,,,5cf66ed8912f0b0017c50b52,15:56:13,06/03/2024
1187.3000000044703,"['<p style=""font-size:44px"">Letters:<br><br><br><font color=""green"">P</font> <font color=""green"">S</font> <font color=""green"">Q</font></p><br><br><p style=""font-size:30px"">Symmetry:<br><br><font color=""green"">100%</font></p><br><br>']",0,ospan,practice_feedback,D83aj8RYVwOoyGvQO83gvEGVVtw1,html-button-response,96,722519,0.0-43.0-2.0-2.0-2.0-1.0,,,,,,,,,,,,,,,5cf66ed8912f0b0017c50b52,15:56:13,06/03/2024
38081.89999999851,"<div class = 'left_align' style='font-size: 3rem; line-height: 1.3;'><b>Great work! That is the end of practice.</b><br><br>The real trials will look just like the practice trials you just completed.<br><br><u>Here, you will not see feedback</u>. First, you will see an grid picture to judge,<br>then a letter to remember. When the recall screen appears, report the letters in the<br>order presented. If you forget a letter, remember to use the <b>blank</b> button to move to the<br>next letter. Some of the sets will have more symmetry grids and letters than others.<br><br>It is important that you do your best on both the symmetry judgments and the letter recall<br>parts of the experiment. For for the symmetry judgments, try to work as <b>quickly</b> and <br>as <b>accurately</b> as possible. Remember to keep your symmetry accuracy at 85% or above.<br><br><b>For the letters, do NOT use any external aid (e.g., writing on paper, electronic device).</b><br><br>It is <u>very important</u> to our experiment to have a <b>true</b> view of your real performance.<br><br>Do not worry if you miss some when it gets hard! This task is meant to be very challenging!<br><br>Click the button to begin.</div><br><br><br><br>",0,ospan,starting_real_here,D83aj8RYVwOoyGvQO83gvEGVVtw1,html-button-response,97,760603,0.0-43.0-2.0-3.0,,,,,,,,,,,,,,,5cf66ed8912f0b0017c50b52,15:56:13,06/03/2024
,"<p style=""font-size:75px;"">...</p>",,ospan,iti,D83aj8RYVwOoyGvQO83gvEGVVtw1,html-keyboard-response,98,761858,0.0-43.0-3.0-0.0-0.0,,,,,,,,,,,,,,,5cf66ed8912f0b0017c50b52,15:56:13,06/03/2024
3625.0,,,ospan,symmetry,D83aj8RYVwOoyGvQO83gvEGVVtw1,symmetry-judgement-task,99,766605,0.0-43.0-3.0-0.0-1.0-0.0,,,,,,,,,,1.0,1.0,,,,5cf66ed8912f0b0017c50b52,15:56:13,06/03/2024
,"<div style=""font-size: 10rem; color: #0000FF"">L</div>",,ospan,letter,D83aj8RYVwOoyGvQO83gvEGVVtw1,html-keyboard-response,100,767608,0.0-43.0-3.0-0.0-1.0-1.0,,,,,,,,,,,,,,,5cf66ed8912f0b0017c50b52,15:56:13,06/03/2024
2895.0,,,ospan,symmetry,D83aj8RYVwOoyGvQO83gvEGVVtw1,symmetry-judgement-task,101,772372,0.0-43.0-3.0-0.0-1.0-2.0,,,,,,,,,,1.0,1.0,,,,5cf66ed8912f0b0017c50b52,15:56:13,06/03/2024
,"<div style=""font-size: 10rem; color: #0000FF"">S</div>",,ospan,letter,D83aj8RYVwOoyGvQO83gvEGVVtw1,html-keyboard-response,102,773376,0.0-43.0-3.0-0.0-1.0-3.0,,,,,,,,,,,,,,,5cf66ed8912f0b0017c50b52,15:56:13,06/03/2024
3027.0,,,ospan,symmetry,D83aj8RYVwOoyGvQO83gvEGVVtw1,symmetry-judgement-task,103,778271,0.0-43.0-3.0-0.0-1.0-4.0,,,,,,,,,,1.0,1.0,,,,5cf66ed8912f0b0017c50b52,15:56:13,06/03/2024
,"<div style=""font-size: 10rem; color: #0000FF"">Q</div>",,ospan,letter,D83aj8RYVwOoyGvQO83gvEGVVtw1,html-keyboard-response,104,779273,0.0-43.0-3.0-0.0-1.0-5.0,,,,,,,,,,,,,,,5cf66ed8912f0b0017c50b52,15:56:13,06/03/2024
5049.80000000447,"<div class = numbox><p style=""font-size: 2.4rem"">Please recall the letters you saw to the best of your ability. If you do not remember a particular letter, use the SKIP button.<br><b>(When you are ready to lock in your answer, press ENTER)</b></p><button id = button_1 class = ""square num-button"" onclick = ""recordClick(this)""><div class = content><div class = numbers>C</div></div></button><button id = button_2 class = ""square num-button"" onclick = ""recordClick(this)""><div class = content><div class = numbers>G</div></div></button><button id = button_3 class = ""square num-button"" onclick = ""recordClick(this)""><div class = content><div class = numbers>H</div></div></button><button id = button_4 class = ""square num-button"" onclick = ""recordClick(this)""><div class = content><div class = numbers>J</div></div></button><button id = button_5 class = ""square num-button"" onclick = ""recordClick(this)""><div class = content><div class = numbers>K</div></div></button><button id = button_6 class = ""square num-button"" onclick = ""recordClick(this)""><div class = content><div class = numbers>L</div></div></button><button id = button_7 class = ""square num-button"" onclick = ""recordClick(this)""><div class = content><div class = numbers>N</div></div></button><button id = button_8 class = ""square num-button"" onclick = ""recordClick(this)""><div class = content><div class = numbers>P</div></div></button><button id = button_9 class = ""square num-button"" onclick = ""recordClick(this)""><div class = content><div class = numbers>Q</div></div></button><button id = button_10 class = ""square num-button"" onclick = ""recordClick(this)""><div class = content><div class = numbers>R</div></div></button><button id = button_11 class = ""square num-button"" onclick = ""recordClick(this)""><div class = content><div class = numbers>S</div></div></button><button id = button_12 class = ""square num-button"" onclick = ""recordClick(this)""><div class = content><div class = numbers>Y</div></div></button><button class = clear_button id = ""ClearButton"" onclick = ""clearResponse()"">BACKSPACE</button><button class = blank_button id = ""BlankButton"" onclick = ""blankResponse()"">SKIP</button><p style=""font-size: 2.4rem""><u><b>Current Answer:</b></u></p><br><br><div id=echoed_txt style=""font-size: 5rem; color:blue;""><b></b></div></div>",enter,ospan,retrieval,D83aj8RYVwOoyGvQO83gvEGVVtw1,html-keyboard-response,105,785077,0.0-43.0-3.0-0.0-2.0,3,3,3,3.0,"[""L"",""S"",""Q""]","[""L"",""S"",""Q""]",1.0,3.0,,,,,,,5cf66ed8912f0b0017c50b52,15:56:13,06/03/2024
5737.60000000149,[''],0,ospan,feedback,D83aj8RYVwOoyGvQO83gvEGVVtw1,html-button-response,106,791319,0.0-43.0-3.0-0.0-3.0,,,,,,,,,,,,100.0,0.0,,5cf66ed8912f0b0017c50b52,15:56:13,06/03/2024
,"<p style=""font-size:75px;"">...</p>",,ospan,iti,D83aj8RYVwOoyGvQO83gvEGVVtw1,html-keyboard-response,107,792324,0.0-43.0-4.0-0.0-0.0,,,,,,,,,,,,,,,5cf66ed8912f0b0017c50b52,15:56:13,06/03/2024
1883.0,,,ospan,symmetry,D83aj8RYVwOoyGvQO83gvEGVVtw1,symmetry-judgement-task,108,795255,0.0-43.0-4.0-0.0-1.0-0.0,,,,,,,,,,1.0,1.0,,,,5cf66ed8912f0b0017c50b52,15:56:13,06/03/2024
,"<div style=""font-size: 10rem; color: #0000FF"">K</div>",,ospan,letter,D83aj8RYVwOoyGvQO83gvEGVVtw1,html-keyboard-response,109,796259,0.0-43.0-4.0-0.0-1.0-1.0,,,,,,,,,,,,,,,5cf66ed8912f0b0017c50b52,15:56:13,06/03/2024
3512.0,,,ospan,symmetry,D83aj8RYVwOoyGvQO83gvEGVVtw1,symmetry-judgement-task,110,801655,0.0-43.0-4.0-0.0-1.0-2.0,,,,,,,,,,1.0,1.0,,,,5cf66ed8912f0b0017c50b52,15:56:13,06/03/2024
,"<div style=""font-size: 10rem; color: #0000FF"">J</div>",,ospan,letter,D83aj8RYVwOoyGvQO83gvEGVVtw1,html-keyboard-response,111,802660,0.0-43.0-4.0-0.0-1.0-3.0,,,,,,,,,,,,,,,5cf66ed8912f0b0017c50b52,15:56:13,06/03/2024
2803.0,,,ospan,symmetry,D83aj8RYVwOoyGvQO83gvEGVVtw1,symmetry-judgement-task,112,807338,0.0-43.0-4.0-0.0-1.0-4.0,,,,,,,,,,1.0,1.0,,,,5cf66ed8912f0b0017c50b52,15:56:13,06/03/2024
,"<div style=""font-size: 10rem; color: #0000FF"">Q</div>",,ospan,letter,D83aj8RYVwOoyGvQO83gvEGVVtw1,html-keyboard-response,113,808342,0.0-43.0-4.0-0.0-1.0-5.0,,,,,,,,,,,,,,,5cf66ed8912f0b0017c50b52,15:56:13,06/03/2024
2834.0,,,ospan,symmetry,D83aj8RYVwOoyGvQO83gvEGVVtw1,symmetry-judgement-task,114,813055,0.0-43.0-4.0-0.0-1.0-6.0,,,,,,,,,,1.0,1.0,,,,5cf66ed8912f0b0017c50b52,15:56:13,06/03/2024
,"<div style=""font-size: 10rem; color: #0000FF"">N</div>",,ospan,letter,D83aj8RYVwOoyGvQO83gvEGVVtw1,html-keyboard-response,115,814059,0.0-43.0-4.0-0.0-1.0-7.0,,,,,,,,,,,,,,,5cf66ed8912f0b0017c50b52,15:56:13,06/03/2024
7504.19999999553,"<div class = numbox><p style=""font-size: 2.4rem"">Please recall the letters you saw to the best of your ability. If you do not remember a particular letter, use the SKIP button.<br><b>(When you are ready to lock in your answer, press ENTER)</b></p><button id = button_1 class = ""square num-button"" onclick = ""recordClick(this)""><div class = content><div class = numbers>C</div></div></button><button id = button_2 class = ""square num-button"" onclick = ""recordClick(this)""><div class = content><div class = numbers>G</div></div></button><button id = button_3 class = ""square num-button"" onclick = ""recordClick(this)""><div class = content><div class = numbers>H</div></div></button><button id = button_4 class = ""square num-button"" onclick = ""recordClick(this)""><div class = content><div class = numbers>J</div></div></button><button id = button_5 class = ""square num-button"" onclick = ""recordClick(this)""><div class = content><div class = numbers>K</div></div></button><button id = button_6 class = ""square num-button"" onclick = ""recordClick(this)""><div class = content><div class = numbers>L</div></div></button><button id = button_7 class = ""square num-button"" onclick = ""recordClick(this)""><div class = content><div class = numbers>N</div></div></button><button id = button_8 class = ""square num-button"" onclick = ""recordClick(this)""><div class = content><div class = numbers>P</div></div></button><button id = button_9 class = ""square num-button"" onclick = ""recordClick(this)""><div class = content><div class = numbers>Q</div></div></button><button id = button_10 class = ""square num-button"" onclick = ""recordClick(this)""><div class = content><div class = numbers>R</div></div></button><button id = button_11 class = ""square num-button"" onclick = ""recordClick(this)""><div class = content><div class = numbers>S</div></div></button><button id = button_12 class = ""square num-button"" onclick = ""recordClick(this)""><div class = content><div class = numbers>Y</div></div></button><button class = clear_button id = ""ClearButton"" onclick = ""clearResponse()"">BACKSPACE</button><button class = blank_button id = ""BlankButton"" onclick = ""blankResponse()"">SKIP</button><p style=""font-size: 2.4rem""><u><b>Current Answer:</b></u></p><br><br><div id=echoed_txt style=""font-size: 5rem; color:blue;""><b></b></div></div>",enter,ospan,retrieval,D83aj8RYVwOoyGvQO83gvEGVVtw1,html-keyboard-response,116,822317,0.0-43.0-4.0-0.0-2.0,7,7,7,4.0,"[""K"",""J"",""Q"",""N""]","[""K"",""J"",""Q"",""N""]",1.0,4.0,,,,,,,5cf66ed8912f0b0017c50b52,15:56:13,06/03/2024
1198.5,[''],0,ospan,feedback,D83aj8RYVwOoyGvQO83gvEGVVtw1,html-button-response,117,824019,0.0-43.0-4.0-0.0-3.0,,,,,,,,,,,,100.0,0.0,,5cf66ed8912f0b0017c50b52,15:56:13,06/03/2024
,"<p style=""font-size:75px;"">...</p>",,ospan,iti,D83aj8RYVwOoyGvQO83gvEGVVtw1,html-keyboard-response,118,825024,0.0-43.0-4.0-1.0-0.0,,,,,,,,,,,,,,,5cf66ed8912f0b0017c50b52,15:56:13,06/03/2024
1695.0,,,ospan,symmetry,D83aj8RYVwOoyGvQO83gvEGVVtw1,symmetry-judgement-task,119,827822,0.0-43.0-4.0-1.0-1.0-0.0,,,,,,,,,,1.0,1.0,,,,5cf66ed8912f0b0017c50b52,15:56:13,06/03/2024
,"<div style=""font-size: 10rem; color: #0000FF"">K</div>",,ospan,letter,D83aj8RYVwOoyGvQO83gvEGVVtw1,html-keyboard-response,120,828825,0.0-43.0-4.0-1.0-1.0-1.0,,,,,,,,,,,,,,,5cf66ed8912f0b0017c50b52,15:56:13,06/03/2024
2195.0,,,ospan,symmetry,D83aj8RYVwOoyGvQO83gvEGVVtw1,symmetry-judgement-task,121,832889,0.0-43.0-4.0-1.0-1.0-2.0,,,,,,,,,,1.0,1.0,,,,5cf66ed8912f0b0017c50b52,15:56:13,06/03/2024
,"<div style=""font-size: 10rem; color: #0000FF"">Q</div>",,ospan,letter,D83aj8RYVwOoyGvQO83gvEGVVtw1,html-keyboard-response,122,833894,0.0-43.0-4.0-1.0-1.0-3.0,,,,,,,,,,,,,,,5cf66ed8912f0b0017c50b52,15:56:13,06/03/2024
2460.0,,,ospan,symmetry,D83aj8RYVwOoyGvQO83gvEGVVtw1,symmetry-judgement-task,123,838222,0.0-43.0-4.0-1.0-1.0-4.0,,,,,,,,,,1.0,1.0,,,,5cf66ed8912f0b0017c50b52,15:56:13,06/03/2024
,"<div style=""font-size: 10rem; color: #0000FF"">C</div>",,ospan,letter,D83aj8RYVwOoyGvQO83gvEGVVtw1,html-keyboard-response,124,839225,0.0-43.0-4.0-1.0-1.0-5.0,,,,,,,,,,,,,,,5cf66ed8912f0b0017c50b52,15:56:13,06/03/2024
3092.0,,,ospan,symmetry,D83aj8RYVwOoyGvQO83gvEGVVtw1,symmetry-judgement-task,125,844187,0.0-43.0-4.0-1.0-1.0-6.0,,,,,,,,,,1.0,1.0,,,,5cf66ed8912f0b0017c50b52,15:56:13,06/03/2024
,"<div style=""font-size: 10rem; color: #0000FF"">J</div>",,ospan,letter,D83aj8RYVwOoyGvQO83gvEGVVtw1,html-keyboard-response,126,845191,0.0-43.0-4.0-1.0-1.0-7.0,,,,,,,,,,,,,,,5cf66ed8912f0b0017c50b52,15:56:13,06/03/2024
2405.0,,,ospan,symmetry,D83aj8RYVwOoyGvQO83gvEGVVtw1,symmetry-judgement-task,127,849471,0.0-43.0-4.0-1.0-1.0-8.0,,,,,,,,,,1.0,1.0,,,,5cf66ed8912f0b0017c50b52,15:56:13,06/03/2024
,"<div style=""font-size: 10rem; color: #0000FF"">G</div>",,ospan,letter,D83aj8RYVwOoyGvQO83gvEGVVtw1,html-keyboard-response,128,850477,0.0-43.0-4.0-1.0-1.0-9.0,,,,,,,,,,,,,,,5cf66ed8912f0b0017c50b52,15:56:13,06/03/2024
6348.89999999851,"<div class = numbox><p style=""font-size: 2.4rem"">Please recall the letters you saw to the best of your ability. If you do not remember a particular letter, use the SKIP button.<br><b>(When you are ready to lock in your answer, press ENTER)</b></p><button id = button_1 class = ""square num-button"" onclick = ""recordClick(this)""><div class = content><div class = numbers>C</div></div></button><button id = button_2 class = ""square num-button"" onclick = ""recordClick(this)""><div class = content><div class = numbers>G</div></div></button><button id = button_3 class = ""square num-button"" onclick = ""recordClick(this)""><div class = content><div class = numbers>H</div></div></button><button id = button_4 class = ""square num-button"" onclick = ""recordClick(this)""><div class = content><div class = numbers>J</div></div></button><button id = button_5 class = ""square num-button"" onclick = ""recordClick(this)""><div class = content><div class = numbers>K</div></div></button><button id = button_6 class = ""square num-button"" onclick = ""recordClick(this)""><div class = content><div class = numbers>L</div></div></button><button id = button_7 class = ""square num-button"" onclick = ""recordClick(this)""><div class = content><div class = numbers>N</div></div></button><button id = button_8 class = ""square num-button"" onclick = ""recordClick(this)""><div class = content><div class = numbers>P</div></div></button><button id = button_9 class = ""square num-button"" onclick = ""recordClick(this)""><div class = content><div class = numbers>Q</div></div></button><button id = button_10 class = ""square num-button"" onclick = ""recordClick(this)""><div class = content><div class = numbers>R</div></div></button><button id = button_11 class = ""square num-button"" onclick = ""recordClick(this)""><div class = content><div class = numbers>S</div></div></button><button id = button_12 class = ""square num-button"" onclick = ""recordClick(this)""><div class = content><div class = numbers>Y</div></div></button><button class = clear_button id = ""ClearButton"" onclick = ""clearResponse()"">BACKSPACE</button><button class = blank_button id = ""BlankButton"" onclick = ""blankResponse()"">SKIP</button><p style=""font-size: 2.4rem""><u><b>Current Answer:</b></u></p><br><br><div id=echoed_txt style=""font-size: 5rem; color:blue;""><b></b></div></div>",enter,ospan,retrieval,D83aj8RYVwOoyGvQO83gvEGVVtw1,html-keyboard-response,129,857580,0.0-43.0-4.0-1.0-2.0,12,12,12,5.0,"[""K"",""Q"",""C"",""J"",""G""]","[""K"",""Q"",""C"",""J"",""G""]",1.0,5.0,,,,,,,5cf66ed8912f0b0017c50b52,15:56:13,06/03/2024
785.1000000014901,[''],0,ospan,feedback,D83aj8RYVwOoyGvQO83gvEGVVtw1,html-button-response,130,858869,0.0-43.0-4.0-1.0-3.0,,,,,,,,,,,,100.0,0.0,,5cf66ed8912f0b0017c50b52,15:56:13,06/03/2024
,"<p style=""font-size:75px;"">...</p>",,ospan,iti,D83aj8RYVwOoyGvQO83gvEGVVtw1,html-keyboard-response,131,859874,0.0-43.0-4.0-2.0-0.0,,,,,,,,,,,,,,,5cf66ed8912f0b0017c50b52,15:56:13,06/03/2024
3110.0,,,ospan,symmetry,D83aj8RYVwOoyGvQO83gvEGVVtw1,symmetry-judgement-task,132,864089,0.0-43.0-4.0-2.0-1.0-0.0,,,,,,,,,,1.0,1.0,,,,5cf66ed8912f0b0017c50b52,15:56:13,06/03/2024
,"<div style=""font-size: 10rem; color: #0000FF"">Y</div>",,ospan,letter,D83aj8RYVwOoyGvQO83gvEGVVtw1,html-keyboard-response,133,865092,0.0-43.0-4.0-2.0-1.0-1.0,,,,,,,,,,,,,,,5cf66ed8912f0b0017c50b52,15:56:13,06/03/2024
2697.0,,,ospan,symmetry,D83aj8RYVwOoyGvQO83gvEGVVtw1,symmetry-judgement-task,134,869655,0.0-43.0-4.0-2.0-1.0-2.0,,,,,,,,,,1.0,1.0,,,,5cf66ed8912f0b0017c50b52,15:56:13,06/03/2024
,"<div style=""font-size: 10rem; color: #0000FF"">R</div>",,ospan,letter,D83aj8RYVwOoyGvQO83gvEGVVtw1,html-keyboard-response,135,870659,0.0-43.0-4.0-2.0-1.0-3.0,,,,,,,,,,,,,,,5cf66ed8912f0b0017c50b52,15:56:13,06/03/2024
3114.0,,,ospan,symmetry,D83aj8RYVwOoyGvQO83gvEGVVtw1,symmetry-judgement-task,136,875572,0.0-43.0-4.0-2.0-1.0-4.0,,,,,,,,,,1.0,1.0,,,,5cf66ed8912f0b0017c50b52,15:56:13,06/03/2024
,"<div style=""font-size: 10rem; color: #0000FF"">S</div>",,ospan,letter,D83aj8RYVwOoyGvQO83gvEGVVtw1,html-keyboard-response,137,876576,0.0-43.0-4.0-2.0-1.0-5.0,,,,,,,,,,,,,,,5cf66ed8912f0b0017c50b52,15:56:13,06/03/2024
4582.5999999940395,"<div class = numbox><p style=""font-size: 2.4rem"">Please recall the letters you saw to the best of your ability. If you do not remember a particular letter, use the SKIP button.<br><b>(When you are ready to lock in your answer, press ENTER)</b></p><button id = button_1 class = ""square num-button"" onclick = ""recordClick(this)""><div class = content><div class = numbers>C</div></div></button><button id = button_2 class = ""square num-button"" onclick = ""recordClick(this)""><div class = content><div class = numbers>G</div></div></button><button id = button_3 class = ""square num-button"" onclick = ""recordClick(this)""><div class = content><div class = numbers>H</div></div></button><button id = button_4 class = ""square num-button"" onclick = ""recordClick(this)""><div class = content><div class = numbers>J</div></div></button><button id = button_5 class = ""square num-button"" onclick = ""recordClick(this)""><div class = content><div class = numbers>K</div></div></button><button id = button_6 class = ""square num-button"" onclick = ""recordClick(this)""><div class = content><div class = numbers>L</div></div></button><button id = button_7 class = ""square num-button"" onclick = ""recordClick(this)""><div class = content><div class = numbers>N</div></div></button><button id = button_8 class = ""square num-button"" onclick = ""recordClick(this)""><div class = content><div class = numbers>P</div></div></button><button id = button_9 class = ""square num-button"" onclick = ""recordClick(this)""><div class = content><div class = numbers>Q</div></div></button><button id = button_10 class = ""square num-button"" onclick = ""recordClick(this)""><div class = content><div class = numbers>R</div></div></button><button id = button_11 class = ""square num-button"" onclick = ""recordClick(this)""><div class = content><div class = numbers>S</div></div></button><button id = button_12 class = ""square num-button"" onclick = ""recordClick(this)""><div class = content><div class = numbers>Y</div></div></button><button class = clear_button id = ""ClearButton"" onclick = ""clearResponse()"">BACKSPACE</button><button class = blank_button id = ""BlankButton"" onclick = ""blankResponse()"">SKIP</button><p style=""font-size: 2.4rem""><u><b>Current Answer:</b></u></p><br><br><div id=echoed_txt style=""font-size: 5rem; color:blue;""><b></b></div></div>",enter,ospan,retrieval,D83aj8RYVwOoyGvQO83gvEGVVtw1,html-keyboard-response,138,881913,0.0-43.0-4.0-2.0-2.0,15,15,15,3.0,"[""Y"",""R"",""S""]","[""Y"",""R"",""S""]",1.0,3.0,,,,,,,5cf66ed8912f0b0017c50b52,15:56:13,06/03/2024
969.2000000029802,[''],0,ospan,feedback,D83aj8RYVwOoyGvQO83gvEGVVtw1,html-button-response,139,883385,0.0-43.0-4.0-2.0-3.0,,,,,,,,,,,,100.0,0.0,,5cf66ed8912f0b0017c50b52,15:56:13,06/03/2024
,"<p style=""font-size:75px;"">...</p>",,ospan,iti,D83aj8RYVwOoyGvQO83gvEGVVtw1,html-keyboard-response,140,884389,0.0-43.0-5.0-0.0-0.0,,,,,,,,,,,,,,,5cf66ed8912f0b0017c50b52,15:56:13,06/03/2024
3615.0,,,ospan,symmetry,D83aj8RYVwOoyGvQO83gvEGVVtw1,symmetry-judgement-task,141,889122,0.0-43.0-5.0-0.0-1.0-0.0,,,,,,,,,,1.0,1.0,,,,5cf66ed8912f0b0017c50b52,15:56:13,06/03/2024
,"<div style=""font-size: 10rem; color: #0000FF"">G</div>",,ospan,letter,D83aj8RYVwOoyGvQO83gvEGVVtw1,html-keyboard-response,142,890127,0.0-43.0-5.0-0.0-1.0-1.0,,,,,,,,,,,,,,,5cf66ed8912f0b0017c50b52,15:56:13,06/03/2024
1021.0,,,ospan,symmetry,D83aj8RYVwOoyGvQO83gvEGVVtw1,symmetry-judgement-task,143,893022,0.0-43.0-5.0-0.0-1.0-2.0,,,,,,,,,,1.0,1.0,,,,5cf66ed8912f0b0017c50b52,15:56:13,06/03/2024
,"<div style=""font-size: 10rem; color: #0000FF"">J</div>",,ospan,letter,D83aj8RYVwOoyGvQO83gvEGVVtw1,html-keyboard-response,144,894025,0.0-43.0-5.0-0.0-1.0-3.0,,,,,,,,,,,,,,,5cf66ed8912f0b0017c50b52,15:56:13,06/03/2024
1390.0,,,ospan,symmetry,D83aj8RYVwOoyGvQO83gvEGVVtw1,symmetry-judgement-task,145,897288,0.0-43.0-5.0-0.0-1.0-4.0,,,,,,,,,,1.0,1.0,,,,5cf66ed8912f0b0017c50b52,15:56:13,06/03/2024
,"<div style=""font-size: 10rem; color: #0000FF"">N</div>",,ospan,letter,D83aj8RYVwOoyGvQO83gvEGVVtw1,html-keyboard-response,146,898292,0.0-43.0-5.0-0.0-1.0-5.0,,,,,,,,,,,,,,,5cf66ed8912f0b0017c50b52,15:56:13,06/03/2024
3696.0,,,ospan,symmetry,D83aj8RYVwOoyGvQO83gvEGVVtw1,symmetry-judgement-task,147,903855,0.0-43.0-5.0-0.0-1.0-6.0,,,,,,,,,,1.0,1.0,,,,5cf66ed8912f0b0017c50b52,15:56:13,06/03/2024
,"<div style=""font-size: 10rem; color: #0000FF"">L</div>",,ospan,letter,D83aj8RYVwOoyGvQO83gvEGVVtw1,html-keyboard-response,148,904859,0.0-43.0-5.0-0.0-1.0-7.0,,,,,,,,,,,,,,,5cf66ed8912f0b0017c50b52,15:56:13,06/03/2024
2282.0,,,ospan,symmetry,D83aj8RYVwOoyGvQO83gvEGVVtw1,symmetry-judgement-task,149,909005,0.0-43.0-5.0-0.0-1.0-8.0,,,,,,,,,,1.0,1.0,,,,5cf66ed8912f0b0017c50b52,15:56:13,06/03/2024
,"<div style=""font-size: 10rem; color: #0000FF"">R</div>",,ospan,letter,D83aj8RYVwOoyGvQO83gvEGVVtw1,html-keyboard-response,150,910009,0.0-43.0-5.0-0.0-1.0-9.0,,,,,,,,,,,,,,,5cf66ed8912f0b0017c50b52,15:56:13,06/03/2024
2330.0,,,ospan,symmetry,D83aj8RYVwOoyGvQO83gvEGVVtw1,symmetry-judgement-task,151,914188,0.0-43.0-5.0-0.0-1.0-10.0,,,,,,,,,,1.0,1.0,,,,5cf66ed8912f0b0017c50b52,15:56:13,06/03/2024
,"<div style=""font-size: 10rem; color: #0000FF"">C</div>",,ospan,letter,D83aj8RYVwOoyGvQO83gvEGVVtw1,html-keyboard-response,152,915192,0.0-43.0-5.0-0.0-1.0-11.0,,,,,,,,,,,,,,,5cf66ed8912f0b0017c50b52,15:56:13,06/03/2024
8338.60000000149,"<div class = numbox><p style=""font-size: 2.4rem"">Please recall the letters you saw to the best of your ability. If you do not remember a particular letter, use the SKIP button.<br><b>(When you are ready to lock in your answer, press ENTER)</b></p><button id = button_1 class = ""square num-button"" onclick = ""recordClick(this)""><div class = content><div class = numbers>C</div></div></button><button id = button_2 class = ""square num-button"" onclick = ""recordClick(this)""><div class = content><div class = numbers>G</div></div></button><button id = button_3 class = ""square num-button"" onclick = ""recordClick(this)""><div class = content><div class = numbers>H</div></div></button><button id = button_4 class = ""square num-button"" onclick = ""recordClick(this)""><div class = content><div class = numbers>J</div></div></button><button id = button_5 class = ""square num-button"" onclick = ""recordClick(this)""><div class = content><div class = numbers>K</div></div></button><button id = button_6 class = ""square num-button"" onclick = ""recordClick(this)""><div class = content><div class = numbers>L</div></div></button><button id = button_7 class = ""square num-button"" onclick = ""recordClick(this)""><div class = content><div class = numbers>N</div></div></button><button id = button_8 class = ""square num-button"" onclick = ""recordClick(this)""><div class = content><div class = numbers>P</div></div></button><button id = button_9 class = ""square num-button"" onclick = ""recordClick(this)""><div class = content><div class = numbers>Q</div></div></button><button id = button_10 class = ""square num-button"" onclick = ""recordClick(this)""><div class = content><div class = numbers>R</div></div></button><button id = button_11 class = ""square num-button"" onclick = ""recordClick(this)""><div class = content><div class = numbers>S</div></div></button><button id = button_12 class = ""square num-button"" onclick = ""recordClick(this)""><div class = content><div class = numbers>Y</div></div></button><button class = clear_button id = ""ClearButton"" onclick = ""clearResponse()"">BACKSPACE</button><button class = blank_button id = ""BlankButton"" onclick = ""blankResponse()"">SKIP</button><p style=""font-size: 2.4rem""><u><b>Current Answer:</b></u></p><br><br><div id=echoed_txt style=""font-size: 5rem; color:blue;""><b></b></div></div>",enter,ospan,retrieval,D83aj8RYVwOoyGvQO83gvEGVVtw1,html-keyboard-response,153,924285,0.0-43.0-5.0-0.0-2.0,21,21,21,6.0,"[""G"",""J"",""N"",""L"",""R"",""C""]","[""G"",""J"",""N"",""L"",""R"",""C""]",1.0,6.0,,,,,,,5cf66ed8912f0b0017c50b52,15:56:13,06/03/2024
930.7999999970198,[''],0,ospan,feedback,D83aj8RYVwOoyGvQO83gvEGVVtw1,html-button-response,154,925719,0.0-43.0-5.0-0.0-3.0,,,,,,,,,,,,100.0,0.0,,5cf66ed8912f0b0017c50b52,15:56:13,06/03/2024
,"<p style=""font-size:75px;"">...</p>",,ospan,iti,D83aj8RYVwOoyGvQO83gvEGVVtw1,html-keyboard-response,155,926725,0.0-43.0-5.0-1.0-0.0,,,,,,,,,,,,,,,5cf66ed8912f0b0017c50b52,15:56:13,06/03/2024
1799.0,,,ospan,symmetry,D83aj8RYVwOoyGvQO83gvEGVVtw1,symmetry-judgement-task,156,929638,0.0-43.0-5.0-1.0-1.0-0.0,,,,,,,,,,1.0,1.0,,,,5cf66ed8912f0b0017c50b52,15:56:13,06/03/2024
,"<div style=""font-size: 10rem; color: #0000FF"">Y</div>",,ospan,letter,D83aj8RYVwOoyGvQO83gvEGVVtw1,html-keyboard-response,157,930641,0.0-43.0-5.0-1.0-1.0-1.0,,,,,,,,,,,,,,,5cf66ed8912f0b0017c50b52,15:56:13,06/03/2024
2575.0,,,ospan,symmetry,D83aj8RYVwOoyGvQO83gvEGVVtw1,symmetry-judgement-task,158,935088,0.0-43.0-5.0-1.0-1.0-2.0,,,,,,,,,,1.0,1.0,,,,5cf66ed8912f0b0017c50b52,15:56:13,06/03/2024
,"<div style=""font-size: 10rem; color: #0000FF"">P</div>",,ospan,letter,D83aj8RYVwOoyGvQO83gvEGVVtw1,html-keyboard-response,159,936092,0.0-43.0-5.0-1.0-1.0-3.0,,,,,,,,,,,,,,,5cf66ed8912f0b0017c50b52,15:56:13,06/03/2024
1244.0,,,ospan,symmetry,D83aj8RYVwOoyGvQO83gvEGVVtw1,symmetry-judgement-task,160,939205,0.0-43.0-5.0-1.0-1.0-4.0,,,,,,,,,,1.0,1.0,,,,5cf66ed8912f0b0017c50b52,15:56:13,06/03/2024
,"<div style=""font-size: 10rem; color: #0000FF"">C</div>",,ospan,letter,D83aj8RYVwOoyGvQO83gvEGVVtw1,html-keyboard-response,161,940208,0.0-43.0-5.0-1.0-1.0-5.0,,,,,,,,,,,,,,,5cf66ed8912f0b0017c50b52,15:56:13,06/03/2024
1219.0,,,ospan,symmetry,D83aj8RYVwOoyGvQO83gvEGVVtw1,symmetry-judgement-task,162,943305,0.0-43.0-5.0-1.0-1.0-6.0,,,,,,,,,,1.0,1.0,,,,5cf66ed8912f0b0017c50b52,15:56:13,06/03/2024
,"<div style=""font-size: 10rem; color: #0000FF"">H</div>",,ospan,letter,D83aj8RYVwOoyGvQO83gvEGVVtw1,html-keyboard-response,163,944308,0.0-43.0-5.0-1.0-1.0-7.0,,,,,,,,,,,,,,,5cf66ed8912f0b0017c50b52,15:56:13,06/03/2024
1774.0,,,ospan,symmetry,D83aj8RYVwOoyGvQO83gvEGVVtw1,symmetry-judgement-task,164,947956,0.0-43.0-5.0-1.0-1.0-8.0,,,,,,,,,,1.0,1.0,,,,5cf66ed8912f0b0017c50b52,15:56:13,06/03/2024
,"<div style=""font-size: 10rem; color: #0000FF"">R</div>",,ospan,letter,D83aj8RYVwOoyGvQO83gvEGVVtw1,html-keyboard-response,165,948961,0.0-43.0-5.0-1.0-1.0-9.0,,,,,,,,,,,,,,,5cf66ed8912f0b0017c50b52,15:56:13,06/03/2024
1455.0,,,ospan,symmetry,D83aj8RYVwOoyGvQO83gvEGVVtw1,symmetry-judgement-task,166,952288,0.0-43.0-5.0-1.0-1.0-10.0,,,,,,,,,,1.0,1.0,,,,5cf66ed8912f0b0017c50b52,15:56:13,06/03/2024
,"<div style=""font-size: 10rem; color: #0000FF"">Q</div>",,ospan,letter,D83aj8RYVwOoyGvQO83gvEGVVtw1,html-keyboard-response,167,953291,0.0-43.0-5.0-1.0-1.0-11.0,,,,,,,,,,,,,,,5cf66ed8912f0b0017c50b52,15:56:13,06/03/2024
1284.0,,,ospan,symmetry,D83aj8RYVwOoyGvQO83gvEGVVtw1,symmetry-judgement-task,168,956439,0.0-43.0-5.0-1.0-1.0-12.0,,,,,,,,,,1.0,1.0,,,,5cf66ed8912f0b0017c50b52,15:56:13,06/03/2024
,"<div style=""font-size: 10rem; color: #0000FF"">L</div>",,ospan,letter,D83aj8RYVwOoyGvQO83gvEGVVtw1,html-keyboard-response,169,957442,0.0-43.0-5.0-1.0-1.0-13.0,,,,,,,,,,,,,,,5cf66ed8912f0b0017c50b52,15:56:13,06/03/2024
8289.30000000447,"<div class = numbox><p style=""font-size: 2.4rem"">Please recall the letters you saw to the best of your ability. If you do not remember a particular letter, use the SKIP button.<br><b>(When you are ready to lock in your answer, press ENTER)</b></p><button id = button_1 class = ""square num-button"" onclick = ""recordClick(this)""><div class = content><div class = numbers>C</div></div></button><button id = button_2 class = ""square num-button"" onclick = ""recordClick(this)""><div class = content><div class = numbers>G</div></div></button><button id = button_3 class = ""square num-button"" onclick = ""recordClick(this)""><div class = content><div class = numbers>H</div></div></button><button id = button_4 class = ""square num-button"" onclick = ""recordClick(this)""><div class = content><div class = numbers>J</div></div></button><button id = button_5 class = ""square num-button"" onclick = ""recordClick(this)""><div class = content><div class = numbers>K</div></div></button><button id = button_6 class = ""square num-button"" onclick = ""recordClick(this)""><div class = content><div class = numbers>L</div></div></button><button id = button_7 class = ""square num-button"" onclick = ""recordClick(this)""><div class = content><div class = numbers>N</div></div></button><button id = button_8 class = ""square num-button"" onclick = ""recordClick(this)""><div class = content><div class = numbers>P</div></div></button><button id = button_9 class = ""square num-button"" onclick = ""recordClick(this)""><div class = content><div class = numbers>Q</div></div></button><button id = button_10 class = ""square num-button"" onclick = ""recordClick(this)""><div class = content><div class = numbers>R</div></div></button><button id = button_11 class = ""square num-button"" onclick = ""recordClick(this)""><div class = content><div class = numbers>S</div></div></button><button id = button_12 class = ""square num-button"" onclick = ""recordClick(this)""><div class = content><div class = numbers>Y</div></div></button><button class = clear_button id = ""ClearButton"" onclick = ""clearResponse()"">BACKSPACE</button><button class = blank_button id = ""BlankButton"" onclick = ""blankResponse()"">SKIP</button><p style=""font-size: 2.4rem""><u><b>Current Answer:</b></u></p><br><br><div id=echoed_txt style=""font-size: 5rem; color:blue;""><b></b></div></div>",enter,ospan,retrieval,D83aj8RYVwOoyGvQO83gvEGVVtw1,html-keyboard-response,170,966485,0.0-43.0-5.0-1.0-2.0,28,24,21,7.0,"[""Y"",""P"",""C"",""R"",""Q"",""L""]","[""Y"",""P"",""C"",""H"",""R"",""Q"",""L""]",0.0,3.0,,,,,,,5cf66ed8912f0b0017c50b52,15:56:13,06/03/2024
812.3000000044703,[''],0,ospan,feedback,D83aj8RYVwOoyGvQO83gvEGVVtw1,html-button-response,171,967802,0.0-43.0-5.0-1.0-3.0,,,,,,,,,,,,100.0,0.0,,5cf66ed8912f0b0017c50b52,15:56:13,06/03/2024
,"<p style=""font-size:75px;"">...</p>",,ospan,iti,D83aj8RYVwOoyGvQO83gvEGVVtw1,html-keyboard-response,172,968809,0.0-43.0-6.0-0.0-0.0,,,,,,,,,,,,,,,5cf66ed8912f0b0017c50b52,15:56:13,06/03/2024
2225.0,,,ospan,symmetry,D83aj8RYVwOoyGvQO83gvEGVVtw1,symmetry-judgement-task,173,972138,0.0-43.0-6.0-0.0-1.0-0.0,,,,,,,,,,1.0,1.0,,,,5cf66ed8912f0b0017c50b52,15:56:13,06/03/2024
,"<div style=""font-size: 10rem; color: #0000FF"">Q</div>",,ospan,letter,D83aj8RYVwOoyGvQO83gvEGVVtw1,html-keyboard-response,174,973142,0.0-43.0-6.0-0.0-1.0-1.0,,,,,,,,,,,,,,,5cf66ed8912f0b0017c50b52,15:56:13,06/03/2024
1341.0,,,ospan,symmetry,D83aj8RYVwOoyGvQO83gvEGVVtw1,symmetry-judgement-task,175,976339,0.0-43.0-6.0-0.0-1.0-2.0,,,,,,,,,,1.0,1.0,,,,5cf66ed8912f0b0017c50b52,15:56:13,06/03/2024
,"<div style=""font-size: 10rem; color: #0000FF"">Y</div>",,ospan,letter,D83aj8RYVwOoyGvQO83gvEGVVtw1,html-keyboard-response,176,977343,0.0-43.0-6.0-0.0-1.0-3.0,,,,,,,,,,,,,,,5cf66ed8912f0b0017c50b52,15:56:13,06/03/2024
1597.0,,,ospan,symmetry,D83aj8RYVwOoyGvQO83gvEGVVtw1,symmetry-judgement-task,177,980820,0.0-43.0-6.0-0.0-1.0-4.0,,,,,,,,,,1.0,1.0,,,,5cf66ed8912f0b0017c50b52,15:56:13,06/03/2024
,"<div style=""font-size: 10rem; color: #0000FF"">S</div>",,ospan,letter,D83aj8RYVwOoyGvQO83gvEGVVtw1,html-keyboard-response,178,981823,0.0-43.0-6.0-0.0-1.0-5.0,,,,,,,,,,,,,,,5cf66ed8912f0b0017c50b52,15:56:13,06/03/2024
2020.0,,,ospan,symmetry,D83aj8RYVwOoyGvQO83gvEGVVtw1,symmetry-judgement-task,179,985721,0.0-43.0-6.0-0.0-1.0-6.0,,,,,,,,,,1.0,1.0,,,,5cf66ed8912f0b0017c50b52,15:56:13,06/03/2024
,"<div style=""font-size: 10rem; color: #0000FF"">L</div>",,ospan,letter,D83aj8RYVwOoyGvQO83gvEGVVtw1,html-keyboard-response,180,986724,0.0-43.0-6.0-0.0-1.0-7.0,,,,,,,,,,,,,,,5cf66ed8912f0b0017c50b52,15:56:13,06/03/2024
1376.0,,,ospan,symmetry,D83aj8RYVwOoyGvQO83gvEGVVtw1,symmetry-judgement-task,181,989972,0.0-43.0-6.0-0.0-1.0-8.0,,,,,,,,,,1.0,1.0,,,,5cf66ed8912f0b0017c50b52,15:56:13,06/03/2024
,"<div style=""font-size: 10rem; color: #0000FF"">R</div>",,ospan,letter,D83aj8RYVwOoyGvQO83gvEGVVtw1,html-keyboard-response,182,990977,0.0-43.0-6.0-0.0-1.0-9.0,,,,,,,,,,,,,,,5cf66ed8912f0b0017c50b52,15:56:13,06/03/2024
7153.0,"<div class = numbox><p style=""font-size: 2.4rem"">Please recall the letters you saw to the best of your ability. If you do not remember a particular letter, use the SKIP button.<br><b>(When you are ready to lock in your answer, press ENTER)</b></p><button id = button_1 class = ""square num-button"" onclick = ""recordClick(this)""><div class = content><div class = numbers>C</div></div></button><button id = button_2 class = ""square num-button"" onclick = ""recordClick(this)""><div class = content><div class = numbers>G</div></div></button><button id = button_3 class = ""square num-button"" onclick = ""recordClick(this)""><div class = content><div class = numbers>H</div></div></button><button id = button_4 class = ""square num-button"" onclick = ""recordClick(this)""><div class = content><div class = numbers>J</div></div></button><button id = button_5 class = ""square num-button"" onclick = ""recordClick(this)""><div class = content><div class = numbers>K</div></div></button><button id = button_6 class = ""square num-button"" onclick = ""recordClick(this)""><div class = content><div class = numbers>L</div></div></button><button id = button_7 class = ""square num-button"" onclick = ""recordClick(this)""><div class = content><div class = numbers>N</div></div></button><button id = button_8 class = ""square num-button"" onclick = ""recordClick(this)""><div class = content><div class = numbers>P</div></div></button><button id = button_9 class = ""square num-button"" onclick = ""recordClick(this)""><div class = content><div class = numbers>Q</div></div></button><button id = button_10 class = ""square num-button"" onclick = ""recordClick(this)""><div class = content><div class = numbers>R</div></div></button><button id = button_11 class = ""square num-button"" onclick = ""recordClick(this)""><div class = content><div class = numbers>S</div></div></button><button id = button_12 class = ""square num-button"" onclick = ""recordClick(this)""><div class = content><div class = numbers>Y</div></div></button><button class = clear_button id = ""ClearButton"" onclick = ""clearResponse()"">BACKSPACE</button><button class = blank_button id = ""BlankButton"" onclick = ""blankResponse()"">SKIP</button><p style=""font-size: 2.4rem""><u><b>Current Answer:</b></u></p><br><br><div id=echoed_txt style=""font-size: 5rem; color:blue;""><b></b></div></div>",enter,ospan,retrieval,D83aj8RYVwOoyGvQO83gvEGVVtw1,html-keyboard-response,183,998885,0.0-43.0-6.0-0.0-2.0,33,29,26,5.0,"[""Q"",""Y"",""S"",""L"",""R""]","[""Q"",""Y"",""S"",""L"",""R""]",1.0,5.0,,,,,,,5cf66ed8912f0b0017c50b52,15:56:13,06/03/2024
847.1999999955297,[''],0,ospan,feedback,D83aj8RYVwOoyGvQO83gvEGVVtw1,html-button-response,184,1000235,0.0-43.0-6.0-0.0-3.0,,,,,,,,,,,,100.0,0.0,,5cf66ed8912f0b0017c50b52,15:56:13,06/03/2024
,"<p style=""font-size:75px;"">...</p>",,ospan,iti,D83aj8RYVwOoyGvQO83gvEGVVtw1,html-keyboard-response,185,1001240,0.0-43.0-6.0-1.0-0.0,,,,,,,,,,,,,,,5cf66ed8912f0b0017c50b52,15:56:13,06/03/2024
2593.0,,,ospan,symmetry,D83aj8RYVwOoyGvQO83gvEGVVtw1,symmetry-judgement-task,186,1004939,0.0-43.0-6.0-1.0-1.0-0.0,,,,,,,,,,1.0,1.0,,,,5cf66ed8912f0b0017c50b52,15:56:13,06/03/2024
,"<div style=""font-size: 10rem; color: #0000FF"">J</div>",,ospan,letter,D83aj8RYVwOoyGvQO83gvEGVVtw1,html-keyboard-response,187,1005943,0.0-43.0-6.0-1.0-1.0-1.0,,,,,,,,,,,,,,,5cf66ed8912f0b0017c50b52,15:56:13,06/03/2024
2503.0,,,ospan,symmetry,D83aj8RYVwOoyGvQO83gvEGVVtw1,symmetry-judgement-task,188,1010305,0.0-43.0-6.0-1.0-1.0-2.0,,,,,,,,,,1.0,1.0,,,,5cf66ed8912f0b0017c50b52,15:56:13,06/03/2024
,"<div style=""font-size: 10rem; color: #0000FF"">S</div>",,ospan,letter,D83aj8RYVwOoyGvQO83gvEGVVtw1,html-keyboard-response,189,1011309,0.0-43.0-6.0-1.0-1.0-3.0,,,,,,,,,,,,,,,5cf66ed8912f0b0017c50b52,15:56:13,06/03/2024
2357.0,,,ospan,symmetry,D83aj8RYVwOoyGvQO83gvEGVVtw1,symmetry-judgement-task,190,1015539,0.0-43.0-6.0-1.0-1.0-4.0,,,,,,,,,,1.0,1.0,,,,5cf66ed8912f0b0017c50b52,15:56:13,06/03/2024
,"<div style=""font-size: 10rem; color: #0000FF"">K</div>",,ospan,letter,D83aj8RYVwOoyGvQO83gvEGVVtw1,html-keyboard-response,191,1016543,0.0-43.0-6.0-1.0-1.0-5.0,,,,,,,,,,,,,,,5cf66ed8912f0b0017c50b52,15:56:13,06/03/2024
1493.0,,,ospan,symmetry,D83aj8RYVwOoyGvQO83gvEGVVtw1,symmetry-judgement-task,192,1019904,0.0-43.0-6.0-1.0-1.0-6.0,,,,,,,,,,1.0,1.0,,,,5cf66ed8912f0b0017c50b52,15:56:13,06/03/2024
,"<div style=""font-size: 10rem; color: #0000FF"">H</div>",,ospan,letter,D83aj8RYVwOoyGvQO83gvEGVVtw1,html-keyboard-response,193,1020907,0.0-43.0-6.0-1.0-1.0-7.0,,,,,,,,,,,,,,,5cf66ed8912f0b0017c50b52,15:56:13,06/03/2024
2226.0,,,ospan,symmetry,D83aj8RYVwOoyGvQO83gvEGVVtw1,symmetry-judgement-task,194,1025005,0.0-43.0-6.0-1.0-1.0-8.0,,,,,,,,,,1.0,1.0,,,,5cf66ed8912f0b0017c50b52,15:56:13,06/03/2024
,"<div style=""font-size: 10rem; color: #0000FF"">R</div>",,ospan,letter,D83aj8RYVwOoyGvQO83gvEGVVtw1,html-keyboard-response,195,1026009,0.0-43.0-6.0-1.0-1.0-9.0,,,,,,,,,,,,,,,5cf66ed8912f0b0017c50b52,15:56:13,06/03/2024
1755.0,,,ospan,symmetry,D83aj8RYVwOoyGvQO83gvEGVVtw1,symmetry-judgement-task,196,1029638,0.0-43.0-6.0-1.0-1.0-10.0,,,,,,,,,,1.0,1.0,,,,5cf66ed8912f0b0017c50b52,15:56:13,06/03/2024
,"<div style=""font-size: 10rem; color: #0000FF"">G</div>",,ospan,letter,D83aj8RYVwOoyGvQO83gvEGVVtw1,html-keyboard-response,197,1030641,0.0-43.0-6.0-1.0-1.0-11.0,,,,,,,,,,,,,,,5cf66ed8912f0b0017c50b52,15:56:13,06/03/2024
1807.0,,,ospan,symmetry,D83aj8RYVwOoyGvQO83gvEGVVtw1,symmetry-judgement-task,198,1034321,0.0-43.0-6.0-1.0-1.0-12.0,,,,,,,,,,1.0,1.0,,,,5cf66ed8912f0b0017c50b52,15:56:13,06/03/2024
,"<div style=""font-size: 10rem; color: #0000FF"">P</div>",,ospan,letter,D83aj8RYVwOoyGvQO83gvEGVVtw1,html-keyboard-response,199,1035324,0.0-43.0-6.0-1.0-1.0-13.0,,,,,,,,,,,,,,,5cf66ed8912f0b0017c50b52,15:56:13,06/03/2024
1727.0,,,ospan,symmetry,D83aj8RYVwOoyGvQO83gvEGVVtw1,symmetry-judgement-task,200,1038922,0.0-43.0-6.0-1.0-1.0-14.0,,,,,,,,,,1.0,1.0,,,,5cf66ed8912f0b0017c50b52,15:56:13,06/03/2024
,"<div style=""font-size: 10rem; color: #0000FF"">N</div>",,ospan,letter,D83aj8RYVwOoyGvQO83gvEGVVtw1,html-keyboard-response,201,1039925,0.0-43.0-6.0-1.0-1.0-15.0,,,,,,,,,,,,,,,5cf66ed8912f0b0017c50b52,15:56:13,06/03/2024
11235.79999999702,"<div class = numbox><p style=""font-size: 2.4rem"">Please recall the letters you saw to the best of your ability. If you do not remember a particular letter, use the SKIP button.<br><b>(When you are ready to lock in your answer, press ENTER)</b></p><button id = button_1 class = ""square num-button"" onclick = ""recordClick(this)""><div class = content><div class = numbers>C</div></div></button><button id = button_2 class = ""square num-button"" onclick = ""recordClick(this)""><div class = content><div class = numbers>G</div></div></button><button id = button_3 class = ""square num-button"" onclick = ""recordClick(this)""><div class = content><div class = numbers>H</div></div></button><button id = button_4 class = ""square num-button"" onclick = ""recordClick(this)""><div class = content><div class = numbers>J</div></div></button><button id = button_5 class = ""square num-button"" onclick = ""recordClick(this)""><div class = content><div class = numbers>K</div></div></button><button id = button_6 class = ""square num-button"" onclick = ""recordClick(this)""><div class = content><div class = numbers>L</div></div></button><button id = button_7 class = ""square num-button"" onclick = ""recordClick(this)""><div class = content><div class = numbers>N</div></div></button><button id = button_8 class = ""square num-button"" onclick = ""recordClick(this)""><div class = content><div class = numbers>P</div></div></button><button id = button_9 class = ""square num-button"" onclick = ""recordClick(this)""><div class = content><div class = numbers>Q</div></div></button><button id = button_10 class = ""square num-button"" onclick = ""recordClick(this)""><div class = content><div class = numbers>R</div></div></button><button id = button_11 class = ""square num-button"" onclick = ""recordClick(this)""><div class = content><div class = numbers>S</div></div></button><button id = button_12 class = ""square num-button"" onclick = ""recordClick(this)""><div class = content><div class = numbers>Y</div></div></button><button class = clear_button id = ""ClearButton"" onclick = ""clearResponse()"">BACKSPACE</button><button class = blank_button id = ""BlankButton"" onclick = ""blankResponse()"">SKIP</button><p style=""font-size: 2.4rem""><u><b>Current Answer:</b></u></p><br><br><div id=echoed_txt style=""font-size: 5rem; color:blue;""><b></b></div></div>",enter,ospan,retrieval,D83aj8RYVwOoyGvQO83gvEGVVtw1,html-keyboard-response,202,1051915,0.0-43.0-6.0-1.0-2.0,41,34,26,8.0,"[""J"",""S"",""K"",""H"",""R"",""P"",""G""]","[""J"",""S"",""K"",""H"",""R"",""G"",""P"",""N""]",0.0,5.0,,,,,,,5cf66ed8912f0b0017c50b52,15:56:13,06/03/2024
882.2999999970198,[''],0,ospan,feedback,D83aj8RYVwOoyGvQO83gvEGVVtw1,html-button-response,203,1053303,0.0-43.0-6.0-1.0-3.0,,,,,,,,,,,,100.0,0.0,,5cf66ed8912f0b0017c50b52,15:56:13,06/03/2024
16313.40000000596,,"{'Q0': 'I enjoyed it, thank you. '}",ospan,survey_ospan,D83aj8RYVwOoyGvQO83gvEGVVtw1,lmdlab-survey-text,204,1070373,0.0-43.0-7.0,,,,,,,,,,,,,,D83aj8RYVwOoyGvQO83gvEGVVtw1,5cf66ed8912f0b0017c50b52,15:56:13,06/03/2024
1390.8999999985099,<p><p style='font-size: 3rem'>Great work!<br><br>This completes the symmetry and memory task.</p><br><br><br>,0,ospan,finish,D83aj8RYVwOoyGvQO83gvEGVVtw1,html-button-response,205,1071769,0.0-43.0-8.0,41,34,26,,,,,,,,,100.0,,,5cf66ed8912f0b0017c50b52,15:56:13,06/03/2024
