rt,stimulus,response,exp_name,exp_stage,subjectID,trial_type,trial_index,time_elapsed,internal_node_id,ospan_shown,ospan_total,ospan_abs,length,resp_actual,resp_correct,full_correct,num_correct,feedback,accuracy,correct,math_acc,math_warning,databaseID,prolificID,start_time,date
2076.2999999523163,<div class = 'left_align' style='font-size: 3.25rem; line-height: 1.3;'><p class = 'center_align'><b>Welcome to the Symmetry and Memory Task</b><br><br><br><br></p>Press 'continue' to show the instructions.<br><br><br><br></div>,0,ospan,instruct,YwrWTxZkn4fFf2UNQWDWOJb8M4u1,html-button-response,54,518236,0.0-46.0-0.0-0.0-0.0,,,,,,,,,,,,,,,5c3205407e0559000172f153,21:15:19,02/04/2024
13161.599999904633,"<div class = 'left_align' style='font-size: 3.25rem; line-height: 1.3;'><p class = 'center_align'><b>Symmetry and Memory Task</b><br><br></p>In this task, you will try to memorize letters you see on the screen<br>while you also view black and white grid pictures.<br><br>In the next few minutes, you will have some practice to get you familiar<br>with how the task works.<br><br>It may be difficult sometimes, but please do not worry about making mistakes!<br><br>We will begin by practicing the letter part of the task.<br><br><br><br></div>",0,ospan,instruct,YwrWTxZkn4fFf2UNQWDWOJb8M4u1,html-button-response,55,531664,0.0-46.0-0.0-0.0-1.0,,,,,,,,,,,,,,,5c3205407e0559000172f153,21:15:19,02/04/2024
60991.5,"<div class = 'left_align' style='font-size: 3.25rem; line-height: 1.3;'>For this practice part, letters will appear on the screen one at a time.<br><br>Try to remember each letter in the order presented.<br><br>After some letters have been shown, you will see a response screen. Your<br>goal is to report the letters you saw <b>in order</b>. If you do not remember<br>a particular letter, you will have the option to leave it blank.<br><br><br><br></div>",0,ospan,instruct,YwrWTxZkn4fFf2UNQWDWOJb8M4u1,html-button-response,56,592911,0.0-46.0-0.0-0.0-2.0,,,,,,,,,,,,,,,5c3205407e0559000172f153,21:15:19,02/04/2024
5298.0,"<div class = 'left_align' style='font-size: 3.25rem; line-height: 1.3;'>Remember, it is very important to get the letters in the same<br>order as you see them.<br><br>When you are ready, you may begin the letter practice.</div><br><br><br><br>",0,ospan,instruct,YwrWTxZkn4fFf2UNQWDWOJb8M4u1,html-button-response,57,598463,0.0-46.0-0.0-0.0-3.0,,,,,,,,,,,,,,,5c3205407e0559000172f153,21:15:19,02/04/2024
,"<p style=""font-size:75px;"">...</p>",,ospan,iti,YwrWTxZkn4fFf2UNQWDWOJb8M4u1,html-keyboard-response,58,599718,0.0-46.0-0.0-1.0-0.0,,,,,,,,,,,,,,,5c3205407e0559000172f153,21:15:19,02/04/2024
,"<div style=""font-size: 10rem; color: #0000FF"">R</div>",,ospan,letter,YwrWTxZkn4fFf2UNQWDWOJb8M4u1,html-keyboard-response,59,600731,0.0-46.0-0.0-1.0-1.0,,,,,,,,,,,,,,,5c3205407e0559000172f153,21:15:19,02/04/2024
,"<div style=""font-size: 10rem; color: #0000FF"">H</div>",,ospan,letter,YwrWTxZkn4fFf2UNQWDWOJb8M4u1,html-keyboard-response,60,602500,0.0-46.0-0.0-1.0-2.0,,,,,,,,,,,,,,,5c3205407e0559000172f153,21:15:19,02/04/2024
17666.200000047684,"<div class = numbox><p style=""font-size: 2.4rem"">Please recall the letters you saw to the best of your ability. If you do not remember a particular letter, use the SKIP button.<br><b>(When you are ready to lock in your answer, press ENTER)</b></p><button id = button_1 class = ""square num-button"" onclick = ""recordClick(this)""><div class = content><div class = numbers>C</div></div></button><button id = button_2 class = ""square num-button"" onclick = ""recordClick(this)""><div class = content><div class = numbers>G</div></div></button><button id = button_3 class = ""square num-button"" onclick = ""recordClick(this)""><div class = content><div class = numbers>H</div></div></button><button id = button_4 class = ""square num-button"" onclick = ""recordClick(this)""><div class = content><div class = numbers>J</div></div></button><button id = button_5 class = ""square num-button"" onclick = ""recordClick(this)""><div class = content><div class = numbers>K</div></div></button><button id = button_6 class = ""square num-button"" onclick = ""recordClick(this)""><div class = content><div class = numbers>L</div></div></button><button id = button_7 class = ""square num-button"" onclick = ""recordClick(this)""><div class = content><div class = numbers>N</div></div></button><button id = button_8 class = ""square num-button"" onclick = ""recordClick(this)""><div class = content><div class = numbers>P</div></div></button><button id = button_9 class = ""square num-button"" onclick = ""recordClick(this)""><div class = content><div class = numbers>Q</div></div></button><button id = button_10 class = ""square num-button"" onclick = ""recordClick(this)""><div class = content><div class = numbers>R</div></div></button><button id = button_11 class = ""square num-button"" onclick = ""recordClick(this)""><div class = content><div class = numbers>S</div></div></button><button id = button_12 class = ""square num-button"" onclick = ""recordClick(this)""><div class = content><div class = numbers>Y</div></div></button><button class = clear_button id = ""ClearButton"" onclick = ""clearResponse()"">BACKSPACE</button><button class = blank_button id = ""BlankButton"" onclick = ""blankResponse()"">SKIP</button><p style=""font-size: 2.4rem""><u><b>Current Answer:</b></u></p><br><br><div id=echoed_txt style=""font-size: 5rem; color:blue;""><b></b></div></div>",enter,ospan,retrieval,YwrWTxZkn4fFf2UNQWDWOJb8M4u1,html-keyboard-response,61,620932,0.0-46.0-0.0-1.0-3.0,NA,NA,NA,2.0,"[""R"",""H""]","[""R"",""H""]",1.0,2.0,"['<font color=""green"">R</font>', '<font color=""green"">H</font>']",,,,,,5c3205407e0559000172f153,21:15:19,02/04/2024
1461.7000000476837,"['<p style=""font-size:44px"">Letters:<br><br><br><font color=""green"">R</font> <font color=""green"">H</font></p><br><br>']",0,ospan,practice_feedback,YwrWTxZkn4fFf2UNQWDWOJb8M4u1,html-button-response,62,622910,0.0-46.0-0.0-1.0-4.0,,,,,,,,,,,,,,,5c3205407e0559000172f153,21:15:19,02/04/2024
,"<p style=""font-size:75px;"">...</p>",,ospan,iti,YwrWTxZkn4fFf2UNQWDWOJb8M4u1,html-keyboard-response,63,623912,0.0-46.0-0.0-2.0-0.0,,,,,,,,,,,,,,,5c3205407e0559000172f153,21:15:19,02/04/2024
,"<div style=""font-size: 10rem; color: #0000FF"">C</div>",,ospan,letter,YwrWTxZkn4fFf2UNQWDWOJb8M4u1,html-keyboard-response,64,624926,0.0-46.0-0.0-2.0-1.0,,,,,,,,,,,,,,,5c3205407e0559000172f153,21:15:19,02/04/2024
,"<div style=""font-size: 10rem; color: #0000FF"">G</div>",,ospan,letter,YwrWTxZkn4fFf2UNQWDWOJb8M4u1,html-keyboard-response,65,626694,0.0-46.0-0.0-2.0-2.0,,,,,,,,,,,,,,,5c3205407e0559000172f153,21:15:19,02/04/2024
,"<div style=""font-size: 10rem; color: #0000FF"">Q</div>",,ospan,letter,YwrWTxZkn4fFf2UNQWDWOJb8M4u1,html-keyboard-response,66,628455,0.0-46.0-0.0-2.0-3.0,,,,,,,,,,,,,,,5c3205407e0559000172f153,21:15:19,02/04/2024
5545.599999904633,"<div class = numbox><p style=""font-size: 2.4rem"">Please recall the letters you saw to the best of your ability. If you do not remember a particular letter, use the SKIP button.<br><b>(When you are ready to lock in your answer, press ENTER)</b></p><button id = button_1 class = ""square num-button"" onclick = ""recordClick(this)""><div class = content><div class = numbers>C</div></div></button><button id = button_2 class = ""square num-button"" onclick = ""recordClick(this)""><div class = content><div class = numbers>G</div></div></button><button id = button_3 class = ""square num-button"" onclick = ""recordClick(this)""><div class = content><div class = numbers>H</div></div></button><button id = button_4 class = ""square num-button"" onclick = ""recordClick(this)""><div class = content><div class = numbers>J</div></div></button><button id = button_5 class = ""square num-button"" onclick = ""recordClick(this)""><div class = content><div class = numbers>K</div></div></button><button id = button_6 class = ""square num-button"" onclick = ""recordClick(this)""><div class = content><div class = numbers>L</div></div></button><button id = button_7 class = ""square num-button"" onclick = ""recordClick(this)""><div class = content><div class = numbers>N</div></div></button><button id = button_8 class = ""square num-button"" onclick = ""recordClick(this)""><div class = content><div class = numbers>P</div></div></button><button id = button_9 class = ""square num-button"" onclick = ""recordClick(this)""><div class = content><div class = numbers>Q</div></div></button><button id = button_10 class = ""square num-button"" onclick = ""recordClick(this)""><div class = content><div class = numbers>R</div></div></button><button id = button_11 class = ""square num-button"" onclick = ""recordClick(this)""><div class = content><div class = numbers>S</div></div></button><button id = button_12 class = ""square num-button"" onclick = ""recordClick(this)""><div class = content><div class = numbers>Y</div></div></button><button class = clear_button id = ""ClearButton"" onclick = ""clearResponse()"">BACKSPACE</button><button class = blank_button id = ""BlankButton"" onclick = ""blankResponse()"">SKIP</button><p style=""font-size: 2.4rem""><u><b>Current Answer:</b></u></p><br><br><div id=echoed_txt style=""font-size: 5rem; color:blue;""><b></b></div></div>",enter,ospan,retrieval,YwrWTxZkn4fFf2UNQWDWOJb8M4u1,html-keyboard-response,67,634765,0.0-46.0-0.0-2.0-4.0,NA,NA,NA,3.0,"[""C"",""G"",""Q""]","[""C"",""G"",""Q""]",1.0,3.0,"['<font color=""green"">C</font>', '<font color=""green"">G</font>', '<font color=""green"">Q</font>']",,,,,,5c3205407e0559000172f153,21:15:19,02/04/2024
1401.9000000953674,"['<p style=""font-size:44px"">Letters:<br><br><br><font color=""green"">C</font> <font color=""green"">G</font> <font color=""green"">Q</font></p><br><br>']",0,ospan,practice_feedback,YwrWTxZkn4fFf2UNQWDWOJb8M4u1,html-button-response,68,636684,0.0-46.0-0.0-2.0-5.0,,,,,,,,,,,,,,,5c3205407e0559000172f153,21:15:19,02/04/2024
14553.899999856949,"<div class = 'left_align' style='font-size: 3.25rem; line-height: 1.3;'>Now you will practice doing the <b>symmetry judgment part</b> of the experiment.<br><br>A black and white grid picture will appear on the screen and you have to judge if it is <br>symmetrical or asymetrical.<br><br>A picture is 'mirror' symmetrical if its left half is identical to the right half when flipped.<br>Here are examples of a symmetrical and an asymetrical picture:<br><br><center><img src='Stimuli/img/symm_instructions_extra.png' style='height:420px; width:900'></img></center><br>To judge symmetry, imagine you were to fold each picture down the middle, like a book –<br>would the left half match the right half when folded onto each other?<br><br></div><br>",0,ospan,instruct,YwrWTxZkn4fFf2UNQWDWOJb8M4u1,html-button-response,69,651240,0.0-46.0-1.0-0.0-0.0,,,,,,,,,,,,,,,5c3205407e0559000172f153,21:15:19,02/04/2024
9225.599999904633,"<div class = 'left_align' style='font-size: 3.25rem; line-height: 1.3;'>When you have viewed the picture and determined whether it is symmetrical or not,<br>you can <b>click the Yes or No button</b> below to answer.<br><br>If you take longer than 15 seconds, it will continue automatically<br>and record the answer as an error.</div><br>",0,ospan,instruct,YwrWTxZkn4fFf2UNQWDWOJb8M4u1,html-button-response,70,660722,0.0-46.0-1.0-0.0-1.0,,,,,,,,,,,,,,,5c3205407e0559000172f153,21:15:19,02/04/2024
5307.400000095367,"<div class = 'left_align' style='font-size: 3.25rem; line-height: 1.3;'>It is <b>very</b> important that you make the symmetry judgment correctly.<br><br>It is also important that you try and judge the picture as quickly as you can.<br><br>When you are ready, click on the button below to try some practice problems.</div><br><br><br><br>",0,ospan,instruct,YwrWTxZkn4fFf2UNQWDWOJb8M4u1,html-button-response,71,666287,0.0-46.0-1.0-0.0-2.0,,,,,,,,,,,,,,,5c3205407e0559000172f153,21:15:19,02/04/2024
2890.0,,,ospan,symmetry,YwrWTxZkn4fFf2UNQWDWOJb8M4u1,symmetry-judgement-task,72,669977,0.0-46.0-1.0-1.0-0.0,,,,,,,,,,1.0,1.0,,,,5c3205407e0559000172f153,21:15:19,02/04/2024
,"<p style=""color:green; font-size: 35px"">Correct</p>",,ospan,feedback,YwrWTxZkn4fFf2UNQWDWOJb8M4u1,html-keyboard-response,73,670729,0.0-46.0-1.0-1.0-1.0,,,,,,,,,,,,,,,5c3205407e0559000172f153,21:15:19,02/04/2024
1552.0,,,ospan,symmetry,YwrWTxZkn4fFf2UNQWDWOJb8M4u1,symmetry-judgement-task,74,674911,0.0-46.0-1.0-1.0-2.0,,,,,,,,,,1.0,1.0,,,,5c3205407e0559000172f153,21:15:19,02/04/2024
,"<p style=""color:green; font-size: 35px"">Correct</p>",,ospan,feedback,YwrWTxZkn4fFf2UNQWDWOJb8M4u1,html-keyboard-response,75,675664,0.0-46.0-1.0-1.0-3.0,,,,,,,,,,,,,,,5c3205407e0559000172f153,21:15:19,02/04/2024
1521.0,,,ospan,symmetry,YwrWTxZkn4fFf2UNQWDWOJb8M4u1,symmetry-judgement-task,76,679813,0.0-46.0-1.0-1.0-4.0,,,,,,,,,,1.0,1.0,,,,5c3205407e0559000172f153,21:15:19,02/04/2024
,"<p style=""color:green; font-size: 35px"">Correct</p>",,ospan,feedback,YwrWTxZkn4fFf2UNQWDWOJb8M4u1,html-keyboard-response,77,680579,0.0-46.0-1.0-1.0-5.0,,,,,,,,,,,,,,,5c3205407e0559000172f153,21:15:19,02/04/2024
1546.5999999046326,"<p style=""font-size: 3rem;"">You responded correctly on 3 of 3 symmetry judgments. Good job!</p><br><br>",0,ospan,practice,YwrWTxZkn4fFf2UNQWDWOJb8M4u1,html-button-response,78,684141,0.0-46.0-1.0-2.0,,,,,,,,,,,,,,,5c3205407e0559000172f153,21:15:19,02/04/2024
11930.599999904633,"<div class = 'left_align' style='font-size: 3.25rem; line-height: 1.3;'>Now you will practice doing both parts of the experiment at the same time.<br><br>In the next practice set, you will be given one grid picture to judge.<br>Then letter will appear on the screen. Try to remember the letter.<br><br>It is <b>very important</b> to make the symmetry judgment as quickly and accurately as possible.<br><br>Just as before, once you have make the symmetry judgment, you can click Yes or No.<br><b>Note that you will no longer see Correct or Incorrect feedback.</div><br><br><br><br>",0,ospan,instruct,YwrWTxZkn4fFf2UNQWDWOJb8M4u1,html-button-response,79,696326,0.0-46.0-2.0-0.0-0.0,,,,,,,,,,,,,,,5c3205407e0559000172f153,21:15:19,02/04/2024
9577.700000047684,"<div class = 'left_align' style='font-size: 3.25rem; line-height: 1.3;'>After the letter goes away, another grid picture will appear, and then<br>another letter.<br><br>At the end of each set of letters and grids, you will recall the letters to the best<br>of your ability. Remember, try your best to get the letters in the correct order.<br><br>It is important to <b>quickly</b> and <b>accurately</b> make the symmetry judgments.</div><br><br><br><br>",0,ospan,instruct,YwrWTxZkn4fFf2UNQWDWOJb8M4u1,html-button-response,80,706157,0.0-46.0-2.0-0.0-1.0,,,,,,,,,,,,,,,5c3205407e0559000172f153,21:15:19,02/04/2024
52520.700000047684,"<div class = 'left_align' style='font-size: 3.25rem; line-height: 1.3;'>On the feedback screen, if you are not doing well at the symmetry judgments,<br>you will also see a warning in the middle. This indicates your percent <br>correct for the grid pictures for the entire experiment.<br><br>It is <b>very</b> important for you to keep accuracy at least at 85%: <u>We can only use<br>data where the participant was at least 85% accurate on the judgments.</u> Therefore,<br> please try your best to perform well on the symmetry judgments, <b>at the same time</b><br>doing your best to recall as many letters as possible.<br><br>Click the button to try some practice problems.</div><br><br><br><br>",0,ospan,instruct,YwrWTxZkn4fFf2UNQWDWOJb8M4u1,html-button-response,81,758943,0.0-46.0-2.0-0.0-2.0,,,,,,,,,,,,,,,5c3205407e0559000172f153,21:15:19,02/04/2024
,"<p style=""font-size:75px;"">...</p>",,ospan,iti,YwrWTxZkn4fFf2UNQWDWOJb8M4u1,html-keyboard-response,82,760212,0.0-46.0-2.0-1.0-0.0,,,,,,,,,,,,,,,5c3205407e0559000172f153,21:15:19,02/04/2024
1890.0,,,ospan,symmetry,YwrWTxZkn4fFf2UNQWDWOJb8M4u1,symmetry-judgement-task,83,763143,0.0-46.0-2.0-1.0-1.0-0.0,,,,,,,,,,1.0,1.0,,,,5c3205407e0559000172f153,21:15:19,02/04/2024
,"<div style=""font-size: 10rem; color: #0000FF"">S</div>",,ospan,letter,YwrWTxZkn4fFf2UNQWDWOJb8M4u1,html-keyboard-response,84,764146,0.0-46.0-2.0-1.0-1.0-1.0,,,,,,,,,,,,,,,5c3205407e0559000172f153,21:15:19,02/04/2024
1566.0,,,ospan,symmetry,YwrWTxZkn4fFf2UNQWDWOJb8M4u1,symmetry-judgement-task,85,767594,0.0-46.0-2.0-1.0-1.0-2.0,,,,,,,,,,1.0,1.0,,,,5c3205407e0559000172f153,21:15:19,02/04/2024
,"<div style=""font-size: 10rem; color: #0000FF"">Q</div>",,ospan,letter,YwrWTxZkn4fFf2UNQWDWOJb8M4u1,html-keyboard-response,86,768596,0.0-46.0-2.0-1.0-1.0-3.0,,,,,,,,,,,,,,,5c3205407e0559000172f153,21:15:19,02/04/2024
1140.0,,,ospan,symmetry,YwrWTxZkn4fFf2UNQWDWOJb8M4u1,symmetry-judgement-task,87,771609,0.0-46.0-2.0-1.0-1.0-4.0,,,,,,,,,,1.0,1.0,,,,5c3205407e0559000172f153,21:15:19,02/04/2024
,"<div style=""font-size: 10rem; color: #0000FF"">Y</div>",,ospan,letter,YwrWTxZkn4fFf2UNQWDWOJb8M4u1,html-keyboard-response,88,772612,0.0-46.0-2.0-1.0-1.0-5.0,,,,,,,,,,,,,,,5c3205407e0559000172f153,21:15:19,02/04/2024
6930.0,"<div class = numbox><p style=""font-size: 2.4rem"">Please recall the letters you saw to the best of your ability. If you do not remember a particular letter, use the SKIP button.<br><b>(When you are ready to lock in your answer, press ENTER)</b></p><button id = button_1 class = ""square num-button"" onclick = ""recordClick(this)""><div class = content><div class = numbers>C</div></div></button><button id = button_2 class = ""square num-button"" onclick = ""recordClick(this)""><div class = content><div class = numbers>G</div></div></button><button id = button_3 class = ""square num-button"" onclick = ""recordClick(this)""><div class = content><div class = numbers>H</div></div></button><button id = button_4 class = ""square num-button"" onclick = ""recordClick(this)""><div class = content><div class = numbers>J</div></div></button><button id = button_5 class = ""square num-button"" onclick = ""recordClick(this)""><div class = content><div class = numbers>K</div></div></button><button id = button_6 class = ""square num-button"" onclick = ""recordClick(this)""><div class = content><div class = numbers>L</div></div></button><button id = button_7 class = ""square num-button"" onclick = ""recordClick(this)""><div class = content><div class = numbers>N</div></div></button><button id = button_8 class = ""square num-button"" onclick = ""recordClick(this)""><div class = content><div class = numbers>P</div></div></button><button id = button_9 class = ""square num-button"" onclick = ""recordClick(this)""><div class = content><div class = numbers>Q</div></div></button><button id = button_10 class = ""square num-button"" onclick = ""recordClick(this)""><div class = content><div class = numbers>R</div></div></button><button id = button_11 class = ""square num-button"" onclick = ""recordClick(this)""><div class = content><div class = numbers>S</div></div></button><button id = button_12 class = ""square num-button"" onclick = ""recordClick(this)""><div class = content><div class = numbers>Y</div></div></button><button class = clear_button id = ""ClearButton"" onclick = ""clearResponse()"">BACKSPACE</button><button class = blank_button id = ""BlankButton"" onclick = ""blankResponse()"">SKIP</button><p style=""font-size: 2.4rem""><u><b>Current Answer:</b></u></p><br><br><div id=echoed_txt style=""font-size: 5rem; color:blue;""><b></b></div></div>",enter,ospan,retrieval,YwrWTxZkn4fFf2UNQWDWOJb8M4u1,html-keyboard-response,89,780304,0.0-46.0-2.0-1.0-2.0-0.0,NA,NA,NA,3.0,"[""S"",""Q"",""Y""]","[""S"",""Q"",""Y""]",1.0,3.0,"['<font color=""green"">S</font>', '<font color=""green"">Q</font>', '<font color=""green"">Y</font>']",,,,,,5c3205407e0559000172f153,21:15:19,02/04/2024
1622.6000001430511,"['<p style=""font-size:44px"">Letters:<br><br><br><font color=""green"">S</font> <font color=""green"">Q</font> <font color=""green"">Y</font></p><br><br><p style=""font-size:30px"">Symmetry:<br><br><font color=""green"">100%</font></p><br><br>']",0,ospan,practice_feedback,YwrWTxZkn4fFf2UNQWDWOJb8M4u1,html-button-response,90,782429,0.0-46.0-2.0-1.0-2.0-1.0,,,,,,,,,,,,,,,5c3205407e0559000172f153,21:15:19,02/04/2024
,"<p style=""font-size:75px;"">...</p>",,ospan,iti,YwrWTxZkn4fFf2UNQWDWOJb8M4u1,html-keyboard-response,91,783432,0.0-46.0-2.0-2.0-0.0,,,,,,,,,,,,,,,5c3205407e0559000172f153,21:15:19,02/04/2024
1600.0,,,ospan,symmetry,YwrWTxZkn4fFf2UNQWDWOJb8M4u1,symmetry-judgement-task,92,786071,0.0-46.0-2.0-2.0-1.0-0.0,,,,,,,,,,1.0,1.0,,,,5c3205407e0559000172f153,21:15:19,02/04/2024
,"<div style=""font-size: 10rem; color: #0000FF"">L</div>",,ospan,letter,YwrWTxZkn4fFf2UNQWDWOJb8M4u1,html-keyboard-response,93,787078,0.0-46.0-2.0-2.0-1.0-1.0,,,,,,,,,,,,,,,5c3205407e0559000172f153,21:15:19,02/04/2024
1471.0,,,ospan,symmetry,YwrWTxZkn4fFf2UNQWDWOJb8M4u1,symmetry-judgement-task,94,790426,0.0-46.0-2.0-2.0-1.0-2.0,,,,,,,,,,1.0,1.0,,,,5c3205407e0559000172f153,21:15:19,02/04/2024
,"<div style=""font-size: 10rem; color: #0000FF"">Q</div>",,ospan,letter,YwrWTxZkn4fFf2UNQWDWOJb8M4u1,html-keyboard-response,95,791440,0.0-46.0-2.0-2.0-1.0-3.0,,,,,,,,,,,,,,,5c3205407e0559000172f153,21:15:19,02/04/2024
1360.0,,,ospan,symmetry,YwrWTxZkn4fFf2UNQWDWOJb8M4u1,symmetry-judgement-task,96,794667,0.0-46.0-2.0-2.0-1.0-4.0,,,,,,,,,,1.0,1.0,,,,5c3205407e0559000172f153,21:15:19,02/04/2024
,"<div style=""font-size: 10rem; color: #0000FF"">J</div>",,ospan,letter,YwrWTxZkn4fFf2UNQWDWOJb8M4u1,html-keyboard-response,97,795679,0.0-46.0-2.0-2.0-1.0-5.0,,,,,,,,,,,,,,,5c3205407e0559000172f153,21:15:19,02/04/2024
5007.799999952316,"<div class = numbox><p style=""font-size: 2.4rem"">Please recall the letters you saw to the best of your ability. If you do not remember a particular letter, use the SKIP button.<br><b>(When you are ready to lock in your answer, press ENTER)</b></p><button id = button_1 class = ""square num-button"" onclick = ""recordClick(this)""><div class = content><div class = numbers>C</div></div></button><button id = button_2 class = ""square num-button"" onclick = ""recordClick(this)""><div class = content><div class = numbers>G</div></div></button><button id = button_3 class = ""square num-button"" onclick = ""recordClick(this)""><div class = content><div class = numbers>H</div></div></button><button id = button_4 class = ""square num-button"" onclick = ""recordClick(this)""><div class = content><div class = numbers>J</div></div></button><button id = button_5 class = ""square num-button"" onclick = ""recordClick(this)""><div class = content><div class = numbers>K</div></div></button><button id = button_6 class = ""square num-button"" onclick = ""recordClick(this)""><div class = content><div class = numbers>L</div></div></button><button id = button_7 class = ""square num-button"" onclick = ""recordClick(this)""><div class = content><div class = numbers>N</div></div></button><button id = button_8 class = ""square num-button"" onclick = ""recordClick(this)""><div class = content><div class = numbers>P</div></div></button><button id = button_9 class = ""square num-button"" onclick = ""recordClick(this)""><div class = content><div class = numbers>Q</div></div></button><button id = button_10 class = ""square num-button"" onclick = ""recordClick(this)""><div class = content><div class = numbers>R</div></div></button><button id = button_11 class = ""square num-button"" onclick = ""recordClick(this)""><div class = content><div class = numbers>S</div></div></button><button id = button_12 class = ""square num-button"" onclick = ""recordClick(this)""><div class = content><div class = numbers>Y</div></div></button><button class = clear_button id = ""ClearButton"" onclick = ""clearResponse()"">BACKSPACE</button><button class = blank_button id = ""BlankButton"" onclick = ""blankResponse()"">SKIP</button><p style=""font-size: 2.4rem""><u><b>Current Answer:</b></u></p><br><br><div id=echoed_txt style=""font-size: 5rem; color:blue;""><b></b></div></div>",enter,ospan,retrieval,YwrWTxZkn4fFf2UNQWDWOJb8M4u1,html-keyboard-response,98,801448,0.0-46.0-2.0-2.0-2.0-0.0,NA,NA,NA,3.0,"[""L"",""Q"",""J""]","[""L"",""Q"",""J""]",1.0,3.0,"['<font color=""green"">L</font>', '<font color=""green"">Q</font>', '<font color=""green"">J</font>']",,,,,,5c3205407e0559000172f153,21:15:19,02/04/2024
1132.8000001907349,"['<p style=""font-size:44px"">Letters:<br><br><br><font color=""green"">L</font> <font color=""green"">Q</font> <font color=""green"">J</font></p><br><br><p style=""font-size:30px"">Symmetry:<br><br><font color=""green"">100%</font></p><br><br>']",0,ospan,practice_feedback,YwrWTxZkn4fFf2UNQWDWOJb8M4u1,html-button-response,99,803088,0.0-46.0-2.0-2.0-2.0-1.0,,,,,,,,,,,,,,,5c3205407e0559000172f153,21:15:19,02/04/2024
23841.400000095367,"<div class = 'left_align' style='font-size: 3rem; line-height: 1.3;'><b>Great work! That is the end of practice.</b><br><br>The real trials will look just like the practice trials you just completed.<br><br><u>Here, you will not see feedback</u>. First, you will see an grid picture to judge,<br>then a letter to remember. When the recall screen appears, report the letters in the<br>order presented. If you forget a letter, remember to use the <b>blank</b> button to move to the<br>next letter. Some of the sets will have more symmetry grids and letters than others.<br><br>It is important that you do your best on both the symmetry judgments and the letter recall<br>parts of the experiment. For for the symmetry judgments, try to work as <b>quickly</b> and <br>as <b>accurately</b> as possible. Remember to keep your symmetry accuracy at 85% or above.<br><br><b>For the letters, do NOT use any external aid (e.g., writing on paper, electronic device).</b><br><br>It is <u>very important</u> to our experiment to have a <b>true</b> view of your real performance.<br><br>Do not worry if you miss some when it gets hard! This task is meant to be very challenging!<br><br>Click the button to begin.</div><br><br><br><br>",0,ospan,starting_real_here,YwrWTxZkn4fFf2UNQWDWOJb8M4u1,html-button-response,100,826931,0.0-46.0-2.0-3.0,,,,,,,,,,,,,,,5c3205407e0559000172f153,21:15:19,02/04/2024
,"<p style=""font-size:75px;"">...</p>",,ospan,iti,YwrWTxZkn4fFf2UNQWDWOJb8M4u1,html-keyboard-response,101,828196,0.0-46.0-3.0-0.0-0.0,,,,,,,,,,,,,,,5c3205407e0559000172f153,21:15:19,02/04/2024
1838.0,,,ospan,symmetry,YwrWTxZkn4fFf2UNQWDWOJb8M4u1,symmetry-judgement-task,102,831074,0.0-46.0-3.0-0.0-1.0-0.0,,,,,,,,,,1.0,1.0,,,,5c3205407e0559000172f153,21:15:19,02/04/2024
,"<div style=""font-size: 10rem; color: #0000FF"">Y</div>",,ospan,letter,YwrWTxZkn4fFf2UNQWDWOJb8M4u1,html-keyboard-response,103,832090,0.0-46.0-3.0-0.0-1.0-1.0,,,,,,,,,,,,,,,5c3205407e0559000172f153,21:15:19,02/04/2024
1494.0,,,ospan,symmetry,YwrWTxZkn4fFf2UNQWDWOJb8M4u1,symmetry-judgement-task,104,835459,0.0-46.0-3.0-0.0-1.0-2.0,,,,,,,,,,1.0,1.0,,,,5c3205407e0559000172f153,21:15:19,02/04/2024
,"<div style=""font-size: 10rem; color: #0000FF"">G</div>",,ospan,letter,YwrWTxZkn4fFf2UNQWDWOJb8M4u1,html-keyboard-response,105,836473,0.0-46.0-3.0-0.0-1.0-3.0,,,,,,,,,,,,,,,5c3205407e0559000172f153,21:15:19,02/04/2024
1405.0,,,ospan,symmetry,YwrWTxZkn4fFf2UNQWDWOJb8M4u1,symmetry-judgement-task,106,839767,0.0-46.0-3.0-0.0-1.0-4.0,,,,,,,,,,1.0,1.0,,,,5c3205407e0559000172f153,21:15:19,02/04/2024
,"<div style=""font-size: 10rem; color: #0000FF"">R</div>",,ospan,letter,YwrWTxZkn4fFf2UNQWDWOJb8M4u1,html-keyboard-response,107,840778,0.0-46.0-3.0-0.0-1.0-5.0,,,,,,,,,,,,,,,5c3205407e0559000172f153,21:15:19,02/04/2024
5905.899999856949,"<div class = numbox><p style=""font-size: 2.4rem"">Please recall the letters you saw to the best of your ability. If you do not remember a particular letter, use the SKIP button.<br><b>(When you are ready to lock in your answer, press ENTER)</b></p><button id = button_1 class = ""square num-button"" onclick = ""recordClick(this)""><div class = content><div class = numbers>C</div></div></button><button id = button_2 class = ""square num-button"" onclick = ""recordClick(this)""><div class = content><div class = numbers>G</div></div></button><button id = button_3 class = ""square num-button"" onclick = ""recordClick(this)""><div class = content><div class = numbers>H</div></div></button><button id = button_4 class = ""square num-button"" onclick = ""recordClick(this)""><div class = content><div class = numbers>J</div></div></button><button id = button_5 class = ""square num-button"" onclick = ""recordClick(this)""><div class = content><div class = numbers>K</div></div></button><button id = button_6 class = ""square num-button"" onclick = ""recordClick(this)""><div class = content><div class = numbers>L</div></div></button><button id = button_7 class = ""square num-button"" onclick = ""recordClick(this)""><div class = content><div class = numbers>N</div></div></button><button id = button_8 class = ""square num-button"" onclick = ""recordClick(this)""><div class = content><div class = numbers>P</div></div></button><button id = button_9 class = ""square num-button"" onclick = ""recordClick(this)""><div class = content><div class = numbers>Q</div></div></button><button id = button_10 class = ""square num-button"" onclick = ""recordClick(this)""><div class = content><div class = numbers>R</div></div></button><button id = button_11 class = ""square num-button"" onclick = ""recordClick(this)""><div class = content><div class = numbers>S</div></div></button><button id = button_12 class = ""square num-button"" onclick = ""recordClick(this)""><div class = content><div class = numbers>Y</div></div></button><button class = clear_button id = ""ClearButton"" onclick = ""clearResponse()"">BACKSPACE</button><button class = blank_button id = ""BlankButton"" onclick = ""blankResponse()"">SKIP</button><p style=""font-size: 2.4rem""><u><b>Current Answer:</b></u></p><br><br><div id=echoed_txt style=""font-size: 5rem; color:blue;""><b></b></div></div>",enter,ospan,retrieval,YwrWTxZkn4fFf2UNQWDWOJb8M4u1,html-keyboard-response,108,847447,0.0-46.0-3.0-0.0-2.0,3,3,3,3.0,"[""Y"",""G"",""R""]","[""Y"",""G"",""R""]",1.0,3.0,,,,,,,5c3205407e0559000172f153,21:15:19,02/04/2024
1538.0,[''],0,ospan,feedback,YwrWTxZkn4fFf2UNQWDWOJb8M4u1,html-button-response,109,849493,0.0-46.0-3.0-0.0-3.0,,,,,,,,,,,,100.0,0.0,,5c3205407e0559000172f153,21:15:19,02/04/2024
,"<p style=""font-size:75px;"">...</p>",,ospan,iti,YwrWTxZkn4fFf2UNQWDWOJb8M4u1,html-keyboard-response,110,850507,0.0-46.0-4.0-0.0-0.0,,,,,,,,,,,,,,,5c3205407e0559000172f153,21:15:19,02/04/2024
1760.0,,,ospan,symmetry,YwrWTxZkn4fFf2UNQWDWOJb8M4u1,symmetry-judgement-task,111,853306,0.0-46.0-4.0-0.0-1.0-0.0,,,,,,,,,,1.0,1.0,,,,5c3205407e0559000172f153,21:15:19,02/04/2024
,"<div style=""font-size: 10rem; color: #0000FF"">N</div>",,ospan,letter,YwrWTxZkn4fFf2UNQWDWOJb8M4u1,html-keyboard-response,112,854312,0.0-46.0-4.0-0.0-1.0-1.0,,,,,,,,,,,,,,,5c3205407e0559000172f153,21:15:19,02/04/2024
1626.0,,,ospan,symmetry,YwrWTxZkn4fFf2UNQWDWOJb8M4u1,symmetry-judgement-task,113,857817,0.0-46.0-4.0-0.0-1.0-2.0,,,,,,,,,,1.0,1.0,,,,5c3205407e0559000172f153,21:15:19,02/04/2024
,"<div style=""font-size: 10rem; color: #0000FF"">L</div>",,ospan,letter,YwrWTxZkn4fFf2UNQWDWOJb8M4u1,html-keyboard-response,114,858824,0.0-46.0-4.0-0.0-1.0-3.0,,,,,,,,,,,,,,,5c3205407e0559000172f153,21:15:19,02/04/2024
1578.0,,,ospan,symmetry,YwrWTxZkn4fFf2UNQWDWOJb8M4u1,symmetry-judgement-task,115,862279,0.0-46.0-4.0-0.0-1.0-4.0,,,,,,,,,,1.0,1.0,,,,5c3205407e0559000172f153,21:15:19,02/04/2024
,"<div style=""font-size: 10rem; color: #0000FF"">C</div>",,ospan,letter,YwrWTxZkn4fFf2UNQWDWOJb8M4u1,html-keyboard-response,116,863289,0.0-46.0-4.0-0.0-1.0-5.0,,,,,,,,,,,,,,,5c3205407e0559000172f153,21:15:19,02/04/2024
1488.0,,,ospan,symmetry,YwrWTxZkn4fFf2UNQWDWOJb8M4u1,symmetry-judgement-task,117,866662,0.0-46.0-4.0-0.0-1.0-6.0,,,,,,,,,,1.0,1.0,,,,5c3205407e0559000172f153,21:15:19,02/04/2024
,"<div style=""font-size: 10rem; color: #0000FF"">K</div>",,ospan,letter,YwrWTxZkn4fFf2UNQWDWOJb8M4u1,html-keyboard-response,118,867673,0.0-46.0-4.0-0.0-1.0-7.0,,,,,,,,,,,,,,,5c3205407e0559000172f153,21:15:19,02/04/2024
6268.700000047684,"<div class = numbox><p style=""font-size: 2.4rem"">Please recall the letters you saw to the best of your ability. If you do not remember a particular letter, use the SKIP button.<br><b>(When you are ready to lock in your answer, press ENTER)</b></p><button id = button_1 class = ""square num-button"" onclick = ""recordClick(this)""><div class = content><div class = numbers>C</div></div></button><button id = button_2 class = ""square num-button"" onclick = ""recordClick(this)""><div class = content><div class = numbers>G</div></div></button><button id = button_3 class = ""square num-button"" onclick = ""recordClick(this)""><div class = content><div class = numbers>H</div></div></button><button id = button_4 class = ""square num-button"" onclick = ""recordClick(this)""><div class = content><div class = numbers>J</div></div></button><button id = button_5 class = ""square num-button"" onclick = ""recordClick(this)""><div class = content><div class = numbers>K</div></div></button><button id = button_6 class = ""square num-button"" onclick = ""recordClick(this)""><div class = content><div class = numbers>L</div></div></button><button id = button_7 class = ""square num-button"" onclick = ""recordClick(this)""><div class = content><div class = numbers>N</div></div></button><button id = button_8 class = ""square num-button"" onclick = ""recordClick(this)""><div class = content><div class = numbers>P</div></div></button><button id = button_9 class = ""square num-button"" onclick = ""recordClick(this)""><div class = content><div class = numbers>Q</div></div></button><button id = button_10 class = ""square num-button"" onclick = ""recordClick(this)""><div class = content><div class = numbers>R</div></div></button><button id = button_11 class = ""square num-button"" onclick = ""recordClick(this)""><div class = content><div class = numbers>S</div></div></button><button id = button_12 class = ""square num-button"" onclick = ""recordClick(this)""><div class = content><div class = numbers>Y</div></div></button><button class = clear_button id = ""ClearButton"" onclick = ""clearResponse()"">BACKSPACE</button><button class = blank_button id = ""BlankButton"" onclick = ""blankResponse()"">SKIP</button><p style=""font-size: 2.4rem""><u><b>Current Answer:</b></u></p><br><br><div id=echoed_txt style=""font-size: 5rem; color:blue;""><b></b></div></div>",enter,ospan,retrieval,YwrWTxZkn4fFf2UNQWDWOJb8M4u1,html-keyboard-response,119,874708,0.0-46.0-4.0-0.0-2.0,7,7,7,4.0,"[""N"",""L"",""C"",""K""]","[""N"",""L"",""C"",""K""]",1.0,4.0,,,,,,,5c3205407e0559000172f153,21:15:19,02/04/2024
1281.7000000476837,[''],0,ospan,feedback,YwrWTxZkn4fFf2UNQWDWOJb8M4u1,html-button-response,120,876501,0.0-46.0-4.0-0.0-3.0,,,,,,,,,,,,100.0,0.0,,5c3205407e0559000172f153,21:15:19,02/04/2024
,"<p style=""font-size:75px;"">...</p>",,ospan,iti,YwrWTxZkn4fFf2UNQWDWOJb8M4u1,html-keyboard-response,121,877502,0.0-46.0-4.0-1.0-0.0,,,,,,,,,,,,,,,5c3205407e0559000172f153,21:15:19,02/04/2024
2333.0,,,ospan,symmetry,YwrWTxZkn4fFf2UNQWDWOJb8M4u1,symmetry-judgement-task,122,880955,0.0-46.0-4.0-1.0-1.0-0.0,,,,,,,,,,1.0,1.0,,,,5c3205407e0559000172f153,21:15:19,02/04/2024
,"<div style=""font-size: 10rem; color: #0000FF"">Q</div>",,ospan,letter,YwrWTxZkn4fFf2UNQWDWOJb8M4u1,html-keyboard-response,123,881963,0.0-46.0-4.0-1.0-1.0-1.0,,,,,,,,,,,,,,,5c3205407e0559000172f153,21:15:19,02/04/2024
1690.0,,,ospan,symmetry,YwrWTxZkn4fFf2UNQWDWOJb8M4u1,symmetry-judgement-task,124,885523,0.0-46.0-4.0-1.0-1.0-2.0,,,,,,,,,,1.0,1.0,,,,5c3205407e0559000172f153,21:15:19,02/04/2024
,"<div style=""font-size: 10rem; color: #0000FF"">C</div>",,ospan,letter,YwrWTxZkn4fFf2UNQWDWOJb8M4u1,html-keyboard-response,125,886533,0.0-46.0-4.0-1.0-1.0-3.0,,,,,,,,,,,,,,,5c3205407e0559000172f153,21:15:19,02/04/2024
1478.0,,,ospan,symmetry,YwrWTxZkn4fFf2UNQWDWOJb8M4u1,symmetry-judgement-task,126,889903,0.0-46.0-4.0-1.0-1.0-4.0,,,,,,,,,,1.0,1.0,,,,5c3205407e0559000172f153,21:15:19,02/04/2024
,"<div style=""font-size: 10rem; color: #0000FF"">R</div>",,ospan,letter,YwrWTxZkn4fFf2UNQWDWOJb8M4u1,html-keyboard-response,127,890906,0.0-46.0-4.0-1.0-1.0-5.0,,,,,,,,,,,,,,,5c3205407e0559000172f153,21:15:19,02/04/2024
1283.0,,,ospan,symmetry,YwrWTxZkn4fFf2UNQWDWOJb8M4u1,symmetry-judgement-task,128,894068,0.0-46.0-4.0-1.0-1.0-6.0,,,,,,,,,,1.0,1.0,,,,5c3205407e0559000172f153,21:15:19,02/04/2024
,"<div style=""font-size: 10rem; color: #0000FF"">Y</div>",,ospan,letter,YwrWTxZkn4fFf2UNQWDWOJb8M4u1,html-keyboard-response,129,895085,0.0-46.0-4.0-1.0-1.0-7.0,,,,,,,,,,,,,,,5c3205407e0559000172f153,21:15:19,02/04/2024
2445.0,,,ospan,symmetry,YwrWTxZkn4fFf2UNQWDWOJb8M4u1,symmetry-judgement-task,130,899418,0.0-46.0-4.0-1.0-1.0-8.0,,,,,,,,,,1.0,1.0,,,,5c3205407e0559000172f153,21:15:19,02/04/2024
,"<div style=""font-size: 10rem; color: #0000FF"">S</div>",,ospan,letter,YwrWTxZkn4fFf2UNQWDWOJb8M4u1,html-keyboard-response,131,900422,0.0-46.0-4.0-1.0-1.0-9.0,,,,,,,,,,,,,,,5c3205407e0559000172f153,21:15:19,02/04/2024
7561.899999856949,"<div class = numbox><p style=""font-size: 2.4rem"">Please recall the letters you saw to the best of your ability. If you do not remember a particular letter, use the SKIP button.<br><b>(When you are ready to lock in your answer, press ENTER)</b></p><button id = button_1 class = ""square num-button"" onclick = ""recordClick(this)""><div class = content><div class = numbers>C</div></div></button><button id = button_2 class = ""square num-button"" onclick = ""recordClick(this)""><div class = content><div class = numbers>G</div></div></button><button id = button_3 class = ""square num-button"" onclick = ""recordClick(this)""><div class = content><div class = numbers>H</div></div></button><button id = button_4 class = ""square num-button"" onclick = ""recordClick(this)""><div class = content><div class = numbers>J</div></div></button><button id = button_5 class = ""square num-button"" onclick = ""recordClick(this)""><div class = content><div class = numbers>K</div></div></button><button id = button_6 class = ""square num-button"" onclick = ""recordClick(this)""><div class = content><div class = numbers>L</div></div></button><button id = button_7 class = ""square num-button"" onclick = ""recordClick(this)""><div class = content><div class = numbers>N</div></div></button><button id = button_8 class = ""square num-button"" onclick = ""recordClick(this)""><div class = content><div class = numbers>P</div></div></button><button id = button_9 class = ""square num-button"" onclick = ""recordClick(this)""><div class = content><div class = numbers>Q</div></div></button><button id = button_10 class = ""square num-button"" onclick = ""recordClick(this)""><div class = content><div class = numbers>R</div></div></button><button id = button_11 class = ""square num-button"" onclick = ""recordClick(this)""><div class = content><div class = numbers>S</div></div></button><button id = button_12 class = ""square num-button"" onclick = ""recordClick(this)""><div class = content><div class = numbers>Y</div></div></button><button class = clear_button id = ""ClearButton"" onclick = ""clearResponse()"">BACKSPACE</button><button class = blank_button id = ""BlankButton"" onclick = ""blankResponse()"">SKIP</button><p style=""font-size: 2.4rem""><u><b>Current Answer:</b></u></p><br><br><div id=echoed_txt style=""font-size: 5rem; color:blue;""><b></b></div></div>",enter,ospan,retrieval,YwrWTxZkn4fFf2UNQWDWOJb8M4u1,html-keyboard-response,132,908749,0.0-46.0-4.0-1.0-2.0,12,12,12,5.0,"[""Q"",""C"",""R"",""Y"",""S""]","[""Q"",""C"",""R"",""Y"",""S""]",1.0,5.0,,,,,,,5c3205407e0559000172f153,21:15:19,02/04/2024
1063.0,[''],0,ospan,feedback,YwrWTxZkn4fFf2UNQWDWOJb8M4u1,html-button-response,133,910329,0.0-46.0-4.0-1.0-3.0,,,,,,,,,,,,100.0,0.0,,5c3205407e0559000172f153,21:15:19,02/04/2024
,"<p style=""font-size:75px;"">...</p>",,ospan,iti,YwrWTxZkn4fFf2UNQWDWOJb8M4u1,html-keyboard-response,134,911330,0.0-46.0-4.0-2.0-0.0,,,,,,,,,,,,,,,5c3205407e0559000172f153,21:15:19,02/04/2024
1514.0,,,ospan,symmetry,YwrWTxZkn4fFf2UNQWDWOJb8M4u1,symmetry-judgement-task,135,913968,0.0-46.0-4.0-2.0-1.0-0.0,,,,,,,,,,1.0,1.0,,,,5c3205407e0559000172f153,21:15:19,02/04/2024
,"<div style=""font-size: 10rem; color: #0000FF"">Q</div>",,ospan,letter,YwrWTxZkn4fFf2UNQWDWOJb8M4u1,html-keyboard-response,136,914972,0.0-46.0-4.0-2.0-1.0-1.0,,,,,,,,,,,,,,,5c3205407e0559000172f153,21:15:19,02/04/2024
1589.0,,,ospan,symmetry,YwrWTxZkn4fFf2UNQWDWOJb8M4u1,symmetry-judgement-task,137,918437,0.0-46.0-4.0-2.0-1.0-2.0,,,,,,,,,,1.0,1.0,,,,5c3205407e0559000172f153,21:15:19,02/04/2024
,"<div style=""font-size: 10rem; color: #0000FF"">R</div>",,ospan,letter,YwrWTxZkn4fFf2UNQWDWOJb8M4u1,html-keyboard-response,138,919449,0.0-46.0-4.0-2.0-1.0-3.0,,,,,,,,,,,,,,,5c3205407e0559000172f153,21:15:19,02/04/2024
1801.0,,,ospan,symmetry,YwrWTxZkn4fFf2UNQWDWOJb8M4u1,symmetry-judgement-task,139,923126,0.0-46.0-4.0-2.0-1.0-4.0,,,,,,,,,,1.0,1.0,,,,5c3205407e0559000172f153,21:15:19,02/04/2024
,"<div style=""font-size: 10rem; color: #0000FF"">G</div>",,ospan,letter,YwrWTxZkn4fFf2UNQWDWOJb8M4u1,html-keyboard-response,140,924140,0.0-46.0-4.0-2.0-1.0-5.0,,,,,,,,,,,,,,,5c3205407e0559000172f153,21:15:19,02/04/2024
4536.299999952316,"<div class = numbox><p style=""font-size: 2.4rem"">Please recall the letters you saw to the best of your ability. If you do not remember a particular letter, use the SKIP button.<br><b>(When you are ready to lock in your answer, press ENTER)</b></p><button id = button_1 class = ""square num-button"" onclick = ""recordClick(this)""><div class = content><div class = numbers>C</div></div></button><button id = button_2 class = ""square num-button"" onclick = ""recordClick(this)""><div class = content><div class = numbers>G</div></div></button><button id = button_3 class = ""square num-button"" onclick = ""recordClick(this)""><div class = content><div class = numbers>H</div></div></button><button id = button_4 class = ""square num-button"" onclick = ""recordClick(this)""><div class = content><div class = numbers>J</div></div></button><button id = button_5 class = ""square num-button"" onclick = ""recordClick(this)""><div class = content><div class = numbers>K</div></div></button><button id = button_6 class = ""square num-button"" onclick = ""recordClick(this)""><div class = content><div class = numbers>L</div></div></button><button id = button_7 class = ""square num-button"" onclick = ""recordClick(this)""><div class = content><div class = numbers>N</div></div></button><button id = button_8 class = ""square num-button"" onclick = ""recordClick(this)""><div class = content><div class = numbers>P</div></div></button><button id = button_9 class = ""square num-button"" onclick = ""recordClick(this)""><div class = content><div class = numbers>Q</div></div></button><button id = button_10 class = ""square num-button"" onclick = ""recordClick(this)""><div class = content><div class = numbers>R</div></div></button><button id = button_11 class = ""square num-button"" onclick = ""recordClick(this)""><div class = content><div class = numbers>S</div></div></button><button id = button_12 class = ""square num-button"" onclick = ""recordClick(this)""><div class = content><div class = numbers>Y</div></div></button><button class = clear_button id = ""ClearButton"" onclick = ""clearResponse()"">BACKSPACE</button><button class = blank_button id = ""BlankButton"" onclick = ""blankResponse()"">SKIP</button><p style=""font-size: 2.4rem""><u><b>Current Answer:</b></u></p><br><br><div id=echoed_txt style=""font-size: 5rem; color:blue;""><b></b></div></div>",enter,ospan,retrieval,YwrWTxZkn4fFf2UNQWDWOJb8M4u1,html-keyboard-response,141,929435,0.0-46.0-4.0-2.0-2.0,15,15,15,3.0,"[""Q"",""R"",""G""]","[""Q"",""R"",""G""]",1.0,3.0,,,,,,,5c3205407e0559000172f153,21:15:19,02/04/2024
2056.5,[''],0,ospan,feedback,YwrWTxZkn4fFf2UNQWDWOJb8M4u1,html-button-response,142,932003,0.0-46.0-4.0-2.0-3.0,,,,,,,,,,,,100.0,0.0,,5c3205407e0559000172f153,21:15:19,02/04/2024
,"<p style=""font-size:75px;"">...</p>",,ospan,iti,YwrWTxZkn4fFf2UNQWDWOJb8M4u1,html-keyboard-response,143,933005,0.0-46.0-5.0-0.0-0.0,,,,,,,,,,,,,,,5c3205407e0559000172f153,21:15:19,02/04/2024
2310.0,,,ospan,symmetry,YwrWTxZkn4fFf2UNQWDWOJb8M4u1,symmetry-judgement-task,144,936430,0.0-46.0-5.0-0.0-1.0-0.0,,,,,,,,,,1.0,1.0,,,,5c3205407e0559000172f153,21:15:19,02/04/2024
,"<div style=""font-size: 10rem; color: #0000FF"">H</div>",,ospan,letter,YwrWTxZkn4fFf2UNQWDWOJb8M4u1,html-keyboard-response,145,937434,0.0-46.0-5.0-0.0-1.0-1.0,,,,,,,,,,,,,,,5c3205407e0559000172f153,21:15:19,02/04/2024
1330.0,,,ospan,symmetry,YwrWTxZkn4fFf2UNQWDWOJb8M4u1,symmetry-judgement-task,146,940668,0.0-46.0-5.0-0.0-1.0-2.0,,,,,,,,,,1.0,1.0,,,,5c3205407e0559000172f153,21:15:19,02/04/2024
,"<div style=""font-size: 10rem; color: #0000FF"">J</div>",,ospan,letter,YwrWTxZkn4fFf2UNQWDWOJb8M4u1,html-keyboard-response,147,941683,0.0-46.0-5.0-0.0-1.0-3.0,,,,,,,,,,,,,,,5c3205407e0559000172f153,21:15:19,02/04/2024
1395.0,,,ospan,symmetry,YwrWTxZkn4fFf2UNQWDWOJb8M4u1,symmetry-judgement-task,148,944969,0.0-46.0-5.0-0.0-1.0-4.0,,,,,,,,,,1.0,1.0,,,,5c3205407e0559000172f153,21:15:19,02/04/2024
,"<div style=""font-size: 10rem; color: #0000FF"">Y</div>",,ospan,letter,YwrWTxZkn4fFf2UNQWDWOJb8M4u1,html-keyboard-response,149,945981,0.0-46.0-5.0-0.0-1.0-5.0,,,,,,,,,,,,,,,5c3205407e0559000172f153,21:15:19,02/04/2024
1563.0,,,ospan,symmetry,YwrWTxZkn4fFf2UNQWDWOJb8M4u1,symmetry-judgement-task,150,949433,0.0-46.0-5.0-0.0-1.0-6.0,,,,,,,,,,1.0,1.0,,,,5c3205407e0559000172f153,21:15:19,02/04/2024
,"<div style=""font-size: 10rem; color: #0000FF"">G</div>",,ospan,letter,YwrWTxZkn4fFf2UNQWDWOJb8M4u1,html-keyboard-response,151,950447,0.0-46.0-5.0-0.0-1.0-7.0,,,,,,,,,,,,,,,5c3205407e0559000172f153,21:15:19,02/04/2024
1179.0,,,ospan,symmetry,YwrWTxZkn4fFf2UNQWDWOJb8M4u1,symmetry-judgement-task,152,953500,0.0-46.0-5.0-0.0-1.0-8.0,,,,,,,,,,1.0,1.0,,,,5c3205407e0559000172f153,21:15:19,02/04/2024
,"<div style=""font-size: 10rem; color: #0000FF"">P</div>",,ospan,letter,YwrWTxZkn4fFf2UNQWDWOJb8M4u1,html-keyboard-response,153,954503,0.0-46.0-5.0-0.0-1.0-9.0,,,,,,,,,,,,,,,5c3205407e0559000172f153,21:15:19,02/04/2024
1252.0,,,ospan,symmetry,YwrWTxZkn4fFf2UNQWDWOJb8M4u1,symmetry-judgement-task,154,957630,0.0-46.0-5.0-0.0-1.0-10.0,,,,,,,,,,1.0,1.0,,,,5c3205407e0559000172f153,21:15:19,02/04/2024
,"<div style=""font-size: 10rem; color: #0000FF"">S</div>",,ospan,letter,YwrWTxZkn4fFf2UNQWDWOJb8M4u1,html-keyboard-response,155,958633,0.0-46.0-5.0-0.0-1.0-11.0,,,,,,,,,,,,,,,5c3205407e0559000172f153,21:15:19,02/04/2024
19532.099999904633,"<div class = numbox><p style=""font-size: 2.4rem"">Please recall the letters you saw to the best of your ability. If you do not remember a particular letter, use the SKIP button.<br><b>(When you are ready to lock in your answer, press ENTER)</b></p><button id = button_1 class = ""square num-button"" onclick = ""recordClick(this)""><div class = content><div class = numbers>C</div></div></button><button id = button_2 class = ""square num-button"" onclick = ""recordClick(this)""><div class = content><div class = numbers>G</div></div></button><button id = button_3 class = ""square num-button"" onclick = ""recordClick(this)""><div class = content><div class = numbers>H</div></div></button><button id = button_4 class = ""square num-button"" onclick = ""recordClick(this)""><div class = content><div class = numbers>J</div></div></button><button id = button_5 class = ""square num-button"" onclick = ""recordClick(this)""><div class = content><div class = numbers>K</div></div></button><button id = button_6 class = ""square num-button"" onclick = ""recordClick(this)""><div class = content><div class = numbers>L</div></div></button><button id = button_7 class = ""square num-button"" onclick = ""recordClick(this)""><div class = content><div class = numbers>N</div></div></button><button id = button_8 class = ""square num-button"" onclick = ""recordClick(this)""><div class = content><div class = numbers>P</div></div></button><button id = button_9 class = ""square num-button"" onclick = ""recordClick(this)""><div class = content><div class = numbers>Q</div></div></button><button id = button_10 class = ""square num-button"" onclick = ""recordClick(this)""><div class = content><div class = numbers>R</div></div></button><button id = button_11 class = ""square num-button"" onclick = ""recordClick(this)""><div class = content><div class = numbers>S</div></div></button><button id = button_12 class = ""square num-button"" onclick = ""recordClick(this)""><div class = content><div class = numbers>Y</div></div></button><button class = clear_button id = ""ClearButton"" onclick = ""clearResponse()"">BACKSPACE</button><button class = blank_button id = ""BlankButton"" onclick = ""blankResponse()"">SKIP</button><p style=""font-size: 2.4rem""><u><b>Current Answer:</b></u></p><br><br><div id=echoed_txt style=""font-size: 5rem; color:blue;""><b></b></div></div>",enter,ospan,retrieval,YwrWTxZkn4fFf2UNQWDWOJb8M4u1,html-keyboard-response,156,978931,0.0-46.0-5.0-0.0-2.0,21,18,15,6.0,"[""H"",""J"",""Y"",""P"",""S"",""_""]","[""H"",""J"",""Y"",""G"",""P"",""S""]",0.0,3.0,,,,,,,5c3205407e0559000172f153,21:15:19,02/04/2024
974.0,[''],0,ospan,feedback,YwrWTxZkn4fFf2UNQWDWOJb8M4u1,html-button-response,157,980406,0.0-46.0-5.0-0.0-3.0,,,,,,,,,,,,100.0,0.0,,5c3205407e0559000172f153,21:15:19,02/04/2024
,"<p style=""font-size:75px;"">...</p>",,ospan,iti,YwrWTxZkn4fFf2UNQWDWOJb8M4u1,html-keyboard-response,158,981415,0.0-46.0-5.0-1.0-0.0,,,,,,,,,,,,,,,5c3205407e0559000172f153,21:15:19,02/04/2024
1695.0,,,ospan,symmetry,YwrWTxZkn4fFf2UNQWDWOJb8M4u1,symmetry-judgement-task,159,984151,0.0-46.0-5.0-1.0-1.0-0.0,,,,,,,,,,1.0,1.0,,,,5c3205407e0559000172f153,21:15:19,02/04/2024
,"<div style=""font-size: 10rem; color: #0000FF"">J</div>",,ospan,letter,YwrWTxZkn4fFf2UNQWDWOJb8M4u1,html-keyboard-response,160,985168,0.0-46.0-5.0-1.0-1.0-1.0,,,,,,,,,,,,,,,5c3205407e0559000172f153,21:15:19,02/04/2024
912.0,,,ospan,symmetry,YwrWTxZkn4fFf2UNQWDWOJb8M4u1,symmetry-judgement-task,161,987966,0.0-46.0-5.0-1.0-1.0-2.0,,,,,,,,,,1.0,1.0,,,,5c3205407e0559000172f153,21:15:19,02/04/2024
,"<div style=""font-size: 10rem; color: #0000FF"">R</div>",,ospan,letter,YwrWTxZkn4fFf2UNQWDWOJb8M4u1,html-keyboard-response,162,988981,0.0-46.0-5.0-1.0-1.0-3.0,,,,,,,,,,,,,,,5c3205407e0559000172f153,21:15:19,02/04/2024
1247.0,,,ospan,symmetry,YwrWTxZkn4fFf2UNQWDWOJb8M4u1,symmetry-judgement-task,163,992099,0.0-46.0-5.0-1.0-1.0-4.0,,,,,,,,,,1.0,1.0,,,,5c3205407e0559000172f153,21:15:19,02/04/2024
,"<div style=""font-size: 10rem; color: #0000FF"">P</div>",,ospan,letter,YwrWTxZkn4fFf2UNQWDWOJb8M4u1,html-keyboard-response,164,993101,0.0-46.0-5.0-1.0-1.0-5.0,,,,,,,,,,,,,,,5c3205407e0559000172f153,21:15:19,02/04/2024
1515.0,,,ospan,symmetry,YwrWTxZkn4fFf2UNQWDWOJb8M4u1,symmetry-judgement-task,165,996499,0.0-46.0-5.0-1.0-1.0-6.0,,,,,,,,,,1.0,1.0,,,,5c3205407e0559000172f153,21:15:19,02/04/2024
,"<div style=""font-size: 10rem; color: #0000FF"">G</div>",,ospan,letter,YwrWTxZkn4fFf2UNQWDWOJb8M4u1,html-keyboard-response,166,997513,0.0-46.0-5.0-1.0-1.0-7.0,,,,,,,,,,,,,,,5c3205407e0559000172f153,21:15:19,02/04/2024
965.0,,,ospan,symmetry,YwrWTxZkn4fFf2UNQWDWOJb8M4u1,symmetry-judgement-task,167,1000351,0.0-46.0-5.0-1.0-1.0-8.0,,,,,,,,,,1.0,1.0,,,,5c3205407e0559000172f153,21:15:19,02/04/2024
,"<div style=""font-size: 10rem; color: #0000FF"">S</div>",,ospan,letter,YwrWTxZkn4fFf2UNQWDWOJb8M4u1,html-keyboard-response,168,1001364,0.0-46.0-5.0-1.0-1.0-9.0,,,,,,,,,,,,,,,5c3205407e0559000172f153,21:15:19,02/04/2024
1205.0,,,ospan,symmetry,YwrWTxZkn4fFf2UNQWDWOJb8M4u1,symmetry-judgement-task,169,1004433,0.0-46.0-5.0-1.0-1.0-10.0,,,,,,,,,,1.0,1.0,,,,5c3205407e0559000172f153,21:15:19,02/04/2024
,"<div style=""font-size: 10rem; color: #0000FF"">N</div>",,ospan,letter,YwrWTxZkn4fFf2UNQWDWOJb8M4u1,html-keyboard-response,170,1005447,0.0-46.0-5.0-1.0-1.0-11.0,,,,,,,,,,,,,,,5c3205407e0559000172f153,21:15:19,02/04/2024
1469.0,,,ospan,symmetry,YwrWTxZkn4fFf2UNQWDWOJb8M4u1,symmetry-judgement-task,171,1008780,0.0-46.0-5.0-1.0-1.0-12.0,,,,,,,,,,1.0,1.0,,,,5c3205407e0559000172f153,21:15:19,02/04/2024
,"<div style=""font-size: 10rem; color: #0000FF"">K</div>",,ospan,letter,YwrWTxZkn4fFf2UNQWDWOJb8M4u1,html-keyboard-response,172,1009786,0.0-46.0-5.0-1.0-1.0-13.0,,,,,,,,,,,,,,,5c3205407e0559000172f153,21:15:19,02/04/2024
12640.299999952316,"<div class = numbox><p style=""font-size: 2.4rem"">Please recall the letters you saw to the best of your ability. If you do not remember a particular letter, use the SKIP button.<br><b>(When you are ready to lock in your answer, press ENTER)</b></p><button id = button_1 class = ""square num-button"" onclick = ""recordClick(this)""><div class = content><div class = numbers>C</div></div></button><button id = button_2 class = ""square num-button"" onclick = ""recordClick(this)""><div class = content><div class = numbers>G</div></div></button><button id = button_3 class = ""square num-button"" onclick = ""recordClick(this)""><div class = content><div class = numbers>H</div></div></button><button id = button_4 class = ""square num-button"" onclick = ""recordClick(this)""><div class = content><div class = numbers>J</div></div></button><button id = button_5 class = ""square num-button"" onclick = ""recordClick(this)""><div class = content><div class = numbers>K</div></div></button><button id = button_6 class = ""square num-button"" onclick = ""recordClick(this)""><div class = content><div class = numbers>L</div></div></button><button id = button_7 class = ""square num-button"" onclick = ""recordClick(this)""><div class = content><div class = numbers>N</div></div></button><button id = button_8 class = ""square num-button"" onclick = ""recordClick(this)""><div class = content><div class = numbers>P</div></div></button><button id = button_9 class = ""square num-button"" onclick = ""recordClick(this)""><div class = content><div class = numbers>Q</div></div></button><button id = button_10 class = ""square num-button"" onclick = ""recordClick(this)""><div class = content><div class = numbers>R</div></div></button><button id = button_11 class = ""square num-button"" onclick = ""recordClick(this)""><div class = content><div class = numbers>S</div></div></button><button id = button_12 class = ""square num-button"" onclick = ""recordClick(this)""><div class = content><div class = numbers>Y</div></div></button><button class = clear_button id = ""ClearButton"" onclick = ""clearResponse()"">BACKSPACE</button><button class = blank_button id = ""BlankButton"" onclick = ""blankResponse()"">SKIP</button><p style=""font-size: 2.4rem""><u><b>Current Answer:</b></u></p><br><br><div id=echoed_txt style=""font-size: 5rem; color:blue;""><b></b></div></div>",enter,ospan,retrieval,YwrWTxZkn4fFf2UNQWDWOJb8M4u1,html-keyboard-response,173,1023188,0.0-46.0-5.0-1.0-2.0,28,24,15,7.0,"[""J"",""R"",""P"",""G"",""S"",""N"",""P""]","[""J"",""R"",""P"",""G"",""S"",""N"",""K""]",0.0,6.0,,,,,,,5c3205407e0559000172f153,21:15:19,02/04/2024
1780.9000000953674,[''],0,ospan,feedback,YwrWTxZkn4fFf2UNQWDWOJb8M4u1,html-button-response,174,1025478,0.0-46.0-5.0-1.0-3.0,,,,,,,,,,,,100.0,0.0,,5c3205407e0559000172f153,21:15:19,02/04/2024
,"<p style=""font-size:75px;"">...</p>",,ospan,iti,YwrWTxZkn4fFf2UNQWDWOJb8M4u1,html-keyboard-response,175,1026494,0.0-46.0-6.0-0.0-0.0,,,,,,,,,,,,,,,5c3205407e0559000172f153,21:15:19,02/04/2024
1735.0,,,ospan,symmetry,YwrWTxZkn4fFf2UNQWDWOJb8M4u1,symmetry-judgement-task,176,1029346,0.0-46.0-6.0-0.0-1.0-0.0,,,,,,,,,,1.0,1.0,,,,5c3205407e0559000172f153,21:15:19,02/04/2024
,"<div style=""font-size: 10rem; color: #0000FF"">C</div>",,ospan,letter,YwrWTxZkn4fFf2UNQWDWOJb8M4u1,html-keyboard-response,177,1030359,0.0-46.0-6.0-0.0-1.0-1.0,,,,,,,,,,,,,,,5c3205407e0559000172f153,21:15:19,02/04/2024
867.0,,,ospan,symmetry,YwrWTxZkn4fFf2UNQWDWOJb8M4u1,symmetry-judgement-task,178,1033094,0.0-46.0-6.0-0.0-1.0-2.0,,,,,,,,,,1.0,1.0,,,,5c3205407e0559000172f153,21:15:19,02/04/2024
,"<div style=""font-size: 10rem; color: #0000FF"">K</div>",,ospan,letter,YwrWTxZkn4fFf2UNQWDWOJb8M4u1,html-keyboard-response,179,1034109,0.0-46.0-6.0-0.0-1.0-3.0,,,,,,,,,,,,,,,5c3205407e0559000172f153,21:15:19,02/04/2024
1723.0,,,ospan,symmetry,YwrWTxZkn4fFf2UNQWDWOJb8M4u1,symmetry-judgement-task,180,1037697,0.0-46.0-6.0-0.0-1.0-4.0,,,,,,,,,,1.0,1.0,,,,5c3205407e0559000172f153,21:15:19,02/04/2024
,"<div style=""font-size: 10rem; color: #0000FF"">J</div>",,ospan,letter,YwrWTxZkn4fFf2UNQWDWOJb8M4u1,html-keyboard-response,181,1038712,0.0-46.0-6.0-0.0-1.0-5.0,,,,,,,,,,,,,,,5c3205407e0559000172f153,21:15:19,02/04/2024
1679.0,,,ospan,symmetry,YwrWTxZkn4fFf2UNQWDWOJb8M4u1,symmetry-judgement-task,182,1042281,0.0-46.0-6.0-0.0-1.0-6.0,,,,,,,,,,1.0,1.0,,,,5c3205407e0559000172f153,21:15:19,02/04/2024
,"<div style=""font-size: 10rem; color: #0000FF"">N</div>",,ospan,letter,YwrWTxZkn4fFf2UNQWDWOJb8M4u1,html-keyboard-response,183,1043298,0.0-46.0-6.0-0.0-1.0-7.0,,,,,,,,,,,,,,,5c3205407e0559000172f153,21:15:19,02/04/2024
1260.0,,,ospan,symmetry,YwrWTxZkn4fFf2UNQWDWOJb8M4u1,symmetry-judgement-task,184,1046446,0.0-46.0-6.0-0.0-1.0-8.0,,,,,,,,,,1.0,1.0,,,,5c3205407e0559000172f153,21:15:19,02/04/2024
,"<div style=""font-size: 10rem; color: #0000FF"">Y</div>",,ospan,letter,YwrWTxZkn4fFf2UNQWDWOJb8M4u1,html-keyboard-response,185,1047460,0.0-46.0-6.0-0.0-1.0-9.0,,,,,,,,,,,,,,,5c3205407e0559000172f153,21:15:19,02/04/2024
6944.200000047684,"<div class = numbox><p style=""font-size: 2.4rem"">Please recall the letters you saw to the best of your ability. If you do not remember a particular letter, use the SKIP button.<br><b>(When you are ready to lock in your answer, press ENTER)</b></p><button id = button_1 class = ""square num-button"" onclick = ""recordClick(this)""><div class = content><div class = numbers>C</div></div></button><button id = button_2 class = ""square num-button"" onclick = ""recordClick(this)""><div class = content><div class = numbers>G</div></div></button><button id = button_3 class = ""square num-button"" onclick = ""recordClick(this)""><div class = content><div class = numbers>H</div></div></button><button id = button_4 class = ""square num-button"" onclick = ""recordClick(this)""><div class = content><div class = numbers>J</div></div></button><button id = button_5 class = ""square num-button"" onclick = ""recordClick(this)""><div class = content><div class = numbers>K</div></div></button><button id = button_6 class = ""square num-button"" onclick = ""recordClick(this)""><div class = content><div class = numbers>L</div></div></button><button id = button_7 class = ""square num-button"" onclick = ""recordClick(this)""><div class = content><div class = numbers>N</div></div></button><button id = button_8 class = ""square num-button"" onclick = ""recordClick(this)""><div class = content><div class = numbers>P</div></div></button><button id = button_9 class = ""square num-button"" onclick = ""recordClick(this)""><div class = content><div class = numbers>Q</div></div></button><button id = button_10 class = ""square num-button"" onclick = ""recordClick(this)""><div class = content><div class = numbers>R</div></div></button><button id = button_11 class = ""square num-button"" onclick = ""recordClick(this)""><div class = content><div class = numbers>S</div></div></button><button id = button_12 class = ""square num-button"" onclick = ""recordClick(this)""><div class = content><div class = numbers>Y</div></div></button><button class = clear_button id = ""ClearButton"" onclick = ""clearResponse()"">BACKSPACE</button><button class = blank_button id = ""BlankButton"" onclick = ""blankResponse()"">SKIP</button><p style=""font-size: 2.4rem""><u><b>Current Answer:</b></u></p><br><br><div id=echoed_txt style=""font-size: 5rem; color:blue;""><b></b></div></div>",enter,ospan,retrieval,YwrWTxZkn4fFf2UNQWDWOJb8M4u1,html-keyboard-response,186,1055159,0.0-46.0-6.0-0.0-2.0,33,29,20,5.0,"[""C"",""K"",""J"",""N"",""Y""]","[""C"",""K"",""J"",""N"",""Y""]",1.0,5.0,,,,,,,5c3205407e0559000172f153,21:15:19,02/04/2024
1157.2000000476837,[''],0,ospan,feedback,YwrWTxZkn4fFf2UNQWDWOJb8M4u1,html-button-response,187,1056818,0.0-46.0-6.0-0.0-3.0,,,,,,,,,,,,100.0,0.0,,5c3205407e0559000172f153,21:15:19,02/04/2024
,"<p style=""font-size:75px;"">...</p>",,ospan,iti,YwrWTxZkn4fFf2UNQWDWOJb8M4u1,html-keyboard-response,188,1057829,0.0-46.0-6.0-1.0-0.0,,,,,,,,,,,,,,,5c3205407e0559000172f153,21:15:19,02/04/2024
1672.0,,,ospan,symmetry,YwrWTxZkn4fFf2UNQWDWOJb8M4u1,symmetry-judgement-task,189,1060612,0.0-46.0-6.0-1.0-1.0-0.0,,,,,,,,,,1.0,1.0,,,,5c3205407e0559000172f153,21:15:19,02/04/2024
,"<div style=""font-size: 10rem; color: #0000FF"">L</div>",,ospan,letter,YwrWTxZkn4fFf2UNQWDWOJb8M4u1,html-keyboard-response,190,1061626,0.0-46.0-6.0-1.0-1.0-1.0,,,,,,,,,,,,,,,5c3205407e0559000172f153,21:15:19,02/04/2024
1047.0,,,ospan,symmetry,YwrWTxZkn4fFf2UNQWDWOJb8M4u1,symmetry-judgement-task,191,1064548,0.0-46.0-6.0-1.0-1.0-2.0,,,,,,,,,,1.0,1.0,,,,5c3205407e0559000172f153,21:15:19,02/04/2024
,"<div style=""font-size: 10rem; color: #0000FF"">N</div>",,ospan,letter,YwrWTxZkn4fFf2UNQWDWOJb8M4u1,html-keyboard-response,192,1065559,0.0-46.0-6.0-1.0-1.0-3.0,,,,,,,,,,,,,,,5c3205407e0559000172f153,21:15:19,02/04/2024
1533.0,,,ospan,symmetry,YwrWTxZkn4fFf2UNQWDWOJb8M4u1,symmetry-judgement-task,193,1068974,0.0-46.0-6.0-1.0-1.0-4.0,,,,,,,,,,1.0,1.0,,,,5c3205407e0559000172f153,21:15:19,02/04/2024
,"<div style=""font-size: 10rem; color: #0000FF"">Y</div>",,ospan,letter,YwrWTxZkn4fFf2UNQWDWOJb8M4u1,html-keyboard-response,194,1069977,0.0-46.0-6.0-1.0-1.0-5.0,,,,,,,,,,,,,,,5c3205407e0559000172f153,21:15:19,02/04/2024
2570.0,,,ospan,symmetry,YwrWTxZkn4fFf2UNQWDWOJb8M4u1,symmetry-judgement-task,195,1074426,0.0-46.0-6.0-1.0-1.0-6.0,,,,,,,,,,1.0,1.0,,,,5c3205407e0559000172f153,21:15:19,02/04/2024
,"<div style=""font-size: 10rem; color: #0000FF"">K</div>",,ospan,letter,YwrWTxZkn4fFf2UNQWDWOJb8M4u1,html-keyboard-response,196,1075429,0.0-46.0-6.0-1.0-1.0-7.0,,,,,,,,,,,,,,,5c3205407e0559000172f153,21:15:19,02/04/2024
1029.0,,,ospan,symmetry,YwrWTxZkn4fFf2UNQWDWOJb8M4u1,symmetry-judgement-task,197,1078347,0.0-46.0-6.0-1.0-1.0-8.0,,,,,,,,,,1.0,1.0,,,,5c3205407e0559000172f153,21:15:19,02/04/2024
,"<div style=""font-size: 10rem; color: #0000FF"">R</div>",,ospan,letter,YwrWTxZkn4fFf2UNQWDWOJb8M4u1,html-keyboard-response,198,1079362,0.0-46.0-6.0-1.0-1.0-9.0,,,,,,,,,,,,,,,5c3205407e0559000172f153,21:15:19,02/04/2024
1794.0,,,ospan,symmetry,YwrWTxZkn4fFf2UNQWDWOJb8M4u1,symmetry-judgement-task,199,1083029,0.0-46.0-6.0-1.0-1.0-10.0,,,,,,,,,,1.0,1.0,,,,5c3205407e0559000172f153,21:15:19,02/04/2024
,"<div style=""font-size: 10rem; color: #0000FF"">P</div>",,ospan,letter,YwrWTxZkn4fFf2UNQWDWOJb8M4u1,html-keyboard-response,200,1084031,0.0-46.0-6.0-1.0-1.0-11.0,,,,,,,,,,,,,,,5c3205407e0559000172f153,21:15:19,02/04/2024
972.0,,,ospan,symmetry,YwrWTxZkn4fFf2UNQWDWOJb8M4u1,symmetry-judgement-task,201,1086877,0.0-46.0-6.0-1.0-1.0-12.0,,,,,,,,,,1.0,1.0,,,,5c3205407e0559000172f153,21:15:19,02/04/2024
,"<div style=""font-size: 10rem; color: #0000FF"">S</div>",,ospan,letter,YwrWTxZkn4fFf2UNQWDWOJb8M4u1,html-keyboard-response,202,1087889,0.0-46.0-6.0-1.0-1.0-13.0,,,,,,,,,,,,,,,5c3205407e0559000172f153,21:15:19,02/04/2024
1040.0,,,ospan,symmetry,YwrWTxZkn4fFf2UNQWDWOJb8M4u1,symmetry-judgement-task,203,1090810,0.0-46.0-6.0-1.0-1.0-14.0,,,,,,,,,,1.0,1.0,,,,5c3205407e0559000172f153,21:15:19,02/04/2024
,"<div style=""font-size: 10rem; color: #0000FF"">C</div>",,ospan,letter,YwrWTxZkn4fFf2UNQWDWOJb8M4u1,html-keyboard-response,204,1091821,0.0-46.0-6.0-1.0-1.0-15.0,,,,,,,,,,,,,,,5c3205407e0559000172f153,21:15:19,02/04/2024
13100.100000143051,"<div class = numbox><p style=""font-size: 2.4rem"">Please recall the letters you saw to the best of your ability. If you do not remember a particular letter, use the SKIP button.<br><b>(When you are ready to lock in your answer, press ENTER)</b></p><button id = button_1 class = ""square num-button"" onclick = ""recordClick(this)""><div class = content><div class = numbers>C</div></div></button><button id = button_2 class = ""square num-button"" onclick = ""recordClick(this)""><div class = content><div class = numbers>G</div></div></button><button id = button_3 class = ""square num-button"" onclick = ""recordClick(this)""><div class = content><div class = numbers>H</div></div></button><button id = button_4 class = ""square num-button"" onclick = ""recordClick(this)""><div class = content><div class = numbers>J</div></div></button><button id = button_5 class = ""square num-button"" onclick = ""recordClick(this)""><div class = content><div class = numbers>K</div></div></button><button id = button_6 class = ""square num-button"" onclick = ""recordClick(this)""><div class = content><div class = numbers>L</div></div></button><button id = button_7 class = ""square num-button"" onclick = ""recordClick(this)""><div class = content><div class = numbers>N</div></div></button><button id = button_8 class = ""square num-button"" onclick = ""recordClick(this)""><div class = content><div class = numbers>P</div></div></button><button id = button_9 class = ""square num-button"" onclick = ""recordClick(this)""><div class = content><div class = numbers>Q</div></div></button><button id = button_10 class = ""square num-button"" onclick = ""recordClick(this)""><div class = content><div class = numbers>R</div></div></button><button id = button_11 class = ""square num-button"" onclick = ""recordClick(this)""><div class = content><div class = numbers>S</div></div></button><button id = button_12 class = ""square num-button"" onclick = ""recordClick(this)""><div class = content><div class = numbers>Y</div></div></button><button class = clear_button id = ""ClearButton"" onclick = ""clearResponse()"">BACKSPACE</button><button class = blank_button id = ""BlankButton"" onclick = ""blankResponse()"">SKIP</button><p style=""font-size: 2.4rem""><u><b>Current Answer:</b></u></p><br><br><div id=echoed_txt style=""font-size: 5rem; color:blue;""><b></b></div></div>",enter,ospan,retrieval,YwrWTxZkn4fFf2UNQWDWOJb8M4u1,html-keyboard-response,205,1105680,0.0-46.0-6.0-1.0-2.0,41,36,20,8.0,"[""L"",""N"",""Y"",""K"",""R"",""P"",""S"",""G""]","[""L"",""N"",""Y"",""K"",""R"",""P"",""S"",""C""]",0.0,7.0,,,,,,,5c3205407e0559000172f153,21:15:19,02/04/2024
1687.7999999523163,[''],0,ospan,feedback,YwrWTxZkn4fFf2UNQWDWOJb8M4u1,html-button-response,206,1107872,0.0-46.0-6.0-1.0-3.0,,,,,,,,,,,,100.0,0.0,,5c3205407e0559000172f153,21:15:19,02/04/2024
17830.799999952316,,"{'Q0': ""I enjoyed it when it was easy and I was doing well and less so when I wasn't""}",ospan,survey_ospan,YwrWTxZkn4fFf2UNQWDWOJb8M4u1,lmdlab-survey-text,207,1126460,0.0-46.0-7.0,,,,,,,,,,,,,,YwrWTxZkn4fFf2UNQWDWOJb8M4u1,5c3205407e0559000172f153,21:15:19,02/04/2024
1372.4000000953674,<p><p style='font-size: 3rem'>Great work!<br><br>This completes the symmetry and memory task.</p><br><br><br>,0,ospan,finish,YwrWTxZkn4fFf2UNQWDWOJb8M4u1,html-button-response,208,1127837,0.0-46.0-8.0,41,36,20,,,,,,,,,100.0,,,5c3205407e0559000172f153,21:15:19,02/04/2024
