rt,stimulus,response,exp_name,exp_stage,subjectID,trial_type,trial_index,time_elapsed,internal_node_id,ospan_shown,ospan_total,ospan_abs,length,resp_actual,resp_correct,full_correct,num_correct,feedback,accuracy,correct,math_acc,math_warning,databaseID,prolificID,start_time,date
3456.8000000044703,<div class = 'left_align' style='font-size: 3.25rem; line-height: 1.3;'><p class = 'center_align'><b>Welcome to the Symmetry and Memory Task</b><br><br><br><br></p>Press 'continue' to show the instructions.<br><br><br><br></div>,0,ospan,instruct,XCPZqqxtxOg88vvX2RqdBpCuaF62,html-button-response,54,464509,0.0-46.0-0.0-0.0-0.0,,,,,,,,,,,,,,,63d8c185bbfa79d8246dd97b,08:50:39,03/04/2024
7445.20000000298,"<div class = 'left_align' style='font-size: 3.25rem; line-height: 1.3;'><p class = 'center_align'><b>Symmetry and Memory Task</b><br><br></p>In this task, you will try to memorize letters you see on the screen<br>while you also view black and white grid pictures.<br><br>In the next few minutes, you will have some practice to get you familiar<br>with how the task works.<br><br>It may be difficult sometimes, but please do not worry about making mistakes!<br><br>We will begin by practicing the letter part of the task.<br><br><br><br></div>",0,ospan,instruct,XCPZqqxtxOg88vvX2RqdBpCuaF62,html-button-response,55,472204,0.0-46.0-0.0-0.0-1.0,,,,,,,,,,,,,,,63d8c185bbfa79d8246dd97b,08:50:39,03/04/2024
25348.30000000447,"<div class = 'left_align' style='font-size: 3.25rem; line-height: 1.3;'>For this practice part, letters will appear on the screen one at a time.<br><br>Try to remember each letter in the order presented.<br><br>After some letters have been shown, you will see a response screen. Your<br>goal is to report the letters you saw <b>in order</b>. If you do not remember<br>a particular letter, you will have the option to leave it blank.<br><br><br><br></div>",0,ospan,instruct,XCPZqqxtxOg88vvX2RqdBpCuaF62,html-button-response,56,497804,0.0-46.0-0.0-0.0-2.0,,,,,,,,,,,,,,,63d8c185bbfa79d8246dd97b,08:50:39,03/04/2024
2479.2000000029802,"<div class = 'left_align' style='font-size: 3.25rem; line-height: 1.3;'>Remember, it is very important to get the letters in the same<br>order as you see them.<br><br>When you are ready, you may begin the letter practice.</div><br><br><br><br>",0,ospan,instruct,XCPZqqxtxOg88vvX2RqdBpCuaF62,html-button-response,57,500549,0.0-46.0-0.0-0.0-3.0,,,,,,,,,,,,,,,63d8c185bbfa79d8246dd97b,08:50:39,03/04/2024
,"<p style=""font-size:75px;"">...</p>",,ospan,iti,XCPZqqxtxOg88vvX2RqdBpCuaF62,html-keyboard-response,58,501816,0.0-46.0-0.0-1.0-0.0,,,,,,,,,,,,,,,63d8c185bbfa79d8246dd97b,08:50:39,03/04/2024
,"<div style=""font-size: 10rem; color: #0000FF"">R</div>",,ospan,letter,XCPZqqxtxOg88vvX2RqdBpCuaF62,html-keyboard-response,59,502832,0.0-46.0-0.0-1.0-1.0,,,,,,,,,,,,,,,63d8c185bbfa79d8246dd97b,08:50:39,03/04/2024
,"<div style=""font-size: 10rem; color: #0000FF"">Y</div>",,ospan,letter,XCPZqqxtxOg88vvX2RqdBpCuaF62,html-keyboard-response,60,504588,0.0-46.0-0.0-1.0-2.0,,,,,,,,,,,,,,,63d8c185bbfa79d8246dd97b,08:50:39,03/04/2024
6972.69999999553,"<div class = numbox><p style=""font-size: 2.4rem"">Please recall the letters you saw to the best of your ability. If you do not remember a particular letter, use the SKIP button.<br><b>(When you are ready to lock in your answer, press ENTER)</b></p><button id = button_1 class = ""square num-button"" onclick = ""recordClick(this)""><div class = content><div class = numbers>C</div></div></button><button id = button_2 class = ""square num-button"" onclick = ""recordClick(this)""><div class = content><div class = numbers>G</div></div></button><button id = button_3 class = ""square num-button"" onclick = ""recordClick(this)""><div class = content><div class = numbers>H</div></div></button><button id = button_4 class = ""square num-button"" onclick = ""recordClick(this)""><div class = content><div class = numbers>J</div></div></button><button id = button_5 class = ""square num-button"" onclick = ""recordClick(this)""><div class = content><div class = numbers>K</div></div></button><button id = button_6 class = ""square num-button"" onclick = ""recordClick(this)""><div class = content><div class = numbers>L</div></div></button><button id = button_7 class = ""square num-button"" onclick = ""recordClick(this)""><div class = content><div class = numbers>N</div></div></button><button id = button_8 class = ""square num-button"" onclick = ""recordClick(this)""><div class = content><div class = numbers>P</div></div></button><button id = button_9 class = ""square num-button"" onclick = ""recordClick(this)""><div class = content><div class = numbers>Q</div></div></button><button id = button_10 class = ""square num-button"" onclick = ""recordClick(this)""><div class = content><div class = numbers>R</div></div></button><button id = button_11 class = ""square num-button"" onclick = ""recordClick(this)""><div class = content><div class = numbers>S</div></div></button><button id = button_12 class = ""square num-button"" onclick = ""recordClick(this)""><div class = content><div class = numbers>Y</div></div></button><button class = clear_button id = ""ClearButton"" onclick = ""clearResponse()"">BACKSPACE</button><button class = blank_button id = ""BlankButton"" onclick = ""blankResponse()"">SKIP</button><p style=""font-size: 2.4rem""><u><b>Current Answer:</b></u></p><br><br><div id=echoed_txt style=""font-size: 5rem; color:blue;""><b></b></div></div>",enter,ospan,retrieval,XCPZqqxtxOg88vvX2RqdBpCuaF62,html-keyboard-response,61,512315,0.0-46.0-0.0-1.0-3.0,NA,NA,NA,2.0,"[""R"",""Y""]","[""R"",""Y""]",1.0,2.0,"['<font color=""green"">R</font>', '<font color=""green"">Y</font>']",,,,,,63d8c185bbfa79d8246dd97b,08:50:39,03/04/2024
1633.3000000044703,"['<p style=""font-size:44px"">Letters:<br><br><br><font color=""green"">R</font> <font color=""green"">Y</font></p><br><br>']",0,ospan,practice_feedback,XCPZqqxtxOg88vvX2RqdBpCuaF62,html-button-response,62,514453,0.0-46.0-0.0-1.0-4.0,,,,,,,,,,,,,,,63d8c185bbfa79d8246dd97b,08:50:39,03/04/2024
,"<p style=""font-size:75px;"">...</p>",,ospan,iti,XCPZqqxtxOg88vvX2RqdBpCuaF62,html-keyboard-response,63,515456,0.0-46.0-0.0-2.0-0.0,,,,,,,,,,,,,,,63d8c185bbfa79d8246dd97b,08:50:39,03/04/2024
,"<div style=""font-size: 10rem; color: #0000FF"">Y</div>",,ospan,letter,XCPZqqxtxOg88vvX2RqdBpCuaF62,html-keyboard-response,64,516457,0.0-46.0-0.0-2.0-1.0,,,,,,,,,,,,,,,63d8c185bbfa79d8246dd97b,08:50:39,03/04/2024
,"<div style=""font-size: 10rem; color: #0000FF"">Q</div>",,ospan,letter,XCPZqqxtxOg88vvX2RqdBpCuaF62,html-keyboard-response,65,518215,0.0-46.0-0.0-2.0-2.0,,,,,,,,,,,,,,,63d8c185bbfa79d8246dd97b,08:50:39,03/04/2024
,"<div style=""font-size: 10rem; color: #0000FF"">H</div>",,ospan,letter,XCPZqqxtxOg88vvX2RqdBpCuaF62,html-keyboard-response,66,519971,0.0-46.0-0.0-2.0-3.0,,,,,,,,,,,,,,,63d8c185bbfa79d8246dd97b,08:50:39,03/04/2024
2911.7999999970198,"<div class = numbox><p style=""font-size: 2.4rem"">Please recall the letters you saw to the best of your ability. If you do not remember a particular letter, use the SKIP button.<br><b>(When you are ready to lock in your answer, press ENTER)</b></p><button id = button_1 class = ""square num-button"" onclick = ""recordClick(this)""><div class = content><div class = numbers>C</div></div></button><button id = button_2 class = ""square num-button"" onclick = ""recordClick(this)""><div class = content><div class = numbers>G</div></div></button><button id = button_3 class = ""square num-button"" onclick = ""recordClick(this)""><div class = content><div class = numbers>H</div></div></button><button id = button_4 class = ""square num-button"" onclick = ""recordClick(this)""><div class = content><div class = numbers>J</div></div></button><button id = button_5 class = ""square num-button"" onclick = ""recordClick(this)""><div class = content><div class = numbers>K</div></div></button><button id = button_6 class = ""square num-button"" onclick = ""recordClick(this)""><div class = content><div class = numbers>L</div></div></button><button id = button_7 class = ""square num-button"" onclick = ""recordClick(this)""><div class = content><div class = numbers>N</div></div></button><button id = button_8 class = ""square num-button"" onclick = ""recordClick(this)""><div class = content><div class = numbers>P</div></div></button><button id = button_9 class = ""square num-button"" onclick = ""recordClick(this)""><div class = content><div class = numbers>Q</div></div></button><button id = button_10 class = ""square num-button"" onclick = ""recordClick(this)""><div class = content><div class = numbers>R</div></div></button><button id = button_11 class = ""square num-button"" onclick = ""recordClick(this)""><div class = content><div class = numbers>S</div></div></button><button id = button_12 class = ""square num-button"" onclick = ""recordClick(this)""><div class = content><div class = numbers>Y</div></div></button><button class = clear_button id = ""ClearButton"" onclick = ""clearResponse()"">BACKSPACE</button><button class = blank_button id = ""BlankButton"" onclick = ""blankResponse()"">SKIP</button><p style=""font-size: 2.4rem""><u><b>Current Answer:</b></u></p><br><br><div id=echoed_txt style=""font-size: 5rem; color:blue;""><b></b></div></div>",enter,ospan,retrieval,XCPZqqxtxOg88vvX2RqdBpCuaF62,html-keyboard-response,67,523641,0.0-46.0-0.0-2.0-4.0,NA,NA,NA,3.0,"[""Y"",""Q"",""H""]","[""Y"",""Q"",""H""]",1.0,3.0,"['<font color=""green"">Y</font>', '<font color=""green"">Q</font>', '<font color=""green"">H</font>']",,,,,,63d8c185bbfa79d8246dd97b,08:50:39,03/04/2024
1146.3000000044703,"['<p style=""font-size:44px"">Letters:<br><br><br><font color=""green"">Y</font> <font color=""green"">Q</font> <font color=""green"">H</font></p><br><br>']",0,ospan,practice_feedback,XCPZqqxtxOg88vvX2RqdBpCuaF62,html-button-response,68,525293,0.0-46.0-0.0-2.0-5.0,,,,,,,,,,,,,,,63d8c185bbfa79d8246dd97b,08:50:39,03/04/2024
7895.20000000298,"<div class = 'left_align' style='font-size: 3.25rem; line-height: 1.3;'>Now you will practice doing the <b>symmetry judgment part</b> of the experiment.<br><br>A black and white grid picture will appear on the screen and you have to judge if it is <br>symmetrical or asymetrical.<br><br>A picture is 'mirror' symmetrical if its left half is identical to the right half when flipped.<br>Here are examples of a symmetrical and an asymetrical picture:<br><br><center><img src='Stimuli/img/symm_instructions_extra.png' style='height:420px; width:900'></img></center><br>To judge symmetry, imagine you were to fold each picture down the middle, like a book –<br>would the left half match the right half when folded onto each other?<br><br></div><br>",0,ospan,instruct,XCPZqqxtxOg88vvX2RqdBpCuaF62,html-button-response,69,533189,0.0-46.0-1.0-0.0-0.0,,,,,,,,,,,,,,,63d8c185bbfa79d8246dd97b,08:50:39,03/04/2024
6164.5,"<div class = 'left_align' style='font-size: 3.25rem; line-height: 1.3;'>When you have viewed the picture and determined whether it is symmetrical or not,<br>you can <b>click the Yes or No button</b> below to answer.<br><br>If you take longer than 15 seconds, it will continue automatically<br>and record the answer as an error.</div><br>",0,ospan,instruct,XCPZqqxtxOg88vvX2RqdBpCuaF62,html-button-response,70,539605,0.0-46.0-1.0-0.0-1.0,,,,,,,,,,,,,,,63d8c185bbfa79d8246dd97b,08:50:39,03/04/2024
5276.10000000149,"<div class = 'left_align' style='font-size: 3.25rem; line-height: 1.3;'>It is <b>very</b> important that you make the symmetry judgment correctly.<br><br>It is also important that you try and judge the picture as quickly as you can.<br><br>When you are ready, click on the button below to try some practice problems.</div><br><br><br><br>",0,ospan,instruct,XCPZqqxtxOg88vvX2RqdBpCuaF62,html-button-response,71,545141,0.0-46.0-1.0-0.0-2.0,,,,,,,,,,,,,,,63d8c185bbfa79d8246dd97b,08:50:39,03/04/2024
1779.0,,,ospan,symmetry,XCPZqqxtxOg88vvX2RqdBpCuaF62,symmetry-judgement-task,72,547697,0.0-46.0-1.0-1.0-0.0,,,,,,,,,,1.0,1.0,,,,63d8c185bbfa79d8246dd97b,08:50:39,03/04/2024
,"<p style=""color:green; font-size: 35px"">Correct</p>",,ospan,feedback,XCPZqqxtxOg88vvX2RqdBpCuaF62,html-keyboard-response,73,548456,0.0-46.0-1.0-1.0-1.0,,,,,,,,,,,,,,,63d8c185bbfa79d8246dd97b,08:50:39,03/04/2024
4374.0,,,ospan,symmetry,XCPZqqxtxOg88vvX2RqdBpCuaF62,symmetry-judgement-task,74,555445,0.0-46.0-1.0-1.0-2.0,,,,,,,,,,1.0,1.0,,,,63d8c185bbfa79d8246dd97b,08:50:39,03/04/2024
,"<p style=""color:green; font-size: 35px"">Correct</p>",,ospan,feedback,XCPZqqxtxOg88vvX2RqdBpCuaF62,html-keyboard-response,75,556195,0.0-46.0-1.0-1.0-3.0,,,,,,,,,,,,,,,63d8c185bbfa79d8246dd97b,08:50:39,03/04/2024
2431.0,,,ospan,symmetry,XCPZqqxtxOg88vvX2RqdBpCuaF62,symmetry-judgement-task,76,561269,0.0-46.0-1.0-1.0-4.0,,,,,,,,,,1.0,1.0,,,,63d8c185bbfa79d8246dd97b,08:50:39,03/04/2024
,"<p style=""color:green; font-size: 35px"">Correct</p>",,ospan,feedback,XCPZqqxtxOg88vvX2RqdBpCuaF62,html-keyboard-response,77,562025,0.0-46.0-1.0-1.0-5.0,,,,,,,,,,,,,,,63d8c185bbfa79d8246dd97b,08:50:39,03/04/2024
2108.0999999940395,"<p style=""font-size: 3rem;"">You responded correctly on 3 of 3 symmetry judgments. Good job!</p><br><br>",0,ospan,practice,XCPZqqxtxOg88vvX2RqdBpCuaF62,html-button-response,78,566141,0.0-46.0-1.0-2.0,,,,,,,,,,,,,,,63d8c185bbfa79d8246dd97b,08:50:39,03/04/2024
9765.10000000149,"<div class = 'left_align' style='font-size: 3.25rem; line-height: 1.3;'>Now you will practice doing both parts of the experiment at the same time.<br><br>In the next practice set, you will be given one grid picture to judge.<br>Then letter will appear on the screen. Try to remember the letter.<br><br>It is <b>very important</b> to make the symmetry judgment as quickly and accurately as possible.<br><br>Just as before, once you have make the symmetry judgment, you can click Yes or No.<br><b>Note that you will no longer see Correct or Incorrect feedback.</div><br><br><br><br>",0,ospan,instruct,XCPZqqxtxOg88vvX2RqdBpCuaF62,html-button-response,79,576157,0.0-46.0-2.0-0.0-0.0,,,,,,,,,,,,,,,63d8c185bbfa79d8246dd97b,08:50:39,03/04/2024
1860.1999999955297,"<div class = 'left_align' style='font-size: 3.25rem; line-height: 1.3;'>After the letter goes away, another grid picture will appear, and then<br>another letter.<br><br>At the end of each set of letters and grids, you will recall the letters to the best<br>of your ability. Remember, try your best to get the letters in the correct order.<br><br>It is important to <b>quickly</b> and <b>accurately</b> make the symmetry judgments.</div><br><br><br><br>",0,ospan,instruct,XCPZqqxtxOg88vvX2RqdBpCuaF62,html-button-response,80,578269,0.0-46.0-2.0-0.0-1.0,,,,,,,,,,,,,,,63d8c185bbfa79d8246dd97b,08:50:39,03/04/2024
7380.4000000059605,"<div class = 'left_align' style='font-size: 3.25rem; line-height: 1.3;'>On the feedback screen, if you are not doing well at the symmetry judgments,<br>you will also see a warning in the middle. This indicates your percent <br>correct for the grid pictures for the entire experiment.<br><br>It is <b>very</b> important for you to keep accuracy at least at 85%: <u>We can only use<br>data where the participant was at least 85% accurate on the judgments.</u> Therefore,<br> please try your best to perform well on the symmetry judgments, <b>at the same time</b><br>doing your best to recall as many letters as possible.<br><br>Click the button to try some practice problems.</div><br><br><br><br>",0,ospan,instruct,XCPZqqxtxOg88vvX2RqdBpCuaF62,html-button-response,81,585901,0.0-46.0-2.0-0.0-2.0,,,,,,,,,,,,,,,63d8c185bbfa79d8246dd97b,08:50:39,03/04/2024
,"<p style=""font-size:75px;"">...</p>",,ospan,iti,XCPZqqxtxOg88vvX2RqdBpCuaF62,html-keyboard-response,82,587163,0.0-46.0-2.0-1.0-0.0,,,,,,,,,,,,,,,63d8c185bbfa79d8246dd97b,08:50:39,03/04/2024
1819.0,,,ospan,symmetry,XCPZqqxtxOg88vvX2RqdBpCuaF62,symmetry-judgement-task,83,590097,0.0-46.0-2.0-1.0-1.0-0.0,,,,,,,,,,1.0,1.0,,,,63d8c185bbfa79d8246dd97b,08:50:39,03/04/2024
,"<div style=""font-size: 10rem; color: #0000FF"">K</div>",,ospan,letter,XCPZqqxtxOg88vvX2RqdBpCuaF62,html-keyboard-response,84,591100,0.0-46.0-2.0-1.0-1.0-1.0,,,,,,,,,,,,,,,63d8c185bbfa79d8246dd97b,08:50:39,03/04/2024
1676.0,,,ospan,symmetry,XCPZqqxtxOg88vvX2RqdBpCuaF62,symmetry-judgement-task,85,594651,0.0-46.0-2.0-1.0-1.0-2.0,,,,,,,,,,1.0,1.0,,,,63d8c185bbfa79d8246dd97b,08:50:39,03/04/2024
,"<div style=""font-size: 10rem; color: #0000FF"">J</div>",,ospan,letter,XCPZqqxtxOg88vvX2RqdBpCuaF62,html-keyboard-response,86,595655,0.0-46.0-2.0-1.0-1.0-3.0,,,,,,,,,,,,,,,63d8c185bbfa79d8246dd97b,08:50:39,03/04/2024
1520.0,,,ospan,symmetry,XCPZqqxtxOg88vvX2RqdBpCuaF62,symmetry-judgement-task,87,599047,0.0-46.0-2.0-1.0-1.0-4.0,,,,,,,,,,1.0,1.0,,,,63d8c185bbfa79d8246dd97b,08:50:39,03/04/2024
,"<div style=""font-size: 10rem; color: #0000FF"">Y</div>",,ospan,letter,XCPZqqxtxOg88vvX2RqdBpCuaF62,html-keyboard-response,88,600053,0.0-46.0-2.0-1.0-1.0-5.0,,,,,,,,,,,,,,,63d8c185bbfa79d8246dd97b,08:50:39,03/04/2024
3359.39999999851,"<div class = numbox><p style=""font-size: 2.4rem"">Please recall the letters you saw to the best of your ability. If you do not remember a particular letter, use the SKIP button.<br><b>(When you are ready to lock in your answer, press ENTER)</b></p><button id = button_1 class = ""square num-button"" onclick = ""recordClick(this)""><div class = content><div class = numbers>C</div></div></button><button id = button_2 class = ""square num-button"" onclick = ""recordClick(this)""><div class = content><div class = numbers>G</div></div></button><button id = button_3 class = ""square num-button"" onclick = ""recordClick(this)""><div class = content><div class = numbers>H</div></div></button><button id = button_4 class = ""square num-button"" onclick = ""recordClick(this)""><div class = content><div class = numbers>J</div></div></button><button id = button_5 class = ""square num-button"" onclick = ""recordClick(this)""><div class = content><div class = numbers>K</div></div></button><button id = button_6 class = ""square num-button"" onclick = ""recordClick(this)""><div class = content><div class = numbers>L</div></div></button><button id = button_7 class = ""square num-button"" onclick = ""recordClick(this)""><div class = content><div class = numbers>N</div></div></button><button id = button_8 class = ""square num-button"" onclick = ""recordClick(this)""><div class = content><div class = numbers>P</div></div></button><button id = button_9 class = ""square num-button"" onclick = ""recordClick(this)""><div class = content><div class = numbers>Q</div></div></button><button id = button_10 class = ""square num-button"" onclick = ""recordClick(this)""><div class = content><div class = numbers>R</div></div></button><button id = button_11 class = ""square num-button"" onclick = ""recordClick(this)""><div class = content><div class = numbers>S</div></div></button><button id = button_12 class = ""square num-button"" onclick = ""recordClick(this)""><div class = content><div class = numbers>Y</div></div></button><button class = clear_button id = ""ClearButton"" onclick = ""clearResponse()"">BACKSPACE</button><button class = blank_button id = ""BlankButton"" onclick = ""blankResponse()"">SKIP</button><p style=""font-size: 2.4rem""><u><b>Current Answer:</b></u></p><br><br><div id=echoed_txt style=""font-size: 5rem; color:blue;""><b></b></div></div>",enter,ospan,retrieval,XCPZqqxtxOg88vvX2RqdBpCuaF62,html-keyboard-response,89,604170,0.0-46.0-2.0-1.0-2.0-0.0,NA,NA,NA,3.0,"[""K"",""J"",""Y""]","[""K"",""J"",""Y""]",1.0,3.0,"['<font color=""green"">K</font>', '<font color=""green"">J</font>', '<font color=""green"">Y</font>']",,,,,,63d8c185bbfa79d8246dd97b,08:50:39,03/04/2024
1225.0,"['<p style=""font-size:44px"">Letters:<br><br><br><font color=""green"">K</font> <font color=""green"">J</font> <font color=""green"">Y</font></p><br><br><p style=""font-size:30px"">Symmetry:<br><br><font color=""green"">100%</font></p><br><br>']",0,ospan,practice_feedback,XCPZqqxtxOg88vvX2RqdBpCuaF62,html-button-response,90,605909,0.0-46.0-2.0-1.0-2.0-1.0,,,,,,,,,,,,,,,63d8c185bbfa79d8246dd97b,08:50:39,03/04/2024
,"<p style=""font-size:75px;"">...</p>",,ospan,iti,XCPZqqxtxOg88vvX2RqdBpCuaF62,html-keyboard-response,91,606922,0.0-46.0-2.0-2.0-0.0,,,,,,,,,,,,,,,63d8c185bbfa79d8246dd97b,08:50:39,03/04/2024
1450.0,,,ospan,symmetry,XCPZqqxtxOg88vvX2RqdBpCuaF62,symmetry-judgement-task,92,609403,0.0-46.0-2.0-2.0-1.0-0.0,,,,,,,,,,1.0,1.0,,,,63d8c185bbfa79d8246dd97b,08:50:39,03/04/2024
,"<div style=""font-size: 10rem; color: #0000FF"">N</div>",,ospan,letter,XCPZqqxtxOg88vvX2RqdBpCuaF62,html-keyboard-response,93,610407,0.0-46.0-2.0-2.0-1.0-1.0,,,,,,,,,,,,,,,63d8c185bbfa79d8246dd97b,08:50:39,03/04/2024
1053.0,,,ospan,symmetry,XCPZqqxtxOg88vvX2RqdBpCuaF62,symmetry-judgement-task,94,613337,0.0-46.0-2.0-2.0-1.0-2.0,,,,,,,,,,1.0,1.0,,,,63d8c185bbfa79d8246dd97b,08:50:39,03/04/2024
,"<div style=""font-size: 10rem; color: #0000FF"">H</div>",,ospan,letter,XCPZqqxtxOg88vvX2RqdBpCuaF62,html-keyboard-response,95,614339,0.0-46.0-2.0-2.0-1.0-3.0,,,,,,,,,,,,,,,63d8c185bbfa79d8246dd97b,08:50:39,03/04/2024
1040.0,,,ospan,symmetry,XCPZqqxtxOg88vvX2RqdBpCuaF62,symmetry-judgement-task,96,617254,0.0-46.0-2.0-2.0-1.0-4.0,,,,,,,,,,1.0,1.0,,,,63d8c185bbfa79d8246dd97b,08:50:39,03/04/2024
,"<div style=""font-size: 10rem; color: #0000FF"">C</div>",,ospan,letter,XCPZqqxtxOg88vvX2RqdBpCuaF62,html-keyboard-response,97,618256,0.0-46.0-2.0-2.0-1.0-5.0,,,,,,,,,,,,,,,63d8c185bbfa79d8246dd97b,08:50:39,03/04/2024
2553.0,"<div class = numbox><p style=""font-size: 2.4rem"">Please recall the letters you saw to the best of your ability. If you do not remember a particular letter, use the SKIP button.<br><b>(When you are ready to lock in your answer, press ENTER)</b></p><button id = button_1 class = ""square num-button"" onclick = ""recordClick(this)""><div class = content><div class = numbers>C</div></div></button><button id = button_2 class = ""square num-button"" onclick = ""recordClick(this)""><div class = content><div class = numbers>G</div></div></button><button id = button_3 class = ""square num-button"" onclick = ""recordClick(this)""><div class = content><div class = numbers>H</div></div></button><button id = button_4 class = ""square num-button"" onclick = ""recordClick(this)""><div class = content><div class = numbers>J</div></div></button><button id = button_5 class = ""square num-button"" onclick = ""recordClick(this)""><div class = content><div class = numbers>K</div></div></button><button id = button_6 class = ""square num-button"" onclick = ""recordClick(this)""><div class = content><div class = numbers>L</div></div></button><button id = button_7 class = ""square num-button"" onclick = ""recordClick(this)""><div class = content><div class = numbers>N</div></div></button><button id = button_8 class = ""square num-button"" onclick = ""recordClick(this)""><div class = content><div class = numbers>P</div></div></button><button id = button_9 class = ""square num-button"" onclick = ""recordClick(this)""><div class = content><div class = numbers>Q</div></div></button><button id = button_10 class = ""square num-button"" onclick = ""recordClick(this)""><div class = content><div class = numbers>R</div></div></button><button id = button_11 class = ""square num-button"" onclick = ""recordClick(this)""><div class = content><div class = numbers>S</div></div></button><button id = button_12 class = ""square num-button"" onclick = ""recordClick(this)""><div class = content><div class = numbers>Y</div></div></button><button class = clear_button id = ""ClearButton"" onclick = ""clearResponse()"">BACKSPACE</button><button class = blank_button id = ""BlankButton"" onclick = ""blankResponse()"">SKIP</button><p style=""font-size: 2.4rem""><u><b>Current Answer:</b></u></p><br><br><div id=echoed_txt style=""font-size: 5rem; color:blue;""><b></b></div></div>",enter,ospan,retrieval,XCPZqqxtxOg88vvX2RqdBpCuaF62,html-keyboard-response,98,621566,0.0-46.0-2.0-2.0-2.0-0.0,NA,NA,NA,3.0,"[""N"",""H"",""C""]","[""N"",""H"",""C""]",1.0,3.0,"['<font color=""green"">N</font>', '<font color=""green"">H</font>', '<font color=""green"">C</font>']",,,,,,63d8c185bbfa79d8246dd97b,08:50:39,03/04/2024
1295.7999999970198,"['<p style=""font-size:44px"">Letters:<br><br><br><font color=""green"">N</font> <font color=""green"">H</font> <font color=""green"">C</font></p><br><br><p style=""font-size:30px"">Symmetry:<br><br><font color=""green"">100%</font></p><br><br>']",0,ospan,practice_feedback,XCPZqqxtxOg88vvX2RqdBpCuaF62,html-button-response,99,623365,0.0-46.0-2.0-2.0-2.0-1.0,,,,,,,,,,,,,,,63d8c185bbfa79d8246dd97b,08:50:39,03/04/2024
17903.19999999553,"<div class = 'left_align' style='font-size: 3rem; line-height: 1.3;'><b>Great work! That is the end of practice.</b><br><br>The real trials will look just like the practice trials you just completed.<br><br><u>Here, you will not see feedback</u>. First, you will see an grid picture to judge,<br>then a letter to remember. When the recall screen appears, report the letters in the<br>order presented. If you forget a letter, remember to use the <b>blank</b> button to move to the<br>next letter. Some of the sets will have more symmetry grids and letters than others.<br><br>It is important that you do your best on both the symmetry judgments and the letter recall<br>parts of the experiment. For for the symmetry judgments, try to work as <b>quickly</b> and <br>as <b>accurately</b> as possible. Remember to keep your symmetry accuracy at 85% or above.<br><br><b>For the letters, do NOT use any external aid (e.g., writing on paper, electronic device).</b><br><br>It is <u>very important</u> to our experiment to have a <b>true</b> view of your real performance.<br><br>Do not worry if you miss some when it gets hard! This task is meant to be very challenging!<br><br>Click the button to begin.</div><br><br><br><br>",0,ospan,starting_real_here,XCPZqqxtxOg88vvX2RqdBpCuaF62,html-button-response,100,641269,0.0-46.0-2.0-3.0,,,,,,,,,,,,,,,63d8c185bbfa79d8246dd97b,08:50:39,03/04/2024
,"<p style=""font-size:75px;"">...</p>",,ospan,iti,XCPZqqxtxOg88vvX2RqdBpCuaF62,html-keyboard-response,101,642535,0.0-46.0-3.0-0.0-0.0,,,,,,,,,,,,,,,63d8c185bbfa79d8246dd97b,08:50:39,03/04/2024
1461.0,,,ospan,symmetry,XCPZqqxtxOg88vvX2RqdBpCuaF62,symmetry-judgement-task,102,645124,0.0-46.0-3.0-0.0-1.0-0.0,,,,,,,,,,1.0,1.0,,,,63d8c185bbfa79d8246dd97b,08:50:39,03/04/2024
,"<div style=""font-size: 10rem; color: #0000FF"">K</div>",,ospan,letter,XCPZqqxtxOg88vvX2RqdBpCuaF62,html-keyboard-response,103,646125,0.0-46.0-3.0-0.0-1.0-1.0,,,,,,,,,,,,,,,63d8c185bbfa79d8246dd97b,08:50:39,03/04/2024
928.0,,,ospan,symmetry,XCPZqqxtxOg88vvX2RqdBpCuaF62,symmetry-judgement-task,104,648931,0.0-46.0-3.0-0.0-1.0-2.0,,,,,,,,,,1.0,1.0,,,,63d8c185bbfa79d8246dd97b,08:50:39,03/04/2024
,"<div style=""font-size: 10rem; color: #0000FF"">Q</div>",,ospan,letter,XCPZqqxtxOg88vvX2RqdBpCuaF62,html-keyboard-response,105,649946,0.0-46.0-3.0-0.0-1.0-3.0,,,,,,,,,,,,,,,63d8c185bbfa79d8246dd97b,08:50:39,03/04/2024
940.0,,,ospan,symmetry,XCPZqqxtxOg88vvX2RqdBpCuaF62,symmetry-judgement-task,106,652750,0.0-46.0-3.0-0.0-1.0-4.0,,,,,,,,,,1.0,1.0,,,,63d8c185bbfa79d8246dd97b,08:50:39,03/04/2024
,"<div style=""font-size: 10rem; color: #0000FF"">S</div>",,ospan,letter,XCPZqqxtxOg88vvX2RqdBpCuaF62,html-keyboard-response,107,653766,0.0-46.0-3.0-0.0-1.0-5.0,,,,,,,,,,,,,,,63d8c185bbfa79d8246dd97b,08:50:39,03/04/2024
2381.39999999851,"<div class = numbox><p style=""font-size: 2.4rem"">Please recall the letters you saw to the best of your ability. If you do not remember a particular letter, use the SKIP button.<br><b>(When you are ready to lock in your answer, press ENTER)</b></p><button id = button_1 class = ""square num-button"" onclick = ""recordClick(this)""><div class = content><div class = numbers>C</div></div></button><button id = button_2 class = ""square num-button"" onclick = ""recordClick(this)""><div class = content><div class = numbers>G</div></div></button><button id = button_3 class = ""square num-button"" onclick = ""recordClick(this)""><div class = content><div class = numbers>H</div></div></button><button id = button_4 class = ""square num-button"" onclick = ""recordClick(this)""><div class = content><div class = numbers>J</div></div></button><button id = button_5 class = ""square num-button"" onclick = ""recordClick(this)""><div class = content><div class = numbers>K</div></div></button><button id = button_6 class = ""square num-button"" onclick = ""recordClick(this)""><div class = content><div class = numbers>L</div></div></button><button id = button_7 class = ""square num-button"" onclick = ""recordClick(this)""><div class = content><div class = numbers>N</div></div></button><button id = button_8 class = ""square num-button"" onclick = ""recordClick(this)""><div class = content><div class = numbers>P</div></div></button><button id = button_9 class = ""square num-button"" onclick = ""recordClick(this)""><div class = content><div class = numbers>Q</div></div></button><button id = button_10 class = ""square num-button"" onclick = ""recordClick(this)""><div class = content><div class = numbers>R</div></div></button><button id = button_11 class = ""square num-button"" onclick = ""recordClick(this)""><div class = content><div class = numbers>S</div></div></button><button id = button_12 class = ""square num-button"" onclick = ""recordClick(this)""><div class = content><div class = numbers>Y</div></div></button><button class = clear_button id = ""ClearButton"" onclick = ""clearResponse()"">BACKSPACE</button><button class = blank_button id = ""BlankButton"" onclick = ""blankResponse()"">SKIP</button><p style=""font-size: 2.4rem""><u><b>Current Answer:</b></u></p><br><br><div id=echoed_txt style=""font-size: 5rem; color:blue;""><b></b></div></div>",enter,ospan,retrieval,XCPZqqxtxOg88vvX2RqdBpCuaF62,html-keyboard-response,108,656903,0.0-46.0-3.0-0.0-2.0,3,3,3,3.0,"[""K"",""Q"",""S""]","[""K"",""Q"",""S""]",1.0,3.0,,,,,,,63d8c185bbfa79d8246dd97b,08:50:39,03/04/2024
2230.2000000029802,[''],0,ospan,feedback,XCPZqqxtxOg88vvX2RqdBpCuaF62,html-button-response,109,659645,0.0-46.0-3.0-0.0-3.0,,,,,,,,,,,,100.0,0.0,,63d8c185bbfa79d8246dd97b,08:50:39,03/04/2024
,"<p style=""font-size:75px;"">...</p>",,ospan,iti,XCPZqqxtxOg88vvX2RqdBpCuaF62,html-keyboard-response,110,660647,0.0-46.0-4.0-0.0-0.0,,,,,,,,,,,,,,,63d8c185bbfa79d8246dd97b,08:50:39,03/04/2024
1341.0,,,ospan,symmetry,XCPZqqxtxOg88vvX2RqdBpCuaF62,symmetry-judgement-task,111,663025,0.0-46.0-4.0-0.0-1.0-0.0,,,,,,,,,,1.0,1.0,,,,63d8c185bbfa79d8246dd97b,08:50:39,03/04/2024
,"<div style=""font-size: 10rem; color: #0000FF"">N</div>",,ospan,letter,XCPZqqxtxOg88vvX2RqdBpCuaF62,html-keyboard-response,112,664027,0.0-46.0-4.0-0.0-1.0-1.0,,,,,,,,,,,,,,,63d8c185bbfa79d8246dd97b,08:50:39,03/04/2024
1135.0,,,ospan,symmetry,XCPZqqxtxOg88vvX2RqdBpCuaF62,symmetry-judgement-task,113,667031,0.0-46.0-4.0-0.0-1.0-2.0,,,,,,,,,,1.0,1.0,,,,63d8c185bbfa79d8246dd97b,08:50:39,03/04/2024
,"<div style=""font-size: 10rem; color: #0000FF"">L</div>",,ospan,letter,XCPZqqxtxOg88vvX2RqdBpCuaF62,html-keyboard-response,114,668046,0.0-46.0-4.0-0.0-1.0-3.0,,,,,,,,,,,,,,,63d8c185bbfa79d8246dd97b,08:50:39,03/04/2024
1071.0,,,ospan,symmetry,XCPZqqxtxOg88vvX2RqdBpCuaF62,symmetry-judgement-task,115,670991,0.0-46.0-4.0-0.0-1.0-4.0,,,,,,,,,,1.0,1.0,,,,63d8c185bbfa79d8246dd97b,08:50:39,03/04/2024
,"<div style=""font-size: 10rem; color: #0000FF"">Q</div>",,ospan,letter,XCPZqqxtxOg88vvX2RqdBpCuaF62,html-keyboard-response,116,672006,0.0-46.0-4.0-0.0-1.0-5.0,,,,,,,,,,,,,,,63d8c185bbfa79d8246dd97b,08:50:39,03/04/2024
1148.0,,,ospan,symmetry,XCPZqqxtxOg88vvX2RqdBpCuaF62,symmetry-judgement-task,117,675014,0.0-46.0-4.0-0.0-1.0-6.0,,,,,,,,,,1.0,1.0,,,,63d8c185bbfa79d8246dd97b,08:50:39,03/04/2024
,"<div style=""font-size: 10rem; color: #0000FF"">P</div>",,ospan,letter,XCPZqqxtxOg88vvX2RqdBpCuaF62,html-keyboard-response,118,676015,0.0-46.0-4.0-0.0-1.0-7.0,,,,,,,,,,,,,,,63d8c185bbfa79d8246dd97b,08:50:39,03/04/2024
3579.5,"<div class = numbox><p style=""font-size: 2.4rem"">Please recall the letters you saw to the best of your ability. If you do not remember a particular letter, use the SKIP button.<br><b>(When you are ready to lock in your answer, press ENTER)</b></p><button id = button_1 class = ""square num-button"" onclick = ""recordClick(this)""><div class = content><div class = numbers>C</div></div></button><button id = button_2 class = ""square num-button"" onclick = ""recordClick(this)""><div class = content><div class = numbers>G</div></div></button><button id = button_3 class = ""square num-button"" onclick = ""recordClick(this)""><div class = content><div class = numbers>H</div></div></button><button id = button_4 class = ""square num-button"" onclick = ""recordClick(this)""><div class = content><div class = numbers>J</div></div></button><button id = button_5 class = ""square num-button"" onclick = ""recordClick(this)""><div class = content><div class = numbers>K</div></div></button><button id = button_6 class = ""square num-button"" onclick = ""recordClick(this)""><div class = content><div class = numbers>L</div></div></button><button id = button_7 class = ""square num-button"" onclick = ""recordClick(this)""><div class = content><div class = numbers>N</div></div></button><button id = button_8 class = ""square num-button"" onclick = ""recordClick(this)""><div class = content><div class = numbers>P</div></div></button><button id = button_9 class = ""square num-button"" onclick = ""recordClick(this)""><div class = content><div class = numbers>Q</div></div></button><button id = button_10 class = ""square num-button"" onclick = ""recordClick(this)""><div class = content><div class = numbers>R</div></div></button><button id = button_11 class = ""square num-button"" onclick = ""recordClick(this)""><div class = content><div class = numbers>S</div></div></button><button id = button_12 class = ""square num-button"" onclick = ""recordClick(this)""><div class = content><div class = numbers>Y</div></div></button><button class = clear_button id = ""ClearButton"" onclick = ""clearResponse()"">BACKSPACE</button><button class = blank_button id = ""BlankButton"" onclick = ""blankResponse()"">SKIP</button><p style=""font-size: 2.4rem""><u><b>Current Answer:</b></u></p><br><br><div id=echoed_txt style=""font-size: 5rem; color:blue;""><b></b></div></div>",enter,ospan,retrieval,XCPZqqxtxOg88vvX2RqdBpCuaF62,html-keyboard-response,119,680350,0.0-46.0-4.0-0.0-2.0,7,7,7,4.0,"[""N"",""L"",""Q"",""P""]","[""N"",""L"",""Q"",""P""]",1.0,4.0,,,,,,,63d8c185bbfa79d8246dd97b,08:50:39,03/04/2024
1016.8999999985099,[''],0,ospan,feedback,XCPZqqxtxOg88vvX2RqdBpCuaF62,html-button-response,120,681877,0.0-46.0-4.0-0.0-3.0,,,,,,,,,,,,100.0,0.0,,63d8c185bbfa79d8246dd97b,08:50:39,03/04/2024
,"<p style=""font-size:75px;"">...</p>",,ospan,iti,XCPZqqxtxOg88vvX2RqdBpCuaF62,html-keyboard-response,121,682893,0.0-46.0-4.0-1.0-0.0,,,,,,,,,,,,,,,63d8c185bbfa79d8246dd97b,08:50:39,03/04/2024
1080.0,,,ospan,symmetry,XCPZqqxtxOg88vvX2RqdBpCuaF62,symmetry-judgement-task,122,685007,0.0-46.0-4.0-1.0-1.0-0.0,,,,,,,,,,1.0,1.0,,,,63d8c185bbfa79d8246dd97b,08:50:39,03/04/2024
,"<div style=""font-size: 10rem; color: #0000FF"">G</div>",,ospan,letter,XCPZqqxtxOg88vvX2RqdBpCuaF62,html-keyboard-response,123,686021,0.0-46.0-4.0-1.0-1.0-1.0,,,,,,,,,,,,,,,63d8c185bbfa79d8246dd97b,08:50:39,03/04/2024
934.0,,,ospan,symmetry,XCPZqqxtxOg88vvX2RqdBpCuaF62,symmetry-judgement-task,124,688826,0.0-46.0-4.0-1.0-1.0-2.0,,,,,,,,,,1.0,1.0,,,,63d8c185bbfa79d8246dd97b,08:50:39,03/04/2024
,"<div style=""font-size: 10rem; color: #0000FF"">Q</div>",,ospan,letter,XCPZqqxtxOg88vvX2RqdBpCuaF62,html-keyboard-response,125,689840,0.0-46.0-4.0-1.0-1.0-3.0,,,,,,,,,,,,,,,63d8c185bbfa79d8246dd97b,08:50:39,03/04/2024
1099.0,,,ospan,symmetry,XCPZqqxtxOg88vvX2RqdBpCuaF62,symmetry-judgement-task,126,692800,0.0-46.0-4.0-1.0-1.0-4.0,,,,,,,,,,1.0,1.0,,,,63d8c185bbfa79d8246dd97b,08:50:39,03/04/2024
,"<div style=""font-size: 10rem; color: #0000FF"">N</div>",,ospan,letter,XCPZqqxtxOg88vvX2RqdBpCuaF62,html-keyboard-response,127,693815,0.0-46.0-4.0-1.0-1.0-5.0,,,,,,,,,,,,,,,63d8c185bbfa79d8246dd97b,08:50:39,03/04/2024
1091.0,,,ospan,symmetry,XCPZqqxtxOg88vvX2RqdBpCuaF62,symmetry-judgement-task,128,696788,0.0-46.0-4.0-1.0-1.0-6.0,,,,,,,,,,1.0,1.0,,,,63d8c185bbfa79d8246dd97b,08:50:39,03/04/2024
,"<div style=""font-size: 10rem; color: #0000FF"">L</div>",,ospan,letter,XCPZqqxtxOg88vvX2RqdBpCuaF62,html-keyboard-response,129,697790,0.0-46.0-4.0-1.0-1.0-7.0,,,,,,,,,,,,,,,63d8c185bbfa79d8246dd97b,08:50:39,03/04/2024
1302.0,,,ospan,symmetry,XCPZqqxtxOg88vvX2RqdBpCuaF62,symmetry-judgement-task,130,700963,0.0-46.0-4.0-1.0-1.0-8.0,,,,,,,,,,1.0,1.0,,,,63d8c185bbfa79d8246dd97b,08:50:39,03/04/2024
,"<div style=""font-size: 10rem; color: #0000FF"">Y</div>",,ospan,letter,XCPZqqxtxOg88vvX2RqdBpCuaF62,html-keyboard-response,131,701964,0.0-46.0-4.0-1.0-1.0-9.0,,,,,,,,,,,,,,,63d8c185bbfa79d8246dd97b,08:50:39,03/04/2024
3576.5999999940395,"<div class = numbox><p style=""font-size: 2.4rem"">Please recall the letters you saw to the best of your ability. If you do not remember a particular letter, use the SKIP button.<br><b>(When you are ready to lock in your answer, press ENTER)</b></p><button id = button_1 class = ""square num-button"" onclick = ""recordClick(this)""><div class = content><div class = numbers>C</div></div></button><button id = button_2 class = ""square num-button"" onclick = ""recordClick(this)""><div class = content><div class = numbers>G</div></div></button><button id = button_3 class = ""square num-button"" onclick = ""recordClick(this)""><div class = content><div class = numbers>H</div></div></button><button id = button_4 class = ""square num-button"" onclick = ""recordClick(this)""><div class = content><div class = numbers>J</div></div></button><button id = button_5 class = ""square num-button"" onclick = ""recordClick(this)""><div class = content><div class = numbers>K</div></div></button><button id = button_6 class = ""square num-button"" onclick = ""recordClick(this)""><div class = content><div class = numbers>L</div></div></button><button id = button_7 class = ""square num-button"" onclick = ""recordClick(this)""><div class = content><div class = numbers>N</div></div></button><button id = button_8 class = ""square num-button"" onclick = ""recordClick(this)""><div class = content><div class = numbers>P</div></div></button><button id = button_9 class = ""square num-button"" onclick = ""recordClick(this)""><div class = content><div class = numbers>Q</div></div></button><button id = button_10 class = ""square num-button"" onclick = ""recordClick(this)""><div class = content><div class = numbers>R</div></div></button><button id = button_11 class = ""square num-button"" onclick = ""recordClick(this)""><div class = content><div class = numbers>S</div></div></button><button id = button_12 class = ""square num-button"" onclick = ""recordClick(this)""><div class = content><div class = numbers>Y</div></div></button><button class = clear_button id = ""ClearButton"" onclick = ""clearResponse()"">BACKSPACE</button><button class = blank_button id = ""BlankButton"" onclick = ""blankResponse()"">SKIP</button><p style=""font-size: 2.4rem""><u><b>Current Answer:</b></u></p><br><br><div id=echoed_txt style=""font-size: 5rem; color:blue;""><b></b></div></div>",enter,ospan,retrieval,XCPZqqxtxOg88vvX2RqdBpCuaF62,html-keyboard-response,132,706297,0.0-46.0-4.0-1.0-2.0,12,10,7,5.0,"[""G"",""Q"",""L"",""N"",""Y""]","[""G"",""Q"",""N"",""L"",""Y""]",0.0,3.0,,,,,,,63d8c185bbfa79d8246dd97b,08:50:39,03/04/2024
1741.1000000014901,[''],0,ospan,feedback,XCPZqqxtxOg88vvX2RqdBpCuaF62,html-button-response,133,708541,0.0-46.0-4.0-1.0-3.0,,,,,,,,,,,,100.0,0.0,,63d8c185bbfa79d8246dd97b,08:50:39,03/04/2024
,"<p style=""font-size:75px;"">...</p>",,ospan,iti,XCPZqqxtxOg88vvX2RqdBpCuaF62,html-keyboard-response,134,709545,0.0-46.0-4.0-2.0-0.0,,,,,,,,,,,,,,,63d8c185bbfa79d8246dd97b,08:50:39,03/04/2024
1339.0,,,ospan,symmetry,XCPZqqxtxOg88vvX2RqdBpCuaF62,symmetry-judgement-task,135,712010,0.0-46.0-4.0-2.0-1.0-0.0,,,,,,,,,,1.0,1.0,,,,63d8c185bbfa79d8246dd97b,08:50:39,03/04/2024
,"<div style=""font-size: 10rem; color: #0000FF"">S</div>",,ospan,letter,XCPZqqxtxOg88vvX2RqdBpCuaF62,html-keyboard-response,136,713011,0.0-46.0-4.0-2.0-1.0-1.0,,,,,,,,,,,,,,,63d8c185bbfa79d8246dd97b,08:50:39,03/04/2024
986.0,,,ospan,symmetry,XCPZqqxtxOg88vvX2RqdBpCuaF62,symmetry-judgement-task,137,715866,0.0-46.0-4.0-2.0-1.0-2.0,,,,,,,,,,1.0,1.0,,,,63d8c185bbfa79d8246dd97b,08:50:39,03/04/2024
,"<div style=""font-size: 10rem; color: #0000FF"">H</div>",,ospan,letter,XCPZqqxtxOg88vvX2RqdBpCuaF62,html-keyboard-response,138,716868,0.0-46.0-4.0-2.0-1.0-3.0,,,,,,,,,,,,,,,63d8c185bbfa79d8246dd97b,08:50:39,03/04/2024
915.0,,,ospan,symmetry,XCPZqqxtxOg88vvX2RqdBpCuaF62,symmetry-judgement-task,139,719659,0.0-46.0-4.0-2.0-1.0-4.0,,,,,,,,,,1.0,1.0,,,,63d8c185bbfa79d8246dd97b,08:50:39,03/04/2024
,"<div style=""font-size: 10rem; color: #0000FF"">P</div>",,ospan,letter,XCPZqqxtxOg88vvX2RqdBpCuaF62,html-keyboard-response,140,720660,0.0-46.0-4.0-2.0-1.0-5.0,,,,,,,,,,,,,,,63d8c185bbfa79d8246dd97b,08:50:39,03/04/2024
2277.89999999851,"<div class = numbox><p style=""font-size: 2.4rem"">Please recall the letters you saw to the best of your ability. If you do not remember a particular letter, use the SKIP button.<br><b>(When you are ready to lock in your answer, press ENTER)</b></p><button id = button_1 class = ""square num-button"" onclick = ""recordClick(this)""><div class = content><div class = numbers>C</div></div></button><button id = button_2 class = ""square num-button"" onclick = ""recordClick(this)""><div class = content><div class = numbers>G</div></div></button><button id = button_3 class = ""square num-button"" onclick = ""recordClick(this)""><div class = content><div class = numbers>H</div></div></button><button id = button_4 class = ""square num-button"" onclick = ""recordClick(this)""><div class = content><div class = numbers>J</div></div></button><button id = button_5 class = ""square num-button"" onclick = ""recordClick(this)""><div class = content><div class = numbers>K</div></div></button><button id = button_6 class = ""square num-button"" onclick = ""recordClick(this)""><div class = content><div class = numbers>L</div></div></button><button id = button_7 class = ""square num-button"" onclick = ""recordClick(this)""><div class = content><div class = numbers>N</div></div></button><button id = button_8 class = ""square num-button"" onclick = ""recordClick(this)""><div class = content><div class = numbers>P</div></div></button><button id = button_9 class = ""square num-button"" onclick = ""recordClick(this)""><div class = content><div class = numbers>Q</div></div></button><button id = button_10 class = ""square num-button"" onclick = ""recordClick(this)""><div class = content><div class = numbers>R</div></div></button><button id = button_11 class = ""square num-button"" onclick = ""recordClick(this)""><div class = content><div class = numbers>S</div></div></button><button id = button_12 class = ""square num-button"" onclick = ""recordClick(this)""><div class = content><div class = numbers>Y</div></div></button><button class = clear_button id = ""ClearButton"" onclick = ""clearResponse()"">BACKSPACE</button><button class = blank_button id = ""BlankButton"" onclick = ""blankResponse()"">SKIP</button><p style=""font-size: 2.4rem""><u><b>Current Answer:</b></u></p><br><br><div id=echoed_txt style=""font-size: 5rem; color:blue;""><b></b></div></div>",enter,ospan,retrieval,XCPZqqxtxOg88vvX2RqdBpCuaF62,html-keyboard-response,141,723694,0.0-46.0-4.0-2.0-2.0,15,13,10,3.0,"[""S"",""H"",""P""]","[""S"",""H"",""P""]",1.0,3.0,,,,,,,63d8c185bbfa79d8246dd97b,08:50:39,03/04/2024
1055.8999999985099,[''],0,ospan,feedback,XCPZqqxtxOg88vvX2RqdBpCuaF62,html-button-response,142,725253,0.0-46.0-4.0-2.0-3.0,,,,,,,,,,,,100.0,0.0,,63d8c185bbfa79d8246dd97b,08:50:39,03/04/2024
,"<p style=""font-size:75px;"">...</p>",,ospan,iti,XCPZqqxtxOg88vvX2RqdBpCuaF62,html-keyboard-response,143,726255,0.0-46.0-5.0-0.0-0.0,,,,,,,,,,,,,,,63d8c185bbfa79d8246dd97b,08:50:39,03/04/2024
1109.0,,,ospan,symmetry,XCPZqqxtxOg88vvX2RqdBpCuaF62,symmetry-judgement-task,144,728395,0.0-46.0-5.0-0.0-1.0-0.0,,,,,,,,,,1.0,1.0,,,,63d8c185bbfa79d8246dd97b,08:50:39,03/04/2024
,"<div style=""font-size: 10rem; color: #0000FF"">J</div>",,ospan,letter,XCPZqqxtxOg88vvX2RqdBpCuaF62,html-keyboard-response,145,729411,0.0-46.0-5.0-0.0-1.0-1.0,,,,,,,,,,,,,,,63d8c185bbfa79d8246dd97b,08:50:39,03/04/2024
1011.0,,,ospan,symmetry,XCPZqqxtxOg88vvX2RqdBpCuaF62,symmetry-judgement-task,146,732288,0.0-46.0-5.0-0.0-1.0-2.0,,,,,,,,,,1.0,1.0,,,,63d8c185bbfa79d8246dd97b,08:50:39,03/04/2024
,"<div style=""font-size: 10rem; color: #0000FF"">G</div>",,ospan,letter,XCPZqqxtxOg88vvX2RqdBpCuaF62,html-keyboard-response,147,733303,0.0-46.0-5.0-0.0-1.0-3.0,,,,,,,,,,,,,,,63d8c185bbfa79d8246dd97b,08:50:39,03/04/2024
892.0,,,ospan,symmetry,XCPZqqxtxOg88vvX2RqdBpCuaF62,symmetry-judgement-task,148,736062,0.0-46.0-5.0-0.0-1.0-4.0,,,,,,,,,,1.0,1.0,,,,63d8c185bbfa79d8246dd97b,08:50:39,03/04/2024
,"<div style=""font-size: 10rem; color: #0000FF"">C</div>",,ospan,letter,XCPZqqxtxOg88vvX2RqdBpCuaF62,html-keyboard-response,149,737065,0.0-46.0-5.0-0.0-1.0-5.0,,,,,,,,,,,,,,,63d8c185bbfa79d8246dd97b,08:50:39,03/04/2024
2929.0,,,ospan,symmetry,XCPZqqxtxOg88vvX2RqdBpCuaF62,symmetry-judgement-task,150,741873,0.0-46.0-5.0-0.0-1.0-6.0,,,,,,,,,,1.0,1.0,,,,63d8c185bbfa79d8246dd97b,08:50:39,03/04/2024
,"<div style=""font-size: 10rem; color: #0000FF"">N</div>",,ospan,letter,XCPZqqxtxOg88vvX2RqdBpCuaF62,html-keyboard-response,151,742877,0.0-46.0-5.0-0.0-1.0-7.0,,,,,,,,,,,,,,,63d8c185bbfa79d8246dd97b,08:50:39,03/04/2024
1315.0,,,ospan,symmetry,XCPZqqxtxOg88vvX2RqdBpCuaF62,symmetry-judgement-task,152,746069,0.0-46.0-5.0-0.0-1.0-8.0,,,,,,,,,,1.0,1.0,,,,63d8c185bbfa79d8246dd97b,08:50:39,03/04/2024
,"<div style=""font-size: 10rem; color: #0000FF"">P</div>",,ospan,letter,XCPZqqxtxOg88vvX2RqdBpCuaF62,html-keyboard-response,153,747072,0.0-46.0-5.0-0.0-1.0-9.0,,,,,,,,,,,,,,,63d8c185bbfa79d8246dd97b,08:50:39,03/04/2024
1191.0,,,ospan,symmetry,XCPZqqxtxOg88vvX2RqdBpCuaF62,symmetry-judgement-task,154,750140,0.0-46.0-5.0-0.0-1.0-10.0,,,,,,,,,,1.0,1.0,,,,63d8c185bbfa79d8246dd97b,08:50:39,03/04/2024
,"<div style=""font-size: 10rem; color: #0000FF"">Q</div>",,ospan,letter,XCPZqqxtxOg88vvX2RqdBpCuaF62,html-keyboard-response,155,751145,0.0-46.0-5.0-0.0-1.0-11.0,,,,,,,,,,,,,,,63d8c185bbfa79d8246dd97b,08:50:39,03/04/2024
8599.79999999702,"<div class = numbox><p style=""font-size: 2.4rem"">Please recall the letters you saw to the best of your ability. If you do not remember a particular letter, use the SKIP button.<br><b>(When you are ready to lock in your answer, press ENTER)</b></p><button id = button_1 class = ""square num-button"" onclick = ""recordClick(this)""><div class = content><div class = numbers>C</div></div></button><button id = button_2 class = ""square num-button"" onclick = ""recordClick(this)""><div class = content><div class = numbers>G</div></div></button><button id = button_3 class = ""square num-button"" onclick = ""recordClick(this)""><div class = content><div class = numbers>H</div></div></button><button id = button_4 class = ""square num-button"" onclick = ""recordClick(this)""><div class = content><div class = numbers>J</div></div></button><button id = button_5 class = ""square num-button"" onclick = ""recordClick(this)""><div class = content><div class = numbers>K</div></div></button><button id = button_6 class = ""square num-button"" onclick = ""recordClick(this)""><div class = content><div class = numbers>L</div></div></button><button id = button_7 class = ""square num-button"" onclick = ""recordClick(this)""><div class = content><div class = numbers>N</div></div></button><button id = button_8 class = ""square num-button"" onclick = ""recordClick(this)""><div class = content><div class = numbers>P</div></div></button><button id = button_9 class = ""square num-button"" onclick = ""recordClick(this)""><div class = content><div class = numbers>Q</div></div></button><button id = button_10 class = ""square num-button"" onclick = ""recordClick(this)""><div class = content><div class = numbers>R</div></div></button><button id = button_11 class = ""square num-button"" onclick = ""recordClick(this)""><div class = content><div class = numbers>S</div></div></button><button id = button_12 class = ""square num-button"" onclick = ""recordClick(this)""><div class = content><div class = numbers>Y</div></div></button><button class = clear_button id = ""ClearButton"" onclick = ""clearResponse()"">BACKSPACE</button><button class = blank_button id = ""BlankButton"" onclick = ""blankResponse()"">SKIP</button><p style=""font-size: 2.4rem""><u><b>Current Answer:</b></u></p><br><br><div id=echoed_txt style=""font-size: 5rem; color:blue;""><b></b></div></div>",enter,ospan,retrieval,XCPZqqxtxOg88vvX2RqdBpCuaF62,html-keyboard-response,156,760502,0.0-46.0-5.0-0.0-2.0,21,19,16,6.0,"[""J"",""G"",""C"",""N"",""P"",""Q""]","[""J"",""G"",""C"",""N"",""P"",""Q""]",1.0,6.0,,,,,,,63d8c185bbfa79d8246dd97b,08:50:39,03/04/2024
1275.8999999985099,[''],0,ospan,feedback,XCPZqqxtxOg88vvX2RqdBpCuaF62,html-button-response,157,762293,0.0-46.0-5.0-0.0-3.0,,,,,,,,,,,,100.0,0.0,,63d8c185bbfa79d8246dd97b,08:50:39,03/04/2024
,"<p style=""font-size:75px;"">...</p>",,ospan,iti,XCPZqqxtxOg88vvX2RqdBpCuaF62,html-keyboard-response,158,763303,0.0-46.0-5.0-1.0-0.0,,,,,,,,,,,,,,,63d8c185bbfa79d8246dd97b,08:50:39,03/04/2024
2226.0,,,ospan,symmetry,XCPZqqxtxOg88vvX2RqdBpCuaF62,symmetry-judgement-task,159,766641,0.0-46.0-5.0-1.0-1.0-0.0,,,,,,,,,,1.0,1.0,,,,63d8c185bbfa79d8246dd97b,08:50:39,03/04/2024
,"<div style=""font-size: 10rem; color: #0000FF"">K</div>",,ospan,letter,XCPZqqxtxOg88vvX2RqdBpCuaF62,html-keyboard-response,160,767645,0.0-46.0-5.0-1.0-1.0-1.0,,,,,,,,,,,,,,,63d8c185bbfa79d8246dd97b,08:50:39,03/04/2024
1576.0,,,ospan,symmetry,XCPZqqxtxOg88vvX2RqdBpCuaF62,symmetry-judgement-task,161,771106,0.0-46.0-5.0-1.0-1.0-2.0,,,,,,,,,,1.0,1.0,,,,63d8c185bbfa79d8246dd97b,08:50:39,03/04/2024
,"<div style=""font-size: 10rem; color: #0000FF"">H</div>",,ospan,letter,XCPZqqxtxOg88vvX2RqdBpCuaF62,html-keyboard-response,162,772108,0.0-46.0-5.0-1.0-1.0-3.0,,,,,,,,,,,,,,,63d8c185bbfa79d8246dd97b,08:50:39,03/04/2024
908.0,,,ospan,symmetry,XCPZqqxtxOg88vvX2RqdBpCuaF62,symmetry-judgement-task,163,774886,0.0-46.0-5.0-1.0-1.0-4.0,,,,,,,,,,1.0,1.0,,,,63d8c185bbfa79d8246dd97b,08:50:39,03/04/2024
,"<div style=""font-size: 10rem; color: #0000FF"">P</div>",,ospan,letter,XCPZqqxtxOg88vvX2RqdBpCuaF62,html-keyboard-response,164,775887,0.0-46.0-5.0-1.0-1.0-5.0,,,,,,,,,,,,,,,63d8c185bbfa79d8246dd97b,08:50:39,03/04/2024
1136.0,,,ospan,symmetry,XCPZqqxtxOg88vvX2RqdBpCuaF62,symmetry-judgement-task,165,778805,0.0-46.0-5.0-1.0-1.0-6.0,,,,,,,,,,1.0,1.0,,,,63d8c185bbfa79d8246dd97b,08:50:39,03/04/2024
,"<div style=""font-size: 10rem; color: #0000FF"">C</div>",,ospan,letter,XCPZqqxtxOg88vvX2RqdBpCuaF62,html-keyboard-response,166,779809,0.0-46.0-5.0-1.0-1.0-7.0,,,,,,,,,,,,,,,63d8c185bbfa79d8246dd97b,08:50:39,03/04/2024
1257.0,,,ospan,symmetry,XCPZqqxtxOg88vvX2RqdBpCuaF62,symmetry-judgement-task,167,782946,0.0-46.0-5.0-1.0-1.0-8.0,,,,,,,,,,1.0,1.0,,,,63d8c185bbfa79d8246dd97b,08:50:39,03/04/2024
,"<div style=""font-size: 10rem; color: #0000FF"">G</div>",,ospan,letter,XCPZqqxtxOg88vvX2RqdBpCuaF62,html-keyboard-response,168,783950,0.0-46.0-5.0-1.0-1.0-9.0,,,,,,,,,,,,,,,63d8c185bbfa79d8246dd97b,08:50:39,03/04/2024
1163.0,,,ospan,symmetry,XCPZqqxtxOg88vvX2RqdBpCuaF62,symmetry-judgement-task,169,786977,0.0-46.0-5.0-1.0-1.0-10.0,,,,,,,,,,1.0,1.0,,,,63d8c185bbfa79d8246dd97b,08:50:39,03/04/2024
,"<div style=""font-size: 10rem; color: #0000FF"">R</div>",,ospan,letter,XCPZqqxtxOg88vvX2RqdBpCuaF62,html-keyboard-response,170,787983,0.0-46.0-5.0-1.0-1.0-11.0,,,,,,,,,,,,,,,63d8c185bbfa79d8246dd97b,08:50:39,03/04/2024
1489.0,,,ospan,symmetry,XCPZqqxtxOg88vvX2RqdBpCuaF62,symmetry-judgement-task,171,791349,0.0-46.0-5.0-1.0-1.0-12.0,,,,,,,,,,1.0,1.0,,,,63d8c185bbfa79d8246dd97b,08:50:39,03/04/2024
,"<div style=""font-size: 10rem; color: #0000FF"">J</div>",,ospan,letter,XCPZqqxtxOg88vvX2RqdBpCuaF62,html-keyboard-response,172,792354,0.0-46.0-5.0-1.0-1.0-13.0,,,,,,,,,,,,,,,63d8c185bbfa79d8246dd97b,08:50:39,03/04/2024
9432.39999999851,"<div class = numbox><p style=""font-size: 2.4rem"">Please recall the letters you saw to the best of your ability. If you do not remember a particular letter, use the SKIP button.<br><b>(When you are ready to lock in your answer, press ENTER)</b></p><button id = button_1 class = ""square num-button"" onclick = ""recordClick(this)""><div class = content><div class = numbers>C</div></div></button><button id = button_2 class = ""square num-button"" onclick = ""recordClick(this)""><div class = content><div class = numbers>G</div></div></button><button id = button_3 class = ""square num-button"" onclick = ""recordClick(this)""><div class = content><div class = numbers>H</div></div></button><button id = button_4 class = ""square num-button"" onclick = ""recordClick(this)""><div class = content><div class = numbers>J</div></div></button><button id = button_5 class = ""square num-button"" onclick = ""recordClick(this)""><div class = content><div class = numbers>K</div></div></button><button id = button_6 class = ""square num-button"" onclick = ""recordClick(this)""><div class = content><div class = numbers>L</div></div></button><button id = button_7 class = ""square num-button"" onclick = ""recordClick(this)""><div class = content><div class = numbers>N</div></div></button><button id = button_8 class = ""square num-button"" onclick = ""recordClick(this)""><div class = content><div class = numbers>P</div></div></button><button id = button_9 class = ""square num-button"" onclick = ""recordClick(this)""><div class = content><div class = numbers>Q</div></div></button><button id = button_10 class = ""square num-button"" onclick = ""recordClick(this)""><div class = content><div class = numbers>R</div></div></button><button id = button_11 class = ""square num-button"" onclick = ""recordClick(this)""><div class = content><div class = numbers>S</div></div></button><button id = button_12 class = ""square num-button"" onclick = ""recordClick(this)""><div class = content><div class = numbers>Y</div></div></button><button class = clear_button id = ""ClearButton"" onclick = ""clearResponse()"">BACKSPACE</button><button class = blank_button id = ""BlankButton"" onclick = ""blankResponse()"">SKIP</button><p style=""font-size: 2.4rem""><u><b>Current Answer:</b></u></p><br><br><div id=echoed_txt style=""font-size: 5rem; color:blue;""><b></b></div></div>",enter,ospan,retrieval,XCPZqqxtxOg88vvX2RqdBpCuaF62,html-keyboard-response,173,802542,0.0-46.0-5.0-1.0-2.0,28,22,16,7.0,"[""K"",""H"",""P"",""G"",""C"",""Q"",""R""]","[""K"",""H"",""P"",""C"",""G"",""R"",""J""]",0.0,3.0,,,,,,,63d8c185bbfa79d8246dd97b,08:50:39,03/04/2024
2816.0,[''],0,ospan,feedback,XCPZqqxtxOg88vvX2RqdBpCuaF62,html-button-response,174,805861,0.0-46.0-5.0-1.0-3.0,,,,,,,,,,,,100.0,0.0,,63d8c185bbfa79d8246dd97b,08:50:39,03/04/2024
,"<p style=""font-size:75px;"">...</p>",,ospan,iti,XCPZqqxtxOg88vvX2RqdBpCuaF62,html-keyboard-response,175,806873,0.0-46.0-6.0-0.0-0.0,,,,,,,,,,,,,,,63d8c185bbfa79d8246dd97b,08:50:39,03/04/2024
1201.0,,,ospan,symmetry,XCPZqqxtxOg88vvX2RqdBpCuaF62,symmetry-judgement-task,176,809109,0.0-46.0-6.0-0.0-1.0-0.0,,,,,,,,,,1.0,1.0,,,,63d8c185bbfa79d8246dd97b,08:50:39,03/04/2024
,"<div style=""font-size: 10rem; color: #0000FF"">H</div>",,ospan,letter,XCPZqqxtxOg88vvX2RqdBpCuaF62,html-keyboard-response,177,810116,0.0-46.0-6.0-0.0-1.0-1.0,,,,,,,,,,,,,,,63d8c185bbfa79d8246dd97b,08:50:39,03/04/2024
999.0,,,ospan,symmetry,XCPZqqxtxOg88vvX2RqdBpCuaF62,symmetry-judgement-task,178,812974,0.0-46.0-6.0-0.0-1.0-2.0,,,,,,,,,,1.0,1.0,,,,63d8c185bbfa79d8246dd97b,08:50:39,03/04/2024
,"<div style=""font-size: 10rem; color: #0000FF"">K</div>",,ospan,letter,XCPZqqxtxOg88vvX2RqdBpCuaF62,html-keyboard-response,179,813976,0.0-46.0-6.0-0.0-1.0-3.0,,,,,,,,,,,,,,,63d8c185bbfa79d8246dd97b,08:50:39,03/04/2024
1338.0,,,ospan,symmetry,XCPZqqxtxOg88vvX2RqdBpCuaF62,symmetry-judgement-task,180,817186,0.0-46.0-6.0-0.0-1.0-4.0,,,,,,,,,,1.0,1.0,,,,63d8c185bbfa79d8246dd97b,08:50:39,03/04/2024
,"<div style=""font-size: 10rem; color: #0000FF"">R</div>",,ospan,letter,XCPZqqxtxOg88vvX2RqdBpCuaF62,html-keyboard-response,181,818202,0.0-46.0-6.0-0.0-1.0-5.0,,,,,,,,,,,,,,,63d8c185bbfa79d8246dd97b,08:50:39,03/04/2024
1110.0,,,ospan,symmetry,XCPZqqxtxOg88vvX2RqdBpCuaF62,symmetry-judgement-task,182,821103,0.0-46.0-6.0-0.0-1.0-6.0,,,,,,,,,,1.0,1.0,,,,63d8c185bbfa79d8246dd97b,08:50:39,03/04/2024
,"<div style=""font-size: 10rem; color: #0000FF"">C</div>",,ospan,letter,XCPZqqxtxOg88vvX2RqdBpCuaF62,html-keyboard-response,183,822106,0.0-46.0-6.0-0.0-1.0-7.0,,,,,,,,,,,,,,,63d8c185bbfa79d8246dd97b,08:50:39,03/04/2024
1112.0,,,ospan,symmetry,XCPZqqxtxOg88vvX2RqdBpCuaF62,symmetry-judgement-task,184,825085,0.0-46.0-6.0-0.0-1.0-8.0,,,,,,,,,,1.0,1.0,,,,63d8c185bbfa79d8246dd97b,08:50:39,03/04/2024
,"<div style=""font-size: 10rem; color: #0000FF"">Y</div>",,ospan,letter,XCPZqqxtxOg88vvX2RqdBpCuaF62,html-keyboard-response,185,826089,0.0-46.0-6.0-0.0-1.0-9.0,,,,,,,,,,,,,,,63d8c185bbfa79d8246dd97b,08:50:39,03/04/2024
4250.0999999940395,"<div class = numbox><p style=""font-size: 2.4rem"">Please recall the letters you saw to the best of your ability. If you do not remember a particular letter, use the SKIP button.<br><b>(When you are ready to lock in your answer, press ENTER)</b></p><button id = button_1 class = ""square num-button"" onclick = ""recordClick(this)""><div class = content><div class = numbers>C</div></div></button><button id = button_2 class = ""square num-button"" onclick = ""recordClick(this)""><div class = content><div class = numbers>G</div></div></button><button id = button_3 class = ""square num-button"" onclick = ""recordClick(this)""><div class = content><div class = numbers>H</div></div></button><button id = button_4 class = ""square num-button"" onclick = ""recordClick(this)""><div class = content><div class = numbers>J</div></div></button><button id = button_5 class = ""square num-button"" onclick = ""recordClick(this)""><div class = content><div class = numbers>K</div></div></button><button id = button_6 class = ""square num-button"" onclick = ""recordClick(this)""><div class = content><div class = numbers>L</div></div></button><button id = button_7 class = ""square num-button"" onclick = ""recordClick(this)""><div class = content><div class = numbers>N</div></div></button><button id = button_8 class = ""square num-button"" onclick = ""recordClick(this)""><div class = content><div class = numbers>P</div></div></button><button id = button_9 class = ""square num-button"" onclick = ""recordClick(this)""><div class = content><div class = numbers>Q</div></div></button><button id = button_10 class = ""square num-button"" onclick = ""recordClick(this)""><div class = content><div class = numbers>R</div></div></button><button id = button_11 class = ""square num-button"" onclick = ""recordClick(this)""><div class = content><div class = numbers>S</div></div></button><button id = button_12 class = ""square num-button"" onclick = ""recordClick(this)""><div class = content><div class = numbers>Y</div></div></button><button class = clear_button id = ""ClearButton"" onclick = ""clearResponse()"">BACKSPACE</button><button class = blank_button id = ""BlankButton"" onclick = ""blankResponse()"">SKIP</button><p style=""font-size: 2.4rem""><u><b>Current Answer:</b></u></p><br><br><div id=echoed_txt style=""font-size: 5rem; color:blue;""><b></b></div></div>",enter,ospan,retrieval,XCPZqqxtxOg88vvX2RqdBpCuaF62,html-keyboard-response,186,831095,0.0-46.0-6.0-0.0-2.0,33,27,21,5.0,"[""H"",""K"",""R"",""C"",""Y""]","[""H"",""K"",""R"",""C"",""Y""]",1.0,5.0,,,,,,,63d8c185bbfa79d8246dd97b,08:50:39,03/04/2024
1070.3000000044703,[''],0,ospan,feedback,XCPZqqxtxOg88vvX2RqdBpCuaF62,html-button-response,187,832681,0.0-46.0-6.0-0.0-3.0,,,,,,,,,,,,100.0,0.0,,63d8c185bbfa79d8246dd97b,08:50:39,03/04/2024
,"<p style=""font-size:75px;"">...</p>",,ospan,iti,XCPZqqxtxOg88vvX2RqdBpCuaF62,html-keyboard-response,188,833683,0.0-46.0-6.0-1.0-0.0,,,,,,,,,,,,,,,63d8c185bbfa79d8246dd97b,08:50:39,03/04/2024
1079.0,,,ospan,symmetry,XCPZqqxtxOg88vvX2RqdBpCuaF62,symmetry-judgement-task,189,835872,0.0-46.0-6.0-1.0-1.0-0.0,,,,,,,,,,1.0,1.0,,,,63d8c185bbfa79d8246dd97b,08:50:39,03/04/2024
,"<div style=""font-size: 10rem; color: #0000FF"">R</div>",,ospan,letter,XCPZqqxtxOg88vvX2RqdBpCuaF62,html-keyboard-response,190,836873,0.0-46.0-6.0-1.0-1.0-1.0,,,,,,,,,,,,,,,63d8c185bbfa79d8246dd97b,08:50:39,03/04/2024
1041.0,,,ospan,symmetry,XCPZqqxtxOg88vvX2RqdBpCuaF62,symmetry-judgement-task,191,839787,0.0-46.0-6.0-1.0-1.0-2.0,,,,,,,,,,1.0,1.0,,,,63d8c185bbfa79d8246dd97b,08:50:39,03/04/2024
,"<div style=""font-size: 10rem; color: #0000FF"">H</div>",,ospan,letter,XCPZqqxtxOg88vvX2RqdBpCuaF62,html-keyboard-response,192,840789,0.0-46.0-6.0-1.0-1.0-3.0,,,,,,,,,,,,,,,63d8c185bbfa79d8246dd97b,08:50:39,03/04/2024
1032.0,,,ospan,symmetry,XCPZqqxtxOg88vvX2RqdBpCuaF62,symmetry-judgement-task,193,843691,0.0-46.0-6.0-1.0-1.0-4.0,,,,,,,,,,1.0,1.0,,,,63d8c185bbfa79d8246dd97b,08:50:39,03/04/2024
,"<div style=""font-size: 10rem; color: #0000FF"">S</div>",,ospan,letter,XCPZqqxtxOg88vvX2RqdBpCuaF62,html-keyboard-response,194,844693,0.0-46.0-6.0-1.0-1.0-5.0,,,,,,,,,,,,,,,63d8c185bbfa79d8246dd97b,08:50:39,03/04/2024
1110.0,,,ospan,symmetry,XCPZqqxtxOg88vvX2RqdBpCuaF62,symmetry-judgement-task,195,847672,0.0-46.0-6.0-1.0-1.0-6.0,,,,,,,,,,1.0,1.0,,,,63d8c185bbfa79d8246dd97b,08:50:39,03/04/2024
,"<div style=""font-size: 10rem; color: #0000FF"">Y</div>",,ospan,letter,XCPZqqxtxOg88vvX2RqdBpCuaF62,html-keyboard-response,196,848676,0.0-46.0-6.0-1.0-1.0-7.0,,,,,,,,,,,,,,,63d8c185bbfa79d8246dd97b,08:50:39,03/04/2024
933.0,,,ospan,symmetry,XCPZqqxtxOg88vvX2RqdBpCuaF62,symmetry-judgement-task,197,851489,0.0-46.0-6.0-1.0-1.0-8.0,,,,,,,,,,1.0,1.0,,,,63d8c185bbfa79d8246dd97b,08:50:39,03/04/2024
,"<div style=""font-size: 10rem; color: #0000FF"">N</div>",,ospan,letter,XCPZqqxtxOg88vvX2RqdBpCuaF62,html-keyboard-response,198,852493,0.0-46.0-6.0-1.0-1.0-9.0,,,,,,,,,,,,,,,63d8c185bbfa79d8246dd97b,08:50:39,03/04/2024
1419.0,,,ospan,symmetry,XCPZqqxtxOg88vvX2RqdBpCuaF62,symmetry-judgement-task,199,855780,0.0-46.0-6.0-1.0-1.0-10.0,,,,,,,,,,1.0,1.0,,,,63d8c185bbfa79d8246dd97b,08:50:39,03/04/2024
,"<div style=""font-size: 10rem; color: #0000FF"">J</div>",,ospan,letter,XCPZqqxtxOg88vvX2RqdBpCuaF62,html-keyboard-response,200,856786,0.0-46.0-6.0-1.0-1.0-11.0,,,,,,,,,,,,,,,63d8c185bbfa79d8246dd97b,08:50:39,03/04/2024
1092.0,,,ospan,symmetry,XCPZqqxtxOg88vvX2RqdBpCuaF62,symmetry-judgement-task,201,859747,0.0-46.0-6.0-1.0-1.0-12.0,,,,,,,,,,1.0,1.0,,,,63d8c185bbfa79d8246dd97b,08:50:39,03/04/2024
,"<div style=""font-size: 10rem; color: #0000FF"">L</div>",,ospan,letter,XCPZqqxtxOg88vvX2RqdBpCuaF62,html-keyboard-response,202,860751,0.0-46.0-6.0-1.0-1.0-13.0,,,,,,,,,,,,,,,63d8c185bbfa79d8246dd97b,08:50:39,03/04/2024
1245.0,,,ospan,symmetry,XCPZqqxtxOg88vvX2RqdBpCuaF62,symmetry-judgement-task,203,863869,0.0-46.0-6.0-1.0-1.0-14.0,,,,,,,,,,1.0,1.0,,,,63d8c185bbfa79d8246dd97b,08:50:39,03/04/2024
,"<div style=""font-size: 10rem; color: #0000FF"">P</div>",,ospan,letter,XCPZqqxtxOg88vvX2RqdBpCuaF62,html-keyboard-response,204,864871,0.0-46.0-6.0-1.0-1.0-15.0,,,,,,,,,,,,,,,63d8c185bbfa79d8246dd97b,08:50:39,03/04/2024
15616.80000000447,"<div class = numbox><p style=""font-size: 2.4rem"">Please recall the letters you saw to the best of your ability. If you do not remember a particular letter, use the SKIP button.<br><b>(When you are ready to lock in your answer, press ENTER)</b></p><button id = button_1 class = ""square num-button"" onclick = ""recordClick(this)""><div class = content><div class = numbers>C</div></div></button><button id = button_2 class = ""square num-button"" onclick = ""recordClick(this)""><div class = content><div class = numbers>G</div></div></button><button id = button_3 class = ""square num-button"" onclick = ""recordClick(this)""><div class = content><div class = numbers>H</div></div></button><button id = button_4 class = ""square num-button"" onclick = ""recordClick(this)""><div class = content><div class = numbers>J</div></div></button><button id = button_5 class = ""square num-button"" onclick = ""recordClick(this)""><div class = content><div class = numbers>K</div></div></button><button id = button_6 class = ""square num-button"" onclick = ""recordClick(this)""><div class = content><div class = numbers>L</div></div></button><button id = button_7 class = ""square num-button"" onclick = ""recordClick(this)""><div class = content><div class = numbers>N</div></div></button><button id = button_8 class = ""square num-button"" onclick = ""recordClick(this)""><div class = content><div class = numbers>P</div></div></button><button id = button_9 class = ""square num-button"" onclick = ""recordClick(this)""><div class = content><div class = numbers>Q</div></div></button><button id = button_10 class = ""square num-button"" onclick = ""recordClick(this)""><div class = content><div class = numbers>R</div></div></button><button id = button_11 class = ""square num-button"" onclick = ""recordClick(this)""><div class = content><div class = numbers>S</div></div></button><button id = button_12 class = ""square num-button"" onclick = ""recordClick(this)""><div class = content><div class = numbers>Y</div></div></button><button class = clear_button id = ""ClearButton"" onclick = ""clearResponse()"">BACKSPACE</button><button class = blank_button id = ""BlankButton"" onclick = ""blankResponse()"">SKIP</button><p style=""font-size: 2.4rem""><u><b>Current Answer:</b></u></p><br><br><div id=echoed_txt style=""font-size: 5rem; color:blue;""><b></b></div></div>",enter,ospan,retrieval,XCPZqqxtxOg88vvX2RqdBpCuaF62,html-keyboard-response,205,881244,0.0-46.0-6.0-1.0-2.0,41,32,21,8.0,"[""R"",""H"",""S"",""Y"",""N"",""L"",""P"",""C""]","[""R"",""H"",""S"",""Y"",""N"",""J"",""L"",""P""]",0.0,5.0,,,,,,,63d8c185bbfa79d8246dd97b,08:50:39,03/04/2024
1217.7999999970198,[''],0,ospan,feedback,XCPZqqxtxOg88vvX2RqdBpCuaF62,html-button-response,206,882966,0.0-46.0-6.0-1.0-3.0,,,,,,,,,,,,100.0,0.0,,63d8c185bbfa79d8246dd97b,08:50:39,03/04/2024
36566.40000000596,,"{'Q0': 'Nothing much, seemed to get significantly harder for anything above six letters for me personally.'}",ospan,survey_ospan,XCPZqqxtxOg88vvX2RqdBpCuaF62,lmdlab-survey-text,207,920285,0.0-46.0-7.0,,,,,,,,,,,,,,XCPZqqxtxOg88vvX2RqdBpCuaF62,63d8c185bbfa79d8246dd97b,08:50:39,03/04/2024
1575.1999999955297,<p><p style='font-size: 3rem'>Great work!<br><br>This completes the symmetry and memory task.</p><br><br><br>,0,ospan,finish,XCPZqqxtxOg88vvX2RqdBpCuaF62,html-button-response,208,921862,0.0-46.0-8.0,41,32,21,,,,,,,,,100.0,,,63d8c185bbfa79d8246dd97b,08:50:39,03/04/2024
