rt,stimulus,response,exp_name,exp_stage,subjectID,trial_type,trial_index,time_elapsed,internal_node_id,ospan_shown,ospan_total,ospan_abs,length,resp_actual,resp_correct,full_correct,num_correct,feedback,accuracy,correct,math_acc,math_warning,databaseID,prolificID,start_time,date
1315.6999998092651,<div class = 'left_align' style='font-size: 3.25rem; line-height: 1.3;'><p class = 'center_align'><b>Welcome to the Symmetry and Memory Task</b><br><br><br><br></p>Press 'continue' to show the instructions.<br><br><br><br></div>,0,ospan,instruct,lR8p1C11CaYFqFSKysG1KvPdAO93,html-button-response,54,415007,0.0-46.0-0.0-0.0-0.0,,,,,,,,,,,,,,,6160717242827a64a55d99ad,17:21:40,03/04/2024
5472.0,"<div class = 'left_align' style='font-size: 3.25rem; line-height: 1.3;'><p class = 'center_align'><b>Symmetry and Memory Task</b><br><br></p>In this task, you will try to memorize letters you see on the screen<br>while you also view black and white grid pictures.<br><br>In the next few minutes, you will have some practice to get you familiar<br>with how the task works.<br><br>It may be difficult sometimes, but please do not worry about making mistakes!<br><br>We will begin by practicing the letter part of the task.<br><br><br><br></div>",0,ospan,instruct,lR8p1C11CaYFqFSKysG1KvPdAO93,html-button-response,55,420741,0.0-46.0-0.0-0.0-1.0,,,,,,,,,,,,,,,6160717242827a64a55d99ad,17:21:40,03/04/2024
5402.400000095367,"<div class = 'left_align' style='font-size: 3.25rem; line-height: 1.3;'>For this practice part, letters will appear on the screen one at a time.<br><br>Try to remember each letter in the order presented.<br><br>After some letters have been shown, you will see a response screen. Your<br>goal is to report the letters you saw <b>in order</b>. If you do not remember<br>a particular letter, you will have the option to leave it blank.<br><br><br><br></div>",0,ospan,instruct,lR8p1C11CaYFqFSKysG1KvPdAO93,html-button-response,56,426407,0.0-46.0-0.0-0.0-2.0,,,,,,,,,,,,,,,6160717242827a64a55d99ad,17:21:40,03/04/2024
7234.699999809265,"<div class = 'left_align' style='font-size: 3.25rem; line-height: 1.3;'>Remember, it is very important to get the letters in the same<br>order as you see them.<br><br>When you are ready, you may begin the letter practice.</div><br><br><br><br>",0,ospan,instruct,lR8p1C11CaYFqFSKysG1KvPdAO93,html-button-response,57,433902,0.0-46.0-0.0-0.0-3.0,,,,,,,,,,,,,,,6160717242827a64a55d99ad,17:21:40,03/04/2024
,"<p style=""font-size:75px;"">...</p>",,ospan,iti,lR8p1C11CaYFqFSKysG1KvPdAO93,html-keyboard-response,58,435169,0.0-46.0-0.0-1.0-0.0,,,,,,,,,,,,,,,6160717242827a64a55d99ad,17:21:40,03/04/2024
,"<div style=""font-size: 10rem; color: #0000FF"">N</div>",,ospan,letter,lR8p1C11CaYFqFSKysG1KvPdAO93,html-keyboard-response,59,436176,0.0-46.0-0.0-1.0-1.0,,,,,,,,,,,,,,,6160717242827a64a55d99ad,17:21:40,03/04/2024
,"<div style=""font-size: 10rem; color: #0000FF"">J</div>",,ospan,letter,lR8p1C11CaYFqFSKysG1KvPdAO93,html-keyboard-response,60,437946,0.0-46.0-0.0-1.0-2.0,,,,,,,,,,,,,,,6160717242827a64a55d99ad,17:21:40,03/04/2024
6345.699999809265,"<div class = numbox><p style=""font-size: 2.4rem"">Please recall the letters you saw to the best of your ability. If you do not remember a particular letter, use the SKIP button.<br><b>(When you are ready to lock in your answer, press ENTER)</b></p><button id = button_1 class = ""square num-button"" onclick = ""recordClick(this)""><div class = content><div class = numbers>C</div></div></button><button id = button_2 class = ""square num-button"" onclick = ""recordClick(this)""><div class = content><div class = numbers>G</div></div></button><button id = button_3 class = ""square num-button"" onclick = ""recordClick(this)""><div class = content><div class = numbers>H</div></div></button><button id = button_4 class = ""square num-button"" onclick = ""recordClick(this)""><div class = content><div class = numbers>J</div></div></button><button id = button_5 class = ""square num-button"" onclick = ""recordClick(this)""><div class = content><div class = numbers>K</div></div></button><button id = button_6 class = ""square num-button"" onclick = ""recordClick(this)""><div class = content><div class = numbers>L</div></div></button><button id = button_7 class = ""square num-button"" onclick = ""recordClick(this)""><div class = content><div class = numbers>N</div></div></button><button id = button_8 class = ""square num-button"" onclick = ""recordClick(this)""><div class = content><div class = numbers>P</div></div></button><button id = button_9 class = ""square num-button"" onclick = ""recordClick(this)""><div class = content><div class = numbers>Q</div></div></button><button id = button_10 class = ""square num-button"" onclick = ""recordClick(this)""><div class = content><div class = numbers>R</div></div></button><button id = button_11 class = ""square num-button"" onclick = ""recordClick(this)""><div class = content><div class = numbers>S</div></div></button><button id = button_12 class = ""square num-button"" onclick = ""recordClick(this)""><div class = content><div class = numbers>Y</div></div></button><button class = clear_button id = ""ClearButton"" onclick = ""clearResponse()"">BACKSPACE</button><button class = blank_button id = ""BlankButton"" onclick = ""blankResponse()"">SKIP</button><p style=""font-size: 2.4rem""><u><b>Current Answer:</b></u></p><br><br><div id=echoed_txt style=""font-size: 5rem; color:blue;""><b></b></div></div>",enter,ospan,retrieval,lR8p1C11CaYFqFSKysG1KvPdAO93,html-keyboard-response,61,445057,0.0-46.0-0.0-1.0-3.0,NA,NA,NA,2.0,"[""N"",""J""]","[""N"",""J""]",1.0,2.0,"['<font color=""green"">N</font>', '<font color=""green"">J</font>']",,,,,,6160717242827a64a55d99ad,17:21:40,03/04/2024
2131.1000003814697,"['<p style=""font-size:44px"">Letters:<br><br><br><font color=""green"">N</font> <font color=""green"">J</font></p><br><br>']",0,ospan,practice_feedback,lR8p1C11CaYFqFSKysG1KvPdAO93,html-button-response,62,447698,0.0-46.0-0.0-1.0-4.0,,,,,,,,,,,,,,,6160717242827a64a55d99ad,17:21:40,03/04/2024
,"<p style=""font-size:75px;"">...</p>",,ospan,iti,lR8p1C11CaYFqFSKysG1KvPdAO93,html-keyboard-response,63,448707,0.0-46.0-0.0-2.0-0.0,,,,,,,,,,,,,,,6160717242827a64a55d99ad,17:21:40,03/04/2024
,"<div style=""font-size: 10rem; color: #0000FF"">L</div>",,ospan,letter,lR8p1C11CaYFqFSKysG1KvPdAO93,html-keyboard-response,64,449718,0.0-46.0-0.0-2.0-1.0,,,,,,,,,,,,,,,6160717242827a64a55d99ad,17:21:40,03/04/2024
,"<div style=""font-size: 10rem; color: #0000FF"">C</div>",,ospan,letter,lR8p1C11CaYFqFSKysG1KvPdAO93,html-keyboard-response,65,451488,0.0-46.0-0.0-2.0-2.0,,,,,,,,,,,,,,,6160717242827a64a55d99ad,17:21:40,03/04/2024
,"<div style=""font-size: 10rem; color: #0000FF"">R</div>",,ospan,letter,lR8p1C11CaYFqFSKysG1KvPdAO93,html-keyboard-response,66,453259,0.0-46.0-0.0-2.0-3.0,,,,,,,,,,,,,,,6160717242827a64a55d99ad,17:21:40,03/04/2024
8124.900000095367,"<div class = numbox><p style=""font-size: 2.4rem"">Please recall the letters you saw to the best of your ability. If you do not remember a particular letter, use the SKIP button.<br><b>(When you are ready to lock in your answer, press ENTER)</b></p><button id = button_1 class = ""square num-button"" onclick = ""recordClick(this)""><div class = content><div class = numbers>C</div></div></button><button id = button_2 class = ""square num-button"" onclick = ""recordClick(this)""><div class = content><div class = numbers>G</div></div></button><button id = button_3 class = ""square num-button"" onclick = ""recordClick(this)""><div class = content><div class = numbers>H</div></div></button><button id = button_4 class = ""square num-button"" onclick = ""recordClick(this)""><div class = content><div class = numbers>J</div></div></button><button id = button_5 class = ""square num-button"" onclick = ""recordClick(this)""><div class = content><div class = numbers>K</div></div></button><button id = button_6 class = ""square num-button"" onclick = ""recordClick(this)""><div class = content><div class = numbers>L</div></div></button><button id = button_7 class = ""square num-button"" onclick = ""recordClick(this)""><div class = content><div class = numbers>N</div></div></button><button id = button_8 class = ""square num-button"" onclick = ""recordClick(this)""><div class = content><div class = numbers>P</div></div></button><button id = button_9 class = ""square num-button"" onclick = ""recordClick(this)""><div class = content><div class = numbers>Q</div></div></button><button id = button_10 class = ""square num-button"" onclick = ""recordClick(this)""><div class = content><div class = numbers>R</div></div></button><button id = button_11 class = ""square num-button"" onclick = ""recordClick(this)""><div class = content><div class = numbers>S</div></div></button><button id = button_12 class = ""square num-button"" onclick = ""recordClick(this)""><div class = content><div class = numbers>Y</div></div></button><button class = clear_button id = ""ClearButton"" onclick = ""clearResponse()"">BACKSPACE</button><button class = blank_button id = ""BlankButton"" onclick = ""blankResponse()"">SKIP</button><p style=""font-size: 2.4rem""><u><b>Current Answer:</b></u></p><br><br><div id=echoed_txt style=""font-size: 5rem; color:blue;""><b></b></div></div>",enter,ospan,retrieval,lR8p1C11CaYFqFSKysG1KvPdAO93,html-keyboard-response,67,462146,0.0-46.0-0.0-2.0-4.0,NA,NA,NA,3.0,"[""L"",""C"",""R""]","[""L"",""C"",""R""]",1.0,3.0,"['<font color=""green"">L</font>', '<font color=""green"">C</font>', '<font color=""green"">R</font>']",,,,,,6160717242827a64a55d99ad,17:21:40,03/04/2024
635.2000002861023,"['<p style=""font-size:44px"">Letters:<br><br><br><font color=""green"">L</font> <font color=""green"">C</font> <font color=""green"">R</font></p><br><br>']",0,ospan,practice_feedback,lR8p1C11CaYFqFSKysG1KvPdAO93,html-button-response,68,463297,0.0-46.0-0.0-2.0-5.0,,,,,,,,,,,,,,,6160717242827a64a55d99ad,17:21:40,03/04/2024
12906.400000095367,"<div class = 'left_align' style='font-size: 3.25rem; line-height: 1.3;'>Now you will practice doing the <b>symmetry judgment part</b> of the experiment.<br><br>A black and white grid picture will appear on the screen and you have to judge if it is <br>symmetrical or asymetrical.<br><br>A picture is 'mirror' symmetrical if its left half is identical to the right half when flipped.<br>Here are examples of a symmetrical and an asymetrical picture:<br><br><center><img src='Stimuli/img/symm_instructions_extra.png' style='height:420px; width:900'></img></center><br>To judge symmetry, imagine you were to fold each picture down the middle, like a book –<br>would the left half match the right half when folded onto each other?<br><br></div><br>",0,ospan,instruct,lR8p1C11CaYFqFSKysG1KvPdAO93,html-button-response,69,476204,0.0-46.0-1.0-0.0-0.0,,,,,,,,,,,,,,,6160717242827a64a55d99ad,17:21:40,03/04/2024
2350.0999999046326,"<div class = 'left_align' style='font-size: 3.25rem; line-height: 1.3;'>When you have viewed the picture and determined whether it is symmetrical or not,<br>you can <b>click the Yes or No button</b> below to answer.<br><br>If you take longer than 15 seconds, it will continue automatically<br>and record the answer as an error.</div><br>",0,ospan,instruct,lR8p1C11CaYFqFSKysG1KvPdAO93,html-button-response,70,478820,0.0-46.0-1.0-0.0-1.0,,,,,,,,,,,,,,,6160717242827a64a55d99ad,17:21:40,03/04/2024
2595.0,"<div class = 'left_align' style='font-size: 3.25rem; line-height: 1.3;'>It is <b>very</b> important that you make the symmetry judgment correctly.<br><br>It is also important that you try and judge the picture as quickly as you can.<br><br>When you are ready, click on the button below to try some practice problems.</div><br><br><br><br>",0,ospan,instruct,lR8p1C11CaYFqFSKysG1KvPdAO93,html-button-response,71,481680,0.0-46.0-1.0-0.0-2.0,,,,,,,,,,,,,,,6160717242827a64a55d99ad,17:21:40,03/04/2024
3026.0,,,ospan,symmetry,lR8p1C11CaYFqFSKysG1KvPdAO93,symmetry-judgement-task,72,485498,0.0-46.0-1.0-1.0-0.0,,,,,,,,,,1.0,1.0,,,,6160717242827a64a55d99ad,17:21:40,03/04/2024
,"<p style=""color:green; font-size: 35px"">Correct</p>",,ospan,feedback,lR8p1C11CaYFqFSKysG1KvPdAO93,html-keyboard-response,73,486256,0.0-46.0-1.0-1.0-1.0,,,,,,,,,,,,,,,6160717242827a64a55d99ad,17:21:40,03/04/2024
2870.0,,,ospan,symmetry,lR8p1C11CaYFqFSKysG1KvPdAO93,symmetry-judgement-task,74,491769,0.0-46.0-1.0-1.0-2.0,,,,,,,,,,1.0,1.0,,,,6160717242827a64a55d99ad,17:21:40,03/04/2024
,"<p style=""color:green; font-size: 35px"">Correct</p>",,ospan,feedback,lR8p1C11CaYFqFSKysG1KvPdAO93,html-keyboard-response,75,492523,0.0-46.0-1.0-1.0-3.0,,,,,,,,,,,,,,,6160717242827a64a55d99ad,17:21:40,03/04/2024
3423.0,,,ospan,symmetry,lR8p1C11CaYFqFSKysG1KvPdAO93,symmetry-judgement-task,76,498577,0.0-46.0-1.0-1.0-4.0,,,,,,,,,,1.0,1.0,,,,6160717242827a64a55d99ad,17:21:40,03/04/2024
,"<p style=""color:green; font-size: 35px"">Correct</p>",,ospan,feedback,lR8p1C11CaYFqFSKysG1KvPdAO93,html-keyboard-response,77,499331,0.0-46.0-1.0-1.0-5.0,,,,,,,,,,,,,,,6160717242827a64a55d99ad,17:21:40,03/04/2024
1136.4000000953674,"<p style=""font-size: 3rem;"">You responded correctly on 3 of 3 symmetry judgments. Good job!</p><br><br>",0,ospan,practice,lR8p1C11CaYFqFSKysG1KvPdAO93,html-button-response,78,502476,0.0-46.0-1.0-2.0,,,,,,,,,,,,,,,6160717242827a64a55d99ad,17:21:40,03/04/2024
13306.0,"<div class = 'left_align' style='font-size: 3.25rem; line-height: 1.3;'>Now you will practice doing both parts of the experiment at the same time.<br><br>In the next practice set, you will be given one grid picture to judge.<br>Then letter will appear on the screen. Try to remember the letter.<br><br>It is <b>very important</b> to make the symmetry judgment as quickly and accurately as possible.<br><br>Just as before, once you have make the symmetry judgment, you can click Yes or No.<br><b>Note that you will no longer see Correct or Incorrect feedback.</div><br><br><br><br>",0,ospan,instruct,lR8p1C11CaYFqFSKysG1KvPdAO93,html-button-response,79,516040,0.0-46.0-2.0-0.0-0.0,,,,,,,,,,,,,,,6160717242827a64a55d99ad,17:21:40,03/04/2024
10824.599999904633,"<div class = 'left_align' style='font-size: 3.25rem; line-height: 1.3;'>After the letter goes away, another grid picture will appear, and then<br>another letter.<br><br>At the end of each set of letters and grids, you will recall the letters to the best<br>of your ability. Remember, try your best to get the letters in the correct order.<br><br>It is important to <b>quickly</b> and <b>accurately</b> make the symmetry judgments.</div><br><br><br><br>",0,ospan,instruct,lR8p1C11CaYFqFSKysG1KvPdAO93,html-button-response,80,527118,0.0-46.0-2.0-0.0-1.0,,,,,,,,,,,,,,,6160717242827a64a55d99ad,17:21:40,03/04/2024
13012.900000095367,"<div class = 'left_align' style='font-size: 3.25rem; line-height: 1.3;'>On the feedback screen, if you are not doing well at the symmetry judgments,<br>you will also see a warning in the middle. This indicates your percent <br>correct for the grid pictures for the entire experiment.<br><br>It is <b>very</b> important for you to keep accuracy at least at 85%: <u>We can only use<br>data where the participant was at least 85% accurate on the judgments.</u> Therefore,<br> please try your best to perform well on the symmetry judgments, <b>at the same time</b><br>doing your best to recall as many letters as possible.<br><br>Click the button to try some practice problems.</div><br><br><br><br>",0,ospan,instruct,lR8p1C11CaYFqFSKysG1KvPdAO93,html-button-response,81,540390,0.0-46.0-2.0-0.0-2.0,,,,,,,,,,,,,,,6160717242827a64a55d99ad,17:21:40,03/04/2024
,"<p style=""font-size:75px;"">...</p>",,ospan,iti,lR8p1C11CaYFqFSKysG1KvPdAO93,html-keyboard-response,82,541659,0.0-46.0-2.0-1.0-0.0,,,,,,,,,,,,,,,6160717242827a64a55d99ad,17:21:40,03/04/2024
2933.0,,,ospan,symmetry,lR8p1C11CaYFqFSKysG1KvPdAO93,symmetry-judgement-task,83,545630,0.0-46.0-2.0-1.0-1.0-0.0,,,,,,,,,,1.0,1.0,,,,6160717242827a64a55d99ad,17:21:40,03/04/2024
,"<div style=""font-size: 10rem; color: #0000FF"">G</div>",,ospan,letter,lR8p1C11CaYFqFSKysG1KvPdAO93,html-keyboard-response,84,546638,0.0-46.0-2.0-1.0-1.0-1.0,,,,,,,,,,,,,,,6160717242827a64a55d99ad,17:21:40,03/04/2024
2264.0,,,ospan,symmetry,lR8p1C11CaYFqFSKysG1KvPdAO93,symmetry-judgement-task,85,550788,0.0-46.0-2.0-1.0-1.0-2.0,,,,,,,,,,1.0,1.0,,,,6160717242827a64a55d99ad,17:21:40,03/04/2024
,"<div style=""font-size: 10rem; color: #0000FF"">Y</div>",,ospan,letter,lR8p1C11CaYFqFSKysG1KvPdAO93,html-keyboard-response,86,551799,0.0-46.0-2.0-1.0-1.0-3.0,,,,,,,,,,,,,,,6160717242827a64a55d99ad,17:21:40,03/04/2024
2044.0,,,ospan,symmetry,lR8p1C11CaYFqFSKysG1KvPdAO93,symmetry-judgement-task,87,555754,0.0-46.0-2.0-1.0-1.0-4.0,,,,,,,,,,1.0,1.0,,,,6160717242827a64a55d99ad,17:21:40,03/04/2024
,"<div style=""font-size: 10rem; color: #0000FF"">R</div>",,ospan,letter,lR8p1C11CaYFqFSKysG1KvPdAO93,html-keyboard-response,88,556769,0.0-46.0-2.0-1.0-1.0-5.0,,,,,,,,,,,,,,,6160717242827a64a55d99ad,17:21:40,03/04/2024
3258.2000002861023,"<div class = numbox><p style=""font-size: 2.4rem"">Please recall the letters you saw to the best of your ability. If you do not remember a particular letter, use the SKIP button.<br><b>(When you are ready to lock in your answer, press ENTER)</b></p><button id = button_1 class = ""square num-button"" onclick = ""recordClick(this)""><div class = content><div class = numbers>C</div></div></button><button id = button_2 class = ""square num-button"" onclick = ""recordClick(this)""><div class = content><div class = numbers>G</div></div></button><button id = button_3 class = ""square num-button"" onclick = ""recordClick(this)""><div class = content><div class = numbers>H</div></div></button><button id = button_4 class = ""square num-button"" onclick = ""recordClick(this)""><div class = content><div class = numbers>J</div></div></button><button id = button_5 class = ""square num-button"" onclick = ""recordClick(this)""><div class = content><div class = numbers>K</div></div></button><button id = button_6 class = ""square num-button"" onclick = ""recordClick(this)""><div class = content><div class = numbers>L</div></div></button><button id = button_7 class = ""square num-button"" onclick = ""recordClick(this)""><div class = content><div class = numbers>N</div></div></button><button id = button_8 class = ""square num-button"" onclick = ""recordClick(this)""><div class = content><div class = numbers>P</div></div></button><button id = button_9 class = ""square num-button"" onclick = ""recordClick(this)""><div class = content><div class = numbers>Q</div></div></button><button id = button_10 class = ""square num-button"" onclick = ""recordClick(this)""><div class = content><div class = numbers>R</div></div></button><button id = button_11 class = ""square num-button"" onclick = ""recordClick(this)""><div class = content><div class = numbers>S</div></div></button><button id = button_12 class = ""square num-button"" onclick = ""recordClick(this)""><div class = content><div class = numbers>Y</div></div></button><button class = clear_button id = ""ClearButton"" onclick = ""clearResponse()"">BACKSPACE</button><button class = blank_button id = ""BlankButton"" onclick = ""blankResponse()"">SKIP</button><p style=""font-size: 2.4rem""><u><b>Current Answer:</b></u></p><br><br><div id=echoed_txt style=""font-size: 5rem; color:blue;""><b></b></div></div>",enter,ospan,retrieval,lR8p1C11CaYFqFSKysG1KvPdAO93,html-keyboard-response,89,560785,0.0-46.0-2.0-1.0-2.0-0.0,NA,NA,NA,3.0,"[""G"",""Y"",""R""]","[""G"",""Y"",""R""]",1.0,3.0,"['<font color=""green"">G</font>', '<font color=""green"">Y</font>', '<font color=""green"">R</font>']",,,,,,6160717242827a64a55d99ad,17:21:40,03/04/2024
1146.2999997138977,"['<p style=""font-size:44px"">Letters:<br><br><br><font color=""green"">G</font> <font color=""green"">Y</font> <font color=""green"">R</font></p><br><br><p style=""font-size:30px"">Symmetry:<br><br><font color=""green"">100%</font></p><br><br>']",0,ospan,practice_feedback,lR8p1C11CaYFqFSKysG1KvPdAO93,html-button-response,90,562441,0.0-46.0-2.0-1.0-2.0-1.0,,,,,,,,,,,,,,,6160717242827a64a55d99ad,17:21:40,03/04/2024
,"<p style=""font-size:75px;"">...</p>",,ospan,iti,lR8p1C11CaYFqFSKysG1KvPdAO93,html-keyboard-response,91,563445,0.0-46.0-2.0-2.0-0.0,,,,,,,,,,,,,,,6160717242827a64a55d99ad,17:21:40,03/04/2024
1576.0,,,ospan,symmetry,lR8p1C11CaYFqFSKysG1KvPdAO93,symmetry-judgement-task,92,566161,0.0-46.0-2.0-2.0-1.0-0.0,,,,,,,,,,1.0,1.0,,,,6160717242827a64a55d99ad,17:21:40,03/04/2024
,"<div style=""font-size: 10rem; color: #0000FF"">L</div>",,ospan,letter,lR8p1C11CaYFqFSKysG1KvPdAO93,html-keyboard-response,93,567169,0.0-46.0-2.0-2.0-1.0-1.0,,,,,,,,,,,,,,,6160717242827a64a55d99ad,17:21:40,03/04/2024
2592.0,,,ospan,symmetry,lR8p1C11CaYFqFSKysG1KvPdAO93,symmetry-judgement-task,94,571649,0.0-46.0-2.0-2.0-1.0-2.0,,,,,,,,,,1.0,1.0,,,,6160717242827a64a55d99ad,17:21:40,03/04/2024
,"<div style=""font-size: 10rem; color: #0000FF"">C</div>",,ospan,letter,lR8p1C11CaYFqFSKysG1KvPdAO93,html-keyboard-response,95,572652,0.0-46.0-2.0-2.0-1.0-3.0,,,,,,,,,,,,,,,6160717242827a64a55d99ad,17:21:40,03/04/2024
2688.0,,,ospan,symmetry,lR8p1C11CaYFqFSKysG1KvPdAO93,symmetry-judgement-task,96,577234,0.0-46.0-2.0-2.0-1.0-4.0,,,,,,,,,,1.0,1.0,,,,6160717242827a64a55d99ad,17:21:40,03/04/2024
,"<div style=""font-size: 10rem; color: #0000FF"">G</div>",,ospan,letter,lR8p1C11CaYFqFSKysG1KvPdAO93,html-keyboard-response,97,578251,0.0-46.0-2.0-2.0-1.0-5.0,,,,,,,,,,,,,,,6160717242827a64a55d99ad,17:21:40,03/04/2024
2605.800000190735,"<div class = numbox><p style=""font-size: 2.4rem"">Please recall the letters you saw to the best of your ability. If you do not remember a particular letter, use the SKIP button.<br><b>(When you are ready to lock in your answer, press ENTER)</b></p><button id = button_1 class = ""square num-button"" onclick = ""recordClick(this)""><div class = content><div class = numbers>C</div></div></button><button id = button_2 class = ""square num-button"" onclick = ""recordClick(this)""><div class = content><div class = numbers>G</div></div></button><button id = button_3 class = ""square num-button"" onclick = ""recordClick(this)""><div class = content><div class = numbers>H</div></div></button><button id = button_4 class = ""square num-button"" onclick = ""recordClick(this)""><div class = content><div class = numbers>J</div></div></button><button id = button_5 class = ""square num-button"" onclick = ""recordClick(this)""><div class = content><div class = numbers>K</div></div></button><button id = button_6 class = ""square num-button"" onclick = ""recordClick(this)""><div class = content><div class = numbers>L</div></div></button><button id = button_7 class = ""square num-button"" onclick = ""recordClick(this)""><div class = content><div class = numbers>N</div></div></button><button id = button_8 class = ""square num-button"" onclick = ""recordClick(this)""><div class = content><div class = numbers>P</div></div></button><button id = button_9 class = ""square num-button"" onclick = ""recordClick(this)""><div class = content><div class = numbers>Q</div></div></button><button id = button_10 class = ""square num-button"" onclick = ""recordClick(this)""><div class = content><div class = numbers>R</div></div></button><button id = button_11 class = ""square num-button"" onclick = ""recordClick(this)""><div class = content><div class = numbers>S</div></div></button><button id = button_12 class = ""square num-button"" onclick = ""recordClick(this)""><div class = content><div class = numbers>Y</div></div></button><button class = clear_button id = ""ClearButton"" onclick = ""clearResponse()"">BACKSPACE</button><button class = blank_button id = ""BlankButton"" onclick = ""blankResponse()"">SKIP</button><p style=""font-size: 2.4rem""><u><b>Current Answer:</b></u></p><br><br><div id=echoed_txt style=""font-size: 5rem; color:blue;""><b></b></div></div>",enter,ospan,retrieval,lR8p1C11CaYFqFSKysG1KvPdAO93,html-keyboard-response,98,581609,0.0-46.0-2.0-2.0-2.0-0.0,NA,NA,NA,3.0,"[""L"",""C"",""G""]","[""L"",""C"",""G""]",1.0,3.0,"['<font color=""green"">L</font>', '<font color=""green"">C</font>', '<font color=""green"">G</font>']",,,,,,6160717242827a64a55d99ad,17:21:40,03/04/2024
927.5,"['<p style=""font-size:44px"">Letters:<br><br><br><font color=""green"">L</font> <font color=""green"">C</font> <font color=""green"">G</font></p><br><br><p style=""font-size:30px"">Symmetry:<br><br><font color=""green"">100%</font></p><br><br>']",0,ospan,practice_feedback,lR8p1C11CaYFqFSKysG1KvPdAO93,html-button-response,99,583041,0.0-46.0-2.0-2.0-2.0-1.0,,,,,,,,,,,,,,,6160717242827a64a55d99ad,17:21:40,03/04/2024
11025.39999961853,"<div class = 'left_align' style='font-size: 3rem; line-height: 1.3;'><b>Great work! That is the end of practice.</b><br><br>The real trials will look just like the practice trials you just completed.<br><br><u>Here, you will not see feedback</u>. First, you will see an grid picture to judge,<br>then a letter to remember. When the recall screen appears, report the letters in the<br>order presented. If you forget a letter, remember to use the <b>blank</b> button to move to the<br>next letter. Some of the sets will have more symmetry grids and letters than others.<br><br>It is important that you do your best on both the symmetry judgments and the letter recall<br>parts of the experiment. For for the symmetry judgments, try to work as <b>quickly</b> and <br>as <b>accurately</b> as possible. Remember to keep your symmetry accuracy at 85% or above.<br><br><b>For the letters, do NOT use any external aid (e.g., writing on paper, electronic device).</b><br><br>It is <u>very important</u> to our experiment to have a <b>true</b> view of your real performance.<br><br>Do not worry if you miss some when it gets hard! This task is meant to be very challenging!<br><br>Click the button to begin.</div><br><br><br><br>",0,ospan,starting_real_here,lR8p1C11CaYFqFSKysG1KvPdAO93,html-button-response,100,594068,0.0-46.0-2.0-3.0,,,,,,,,,,,,,,,6160717242827a64a55d99ad,17:21:40,03/04/2024
,"<p style=""font-size:75px;"">...</p>",,ospan,iti,lR8p1C11CaYFqFSKysG1KvPdAO93,html-keyboard-response,101,595332,0.0-46.0-3.0-0.0-0.0,,,,,,,,,,,,,,,6160717242827a64a55d99ad,17:21:40,03/04/2024
2174.0,,,ospan,symmetry,lR8p1C11CaYFqFSKysG1KvPdAO93,symmetry-judgement-task,102,598640,0.0-46.0-3.0-0.0-1.0-0.0,,,,,,,,,,1.0,1.0,,,,6160717242827a64a55d99ad,17:21:40,03/04/2024
,"<div style=""font-size: 10rem; color: #0000FF"">C</div>",,ospan,letter,lR8p1C11CaYFqFSKysG1KvPdAO93,html-keyboard-response,103,599652,0.0-46.0-3.0-0.0-1.0-1.0,,,,,,,,,,,,,,,6160717242827a64a55d99ad,17:21:40,03/04/2024
2380.0,,,ospan,symmetry,lR8p1C11CaYFqFSKysG1KvPdAO93,symmetry-judgement-task,104,603921,0.0-46.0-3.0-0.0-1.0-2.0,,,,,,,,,,1.0,1.0,,,,6160717242827a64a55d99ad,17:21:40,03/04/2024
,"<div style=""font-size: 10rem; color: #0000FF"">Q</div>",,ospan,letter,lR8p1C11CaYFqFSKysG1KvPdAO93,html-keyboard-response,105,604929,0.0-46.0-3.0-0.0-1.0-3.0,,,,,,,,,,,,,,,6160717242827a64a55d99ad,17:21:40,03/04/2024
2163.0,,,ospan,symmetry,lR8p1C11CaYFqFSKysG1KvPdAO93,symmetry-judgement-task,106,608996,0.0-46.0-3.0-0.0-1.0-4.0,,,,,,,,,,1.0,1.0,,,,6160717242827a64a55d99ad,17:21:40,03/04/2024
,"<div style=""font-size: 10rem; color: #0000FF"">L</div>",,ospan,letter,lR8p1C11CaYFqFSKysG1KvPdAO93,html-keyboard-response,107,609997,0.0-46.0-3.0-0.0-1.0-5.0,,,,,,,,,,,,,,,6160717242827a64a55d99ad,17:21:40,03/04/2024
3306.4000000953674,"<div class = numbox><p style=""font-size: 2.4rem"">Please recall the letters you saw to the best of your ability. If you do not remember a particular letter, use the SKIP button.<br><b>(When you are ready to lock in your answer, press ENTER)</b></p><button id = button_1 class = ""square num-button"" onclick = ""recordClick(this)""><div class = content><div class = numbers>C</div></div></button><button id = button_2 class = ""square num-button"" onclick = ""recordClick(this)""><div class = content><div class = numbers>G</div></div></button><button id = button_3 class = ""square num-button"" onclick = ""recordClick(this)""><div class = content><div class = numbers>H</div></div></button><button id = button_4 class = ""square num-button"" onclick = ""recordClick(this)""><div class = content><div class = numbers>J</div></div></button><button id = button_5 class = ""square num-button"" onclick = ""recordClick(this)""><div class = content><div class = numbers>K</div></div></button><button id = button_6 class = ""square num-button"" onclick = ""recordClick(this)""><div class = content><div class = numbers>L</div></div></button><button id = button_7 class = ""square num-button"" onclick = ""recordClick(this)""><div class = content><div class = numbers>N</div></div></button><button id = button_8 class = ""square num-button"" onclick = ""recordClick(this)""><div class = content><div class = numbers>P</div></div></button><button id = button_9 class = ""square num-button"" onclick = ""recordClick(this)""><div class = content><div class = numbers>Q</div></div></button><button id = button_10 class = ""square num-button"" onclick = ""recordClick(this)""><div class = content><div class = numbers>R</div></div></button><button id = button_11 class = ""square num-button"" onclick = ""recordClick(this)""><div class = content><div class = numbers>S</div></div></button><button id = button_12 class = ""square num-button"" onclick = ""recordClick(this)""><div class = content><div class = numbers>Y</div></div></button><button class = clear_button id = ""ClearButton"" onclick = ""clearResponse()"">BACKSPACE</button><button class = blank_button id = ""BlankButton"" onclick = ""blankResponse()"">SKIP</button><p style=""font-size: 2.4rem""><u><b>Current Answer:</b></u></p><br><br><div id=echoed_txt style=""font-size: 5rem; color:blue;""><b></b></div></div>",enter,ospan,retrieval,lR8p1C11CaYFqFSKysG1KvPdAO93,html-keyboard-response,108,614054,0.0-46.0-3.0-0.0-2.0,3,3,3,3.0,"[""C"",""Q"",""L""]","[""C"",""Q"",""L""]",1.0,3.0,,,,,,,6160717242827a64a55d99ad,17:21:40,03/04/2024
884.0,[''],0,ospan,feedback,lR8p1C11CaYFqFSKysG1KvPdAO93,html-button-response,109,615450,0.0-46.0-3.0-0.0-3.0,,,,,,,,,,,,100.0,0.0,,6160717242827a64a55d99ad,17:21:40,03/04/2024
,"<p style=""font-size:75px;"">...</p>",,ospan,iti,lR8p1C11CaYFqFSKysG1KvPdAO93,html-keyboard-response,110,616463,0.0-46.0-4.0-0.0-0.0,,,,,,,,,,,,,,,6160717242827a64a55d99ad,17:21:40,03/04/2024
2227.0,,,ospan,symmetry,lR8p1C11CaYFqFSKysG1KvPdAO93,symmetry-judgement-task,111,619810,0.0-46.0-4.0-0.0-1.0-0.0,,,,,,,,,,1.0,1.0,,,,6160717242827a64a55d99ad,17:21:40,03/04/2024
,"<div style=""font-size: 10rem; color: #0000FF"">J</div>",,ospan,letter,lR8p1C11CaYFqFSKysG1KvPdAO93,html-keyboard-response,112,620818,0.0-46.0-4.0-0.0-1.0-1.0,,,,,,,,,,,,,,,6160717242827a64a55d99ad,17:21:40,03/04/2024
2363.0,,,ospan,symmetry,lR8p1C11CaYFqFSKysG1KvPdAO93,symmetry-judgement-task,113,625057,0.0-46.0-4.0-0.0-1.0-2.0,,,,,,,,,,1.0,1.0,,,,6160717242827a64a55d99ad,17:21:40,03/04/2024
,"<div style=""font-size: 10rem; color: #0000FF"">S</div>",,ospan,letter,lR8p1C11CaYFqFSKysG1KvPdAO93,html-keyboard-response,114,626058,0.0-46.0-4.0-0.0-1.0-3.0,,,,,,,,,,,,,,,6160717242827a64a55d99ad,17:21:40,03/04/2024
2878.0,,,ospan,symmetry,lR8p1C11CaYFqFSKysG1KvPdAO93,symmetry-judgement-task,115,630821,0.0-46.0-4.0-0.0-1.0-4.0,,,,,,,,,,1.0,1.0,,,,6160717242827a64a55d99ad,17:21:40,03/04/2024
,"<div style=""font-size: 10rem; color: #0000FF"">C</div>",,ospan,letter,lR8p1C11CaYFqFSKysG1KvPdAO93,html-keyboard-response,116,631828,0.0-46.0-4.0-0.0-1.0-5.0,,,,,,,,,,,,,,,6160717242827a64a55d99ad,17:21:40,03/04/2024
2933.0,,,ospan,symmetry,lR8p1C11CaYFqFSKysG1KvPdAO93,symmetry-judgement-task,117,636661,0.0-46.0-4.0-0.0-1.0-6.0,,,,,,,,,,1.0,1.0,,,,6160717242827a64a55d99ad,17:21:40,03/04/2024
,"<div style=""font-size: 10rem; color: #0000FF"">H</div>",,ospan,letter,lR8p1C11CaYFqFSKysG1KvPdAO93,html-keyboard-response,118,637662,0.0-46.0-4.0-0.0-1.0-7.0,,,,,,,,,,,,,,,6160717242827a64a55d99ad,17:21:40,03/04/2024
3880.0999999046326,"<div class = numbox><p style=""font-size: 2.4rem"">Please recall the letters you saw to the best of your ability. If you do not remember a particular letter, use the SKIP button.<br><b>(When you are ready to lock in your answer, press ENTER)</b></p><button id = button_1 class = ""square num-button"" onclick = ""recordClick(this)""><div class = content><div class = numbers>C</div></div></button><button id = button_2 class = ""square num-button"" onclick = ""recordClick(this)""><div class = content><div class = numbers>G</div></div></button><button id = button_3 class = ""square num-button"" onclick = ""recordClick(this)""><div class = content><div class = numbers>H</div></div></button><button id = button_4 class = ""square num-button"" onclick = ""recordClick(this)""><div class = content><div class = numbers>J</div></div></button><button id = button_5 class = ""square num-button"" onclick = ""recordClick(this)""><div class = content><div class = numbers>K</div></div></button><button id = button_6 class = ""square num-button"" onclick = ""recordClick(this)""><div class = content><div class = numbers>L</div></div></button><button id = button_7 class = ""square num-button"" onclick = ""recordClick(this)""><div class = content><div class = numbers>N</div></div></button><button id = button_8 class = ""square num-button"" onclick = ""recordClick(this)""><div class = content><div class = numbers>P</div></div></button><button id = button_9 class = ""square num-button"" onclick = ""recordClick(this)""><div class = content><div class = numbers>Q</div></div></button><button id = button_10 class = ""square num-button"" onclick = ""recordClick(this)""><div class = content><div class = numbers>R</div></div></button><button id = button_11 class = ""square num-button"" onclick = ""recordClick(this)""><div class = content><div class = numbers>S</div></div></button><button id = button_12 class = ""square num-button"" onclick = ""recordClick(this)""><div class = content><div class = numbers>Y</div></div></button><button class = clear_button id = ""ClearButton"" onclick = ""clearResponse()"">BACKSPACE</button><button class = blank_button id = ""BlankButton"" onclick = ""blankResponse()"">SKIP</button><p style=""font-size: 2.4rem""><u><b>Current Answer:</b></u></p><br><br><div id=echoed_txt style=""font-size: 5rem; color:blue;""><b></b></div></div>",enter,ospan,retrieval,lR8p1C11CaYFqFSKysG1KvPdAO93,html-keyboard-response,119,642304,0.0-46.0-4.0-0.0-2.0,7,7,7,4.0,"[""J"",""S"",""C"",""H""]","[""J"",""S"",""C"",""H""]",1.0,4.0,,,,,,,6160717242827a64a55d99ad,17:21:40,03/04/2024
808.0999999046326,[''],0,ospan,feedback,lR8p1C11CaYFqFSKysG1KvPdAO93,html-button-response,120,643621,0.0-46.0-4.0-0.0-3.0,,,,,,,,,,,,100.0,0.0,,6160717242827a64a55d99ad,17:21:40,03/04/2024
,"<p style=""font-size:75px;"">...</p>",,ospan,iti,lR8p1C11CaYFqFSKysG1KvPdAO93,html-keyboard-response,121,644630,0.0-46.0-4.0-1.0-0.0,,,,,,,,,,,,,,,6160717242827a64a55d99ad,17:21:40,03/04/2024
4432.0,,,ospan,symmetry,lR8p1C11CaYFqFSKysG1KvPdAO93,symmetry-judgement-task,122,650096,0.0-46.0-4.0-1.0-1.0-0.0,,,,,,,,,,1.0,1.0,,,,6160717242827a64a55d99ad,17:21:40,03/04/2024
,"<div style=""font-size: 10rem; color: #0000FF"">H</div>",,ospan,letter,lR8p1C11CaYFqFSKysG1KvPdAO93,html-keyboard-response,123,651111,0.0-46.0-4.0-1.0-1.0-1.0,,,,,,,,,,,,,,,6160717242827a64a55d99ad,17:21:40,03/04/2024
3356.0,,,ospan,symmetry,lR8p1C11CaYFqFSKysG1KvPdAO93,symmetry-judgement-task,124,656264,0.0-46.0-4.0-1.0-1.0-2.0,,,,,,,,,,1.0,1.0,,,,6160717242827a64a55d99ad,17:21:40,03/04/2024
,"<div style=""font-size: 10rem; color: #0000FF"">C</div>",,ospan,letter,lR8p1C11CaYFqFSKysG1KvPdAO93,html-keyboard-response,125,657272,0.0-46.0-4.0-1.0-1.0-3.0,,,,,,,,,,,,,,,6160717242827a64a55d99ad,17:21:40,03/04/2024
2062.0,,,ospan,symmetry,lR8p1C11CaYFqFSKysG1KvPdAO93,symmetry-judgement-task,126,661235,0.0-46.0-4.0-1.0-1.0-4.0,,,,,,,,,,1.0,1.0,,,,6160717242827a64a55d99ad,17:21:40,03/04/2024
,"<div style=""font-size: 10rem; color: #0000FF"">K</div>",,ospan,letter,lR8p1C11CaYFqFSKysG1KvPdAO93,html-keyboard-response,127,662245,0.0-46.0-4.0-1.0-1.0-5.0,,,,,,,,,,,,,,,6160717242827a64a55d99ad,17:21:40,03/04/2024
1562.0,,,ospan,symmetry,lR8p1C11CaYFqFSKysG1KvPdAO93,symmetry-judgement-task,128,665687,0.0-46.0-4.0-1.0-1.0-6.0,,,,,,,,,,1.0,1.0,,,,6160717242827a64a55d99ad,17:21:40,03/04/2024
,"<div style=""font-size: 10rem; color: #0000FF"">J</div>",,ospan,letter,lR8p1C11CaYFqFSKysG1KvPdAO93,html-keyboard-response,129,666696,0.0-46.0-4.0-1.0-1.0-7.0,,,,,,,,,,,,,,,6160717242827a64a55d99ad,17:21:40,03/04/2024
2168.0,,,ospan,symmetry,lR8p1C11CaYFqFSKysG1KvPdAO93,symmetry-judgement-task,130,670770,0.0-46.0-4.0-1.0-1.0-8.0,,,,,,,,,,1.0,1.0,,,,6160717242827a64a55d99ad,17:21:40,03/04/2024
,"<div style=""font-size: 10rem; color: #0000FF"">L</div>",,ospan,letter,lR8p1C11CaYFqFSKysG1KvPdAO93,html-keyboard-response,131,671782,0.0-46.0-4.0-1.0-1.0-9.0,,,,,,,,,,,,,,,6160717242827a64a55d99ad,17:21:40,03/04/2024
4585.0,"<div class = numbox><p style=""font-size: 2.4rem"">Please recall the letters you saw to the best of your ability. If you do not remember a particular letter, use the SKIP button.<br><b>(When you are ready to lock in your answer, press ENTER)</b></p><button id = button_1 class = ""square num-button"" onclick = ""recordClick(this)""><div class = content><div class = numbers>C</div></div></button><button id = button_2 class = ""square num-button"" onclick = ""recordClick(this)""><div class = content><div class = numbers>G</div></div></button><button id = button_3 class = ""square num-button"" onclick = ""recordClick(this)""><div class = content><div class = numbers>H</div></div></button><button id = button_4 class = ""square num-button"" onclick = ""recordClick(this)""><div class = content><div class = numbers>J</div></div></button><button id = button_5 class = ""square num-button"" onclick = ""recordClick(this)""><div class = content><div class = numbers>K</div></div></button><button id = button_6 class = ""square num-button"" onclick = ""recordClick(this)""><div class = content><div class = numbers>L</div></div></button><button id = button_7 class = ""square num-button"" onclick = ""recordClick(this)""><div class = content><div class = numbers>N</div></div></button><button id = button_8 class = ""square num-button"" onclick = ""recordClick(this)""><div class = content><div class = numbers>P</div></div></button><button id = button_9 class = ""square num-button"" onclick = ""recordClick(this)""><div class = content><div class = numbers>Q</div></div></button><button id = button_10 class = ""square num-button"" onclick = ""recordClick(this)""><div class = content><div class = numbers>R</div></div></button><button id = button_11 class = ""square num-button"" onclick = ""recordClick(this)""><div class = content><div class = numbers>S</div></div></button><button id = button_12 class = ""square num-button"" onclick = ""recordClick(this)""><div class = content><div class = numbers>Y</div></div></button><button class = clear_button id = ""ClearButton"" onclick = ""clearResponse()"">BACKSPACE</button><button class = blank_button id = ""BlankButton"" onclick = ""blankResponse()"">SKIP</button><p style=""font-size: 2.4rem""><u><b>Current Answer:</b></u></p><br><br><div id=echoed_txt style=""font-size: 5rem; color:blue;""><b></b></div></div>",enter,ospan,retrieval,lR8p1C11CaYFqFSKysG1KvPdAO93,html-keyboard-response,132,677131,0.0-46.0-4.0-1.0-2.0,12,12,12,5.0,"[""H"",""C"",""K"",""J"",""L""]","[""H"",""C"",""K"",""J"",""L""]",1.0,5.0,,,,,,,6160717242827a64a55d99ad,17:21:40,03/04/2024
1416.0,[''],0,ospan,feedback,lR8p1C11CaYFqFSKysG1KvPdAO93,html-button-response,133,679051,0.0-46.0-4.0-1.0-3.0,,,,,,,,,,,,100.0,0.0,,6160717242827a64a55d99ad,17:21:40,03/04/2024
,"<p style=""font-size:75px;"">...</p>",,ospan,iti,lR8p1C11CaYFqFSKysG1KvPdAO93,html-keyboard-response,134,680056,0.0-46.0-4.0-2.0-0.0,,,,,,,,,,,,,,,6160717242827a64a55d99ad,17:21:40,03/04/2024
1735.0,,,ospan,symmetry,lR8p1C11CaYFqFSKysG1KvPdAO93,symmetry-judgement-task,135,682917,0.0-46.0-4.0-2.0-1.0-0.0,,,,,,,,,,1.0,1.0,,,,6160717242827a64a55d99ad,17:21:40,03/04/2024
,"<div style=""font-size: 10rem; color: #0000FF"">G</div>",,ospan,letter,lR8p1C11CaYFqFSKysG1KvPdAO93,html-keyboard-response,136,683927,0.0-46.0-4.0-2.0-1.0-1.0,,,,,,,,,,,,,,,6160717242827a64a55d99ad,17:21:40,03/04/2024
1798.0,,,ospan,symmetry,lR8p1C11CaYFqFSKysG1KvPdAO93,symmetry-judgement-task,137,687614,0.0-46.0-4.0-2.0-1.0-2.0,,,,,,,,,,1.0,1.0,,,,6160717242827a64a55d99ad,17:21:40,03/04/2024
,"<div style=""font-size: 10rem; color: #0000FF"">C</div>",,ospan,letter,lR8p1C11CaYFqFSKysG1KvPdAO93,html-keyboard-response,138,688619,0.0-46.0-4.0-2.0-1.0-3.0,,,,,,,,,,,,,,,6160717242827a64a55d99ad,17:21:40,03/04/2024
2488.0,,,ospan,symmetry,lR8p1C11CaYFqFSKysG1KvPdAO93,symmetry-judgement-task,139,693012,0.0-46.0-4.0-2.0-1.0-4.0,,,,,,,,,,1.0,1.0,,,,6160717242827a64a55d99ad,17:21:40,03/04/2024
,"<div style=""font-size: 10rem; color: #0000FF"">P</div>",,ospan,letter,lR8p1C11CaYFqFSKysG1KvPdAO93,html-keyboard-response,140,694022,0.0-46.0-4.0-2.0-1.0-5.0,,,,,,,,,,,,,,,6160717242827a64a55d99ad,17:21:40,03/04/2024
3100.199999809265,"<div class = numbox><p style=""font-size: 2.4rem"">Please recall the letters you saw to the best of your ability. If you do not remember a particular letter, use the SKIP button.<br><b>(When you are ready to lock in your answer, press ENTER)</b></p><button id = button_1 class = ""square num-button"" onclick = ""recordClick(this)""><div class = content><div class = numbers>C</div></div></button><button id = button_2 class = ""square num-button"" onclick = ""recordClick(this)""><div class = content><div class = numbers>G</div></div></button><button id = button_3 class = ""square num-button"" onclick = ""recordClick(this)""><div class = content><div class = numbers>H</div></div></button><button id = button_4 class = ""square num-button"" onclick = ""recordClick(this)""><div class = content><div class = numbers>J</div></div></button><button id = button_5 class = ""square num-button"" onclick = ""recordClick(this)""><div class = content><div class = numbers>K</div></div></button><button id = button_6 class = ""square num-button"" onclick = ""recordClick(this)""><div class = content><div class = numbers>L</div></div></button><button id = button_7 class = ""square num-button"" onclick = ""recordClick(this)""><div class = content><div class = numbers>N</div></div></button><button id = button_8 class = ""square num-button"" onclick = ""recordClick(this)""><div class = content><div class = numbers>P</div></div></button><button id = button_9 class = ""square num-button"" onclick = ""recordClick(this)""><div class = content><div class = numbers>Q</div></div></button><button id = button_10 class = ""square num-button"" onclick = ""recordClick(this)""><div class = content><div class = numbers>R</div></div></button><button id = button_11 class = ""square num-button"" onclick = ""recordClick(this)""><div class = content><div class = numbers>S</div></div></button><button id = button_12 class = ""square num-button"" onclick = ""recordClick(this)""><div class = content><div class = numbers>Y</div></div></button><button class = clear_button id = ""ClearButton"" onclick = ""clearResponse()"">BACKSPACE</button><button class = blank_button id = ""BlankButton"" onclick = ""blankResponse()"">SKIP</button><p style=""font-size: 2.4rem""><u><b>Current Answer:</b></u></p><br><br><div id=echoed_txt style=""font-size: 5rem; color:blue;""><b></b></div></div>",enter,ospan,retrieval,lR8p1C11CaYFqFSKysG1KvPdAO93,html-keyboard-response,141,697885,0.0-46.0-4.0-2.0-2.0,15,15,15,3.0,"[""G"",""C"",""P""]","[""G"",""C"",""P""]",1.0,3.0,,,,,,,6160717242827a64a55d99ad,17:21:40,03/04/2024
685.2999997138977,[''],0,ospan,feedback,lR8p1C11CaYFqFSKysG1KvPdAO93,html-button-response,142,699081,0.0-46.0-4.0-2.0-3.0,,,,,,,,,,,,100.0,0.0,,6160717242827a64a55d99ad,17:21:40,03/04/2024
,"<p style=""font-size:75px;"">...</p>",,ospan,iti,lR8p1C11CaYFqFSKysG1KvPdAO93,html-keyboard-response,143,700096,0.0-46.0-5.0-0.0-0.0,,,,,,,,,,,,,,,6160717242827a64a55d99ad,17:21:40,03/04/2024
1869.0,,,ospan,symmetry,lR8p1C11CaYFqFSKysG1KvPdAO93,symmetry-judgement-task,144,703083,0.0-46.0-5.0-0.0-1.0-0.0,,,,,,,,,,1.0,1.0,,,,6160717242827a64a55d99ad,17:21:40,03/04/2024
,"<div style=""font-size: 10rem; color: #0000FF"">N</div>",,ospan,letter,lR8p1C11CaYFqFSKysG1KvPdAO93,html-keyboard-response,145,704100,0.0-46.0-5.0-0.0-1.0-1.0,,,,,,,,,,,,,,,6160717242827a64a55d99ad,17:21:40,03/04/2024
2100.0,,,ospan,symmetry,lR8p1C11CaYFqFSKysG1KvPdAO93,symmetry-judgement-task,146,708083,0.0-46.0-5.0-0.0-1.0-2.0,,,,,,,,,,1.0,1.0,,,,6160717242827a64a55d99ad,17:21:40,03/04/2024
,"<div style=""font-size: 10rem; color: #0000FF"">C</div>",,ospan,letter,lR8p1C11CaYFqFSKysG1KvPdAO93,html-keyboard-response,147,709092,0.0-46.0-5.0-0.0-1.0-3.0,,,,,,,,,,,,,,,6160717242827a64a55d99ad,17:21:40,03/04/2024
2746.0,,,ospan,symmetry,lR8p1C11CaYFqFSKysG1KvPdAO93,symmetry-judgement-task,148,713746,0.0-46.0-5.0-0.0-1.0-4.0,,,,,,,,,,1.0,1.0,,,,6160717242827a64a55d99ad,17:21:40,03/04/2024
,"<div style=""font-size: 10rem; color: #0000FF"">S</div>",,ospan,letter,lR8p1C11CaYFqFSKysG1KvPdAO93,html-keyboard-response,149,714758,0.0-46.0-5.0-0.0-1.0-5.0,,,,,,,,,,,,,,,6160717242827a64a55d99ad,17:21:40,03/04/2024
2095.0,,,ospan,symmetry,lR8p1C11CaYFqFSKysG1KvPdAO93,symmetry-judgement-task,150,718743,0.0-46.0-5.0-0.0-1.0-6.0,,,,,,,,,,1.0,1.0,,,,6160717242827a64a55d99ad,17:21:40,03/04/2024
,"<div style=""font-size: 10rem; color: #0000FF"">J</div>",,ospan,letter,lR8p1C11CaYFqFSKysG1KvPdAO93,html-keyboard-response,151,719745,0.0-46.0-5.0-0.0-1.0-7.0,,,,,,,,,,,,,,,6160717242827a64a55d99ad,17:21:40,03/04/2024
2136.0,,,ospan,symmetry,lR8p1C11CaYFqFSKysG1KvPdAO93,symmetry-judgement-task,152,723786,0.0-46.0-5.0-0.0-1.0-8.0,,,,,,,,,,1.0,1.0,,,,6160717242827a64a55d99ad,17:21:40,03/04/2024
,"<div style=""font-size: 10rem; color: #0000FF"">H</div>",,ospan,letter,lR8p1C11CaYFqFSKysG1KvPdAO93,html-keyboard-response,153,724794,0.0-46.0-5.0-0.0-1.0-9.0,,,,,,,,,,,,,,,6160717242827a64a55d99ad,17:21:40,03/04/2024
3098.0,,,ospan,symmetry,lR8p1C11CaYFqFSKysG1KvPdAO93,symmetry-judgement-task,154,729778,0.0-46.0-5.0-0.0-1.0-10.0,,,,,,,,,,1.0,1.0,,,,6160717242827a64a55d99ad,17:21:40,03/04/2024
,"<div style=""font-size: 10rem; color: #0000FF"">P</div>",,ospan,letter,lR8p1C11CaYFqFSKysG1KvPdAO93,html-keyboard-response,155,730790,0.0-46.0-5.0-0.0-1.0-11.0,,,,,,,,,,,,,,,6160717242827a64a55d99ad,17:21:40,03/04/2024
6309.300000190735,"<div class = numbox><p style=""font-size: 2.4rem"">Please recall the letters you saw to the best of your ability. If you do not remember a particular letter, use the SKIP button.<br><b>(When you are ready to lock in your answer, press ENTER)</b></p><button id = button_1 class = ""square num-button"" onclick = ""recordClick(this)""><div class = content><div class = numbers>C</div></div></button><button id = button_2 class = ""square num-button"" onclick = ""recordClick(this)""><div class = content><div class = numbers>G</div></div></button><button id = button_3 class = ""square num-button"" onclick = ""recordClick(this)""><div class = content><div class = numbers>H</div></div></button><button id = button_4 class = ""square num-button"" onclick = ""recordClick(this)""><div class = content><div class = numbers>J</div></div></button><button id = button_5 class = ""square num-button"" onclick = ""recordClick(this)""><div class = content><div class = numbers>K</div></div></button><button id = button_6 class = ""square num-button"" onclick = ""recordClick(this)""><div class = content><div class = numbers>L</div></div></button><button id = button_7 class = ""square num-button"" onclick = ""recordClick(this)""><div class = content><div class = numbers>N</div></div></button><button id = button_8 class = ""square num-button"" onclick = ""recordClick(this)""><div class = content><div class = numbers>P</div></div></button><button id = button_9 class = ""square num-button"" onclick = ""recordClick(this)""><div class = content><div class = numbers>Q</div></div></button><button id = button_10 class = ""square num-button"" onclick = ""recordClick(this)""><div class = content><div class = numbers>R</div></div></button><button id = button_11 class = ""square num-button"" onclick = ""recordClick(this)""><div class = content><div class = numbers>S</div></div></button><button id = button_12 class = ""square num-button"" onclick = ""recordClick(this)""><div class = content><div class = numbers>Y</div></div></button><button class = clear_button id = ""ClearButton"" onclick = ""clearResponse()"">BACKSPACE</button><button class = blank_button id = ""BlankButton"" onclick = ""blankResponse()"">SKIP</button><p style=""font-size: 2.4rem""><u><b>Current Answer:</b></u></p><br><br><div id=echoed_txt style=""font-size: 5rem; color:blue;""><b></b></div></div>",enter,ospan,retrieval,lR8p1C11CaYFqFSKysG1KvPdAO93,html-keyboard-response,156,737860,0.0-46.0-5.0-0.0-2.0,21,21,21,6.0,"[""N"",""C"",""S"",""J"",""H"",""P""]","[""N"",""C"",""S"",""J"",""H"",""P""]",1.0,6.0,,,,,,,6160717242827a64a55d99ad,17:21:40,03/04/2024
646.8000001907349,[''],0,ospan,feedback,lR8p1C11CaYFqFSKysG1KvPdAO93,html-button-response,157,739021,0.0-46.0-5.0-0.0-3.0,,,,,,,,,,,,100.0,0.0,,6160717242827a64a55d99ad,17:21:40,03/04/2024
,"<p style=""font-size:75px;"">...</p>",,ospan,iti,lR8p1C11CaYFqFSKysG1KvPdAO93,html-keyboard-response,158,740026,0.0-46.0-5.0-1.0-0.0,,,,,,,,,,,,,,,6160717242827a64a55d99ad,17:21:40,03/04/2024
1686.0,,,ospan,symmetry,lR8p1C11CaYFqFSKysG1KvPdAO93,symmetry-judgement-task,159,742747,0.0-46.0-5.0-1.0-1.0-0.0,,,,,,,,,,1.0,1.0,,,,6160717242827a64a55d99ad,17:21:40,03/04/2024
,"<div style=""font-size: 10rem; color: #0000FF"">N</div>",,ospan,letter,lR8p1C11CaYFqFSKysG1KvPdAO93,html-keyboard-response,160,743758,0.0-46.0-5.0-1.0-1.0-1.0,,,,,,,,,,,,,,,6160717242827a64a55d99ad,17:21:40,03/04/2024
1564.0,,,ospan,symmetry,lR8p1C11CaYFqFSKysG1KvPdAO93,symmetry-judgement-task,161,747210,0.0-46.0-5.0-1.0-1.0-2.0,,,,,,,,,,1.0,1.0,,,,6160717242827a64a55d99ad,17:21:40,03/04/2024
,"<div style=""font-size: 10rem; color: #0000FF"">L</div>",,ospan,letter,lR8p1C11CaYFqFSKysG1KvPdAO93,html-keyboard-response,162,748223,0.0-46.0-5.0-1.0-1.0-3.0,,,,,,,,,,,,,,,6160717242827a64a55d99ad,17:21:40,03/04/2024
1928.0,,,ospan,symmetry,lR8p1C11CaYFqFSKysG1KvPdAO93,symmetry-judgement-task,163,752049,0.0-46.0-5.0-1.0-1.0-4.0,,,,,,,,,,1.0,1.0,,,,6160717242827a64a55d99ad,17:21:40,03/04/2024
,"<div style=""font-size: 10rem; color: #0000FF"">S</div>",,ospan,letter,lR8p1C11CaYFqFSKysG1KvPdAO93,html-keyboard-response,164,753057,0.0-46.0-5.0-1.0-1.0-5.0,,,,,,,,,,,,,,,6160717242827a64a55d99ad,17:21:40,03/04/2024
1705.0,,,ospan,symmetry,lR8p1C11CaYFqFSKysG1KvPdAO93,symmetry-judgement-task,165,756648,0.0-46.0-5.0-1.0-1.0-6.0,,,,,,,,,,1.0,1.0,,,,6160717242827a64a55d99ad,17:21:40,03/04/2024
,"<div style=""font-size: 10rem; color: #0000FF"">J</div>",,ospan,letter,lR8p1C11CaYFqFSKysG1KvPdAO93,html-keyboard-response,166,757654,0.0-46.0-5.0-1.0-1.0-7.0,,,,,,,,,,,,,,,6160717242827a64a55d99ad,17:21:40,03/04/2024
2183.0,,,ospan,symmetry,lR8p1C11CaYFqFSKysG1KvPdAO93,symmetry-judgement-task,167,761735,0.0-46.0-5.0-1.0-1.0-8.0,,,,,,,,,,1.0,1.0,,,,6160717242827a64a55d99ad,17:21:40,03/04/2024
,"<div style=""font-size: 10rem; color: #0000FF"">R</div>",,ospan,letter,lR8p1C11CaYFqFSKysG1KvPdAO93,html-keyboard-response,168,762749,0.0-46.0-5.0-1.0-1.0-9.0,,,,,,,,,,,,,,,6160717242827a64a55d99ad,17:21:40,03/04/2024
1495.0,,,ospan,symmetry,lR8p1C11CaYFqFSKysG1KvPdAO93,symmetry-judgement-task,169,766127,0.0-46.0-5.0-1.0-1.0-10.0,,,,,,,,,,1.0,1.0,,,,6160717242827a64a55d99ad,17:21:40,03/04/2024
,"<div style=""font-size: 10rem; color: #0000FF"">H</div>",,ospan,letter,lR8p1C11CaYFqFSKysG1KvPdAO93,html-keyboard-response,170,767128,0.0-46.0-5.0-1.0-1.0-11.0,,,,,,,,,,,,,,,6160717242827a64a55d99ad,17:21:40,03/04/2024
1703.0,,,ospan,symmetry,lR8p1C11CaYFqFSKysG1KvPdAO93,symmetry-judgement-task,171,770712,0.0-46.0-5.0-1.0-1.0-12.0,,,,,,,,,,1.0,1.0,,,,6160717242827a64a55d99ad,17:21:40,03/04/2024
,"<div style=""font-size: 10rem; color: #0000FF"">K</div>",,ospan,letter,lR8p1C11CaYFqFSKysG1KvPdAO93,html-keyboard-response,172,771725,0.0-46.0-5.0-1.0-1.0-13.0,,,,,,,,,,,,,,,6160717242827a64a55d99ad,17:21:40,03/04/2024
8728.800000190735,"<div class = numbox><p style=""font-size: 2.4rem"">Please recall the letters you saw to the best of your ability. If you do not remember a particular letter, use the SKIP button.<br><b>(When you are ready to lock in your answer, press ENTER)</b></p><button id = button_1 class = ""square num-button"" onclick = ""recordClick(this)""><div class = content><div class = numbers>C</div></div></button><button id = button_2 class = ""square num-button"" onclick = ""recordClick(this)""><div class = content><div class = numbers>G</div></div></button><button id = button_3 class = ""square num-button"" onclick = ""recordClick(this)""><div class = content><div class = numbers>H</div></div></button><button id = button_4 class = ""square num-button"" onclick = ""recordClick(this)""><div class = content><div class = numbers>J</div></div></button><button id = button_5 class = ""square num-button"" onclick = ""recordClick(this)""><div class = content><div class = numbers>K</div></div></button><button id = button_6 class = ""square num-button"" onclick = ""recordClick(this)""><div class = content><div class = numbers>L</div></div></button><button id = button_7 class = ""square num-button"" onclick = ""recordClick(this)""><div class = content><div class = numbers>N</div></div></button><button id = button_8 class = ""square num-button"" onclick = ""recordClick(this)""><div class = content><div class = numbers>P</div></div></button><button id = button_9 class = ""square num-button"" onclick = ""recordClick(this)""><div class = content><div class = numbers>Q</div></div></button><button id = button_10 class = ""square num-button"" onclick = ""recordClick(this)""><div class = content><div class = numbers>R</div></div></button><button id = button_11 class = ""square num-button"" onclick = ""recordClick(this)""><div class = content><div class = numbers>S</div></div></button><button id = button_12 class = ""square num-button"" onclick = ""recordClick(this)""><div class = content><div class = numbers>Y</div></div></button><button class = clear_button id = ""ClearButton"" onclick = ""clearResponse()"">BACKSPACE</button><button class = blank_button id = ""BlankButton"" onclick = ""blankResponse()"">SKIP</button><p style=""font-size: 2.4rem""><u><b>Current Answer:</b></u></p><br><br><div id=echoed_txt style=""font-size: 5rem; color:blue;""><b></b></div></div>",enter,ospan,retrieval,lR8p1C11CaYFqFSKysG1KvPdAO93,html-keyboard-response,173,781216,0.0-46.0-5.0-1.0-2.0,28,28,28,7.0,"[""N"",""L"",""S"",""J"",""R"",""H"",""K""]","[""N"",""L"",""S"",""J"",""R"",""H"",""K""]",1.0,7.0,,,,,,,6160717242827a64a55d99ad,17:21:40,03/04/2024
625.9000000953674,[''],0,ospan,feedback,lR8p1C11CaYFqFSKysG1KvPdAO93,html-button-response,174,782346,0.0-46.0-5.0-1.0-3.0,,,,,,,,,,,,100.0,0.0,,6160717242827a64a55d99ad,17:21:40,03/04/2024
,"<p style=""font-size:75px;"">...</p>",,ospan,iti,lR8p1C11CaYFqFSKysG1KvPdAO93,html-keyboard-response,175,783356,0.0-46.0-6.0-0.0-0.0,,,,,,,,,,,,,,,6160717242827a64a55d99ad,17:21:40,03/04/2024
1852.0,,,ospan,symmetry,lR8p1C11CaYFqFSKysG1KvPdAO93,symmetry-judgement-task,176,786239,0.0-46.0-6.0-0.0-1.0-0.0,,,,,,,,,,1.0,1.0,,,,6160717242827a64a55d99ad,17:21:40,03/04/2024
,"<div style=""font-size: 10rem; color: #0000FF"">Y</div>",,ospan,letter,lR8p1C11CaYFqFSKysG1KvPdAO93,html-keyboard-response,177,787247,0.0-46.0-6.0-0.0-1.0-1.0,,,,,,,,,,,,,,,6160717242827a64a55d99ad,17:21:40,03/04/2024
3499.0,,,ospan,symmetry,lR8p1C11CaYFqFSKysG1KvPdAO93,symmetry-judgement-task,178,792631,0.0-46.0-6.0-0.0-1.0-2.0,,,,,,,,,,1.0,1.0,,,,6160717242827a64a55d99ad,17:21:40,03/04/2024
,"<div style=""font-size: 10rem; color: #0000FF"">H</div>",,ospan,letter,lR8p1C11CaYFqFSKysG1KvPdAO93,html-keyboard-response,179,793640,0.0-46.0-6.0-0.0-1.0-3.0,,,,,,,,,,,,,,,6160717242827a64a55d99ad,17:21:40,03/04/2024
1588.0,,,ospan,symmetry,lR8p1C11CaYFqFSKysG1KvPdAO93,symmetry-judgement-task,180,797131,0.0-46.0-6.0-0.0-1.0-4.0,,,,,,,,,,1.0,1.0,,,,6160717242827a64a55d99ad,17:21:40,03/04/2024
,"<div style=""font-size: 10rem; color: #0000FF"">N</div>",,ospan,letter,lR8p1C11CaYFqFSKysG1KvPdAO93,html-keyboard-response,181,798141,0.0-46.0-6.0-0.0-1.0-5.0,,,,,,,,,,,,,,,6160717242827a64a55d99ad,17:21:40,03/04/2024
2406.0,,,ospan,symmetry,lR8p1C11CaYFqFSKysG1KvPdAO93,symmetry-judgement-task,182,802440,0.0-46.0-6.0-0.0-1.0-6.0,,,,,,,,,,1.0,1.0,,,,6160717242827a64a55d99ad,17:21:40,03/04/2024
,"<div style=""font-size: 10rem; color: #0000FF"">Q</div>",,ospan,letter,lR8p1C11CaYFqFSKysG1KvPdAO93,html-keyboard-response,183,803449,0.0-46.0-6.0-0.0-1.0-7.0,,,,,,,,,,,,,,,6160717242827a64a55d99ad,17:21:40,03/04/2024
2158.0,,,ospan,symmetry,lR8p1C11CaYFqFSKysG1KvPdAO93,symmetry-judgement-task,184,807518,0.0-46.0-6.0-0.0-1.0-8.0,,,,,,,,,,1.0,1.0,,,,6160717242827a64a55d99ad,17:21:40,03/04/2024
,"<div style=""font-size: 10rem; color: #0000FF"">K</div>",,ospan,letter,lR8p1C11CaYFqFSKysG1KvPdAO93,html-keyboard-response,185,808518,0.0-46.0-6.0-0.0-1.0-9.0,,,,,,,,,,,,,,,6160717242827a64a55d99ad,17:21:40,03/04/2024
13706.300000190735,"<div class = numbox><p style=""font-size: 2.4rem"">Please recall the letters you saw to the best of your ability. If you do not remember a particular letter, use the SKIP button.<br><b>(When you are ready to lock in your answer, press ENTER)</b></p><button id = button_1 class = ""square num-button"" onclick = ""recordClick(this)""><div class = content><div class = numbers>C</div></div></button><button id = button_2 class = ""square num-button"" onclick = ""recordClick(this)""><div class = content><div class = numbers>G</div></div></button><button id = button_3 class = ""square num-button"" onclick = ""recordClick(this)""><div class = content><div class = numbers>H</div></div></button><button id = button_4 class = ""square num-button"" onclick = ""recordClick(this)""><div class = content><div class = numbers>J</div></div></button><button id = button_5 class = ""square num-button"" onclick = ""recordClick(this)""><div class = content><div class = numbers>K</div></div></button><button id = button_6 class = ""square num-button"" onclick = ""recordClick(this)""><div class = content><div class = numbers>L</div></div></button><button id = button_7 class = ""square num-button"" onclick = ""recordClick(this)""><div class = content><div class = numbers>N</div></div></button><button id = button_8 class = ""square num-button"" onclick = ""recordClick(this)""><div class = content><div class = numbers>P</div></div></button><button id = button_9 class = ""square num-button"" onclick = ""recordClick(this)""><div class = content><div class = numbers>Q</div></div></button><button id = button_10 class = ""square num-button"" onclick = ""recordClick(this)""><div class = content><div class = numbers>R</div></div></button><button id = button_11 class = ""square num-button"" onclick = ""recordClick(this)""><div class = content><div class = numbers>S</div></div></button><button id = button_12 class = ""square num-button"" onclick = ""recordClick(this)""><div class = content><div class = numbers>Y</div></div></button><button class = clear_button id = ""ClearButton"" onclick = ""clearResponse()"">BACKSPACE</button><button class = blank_button id = ""BlankButton"" onclick = ""blankResponse()"">SKIP</button><p style=""font-size: 2.4rem""><u><b>Current Answer:</b></u></p><br><br><div id=echoed_txt style=""font-size: 5rem; color:blue;""><b></b></div></div>",enter,ospan,retrieval,lR8p1C11CaYFqFSKysG1KvPdAO93,html-keyboard-response,186,822981,0.0-46.0-6.0-0.0-2.0,33,33,33,5.0,"[""Y"",""H"",""N"",""Q"",""K""]","[""Y"",""H"",""N"",""Q"",""K""]",1.0,5.0,,,,,,,6160717242827a64a55d99ad,17:21:40,03/04/2024
1217.8000001907349,[''],0,ospan,feedback,lR8p1C11CaYFqFSKysG1KvPdAO93,html-button-response,187,824709,0.0-46.0-6.0-0.0-3.0,,,,,,,,,,,,100.0,0.0,,6160717242827a64a55d99ad,17:21:40,03/04/2024
,"<p style=""font-size:75px;"">...</p>",,ospan,iti,lR8p1C11CaYFqFSKysG1KvPdAO93,html-keyboard-response,188,825716,0.0-46.0-6.0-1.0-0.0,,,,,,,,,,,,,,,6160717242827a64a55d99ad,17:21:40,03/04/2024
2835.0,,,ospan,symmetry,lR8p1C11CaYFqFSKysG1KvPdAO93,symmetry-judgement-task,189,829673,0.0-46.0-6.0-1.0-1.0-0.0,,,,,,,,,,1.0,1.0,,,,6160717242827a64a55d99ad,17:21:40,03/04/2024
,"<div style=""font-size: 10rem; color: #0000FF"">Y</div>",,ospan,letter,lR8p1C11CaYFqFSKysG1KvPdAO93,html-keyboard-response,190,830684,0.0-46.0-6.0-1.0-1.0-1.0,,,,,,,,,,,,,,,6160717242827a64a55d99ad,17:21:40,03/04/2024
1402.0,,,ospan,symmetry,lR8p1C11CaYFqFSKysG1KvPdAO93,symmetry-judgement-task,191,833969,0.0-46.0-6.0-1.0-1.0-2.0,,,,,,,,,,1.0,1.0,,,,6160717242827a64a55d99ad,17:21:40,03/04/2024
,"<div style=""font-size: 10rem; color: #0000FF"">S</div>",,ospan,letter,lR8p1C11CaYFqFSKysG1KvPdAO93,html-keyboard-response,192,834971,0.0-46.0-6.0-1.0-1.0-3.0,,,,,,,,,,,,,,,6160717242827a64a55d99ad,17:21:40,03/04/2024
1345.0,,,ospan,symmetry,lR8p1C11CaYFqFSKysG1KvPdAO93,symmetry-judgement-task,193,838217,0.0-46.0-6.0-1.0-1.0-4.0,,,,,,,,,,1.0,1.0,,,,6160717242827a64a55d99ad,17:21:40,03/04/2024
,"<div style=""font-size: 10rem; color: #0000FF"">P</div>",,ospan,letter,lR8p1C11CaYFqFSKysG1KvPdAO93,html-keyboard-response,194,839227,0.0-46.0-6.0-1.0-1.0-5.0,,,,,,,,,,,,,,,6160717242827a64a55d99ad,17:21:40,03/04/2024
1784.0,,,ospan,symmetry,lR8p1C11CaYFqFSKysG1KvPdAO93,symmetry-judgement-task,195,842901,0.0-46.0-6.0-1.0-1.0-6.0,,,,,,,,,,1.0,1.0,,,,6160717242827a64a55d99ad,17:21:40,03/04/2024
,"<div style=""font-size: 10rem; color: #0000FF"">G</div>",,ospan,letter,lR8p1C11CaYFqFSKysG1KvPdAO93,html-keyboard-response,196,843905,0.0-46.0-6.0-1.0-1.0-7.0,,,,,,,,,,,,,,,6160717242827a64a55d99ad,17:21:40,03/04/2024
1627.0,,,ospan,symmetry,lR8p1C11CaYFqFSKysG1KvPdAO93,symmetry-judgement-task,197,847441,0.0-46.0-6.0-1.0-1.0-8.0,,,,,,,,,,1.0,1.0,,,,6160717242827a64a55d99ad,17:21:40,03/04/2024
,"<div style=""font-size: 10rem; color: #0000FF"">Q</div>",,ospan,letter,lR8p1C11CaYFqFSKysG1KvPdAO93,html-keyboard-response,198,848442,0.0-46.0-6.0-1.0-1.0-9.0,,,,,,,,,,,,,,,6160717242827a64a55d99ad,17:21:40,03/04/2024
1460.0,,,ospan,symmetry,lR8p1C11CaYFqFSKysG1KvPdAO93,symmetry-judgement-task,199,851786,0.0-46.0-6.0-1.0-1.0-10.0,,,,,,,,,,1.0,1.0,,,,6160717242827a64a55d99ad,17:21:40,03/04/2024
,"<div style=""font-size: 10rem; color: #0000FF"">N</div>",,ospan,letter,lR8p1C11CaYFqFSKysG1KvPdAO93,html-keyboard-response,200,852796,0.0-46.0-6.0-1.0-1.0-11.0,,,,,,,,,,,,,,,6160717242827a64a55d99ad,17:21:40,03/04/2024
1410.0,,,ospan,symmetry,lR8p1C11CaYFqFSKysG1KvPdAO93,symmetry-judgement-task,201,856107,0.0-46.0-6.0-1.0-1.0-12.0,,,,,,,,,,1.0,1.0,,,,6160717242827a64a55d99ad,17:21:40,03/04/2024
,"<div style=""font-size: 10rem; color: #0000FF"">R</div>",,ospan,letter,lR8p1C11CaYFqFSKysG1KvPdAO93,html-keyboard-response,202,857120,0.0-46.0-6.0-1.0-1.0-13.0,,,,,,,,,,,,,,,6160717242827a64a55d99ad,17:21:40,03/04/2024
1461.0,,,ospan,symmetry,lR8p1C11CaYFqFSKysG1KvPdAO93,symmetry-judgement-task,203,860468,0.0-46.0-6.0-1.0-1.0-14.0,,,,,,,,,,1.0,1.0,,,,6160717242827a64a55d99ad,17:21:40,03/04/2024
,"<div style=""font-size: 10rem; color: #0000FF"">K</div>",,ospan,letter,lR8p1C11CaYFqFSKysG1KvPdAO93,html-keyboard-response,204,861470,0.0-46.0-6.0-1.0-1.0-15.0,,,,,,,,,,,,,,,6160717242827a64a55d99ad,17:21:40,03/04/2024
8944.200000286102,"<div class = numbox><p style=""font-size: 2.4rem"">Please recall the letters you saw to the best of your ability. If you do not remember a particular letter, use the SKIP button.<br><b>(When you are ready to lock in your answer, press ENTER)</b></p><button id = button_1 class = ""square num-button"" onclick = ""recordClick(this)""><div class = content><div class = numbers>C</div></div></button><button id = button_2 class = ""square num-button"" onclick = ""recordClick(this)""><div class = content><div class = numbers>G</div></div></button><button id = button_3 class = ""square num-button"" onclick = ""recordClick(this)""><div class = content><div class = numbers>H</div></div></button><button id = button_4 class = ""square num-button"" onclick = ""recordClick(this)""><div class = content><div class = numbers>J</div></div></button><button id = button_5 class = ""square num-button"" onclick = ""recordClick(this)""><div class = content><div class = numbers>K</div></div></button><button id = button_6 class = ""square num-button"" onclick = ""recordClick(this)""><div class = content><div class = numbers>L</div></div></button><button id = button_7 class = ""square num-button"" onclick = ""recordClick(this)""><div class = content><div class = numbers>N</div></div></button><button id = button_8 class = ""square num-button"" onclick = ""recordClick(this)""><div class = content><div class = numbers>P</div></div></button><button id = button_9 class = ""square num-button"" onclick = ""recordClick(this)""><div class = content><div class = numbers>Q</div></div></button><button id = button_10 class = ""square num-button"" onclick = ""recordClick(this)""><div class = content><div class = numbers>R</div></div></button><button id = button_11 class = ""square num-button"" onclick = ""recordClick(this)""><div class = content><div class = numbers>S</div></div></button><button id = button_12 class = ""square num-button"" onclick = ""recordClick(this)""><div class = content><div class = numbers>Y</div></div></button><button class = clear_button id = ""ClearButton"" onclick = ""clearResponse()"">BACKSPACE</button><button class = blank_button id = ""BlankButton"" onclick = ""blankResponse()"">SKIP</button><p style=""font-size: 2.4rem""><u><b>Current Answer:</b></u></p><br><br><div id=echoed_txt style=""font-size: 5rem; color:blue;""><b></b></div></div>",enter,ospan,retrieval,lR8p1C11CaYFqFSKysG1KvPdAO93,html-keyboard-response,205,871171,0.0-46.0-6.0-1.0-2.0,41,41,41,8.0,"[""Y"",""S"",""P"",""G"",""Q"",""N"",""R"",""K""]","[""Y"",""S"",""P"",""G"",""Q"",""N"",""R"",""K""]",1.0,8.0,,,,,,,6160717242827a64a55d99ad,17:21:40,03/04/2024
755.0,[''],0,ospan,feedback,lR8p1C11CaYFqFSKysG1KvPdAO93,html-button-response,206,872442,0.0-46.0-6.0-1.0-3.0,,,,,,,,,,,,100.0,0.0,,6160717242827a64a55d99ad,17:21:40,03/04/2024
6954.300000190735,,{'Q0': 'It was good'},ospan,survey_ospan,lR8p1C11CaYFqFSKysG1KvPdAO93,lmdlab-survey-text,207,880150,0.0-46.0-7.0,,,,,,,,,,,,,,lR8p1C11CaYFqFSKysG1KvPdAO93,6160717242827a64a55d99ad,17:21:40,03/04/2024
1118.6999998092651,<p><p style='font-size: 3rem'>Great work!<br><br>This completes the symmetry and memory task.</p><br><br><br>,0,ospan,finish,lR8p1C11CaYFqFSKysG1KvPdAO93,html-button-response,208,881271,0.0-46.0-8.0,41,41,41,,,,,,,,,100.0,,,6160717242827a64a55d99ad,17:21:40,03/04/2024
