rt,stimulus,response,exp_name,exp_stage,subjectID,trial_type,trial_index,time_elapsed,internal_node_id,ospan_shown,ospan_total,ospan_abs,length,resp_actual,resp_correct,full_correct,num_correct,feedback,accuracy,correct,math_acc,math_warning,databaseID,prolificID,start_time,date
2928.0,<div class = 'left_align' style='font-size: 3.25rem; line-height: 1.3;'><p class = 'center_align'><b>Welcome to the Symmetry and Memory Task</b><br><br><br><br></p>Press 'continue' to show the instructions.<br><br><br><br></div>,0,ospan,instruct,RpZhvuAtP1Wfj592zfqjzZK4KK83,html-button-response,54,464702,0.0-46.0-0.0-0.0-0.0,,,,,,,,,,,,,,,64137069043a6e0150c4beae,08:57:54,03/04/2024
7426.0,"<div class = 'left_align' style='font-size: 3.25rem; line-height: 1.3;'><p class = 'center_align'><b>Symmetry and Memory Task</b><br><br></p>In this task, you will try to memorize letters you see on the screen<br>while you also view black and white grid pictures.<br><br>In the next few minutes, you will have some practice to get you familiar<br>with how the task works.<br><br>It may be difficult sometimes, but please do not worry about making mistakes!<br><br>We will begin by practicing the letter part of the task.<br><br><br><br></div>",0,ospan,instruct,RpZhvuAtP1Wfj592zfqjzZK4KK83,html-button-response,55,472379,0.0-46.0-0.0-0.0-1.0,,,,,,,,,,,,,,,64137069043a6e0150c4beae,08:57:54,03/04/2024
6844.0,"<div class = 'left_align' style='font-size: 3.25rem; line-height: 1.3;'>For this practice part, letters will appear on the screen one at a time.<br><br>Try to remember each letter in the order presented.<br><br>After some letters have been shown, you will see a response screen. Your<br>goal is to report the letters you saw <b>in order</b>. If you do not remember<br>a particular letter, you will have the option to leave it blank.<br><br><br><br></div>",0,ospan,instruct,RpZhvuAtP1Wfj592zfqjzZK4KK83,html-button-response,56,479475,0.0-46.0-0.0-0.0-2.0,,,,,,,,,,,,,,,64137069043a6e0150c4beae,08:57:54,03/04/2024
1390.0,"<div class = 'left_align' style='font-size: 3.25rem; line-height: 1.3;'>Remember, it is very important to get the letters in the same<br>order as you see them.<br><br>When you are ready, you may begin the letter practice.</div><br><br><br><br>",0,ospan,instruct,RpZhvuAtP1Wfj592zfqjzZK4KK83,html-button-response,57,481117,0.0-46.0-0.0-0.0-3.0,,,,,,,,,,,,,,,64137069043a6e0150c4beae,08:57:54,03/04/2024
,"<p style=""font-size:75px;"">...</p>",,ospan,iti,RpZhvuAtP1Wfj592zfqjzZK4KK83,html-keyboard-response,58,482370,0.0-46.0-0.0-1.0-0.0,,,,,,,,,,,,,,,64137069043a6e0150c4beae,08:57:54,03/04/2024
,"<div style=""font-size: 10rem; color: #0000FF"">P</div>",,ospan,letter,RpZhvuAtP1Wfj592zfqjzZK4KK83,html-keyboard-response,59,483372,0.0-46.0-0.0-1.0-1.0,,,,,,,,,,,,,,,64137069043a6e0150c4beae,08:57:54,03/04/2024
,"<div style=""font-size: 10rem; color: #0000FF"">H</div>",,ospan,letter,RpZhvuAtP1Wfj592zfqjzZK4KK83,html-keyboard-response,60,485125,0.0-46.0-0.0-1.0-2.0,,,,,,,,,,,,,,,64137069043a6e0150c4beae,08:57:54,03/04/2024
12560.0,"<div class = numbox><p style=""font-size: 2.4rem"">Please recall the letters you saw to the best of your ability. If you do not remember a particular letter, use the SKIP button.<br><b>(When you are ready to lock in your answer, press ENTER)</b></p><button id = button_1 class = ""square num-button"" onclick = ""recordClick(this)""><div class = content><div class = numbers>C</div></div></button><button id = button_2 class = ""square num-button"" onclick = ""recordClick(this)""><div class = content><div class = numbers>G</div></div></button><button id = button_3 class = ""square num-button"" onclick = ""recordClick(this)""><div class = content><div class = numbers>H</div></div></button><button id = button_4 class = ""square num-button"" onclick = ""recordClick(this)""><div class = content><div class = numbers>J</div></div></button><button id = button_5 class = ""square num-button"" onclick = ""recordClick(this)""><div class = content><div class = numbers>K</div></div></button><button id = button_6 class = ""square num-button"" onclick = ""recordClick(this)""><div class = content><div class = numbers>L</div></div></button><button id = button_7 class = ""square num-button"" onclick = ""recordClick(this)""><div class = content><div class = numbers>N</div></div></button><button id = button_8 class = ""square num-button"" onclick = ""recordClick(this)""><div class = content><div class = numbers>P</div></div></button><button id = button_9 class = ""square num-button"" onclick = ""recordClick(this)""><div class = content><div class = numbers>Q</div></div></button><button id = button_10 class = ""square num-button"" onclick = ""recordClick(this)""><div class = content><div class = numbers>R</div></div></button><button id = button_11 class = ""square num-button"" onclick = ""recordClick(this)""><div class = content><div class = numbers>S</div></div></button><button id = button_12 class = ""square num-button"" onclick = ""recordClick(this)""><div class = content><div class = numbers>Y</div></div></button><button class = clear_button id = ""ClearButton"" onclick = ""clearResponse()"">BACKSPACE</button><button class = blank_button id = ""BlankButton"" onclick = ""blankResponse()"">SKIP</button><p style=""font-size: 2.4rem""><u><b>Current Answer:</b></u></p><br><br><div id=echoed_txt style=""font-size: 5rem; color:blue;""><b></b></div></div>",enter,ospan,retrieval,RpZhvuAtP1Wfj592zfqjzZK4KK83,html-keyboard-response,61,498439,0.0-46.0-0.0-1.0-3.0,NA,NA,NA,2.0,"[""P"",""H""]","[""P"",""H""]",1.0,2.0,"['<font color=""green"">P</font>', '<font color=""green"">H</font>']",,,,,,64137069043a6e0150c4beae,08:57:54,03/04/2024
1475.0,"['<p style=""font-size:44px"">Letters:<br><br><br><font color=""green"">P</font> <font color=""green"">H</font></p><br><br>']",0,ospan,practice_feedback,RpZhvuAtP1Wfj592zfqjzZK4KK83,html-button-response,62,500417,0.0-46.0-0.0-1.0-4.0,,,,,,,,,,,,,,,64137069043a6e0150c4beae,08:57:54,03/04/2024
,"<p style=""font-size:75px;"">...</p>",,ospan,iti,RpZhvuAtP1Wfj592zfqjzZK4KK83,html-keyboard-response,63,501420,0.0-46.0-0.0-2.0-0.0,,,,,,,,,,,,,,,64137069043a6e0150c4beae,08:57:54,03/04/2024
,"<div style=""font-size: 10rem; color: #0000FF"">H</div>",,ospan,letter,RpZhvuAtP1Wfj592zfqjzZK4KK83,html-keyboard-response,64,502422,0.0-46.0-0.0-2.0-1.0,,,,,,,,,,,,,,,64137069043a6e0150c4beae,08:57:54,03/04/2024
,"<div style=""font-size: 10rem; color: #0000FF"">C</div>",,ospan,letter,RpZhvuAtP1Wfj592zfqjzZK4KK83,html-keyboard-response,65,504175,0.0-46.0-0.0-2.0-2.0,,,,,,,,,,,,,,,64137069043a6e0150c4beae,08:57:54,03/04/2024
,"<div style=""font-size: 10rem; color: #0000FF"">N</div>",,ospan,letter,RpZhvuAtP1Wfj592zfqjzZK4KK83,html-keyboard-response,66,505928,0.0-46.0-0.0-2.0-3.0,,,,,,,,,,,,,,,64137069043a6e0150c4beae,08:57:54,03/04/2024
3734.9999999998836,"<div class = numbox><p style=""font-size: 2.4rem"">Please recall the letters you saw to the best of your ability. If you do not remember a particular letter, use the SKIP button.<br><b>(When you are ready to lock in your answer, press ENTER)</b></p><button id = button_1 class = ""square num-button"" onclick = ""recordClick(this)""><div class = content><div class = numbers>C</div></div></button><button id = button_2 class = ""square num-button"" onclick = ""recordClick(this)""><div class = content><div class = numbers>G</div></div></button><button id = button_3 class = ""square num-button"" onclick = ""recordClick(this)""><div class = content><div class = numbers>H</div></div></button><button id = button_4 class = ""square num-button"" onclick = ""recordClick(this)""><div class = content><div class = numbers>J</div></div></button><button id = button_5 class = ""square num-button"" onclick = ""recordClick(this)""><div class = content><div class = numbers>K</div></div></button><button id = button_6 class = ""square num-button"" onclick = ""recordClick(this)""><div class = content><div class = numbers>L</div></div></button><button id = button_7 class = ""square num-button"" onclick = ""recordClick(this)""><div class = content><div class = numbers>N</div></div></button><button id = button_8 class = ""square num-button"" onclick = ""recordClick(this)""><div class = content><div class = numbers>P</div></div></button><button id = button_9 class = ""square num-button"" onclick = ""recordClick(this)""><div class = content><div class = numbers>Q</div></div></button><button id = button_10 class = ""square num-button"" onclick = ""recordClick(this)""><div class = content><div class = numbers>R</div></div></button><button id = button_11 class = ""square num-button"" onclick = ""recordClick(this)""><div class = content><div class = numbers>S</div></div></button><button id = button_12 class = ""square num-button"" onclick = ""recordClick(this)""><div class = content><div class = numbers>Y</div></div></button><button class = clear_button id = ""ClearButton"" onclick = ""clearResponse()"">BACKSPACE</button><button class = blank_button id = ""BlankButton"" onclick = ""blankResponse()"">SKIP</button><p style=""font-size: 2.4rem""><u><b>Current Answer:</b></u></p><br><br><div id=echoed_txt style=""font-size: 5rem; color:blue;""><b></b></div></div>",enter,ospan,retrieval,RpZhvuAtP1Wfj592zfqjzZK4KK83,html-keyboard-response,67,510415,0.0-46.0-0.0-2.0-4.0,NA,NA,NA,3.0,"[""H"",""C"",""N""]","[""H"",""C"",""N""]",1.0,3.0,"['<font color=""green"">H</font>', '<font color=""green"">C</font>', '<font color=""green"">N</font>']",,,,,,64137069043a6e0150c4beae,08:57:54,03/04/2024
1026.0,"['<p style=""font-size:44px"">Letters:<br><br><br><font color=""green"">H</font> <font color=""green"">C</font> <font color=""green"">N</font></p><br><br>']",0,ospan,practice_feedback,RpZhvuAtP1Wfj592zfqjzZK4KK83,html-button-response,68,511943,0.0-46.0-0.0-2.0-5.0,,,,,,,,,,,,,,,64137069043a6e0150c4beae,08:57:54,03/04/2024
8691.0,"<div class = 'left_align' style='font-size: 3.25rem; line-height: 1.3;'>Now you will practice doing the <b>symmetry judgment part</b> of the experiment.<br><br>A black and white grid picture will appear on the screen and you have to judge if it is <br>symmetrical or asymetrical.<br><br>A picture is 'mirror' symmetrical if its left half is identical to the right half when flipped.<br>Here are examples of a symmetrical and an asymetrical picture:<br><br><center><img src='Stimuli/img/symm_instructions_extra.png' style='height:420px; width:900'></img></center><br>To judge symmetry, imagine you were to fold each picture down the middle, like a book –<br>would the left half match the right half when folded onto each other?<br><br></div><br>",0,ospan,instruct,RpZhvuAtP1Wfj592zfqjzZK4KK83,html-button-response,69,520637,0.0-46.0-1.0-0.0-0.0,,,,,,,,,,,,,,,64137069043a6e0150c4beae,08:57:54,03/04/2024
20502.0,"<div class = 'left_align' style='font-size: 3.25rem; line-height: 1.3;'>When you have viewed the picture and determined whether it is symmetrical or not,<br>you can <b>click the Yes or No button</b> below to answer.<br><br>If you take longer than 15 seconds, it will continue automatically<br>and record the answer as an error.</div><br>",0,ospan,instruct,RpZhvuAtP1Wfj592zfqjzZK4KK83,html-button-response,70,541392,0.0-46.0-1.0-0.0-1.0,,,,,,,,,,,,,,,64137069043a6e0150c4beae,08:57:54,03/04/2024
3100.0,"<div class = 'left_align' style='font-size: 3.25rem; line-height: 1.3;'>It is <b>very</b> important that you make the symmetry judgment correctly.<br><br>It is also important that you try and judge the picture as quickly as you can.<br><br>When you are ready, click on the button below to try some practice problems.</div><br><br><br><br>",0,ospan,instruct,RpZhvuAtP1Wfj592zfqjzZK4KK83,html-button-response,71,544744,0.0-46.0-1.0-0.0-2.0,,,,,,,,,,,,,,,64137069043a6e0150c4beae,08:57:54,03/04/2024
2180.0,,,ospan,symmetry,RpZhvuAtP1Wfj592zfqjzZK4KK83,symmetry-judgement-task,72,548853,0.0-46.0-1.0-1.0-0.0,,,,,,,,,,1.0,1.0,,,,64137069043a6e0150c4beae,08:57:54,03/04/2024
,"<p style=""color:green; font-size: 35px"">Correct</p>",,ospan,feedback,RpZhvuAtP1Wfj592zfqjzZK4KK83,html-keyboard-response,73,549604,0.0-46.0-1.0-1.0-1.0,,,,,,,,,,,,,,,64137069043a6e0150c4beae,08:57:54,03/04/2024
1717.0,,,ospan,symmetry,RpZhvuAtP1Wfj592zfqjzZK4KK83,symmetry-judgement-task,74,555015,0.0-46.0-1.0-1.0-2.0,,,,,,,,,,1.0,1.0,,,,64137069043a6e0150c4beae,08:57:54,03/04/2024
,"<p style=""color:green; font-size: 35px"">Correct</p>",,ospan,feedback,RpZhvuAtP1Wfj592zfqjzZK4KK83,html-keyboard-response,75,555766,0.0-46.0-1.0-1.0-3.0,,,,,,,,,,,,,,,64137069043a6e0150c4beae,08:57:54,03/04/2024
1724.0,,,ospan,symmetry,RpZhvuAtP1Wfj592zfqjzZK4KK83,symmetry-judgement-task,76,561107,0.0-46.0-1.0-1.0-4.0,,,,,,,,,,1.0,1.0,,,,64137069043a6e0150c4beae,08:57:54,03/04/2024
,"<p style=""color:green; font-size: 35px"">Correct</p>",,ospan,feedback,RpZhvuAtP1Wfj592zfqjzZK4KK83,html-keyboard-response,77,561859,0.0-46.0-1.0-1.0-5.0,,,,,,,,,,,,,,,64137069043a6e0150c4beae,08:57:54,03/04/2024
1454.0,"<p style=""font-size: 3rem;"">You responded correctly on 3 of 3 symmetry judgments. Good job!</p><br><br>",0,ospan,practice,RpZhvuAtP1Wfj592zfqjzZK4KK83,html-button-response,78,565315,0.0-46.0-1.0-2.0,,,,,,,,,,,,,,,64137069043a6e0150c4beae,08:57:54,03/04/2024
3329.0,"<div class = 'left_align' style='font-size: 3.25rem; line-height: 1.3;'>Now you will practice doing both parts of the experiment at the same time.<br><br>In the next practice set, you will be given one grid picture to judge.<br>Then letter will appear on the screen. Try to remember the letter.<br><br>It is <b>very important</b> to make the symmetry judgment as quickly and accurately as possible.<br><br>Just as before, once you have make the symmetry judgment, you can click Yes or No.<br><b>Note that you will no longer see Correct or Incorrect feedback.</div><br><br><br><br>",0,ospan,instruct,RpZhvuAtP1Wfj592zfqjzZK4KK83,html-button-response,79,568895,0.0-46.0-2.0-0.0-0.0,,,,,,,,,,,,,,,64137069043a6e0150c4beae,08:57:54,03/04/2024
2846.0,"<div class = 'left_align' style='font-size: 3.25rem; line-height: 1.3;'>After the letter goes away, another grid picture will appear, and then<br>another letter.<br><br>At the end of each set of letters and grids, you will recall the letters to the best<br>of your ability. Remember, try your best to get the letters in the correct order.<br><br>It is important to <b>quickly</b> and <b>accurately</b> make the symmetry judgments.</div><br><br><br><br>",0,ospan,instruct,RpZhvuAtP1Wfj592zfqjzZK4KK83,html-button-response,80,571993,0.0-46.0-2.0-0.0-1.0,,,,,,,,,,,,,,,64137069043a6e0150c4beae,08:57:54,03/04/2024
10285.0,"<div class = 'left_align' style='font-size: 3.25rem; line-height: 1.3;'>On the feedback screen, if you are not doing well at the symmetry judgments,<br>you will also see a warning in the middle. This indicates your percent <br>correct for the grid pictures for the entire experiment.<br><br>It is <b>very</b> important for you to keep accuracy at least at 85%: <u>We can only use<br>data where the participant was at least 85% accurate on the judgments.</u> Therefore,<br> please try your best to perform well on the symmetry judgments, <b>at the same time</b><br>doing your best to recall as many letters as possible.<br><br>Click the button to try some practice problems.</div><br><br><br><br>",0,ospan,instruct,RpZhvuAtP1Wfj592zfqjzZK4KK83,html-button-response,81,582529,0.0-46.0-2.0-0.0-2.0,,,,,,,,,,,,,,,64137069043a6e0150c4beae,08:57:54,03/04/2024
,"<p style=""font-size:75px;"">...</p>",,ospan,iti,RpZhvuAtP1Wfj592zfqjzZK4KK83,html-keyboard-response,82,583782,0.0-46.0-2.0-1.0-0.0,,,,,,,,,,,,,,,64137069043a6e0150c4beae,08:57:54,03/04/2024
1611.0,,,ospan,symmetry,RpZhvuAtP1Wfj592zfqjzZK4KK83,symmetry-judgement-task,83,587546,0.0-46.0-2.0-1.0-1.0-0.0,,,,,,,,,,1.0,1.0,,,,64137069043a6e0150c4beae,08:57:54,03/04/2024
,"<div style=""font-size: 10rem; color: #0000FF"">G</div>",,ospan,letter,RpZhvuAtP1Wfj592zfqjzZK4KK83,html-keyboard-response,84,588547,0.0-46.0-2.0-1.0-1.0-1.0,,,,,,,,,,,,,,,64137069043a6e0150c4beae,08:57:54,03/04/2024
2734.0,,,ospan,symmetry,RpZhvuAtP1Wfj592zfqjzZK4KK83,symmetry-judgement-task,85,594218,0.0-46.0-2.0-1.0-1.0-2.0,,,,,,,,,,1.0,1.0,,,,64137069043a6e0150c4beae,08:57:54,03/04/2024
,"<div style=""font-size: 10rem; color: #0000FF"">R</div>",,ospan,letter,RpZhvuAtP1Wfj592zfqjzZK4KK83,html-keyboard-response,86,595220,0.0-46.0-2.0-1.0-1.0-3.0,,,,,,,,,,,,,,,64137069043a6e0150c4beae,08:57:54,03/04/2024
2283.0,,,ospan,symmetry,RpZhvuAtP1Wfj592zfqjzZK4KK83,symmetry-judgement-task,87,600354,0.0-46.0-2.0-1.0-1.0-4.0,,,,,,,,,,1.0,1.0,,,,64137069043a6e0150c4beae,08:57:54,03/04/2024
,"<div style=""font-size: 10rem; color: #0000FF"">L</div>",,ospan,letter,RpZhvuAtP1Wfj592zfqjzZK4KK83,html-keyboard-response,88,601356,0.0-46.0-2.0-1.0-1.0-5.0,,,,,,,,,,,,,,,64137069043a6e0150c4beae,08:57:54,03/04/2024
3463.0,"<div class = numbox><p style=""font-size: 2.4rem"">Please recall the letters you saw to the best of your ability. If you do not remember a particular letter, use the SKIP button.<br><b>(When you are ready to lock in your answer, press ENTER)</b></p><button id = button_1 class = ""square num-button"" onclick = ""recordClick(this)""><div class = content><div class = numbers>C</div></div></button><button id = button_2 class = ""square num-button"" onclick = ""recordClick(this)""><div class = content><div class = numbers>G</div></div></button><button id = button_3 class = ""square num-button"" onclick = ""recordClick(this)""><div class = content><div class = numbers>H</div></div></button><button id = button_4 class = ""square num-button"" onclick = ""recordClick(this)""><div class = content><div class = numbers>J</div></div></button><button id = button_5 class = ""square num-button"" onclick = ""recordClick(this)""><div class = content><div class = numbers>K</div></div></button><button id = button_6 class = ""square num-button"" onclick = ""recordClick(this)""><div class = content><div class = numbers>L</div></div></button><button id = button_7 class = ""square num-button"" onclick = ""recordClick(this)""><div class = content><div class = numbers>N</div></div></button><button id = button_8 class = ""square num-button"" onclick = ""recordClick(this)""><div class = content><div class = numbers>P</div></div></button><button id = button_9 class = ""square num-button"" onclick = ""recordClick(this)""><div class = content><div class = numbers>Q</div></div></button><button id = button_10 class = ""square num-button"" onclick = ""recordClick(this)""><div class = content><div class = numbers>R</div></div></button><button id = button_11 class = ""square num-button"" onclick = ""recordClick(this)""><div class = content><div class = numbers>S</div></div></button><button id = button_12 class = ""square num-button"" onclick = ""recordClick(this)""><div class = content><div class = numbers>Y</div></div></button><button class = clear_button id = ""ClearButton"" onclick = ""clearResponse()"">BACKSPACE</button><button class = blank_button id = ""BlankButton"" onclick = ""blankResponse()"">SKIP</button><p style=""font-size: 2.4rem""><u><b>Current Answer:</b></u></p><br><br><div id=echoed_txt style=""font-size: 5rem; color:blue;""><b></b></div></div>",enter,ospan,retrieval,RpZhvuAtP1Wfj592zfqjzZK4KK83,html-keyboard-response,89,605572,0.0-46.0-2.0-1.0-2.0-0.0,NA,NA,NA,3.0,"[""G"",""R"",""L""]","[""G"",""R"",""L""]",1.0,3.0,"['<font color=""green"">G</font>', '<font color=""green"">R</font>', '<font color=""green"">L</font>']",,,,,,64137069043a6e0150c4beae,08:57:54,03/04/2024
1573.0,"['<p style=""font-size:44px"">Letters:<br><br><br><font color=""green"">G</font> <font color=""green"">R</font> <font color=""green"">L</font></p><br><br><p style=""font-size:30px"">Symmetry:<br><br><font color=""green"">100%</font></p><br><br>']",0,ospan,practice_feedback,RpZhvuAtP1Wfj592zfqjzZK4KK83,html-button-response,90,607646,0.0-46.0-2.0-1.0-2.0-1.0,,,,,,,,,,,,,,,64137069043a6e0150c4beae,08:57:54,03/04/2024
,"<p style=""font-size:75px;"">...</p>",,ospan,iti,RpZhvuAtP1Wfj592zfqjzZK4KK83,html-keyboard-response,91,608649,0.0-46.0-2.0-2.0-0.0,,,,,,,,,,,,,,,64137069043a6e0150c4beae,08:57:54,03/04/2024
1833.0,,,ospan,symmetry,RpZhvuAtP1Wfj592zfqjzZK4KK83,symmetry-judgement-task,92,612673,0.0-46.0-2.0-2.0-1.0-0.0,,,,,,,,,,1.0,1.0,,,,64137069043a6e0150c4beae,08:57:54,03/04/2024
,"<div style=""font-size: 10rem; color: #0000FF"">J</div>",,ospan,letter,RpZhvuAtP1Wfj592zfqjzZK4KK83,html-keyboard-response,93,613674,0.0-46.0-2.0-2.0-1.0-1.0,,,,,,,,,,,,,,,64137069043a6e0150c4beae,08:57:54,03/04/2024
1506.0,,,ospan,symmetry,RpZhvuAtP1Wfj592zfqjzZK4KK83,symmetry-judgement-task,94,618021,0.0-46.0-2.0-2.0-1.0-2.0,,,,,,,,,,1.0,1.0,,,,64137069043a6e0150c4beae,08:57:54,03/04/2024
,"<div style=""font-size: 10rem; color: #0000FF"">R</div>",,ospan,letter,RpZhvuAtP1Wfj592zfqjzZK4KK83,html-keyboard-response,95,619022,0.0-46.0-2.0-2.0-1.0-3.0,,,,,,,,,,,,,,,64137069043a6e0150c4beae,08:57:54,03/04/2024
1662.0,,,ospan,symmetry,RpZhvuAtP1Wfj592zfqjzZK4KK83,symmetry-judgement-task,96,623532,0.0-46.0-2.0-2.0-1.0-4.0,,,,,,,,,,1.0,1.0,,,,64137069043a6e0150c4beae,08:57:54,03/04/2024
,"<div style=""font-size: 10rem; color: #0000FF"">P</div>",,ospan,letter,RpZhvuAtP1Wfj592zfqjzZK4KK83,html-keyboard-response,97,624534,0.0-46.0-2.0-2.0-1.0-5.0,,,,,,,,,,,,,,,64137069043a6e0150c4beae,08:57:54,03/04/2024
4172.0,"<div class = numbox><p style=""font-size: 2.4rem"">Please recall the letters you saw to the best of your ability. If you do not remember a particular letter, use the SKIP button.<br><b>(When you are ready to lock in your answer, press ENTER)</b></p><button id = button_1 class = ""square num-button"" onclick = ""recordClick(this)""><div class = content><div class = numbers>C</div></div></button><button id = button_2 class = ""square num-button"" onclick = ""recordClick(this)""><div class = content><div class = numbers>G</div></div></button><button id = button_3 class = ""square num-button"" onclick = ""recordClick(this)""><div class = content><div class = numbers>H</div></div></button><button id = button_4 class = ""square num-button"" onclick = ""recordClick(this)""><div class = content><div class = numbers>J</div></div></button><button id = button_5 class = ""square num-button"" onclick = ""recordClick(this)""><div class = content><div class = numbers>K</div></div></button><button id = button_6 class = ""square num-button"" onclick = ""recordClick(this)""><div class = content><div class = numbers>L</div></div></button><button id = button_7 class = ""square num-button"" onclick = ""recordClick(this)""><div class = content><div class = numbers>N</div></div></button><button id = button_8 class = ""square num-button"" onclick = ""recordClick(this)""><div class = content><div class = numbers>P</div></div></button><button id = button_9 class = ""square num-button"" onclick = ""recordClick(this)""><div class = content><div class = numbers>Q</div></div></button><button id = button_10 class = ""square num-button"" onclick = ""recordClick(this)""><div class = content><div class = numbers>R</div></div></button><button id = button_11 class = ""square num-button"" onclick = ""recordClick(this)""><div class = content><div class = numbers>S</div></div></button><button id = button_12 class = ""square num-button"" onclick = ""recordClick(this)""><div class = content><div class = numbers>Y</div></div></button><button class = clear_button id = ""ClearButton"" onclick = ""clearResponse()"">BACKSPACE</button><button class = blank_button id = ""BlankButton"" onclick = ""blankResponse()"">SKIP</button><p style=""font-size: 2.4rem""><u><b>Current Answer:</b></u></p><br><br><div id=echoed_txt style=""font-size: 5rem; color:blue;""><b></b></div></div>",enter,ospan,retrieval,RpZhvuAtP1Wfj592zfqjzZK4KK83,html-keyboard-response,98,629457,0.0-46.0-2.0-2.0-2.0-0.0,NA,NA,NA,3.0,"[""J"",""R"",""P""]","[""J"",""R"",""P""]",1.0,3.0,"['<font color=""green"">J</font>', '<font color=""green"">R</font>', '<font color=""green"">P</font>']",,,,,,64137069043a6e0150c4beae,08:57:54,03/04/2024
10155.0,"['<p style=""font-size:44px"">Letters:<br><br><br><font color=""green"">J</font> <font color=""green"">R</font> <font color=""green"">P</font></p><br><br><p style=""font-size:30px"">Symmetry:<br><br><font color=""green"">100%</font></p><br><br>']",0,ospan,practice_feedback,RpZhvuAtP1Wfj592zfqjzZK4KK83,html-button-response,99,640114,0.0-46.0-2.0-2.0-2.0-1.0,,,,,,,,,,,,,,,64137069043a6e0150c4beae,08:57:54,03/04/2024
32462.000000000116,"<div class = 'left_align' style='font-size: 3rem; line-height: 1.3;'><b>Great work! That is the end of practice.</b><br><br>The real trials will look just like the practice trials you just completed.<br><br><u>Here, you will not see feedback</u>. First, you will see an grid picture to judge,<br>then a letter to remember. When the recall screen appears, report the letters in the<br>order presented. If you forget a letter, remember to use the <b>blank</b> button to move to the<br>next letter. Some of the sets will have more symmetry grids and letters than others.<br><br>It is important that you do your best on both the symmetry judgments and the letter recall<br>parts of the experiment. For for the symmetry judgments, try to work as <b>quickly</b> and <br>as <b>accurately</b> as possible. Remember to keep your symmetry accuracy at 85% or above.<br><br><b>For the letters, do NOT use any external aid (e.g., writing on paper, electronic device).</b><br><br>It is <u>very important</u> to our experiment to have a <b>true</b> view of your real performance.<br><br>Do not worry if you miss some when it gets hard! This task is meant to be very challenging!<br><br>Click the button to begin.</div><br><br><br><br>",0,ospan,starting_real_here,RpZhvuAtP1Wfj592zfqjzZK4KK83,html-button-response,100,672579,0.0-46.0-2.0-3.0,,,,,,,,,,,,,,,64137069043a6e0150c4beae,08:57:54,03/04/2024
,"<p style=""font-size:75px;"">...</p>",,ospan,iti,RpZhvuAtP1Wfj592zfqjzZK4KK83,html-keyboard-response,101,673833,0.0-46.0-3.0-0.0-0.0,,,,,,,,,,,,,,,64137069043a6e0150c4beae,08:57:54,03/04/2024
1557.0,,,ospan,symmetry,RpZhvuAtP1Wfj592zfqjzZK4KK83,symmetry-judgement-task,102,677497,0.0-46.0-3.0-0.0-1.0-0.0,,,,,,,,,,1.0,1.0,,,,64137069043a6e0150c4beae,08:57:54,03/04/2024
,"<div style=""font-size: 10rem; color: #0000FF"">C</div>",,ospan,letter,RpZhvuAtP1Wfj592zfqjzZK4KK83,html-keyboard-response,103,678499,0.0-46.0-3.0-0.0-1.0-1.0,,,,,,,,,,,,,,,64137069043a6e0150c4beae,08:57:54,03/04/2024
1253.0,,,ospan,symmetry,RpZhvuAtP1Wfj592zfqjzZK4KK83,symmetry-judgement-task,104,682639,0.0-46.0-3.0-0.0-1.0-2.0,,,,,,,,,,1.0,1.0,,,,64137069043a6e0150c4beae,08:57:54,03/04/2024
,"<div style=""font-size: 10rem; color: #0000FF"">H</div>",,ospan,letter,RpZhvuAtP1Wfj592zfqjzZK4KK83,html-keyboard-response,105,683641,0.0-46.0-3.0-0.0-1.0-3.0,,,,,,,,,,,,,,,64137069043a6e0150c4beae,08:57:54,03/04/2024
1680.0,,,ospan,symmetry,RpZhvuAtP1Wfj592zfqjzZK4KK83,symmetry-judgement-task,106,688261,0.0-46.0-3.0-0.0-1.0-4.0,,,,,,,,,,1.0,1.0,,,,64137069043a6e0150c4beae,08:57:54,03/04/2024
,"<div style=""font-size: 10rem; color: #0000FF"">L</div>",,ospan,letter,RpZhvuAtP1Wfj592zfqjzZK4KK83,html-keyboard-response,107,689263,0.0-46.0-3.0-0.0-1.0-5.0,,,,,,,,,,,,,,,64137069043a6e0150c4beae,08:57:54,03/04/2024
3660.0,"<div class = numbox><p style=""font-size: 2.4rem"">Please recall the letters you saw to the best of your ability. If you do not remember a particular letter, use the SKIP button.<br><b>(When you are ready to lock in your answer, press ENTER)</b></p><button id = button_1 class = ""square num-button"" onclick = ""recordClick(this)""><div class = content><div class = numbers>C</div></div></button><button id = button_2 class = ""square num-button"" onclick = ""recordClick(this)""><div class = content><div class = numbers>G</div></div></button><button id = button_3 class = ""square num-button"" onclick = ""recordClick(this)""><div class = content><div class = numbers>H</div></div></button><button id = button_4 class = ""square num-button"" onclick = ""recordClick(this)""><div class = content><div class = numbers>J</div></div></button><button id = button_5 class = ""square num-button"" onclick = ""recordClick(this)""><div class = content><div class = numbers>K</div></div></button><button id = button_6 class = ""square num-button"" onclick = ""recordClick(this)""><div class = content><div class = numbers>L</div></div></button><button id = button_7 class = ""square num-button"" onclick = ""recordClick(this)""><div class = content><div class = numbers>N</div></div></button><button id = button_8 class = ""square num-button"" onclick = ""recordClick(this)""><div class = content><div class = numbers>P</div></div></button><button id = button_9 class = ""square num-button"" onclick = ""recordClick(this)""><div class = content><div class = numbers>Q</div></div></button><button id = button_10 class = ""square num-button"" onclick = ""recordClick(this)""><div class = content><div class = numbers>R</div></div></button><button id = button_11 class = ""square num-button"" onclick = ""recordClick(this)""><div class = content><div class = numbers>S</div></div></button><button id = button_12 class = ""square num-button"" onclick = ""recordClick(this)""><div class = content><div class = numbers>Y</div></div></button><button class = clear_button id = ""ClearButton"" onclick = ""clearResponse()"">BACKSPACE</button><button class = blank_button id = ""BlankButton"" onclick = ""blankResponse()"">SKIP</button><p style=""font-size: 2.4rem""><u><b>Current Answer:</b></u></p><br><br><div id=echoed_txt style=""font-size: 5rem; color:blue;""><b></b></div></div>",enter,ospan,retrieval,RpZhvuAtP1Wfj592zfqjzZK4KK83,html-keyboard-response,108,693674,0.0-46.0-3.0-0.0-2.0,3,3,3,3.0,"[""C"",""H"",""L""]","[""C"",""H"",""L""]",1.0,3.0,,,,,,,64137069043a6e0150c4beae,08:57:54,03/04/2024
1104.0,[''],0,ospan,feedback,RpZhvuAtP1Wfj592zfqjzZK4KK83,html-button-response,109,695279,0.0-46.0-3.0-0.0-3.0,,,,,,,,,,,,100.0,0.0,,64137069043a6e0150c4beae,08:57:54,03/04/2024
,"<p style=""font-size:75px;"">...</p>",,ospan,iti,RpZhvuAtP1Wfj592zfqjzZK4KK83,html-keyboard-response,110,696282,0.0-46.0-4.0-0.0-0.0,,,,,,,,,,,,,,,64137069043a6e0150c4beae,08:57:54,03/04/2024
1506.0,,,ospan,symmetry,RpZhvuAtP1Wfj592zfqjzZK4KK83,symmetry-judgement-task,111,699942,0.0-46.0-4.0-0.0-1.0-0.0,,,,,,,,,,1.0,1.0,,,,64137069043a6e0150c4beae,08:57:54,03/04/2024
,"<div style=""font-size: 10rem; color: #0000FF"">H</div>",,ospan,letter,RpZhvuAtP1Wfj592zfqjzZK4KK83,html-keyboard-response,112,700943,0.0-46.0-4.0-0.0-1.0-1.0,,,,,,,,,,,,,,,64137069043a6e0150c4beae,08:57:54,03/04/2024
1383.0,,,ospan,symmetry,RpZhvuAtP1Wfj592zfqjzZK4KK83,symmetry-judgement-task,113,705220,0.0-46.0-4.0-0.0-1.0-2.0,,,,,,,,,,1.0,1.0,,,,64137069043a6e0150c4beae,08:57:54,03/04/2024
,"<div style=""font-size: 10rem; color: #0000FF"">J</div>",,ospan,letter,RpZhvuAtP1Wfj592zfqjzZK4KK83,html-keyboard-response,114,706222,0.0-46.0-4.0-0.0-1.0-3.0,,,,,,,,,,,,,,,64137069043a6e0150c4beae,08:57:54,03/04/2024
1043.0,,,ospan,symmetry,RpZhvuAtP1Wfj592zfqjzZK4KK83,symmetry-judgement-task,115,710199,0.0-46.0-4.0-0.0-1.0-4.0,,,,,,,,,,1.0,1.0,,,,64137069043a6e0150c4beae,08:57:54,03/04/2024
,"<div style=""font-size: 10rem; color: #0000FF"">N</div>",,ospan,letter,RpZhvuAtP1Wfj592zfqjzZK4KK83,html-keyboard-response,116,711201,0.0-46.0-4.0-0.0-1.0-5.0,,,,,,,,,,,,,,,64137069043a6e0150c4beae,08:57:54,03/04/2024
1851.0,,,ospan,symmetry,RpZhvuAtP1Wfj592zfqjzZK4KK83,symmetry-judgement-task,117,716069,0.0-46.0-4.0-0.0-1.0-6.0,,,,,,,,,,1.0,1.0,,,,64137069043a6e0150c4beae,08:57:54,03/04/2024
,"<div style=""font-size: 10rem; color: #0000FF"">Q</div>",,ospan,letter,RpZhvuAtP1Wfj592zfqjzZK4KK83,html-keyboard-response,118,717070,0.0-46.0-4.0-0.0-1.0-7.0,,,,,,,,,,,,,,,64137069043a6e0150c4beae,08:57:54,03/04/2024
5363.0,"<div class = numbox><p style=""font-size: 2.4rem"">Please recall the letters you saw to the best of your ability. If you do not remember a particular letter, use the SKIP button.<br><b>(When you are ready to lock in your answer, press ENTER)</b></p><button id = button_1 class = ""square num-button"" onclick = ""recordClick(this)""><div class = content><div class = numbers>C</div></div></button><button id = button_2 class = ""square num-button"" onclick = ""recordClick(this)""><div class = content><div class = numbers>G</div></div></button><button id = button_3 class = ""square num-button"" onclick = ""recordClick(this)""><div class = content><div class = numbers>H</div></div></button><button id = button_4 class = ""square num-button"" onclick = ""recordClick(this)""><div class = content><div class = numbers>J</div></div></button><button id = button_5 class = ""square num-button"" onclick = ""recordClick(this)""><div class = content><div class = numbers>K</div></div></button><button id = button_6 class = ""square num-button"" onclick = ""recordClick(this)""><div class = content><div class = numbers>L</div></div></button><button id = button_7 class = ""square num-button"" onclick = ""recordClick(this)""><div class = content><div class = numbers>N</div></div></button><button id = button_8 class = ""square num-button"" onclick = ""recordClick(this)""><div class = content><div class = numbers>P</div></div></button><button id = button_9 class = ""square num-button"" onclick = ""recordClick(this)""><div class = content><div class = numbers>Q</div></div></button><button id = button_10 class = ""square num-button"" onclick = ""recordClick(this)""><div class = content><div class = numbers>R</div></div></button><button id = button_11 class = ""square num-button"" onclick = ""recordClick(this)""><div class = content><div class = numbers>S</div></div></button><button id = button_12 class = ""square num-button"" onclick = ""recordClick(this)""><div class = content><div class = numbers>Y</div></div></button><button class = clear_button id = ""ClearButton"" onclick = ""clearResponse()"">BACKSPACE</button><button class = blank_button id = ""BlankButton"" onclick = ""blankResponse()"">SKIP</button><p style=""font-size: 2.4rem""><u><b>Current Answer:</b></u></p><br><br><div id=echoed_txt style=""font-size: 5rem; color:blue;""><b></b></div></div>",enter,ospan,retrieval,RpZhvuAtP1Wfj592zfqjzZK4KK83,html-keyboard-response,119,723186,0.0-46.0-4.0-0.0-2.0,7,7,7,4.0,"[""H"",""J"",""N"",""Q""]","[""H"",""J"",""N"",""Q""]",1.0,4.0,,,,,,,64137069043a6e0150c4beae,08:57:54,03/04/2024
1199.0,[''],0,ospan,feedback,RpZhvuAtP1Wfj592zfqjzZK4KK83,html-button-response,120,724887,0.0-46.0-4.0-0.0-3.0,,,,,,,,,,,,100.0,0.0,,64137069043a6e0150c4beae,08:57:54,03/04/2024
,"<p style=""font-size:75px;"">...</p>",,ospan,iti,RpZhvuAtP1Wfj592zfqjzZK4KK83,html-keyboard-response,121,725890,0.0-46.0-4.0-1.0-0.0,,,,,,,,,,,,,,,64137069043a6e0150c4beae,08:57:54,03/04/2024
1331.0,,,ospan,symmetry,RpZhvuAtP1Wfj592zfqjzZK4KK83,symmetry-judgement-task,122,729324,0.0-46.0-4.0-1.0-1.0-0.0,,,,,,,,,,1.0,1.0,,,,64137069043a6e0150c4beae,08:57:54,03/04/2024
,"<div style=""font-size: 10rem; color: #0000FF"">N</div>",,ospan,letter,RpZhvuAtP1Wfj592zfqjzZK4KK83,html-keyboard-response,123,730325,0.0-46.0-4.0-1.0-1.0-1.0,,,,,,,,,,,,,,,64137069043a6e0150c4beae,08:57:54,03/04/2024
1457.0,,,ospan,symmetry,RpZhvuAtP1Wfj592zfqjzZK4KK83,symmetry-judgement-task,124,734678,0.0-46.0-4.0-1.0-1.0-2.0,,,,,,,,,,1.0,1.0,,,,64137069043a6e0150c4beae,08:57:54,03/04/2024
,"<div style=""font-size: 10rem; color: #0000FF"">H</div>",,ospan,letter,RpZhvuAtP1Wfj592zfqjzZK4KK83,html-keyboard-response,125,735679,0.0-46.0-4.0-1.0-1.0-3.0,,,,,,,,,,,,,,,64137069043a6e0150c4beae,08:57:54,03/04/2024
2419.0,,,ospan,symmetry,RpZhvuAtP1Wfj592zfqjzZK4KK83,symmetry-judgement-task,126,740953,0.0-46.0-4.0-1.0-1.0-4.0,,,,,,,,,,1.0,1.0,,,,64137069043a6e0150c4beae,08:57:54,03/04/2024
,"<div style=""font-size: 10rem; color: #0000FF"">K</div>",,ospan,letter,RpZhvuAtP1Wfj592zfqjzZK4KK83,html-keyboard-response,127,741955,0.0-46.0-4.0-1.0-1.0-5.0,,,,,,,,,,,,,,,64137069043a6e0150c4beae,08:57:54,03/04/2024
1327.0,,,ospan,symmetry,RpZhvuAtP1Wfj592zfqjzZK4KK83,symmetry-judgement-task,128,746221,0.0-46.0-4.0-1.0-1.0-6.0,,,,,,,,,,1.0,1.0,,,,64137069043a6e0150c4beae,08:57:54,03/04/2024
,"<div style=""font-size: 10rem; color: #0000FF"">L</div>",,ospan,letter,RpZhvuAtP1Wfj592zfqjzZK4KK83,html-keyboard-response,129,747223,0.0-46.0-4.0-1.0-1.0-7.0,,,,,,,,,,,,,,,64137069043a6e0150c4beae,08:57:54,03/04/2024
1366.0,,,ospan,symmetry,RpZhvuAtP1Wfj592zfqjzZK4KK83,symmetry-judgement-task,130,751484,0.0-46.0-4.0-1.0-1.0-8.0,,,,,,,,,,1.0,1.0,,,,64137069043a6e0150c4beae,08:57:54,03/04/2024
,"<div style=""font-size: 10rem; color: #0000FF"">S</div>",,ospan,letter,RpZhvuAtP1Wfj592zfqjzZK4KK83,html-keyboard-response,131,752486,0.0-46.0-4.0-1.0-1.0-9.0,,,,,,,,,,,,,,,64137069043a6e0150c4beae,08:57:54,03/04/2024
4244.000000000116,"<div class = numbox><p style=""font-size: 2.4rem"">Please recall the letters you saw to the best of your ability. If you do not remember a particular letter, use the SKIP button.<br><b>(When you are ready to lock in your answer, press ENTER)</b></p><button id = button_1 class = ""square num-button"" onclick = ""recordClick(this)""><div class = content><div class = numbers>C</div></div></button><button id = button_2 class = ""square num-button"" onclick = ""recordClick(this)""><div class = content><div class = numbers>G</div></div></button><button id = button_3 class = ""square num-button"" onclick = ""recordClick(this)""><div class = content><div class = numbers>H</div></div></button><button id = button_4 class = ""square num-button"" onclick = ""recordClick(this)""><div class = content><div class = numbers>J</div></div></button><button id = button_5 class = ""square num-button"" onclick = ""recordClick(this)""><div class = content><div class = numbers>K</div></div></button><button id = button_6 class = ""square num-button"" onclick = ""recordClick(this)""><div class = content><div class = numbers>L</div></div></button><button id = button_7 class = ""square num-button"" onclick = ""recordClick(this)""><div class = content><div class = numbers>N</div></div></button><button id = button_8 class = ""square num-button"" onclick = ""recordClick(this)""><div class = content><div class = numbers>P</div></div></button><button id = button_9 class = ""square num-button"" onclick = ""recordClick(this)""><div class = content><div class = numbers>Q</div></div></button><button id = button_10 class = ""square num-button"" onclick = ""recordClick(this)""><div class = content><div class = numbers>R</div></div></button><button id = button_11 class = ""square num-button"" onclick = ""recordClick(this)""><div class = content><div class = numbers>S</div></div></button><button id = button_12 class = ""square num-button"" onclick = ""recordClick(this)""><div class = content><div class = numbers>Y</div></div></button><button class = clear_button id = ""ClearButton"" onclick = ""clearResponse()"">BACKSPACE</button><button class = blank_button id = ""BlankButton"" onclick = ""blankResponse()"">SKIP</button><p style=""font-size: 2.4rem""><u><b>Current Answer:</b></u></p><br><br><div id=echoed_txt style=""font-size: 5rem; color:blue;""><b></b></div></div>",enter,ospan,retrieval,RpZhvuAtP1Wfj592zfqjzZK4KK83,html-keyboard-response,132,757482,0.0-46.0-4.0-1.0-2.0,12,12,12,5.0,"[""N"",""H"",""K"",""L"",""S""]","[""N"",""H"",""K"",""L"",""S""]",1.0,5.0,,,,,,,64137069043a6e0150c4beae,08:57:54,03/04/2024
1118.0,[''],0,ospan,feedback,RpZhvuAtP1Wfj592zfqjzZK4KK83,html-button-response,133,759101,0.0-46.0-4.0-1.0-3.0,,,,,,,,,,,,100.0,0.0,,64137069043a6e0150c4beae,08:57:54,03/04/2024
,"<p style=""font-size:75px;"">...</p>",,ospan,iti,RpZhvuAtP1Wfj592zfqjzZK4KK83,html-keyboard-response,134,760105,0.0-46.0-4.0-2.0-0.0,,,,,,,,,,,,,,,64137069043a6e0150c4beae,08:57:54,03/04/2024
1379.0,,,ospan,symmetry,RpZhvuAtP1Wfj592zfqjzZK4KK83,symmetry-judgement-task,135,763636,0.0-46.0-4.0-2.0-1.0-0.0,,,,,,,,,,1.0,1.0,,,,64137069043a6e0150c4beae,08:57:54,03/04/2024
,"<div style=""font-size: 10rem; color: #0000FF"">Y</div>",,ospan,letter,RpZhvuAtP1Wfj592zfqjzZK4KK83,html-keyboard-response,136,764638,0.0-46.0-4.0-2.0-1.0-1.0,,,,,,,,,,,,,,,64137069043a6e0150c4beae,08:57:54,03/04/2024
1269.0,,,ospan,symmetry,RpZhvuAtP1Wfj592zfqjzZK4KK83,symmetry-judgement-task,137,768795,0.0-46.0-4.0-2.0-1.0-2.0,,,,,,,,,,1.0,1.0,,,,64137069043a6e0150c4beae,08:57:54,03/04/2024
,"<div style=""font-size: 10rem; color: #0000FF"">R</div>",,ospan,letter,RpZhvuAtP1Wfj592zfqjzZK4KK83,html-keyboard-response,138,769796,0.0-46.0-4.0-2.0-1.0-3.0,,,,,,,,,,,,,,,64137069043a6e0150c4beae,08:57:54,03/04/2024
2043.0,,,ospan,symmetry,RpZhvuAtP1Wfj592zfqjzZK4KK83,symmetry-judgement-task,139,774693,0.0-46.0-4.0-2.0-1.0-4.0,,,,,,,,,,1.0,1.0,,,,64137069043a6e0150c4beae,08:57:54,03/04/2024
,"<div style=""font-size: 10rem; color: #0000FF"">N</div>",,ospan,letter,RpZhvuAtP1Wfj592zfqjzZK4KK83,html-keyboard-response,140,775693,0.0-46.0-4.0-2.0-1.0-5.0,,,,,,,,,,,,,,,64137069043a6e0150c4beae,08:57:54,03/04/2024
4719.0,"<div class = numbox><p style=""font-size: 2.4rem"">Please recall the letters you saw to the best of your ability. If you do not remember a particular letter, use the SKIP button.<br><b>(When you are ready to lock in your answer, press ENTER)</b></p><button id = button_1 class = ""square num-button"" onclick = ""recordClick(this)""><div class = content><div class = numbers>C</div></div></button><button id = button_2 class = ""square num-button"" onclick = ""recordClick(this)""><div class = content><div class = numbers>G</div></div></button><button id = button_3 class = ""square num-button"" onclick = ""recordClick(this)""><div class = content><div class = numbers>H</div></div></button><button id = button_4 class = ""square num-button"" onclick = ""recordClick(this)""><div class = content><div class = numbers>J</div></div></button><button id = button_5 class = ""square num-button"" onclick = ""recordClick(this)""><div class = content><div class = numbers>K</div></div></button><button id = button_6 class = ""square num-button"" onclick = ""recordClick(this)""><div class = content><div class = numbers>L</div></div></button><button id = button_7 class = ""square num-button"" onclick = ""recordClick(this)""><div class = content><div class = numbers>N</div></div></button><button id = button_8 class = ""square num-button"" onclick = ""recordClick(this)""><div class = content><div class = numbers>P</div></div></button><button id = button_9 class = ""square num-button"" onclick = ""recordClick(this)""><div class = content><div class = numbers>Q</div></div></button><button id = button_10 class = ""square num-button"" onclick = ""recordClick(this)""><div class = content><div class = numbers>R</div></div></button><button id = button_11 class = ""square num-button"" onclick = ""recordClick(this)""><div class = content><div class = numbers>S</div></div></button><button id = button_12 class = ""square num-button"" onclick = ""recordClick(this)""><div class = content><div class = numbers>Y</div></div></button><button class = clear_button id = ""ClearButton"" onclick = ""clearResponse()"">BACKSPACE</button><button class = blank_button id = ""BlankButton"" onclick = ""blankResponse()"">SKIP</button><p style=""font-size: 2.4rem""><u><b>Current Answer:</b></u></p><br><br><div id=echoed_txt style=""font-size: 5rem; color:blue;""><b></b></div></div>",enter,ospan,retrieval,RpZhvuAtP1Wfj592zfqjzZK4KK83,html-keyboard-response,141,781160,0.0-46.0-4.0-2.0-2.0,15,15,15,3.0,"[""Y"",""R"",""N""]","[""Y"",""R"",""N""]",1.0,3.0,,,,,,,64137069043a6e0150c4beae,08:57:54,03/04/2024
871.0,[''],0,ospan,feedback,RpZhvuAtP1Wfj592zfqjzZK4KK83,html-button-response,142,782532,0.0-46.0-4.0-2.0-3.0,,,,,,,,,,,,100.0,0.0,,64137069043a6e0150c4beae,08:57:54,03/04/2024
,"<p style=""font-size:75px;"">...</p>",,ospan,iti,RpZhvuAtP1Wfj592zfqjzZK4KK83,html-keyboard-response,143,783535,0.0-46.0-5.0-0.0-0.0,,,,,,,,,,,,,,,64137069043a6e0150c4beae,08:57:54,03/04/2024
2631.0,,,ospan,symmetry,RpZhvuAtP1Wfj592zfqjzZK4KK83,symmetry-judgement-task,144,788314,0.0-46.0-5.0-0.0-1.0-0.0,,,,,,,,,,1.0,1.0,,,,64137069043a6e0150c4beae,08:57:54,03/04/2024
,"<div style=""font-size: 10rem; color: #0000FF"">R</div>",,ospan,letter,RpZhvuAtP1Wfj592zfqjzZK4KK83,html-keyboard-response,145,789315,0.0-46.0-5.0-0.0-1.0-1.0,,,,,,,,,,,,,,,64137069043a6e0150c4beae,08:57:54,03/04/2024
1446.0,,,ospan,symmetry,RpZhvuAtP1Wfj592zfqjzZK4KK83,symmetry-judgement-task,146,793649,0.0-46.0-5.0-0.0-1.0-2.0,,,,,,,,,,1.0,1.0,,,,64137069043a6e0150c4beae,08:57:54,03/04/2024
,"<div style=""font-size: 10rem; color: #0000FF"">Y</div>",,ospan,letter,RpZhvuAtP1Wfj592zfqjzZK4KK83,html-keyboard-response,147,794649,0.0-46.0-5.0-0.0-1.0-3.0,,,,,,,,,,,,,,,64137069043a6e0150c4beae,08:57:54,03/04/2024
1947.0,,,ospan,symmetry,RpZhvuAtP1Wfj592zfqjzZK4KK83,symmetry-judgement-task,148,799489,0.0-46.0-5.0-0.0-1.0-4.0,,,,,,,,,,1.0,1.0,,,,64137069043a6e0150c4beae,08:57:54,03/04/2024
,"<div style=""font-size: 10rem; color: #0000FF"">G</div>",,ospan,letter,RpZhvuAtP1Wfj592zfqjzZK4KK83,html-keyboard-response,149,800490,0.0-46.0-5.0-0.0-1.0-5.0,,,,,,,,,,,,,,,64137069043a6e0150c4beae,08:57:54,03/04/2024
986.0,,,ospan,symmetry,RpZhvuAtP1Wfj592zfqjzZK4KK83,symmetry-judgement-task,150,804322,0.0-46.0-5.0-0.0-1.0-6.0,,,,,,,,,,1.0,1.0,,,,64137069043a6e0150c4beae,08:57:54,03/04/2024
,"<div style=""font-size: 10rem; color: #0000FF"">C</div>",,ospan,letter,RpZhvuAtP1Wfj592zfqjzZK4KK83,html-keyboard-response,151,805324,0.0-46.0-5.0-0.0-1.0-7.0,,,,,,,,,,,,,,,64137069043a6e0150c4beae,08:57:54,03/04/2024
1221.0,,,ospan,symmetry,RpZhvuAtP1Wfj592zfqjzZK4KK83,symmetry-judgement-task,152,809483,0.0-46.0-5.0-0.0-1.0-8.0,,,,,,,,,,1.0,1.0,,,,64137069043a6e0150c4beae,08:57:54,03/04/2024
,"<div style=""font-size: 10rem; color: #0000FF"">Q</div>",,ospan,letter,RpZhvuAtP1Wfj592zfqjzZK4KK83,html-keyboard-response,153,810484,0.0-46.0-5.0-0.0-1.0-9.0,,,,,,,,,,,,,,,64137069043a6e0150c4beae,08:57:54,03/04/2024
1906.0,,,ospan,symmetry,RpZhvuAtP1Wfj592zfqjzZK4KK83,symmetry-judgement-task,154,815266,0.0-46.0-5.0-0.0-1.0-10.0,,,,,,,,,,1.0,1.0,,,,64137069043a6e0150c4beae,08:57:54,03/04/2024
,"<div style=""font-size: 10rem; color: #0000FF"">L</div>",,ospan,letter,RpZhvuAtP1Wfj592zfqjzZK4KK83,html-keyboard-response,155,816268,0.0-46.0-5.0-0.0-1.0-11.0,,,,,,,,,,,,,,,64137069043a6e0150c4beae,08:57:54,03/04/2024
6352.0,"<div class = numbox><p style=""font-size: 2.4rem"">Please recall the letters you saw to the best of your ability. If you do not remember a particular letter, use the SKIP button.<br><b>(When you are ready to lock in your answer, press ENTER)</b></p><button id = button_1 class = ""square num-button"" onclick = ""recordClick(this)""><div class = content><div class = numbers>C</div></div></button><button id = button_2 class = ""square num-button"" onclick = ""recordClick(this)""><div class = content><div class = numbers>G</div></div></button><button id = button_3 class = ""square num-button"" onclick = ""recordClick(this)""><div class = content><div class = numbers>H</div></div></button><button id = button_4 class = ""square num-button"" onclick = ""recordClick(this)""><div class = content><div class = numbers>J</div></div></button><button id = button_5 class = ""square num-button"" onclick = ""recordClick(this)""><div class = content><div class = numbers>K</div></div></button><button id = button_6 class = ""square num-button"" onclick = ""recordClick(this)""><div class = content><div class = numbers>L</div></div></button><button id = button_7 class = ""square num-button"" onclick = ""recordClick(this)""><div class = content><div class = numbers>N</div></div></button><button id = button_8 class = ""square num-button"" onclick = ""recordClick(this)""><div class = content><div class = numbers>P</div></div></button><button id = button_9 class = ""square num-button"" onclick = ""recordClick(this)""><div class = content><div class = numbers>Q</div></div></button><button id = button_10 class = ""square num-button"" onclick = ""recordClick(this)""><div class = content><div class = numbers>R</div></div></button><button id = button_11 class = ""square num-button"" onclick = ""recordClick(this)""><div class = content><div class = numbers>S</div></div></button><button id = button_12 class = ""square num-button"" onclick = ""recordClick(this)""><div class = content><div class = numbers>Y</div></div></button><button class = clear_button id = ""ClearButton"" onclick = ""clearResponse()"">BACKSPACE</button><button class = blank_button id = ""BlankButton"" onclick = ""blankResponse()"">SKIP</button><p style=""font-size: 2.4rem""><u><b>Current Answer:</b></u></p><br><br><div id=echoed_txt style=""font-size: 5rem; color:blue;""><b></b></div></div>",enter,ospan,retrieval,RpZhvuAtP1Wfj592zfqjzZK4KK83,html-keyboard-response,156,823373,0.0-46.0-5.0-0.0-2.0,21,21,21,6.0,"[""R"",""Y"",""G"",""C"",""Q"",""L""]","[""R"",""Y"",""G"",""C"",""Q"",""L""]",1.0,6.0,,,,,,,64137069043a6e0150c4beae,08:57:54,03/04/2024
1272.0,[''],0,ospan,feedback,RpZhvuAtP1Wfj592zfqjzZK4KK83,html-button-response,157,825148,0.0-46.0-5.0-0.0-3.0,,,,,,,,,,,,100.0,0.0,,64137069043a6e0150c4beae,08:57:54,03/04/2024
,"<p style=""font-size:75px;"">...</p>",,ospan,iti,RpZhvuAtP1Wfj592zfqjzZK4KK83,html-keyboard-response,158,826151,0.0-46.0-5.0-1.0-0.0,,,,,,,,,,,,,,,64137069043a6e0150c4beae,08:57:54,03/04/2024
1510.0,,,ospan,symmetry,RpZhvuAtP1Wfj592zfqjzZK4KK83,symmetry-judgement-task,159,829873,0.0-46.0-5.0-1.0-1.0-0.0,,,,,,,,,,1.0,1.0,,,,64137069043a6e0150c4beae,08:57:54,03/04/2024
,"<div style=""font-size: 10rem; color: #0000FF"">H</div>",,ospan,letter,RpZhvuAtP1Wfj592zfqjzZK4KK83,html-keyboard-response,160,830875,0.0-46.0-5.0-1.0-1.0-1.0,,,,,,,,,,,,,,,64137069043a6e0150c4beae,08:57:54,03/04/2024
1391.0,,,ospan,symmetry,RpZhvuAtP1Wfj592zfqjzZK4KK83,symmetry-judgement-task,161,835113,0.0-46.0-5.0-1.0-1.0-2.0,,,,,,,,,,1.0,1.0,,,,64137069043a6e0150c4beae,08:57:54,03/04/2024
,"<div style=""font-size: 10rem; color: #0000FF"">Y</div>",,ospan,letter,RpZhvuAtP1Wfj592zfqjzZK4KK83,html-keyboard-response,162,836114,0.0-46.0-5.0-1.0-1.0-3.0,,,,,,,,,,,,,,,64137069043a6e0150c4beae,08:57:54,03/04/2024
1308.0,,,ospan,symmetry,RpZhvuAtP1Wfj592zfqjzZK4KK83,symmetry-judgement-task,163,840311,0.0-46.0-5.0-1.0-1.0-4.0,,,,,,,,,,1.0,1.0,,,,64137069043a6e0150c4beae,08:57:54,03/04/2024
,"<div style=""font-size: 10rem; color: #0000FF"">L</div>",,ospan,letter,RpZhvuAtP1Wfj592zfqjzZK4KK83,html-keyboard-response,164,841313,0.0-46.0-5.0-1.0-1.0-5.0,,,,,,,,,,,,,,,64137069043a6e0150c4beae,08:57:54,03/04/2024
1130.0,,,ospan,symmetry,RpZhvuAtP1Wfj592zfqjzZK4KK83,symmetry-judgement-task,165,845393,0.0-46.0-5.0-1.0-1.0-6.0,,,,,,,,,,1.0,1.0,,,,64137069043a6e0150c4beae,08:57:54,03/04/2024
,"<div style=""font-size: 10rem; color: #0000FF"">P</div>",,ospan,letter,RpZhvuAtP1Wfj592zfqjzZK4KK83,html-keyboard-response,166,846395,0.0-46.0-5.0-1.0-1.0-7.0,,,,,,,,,,,,,,,64137069043a6e0150c4beae,08:57:54,03/04/2024
1522.0,,,ospan,symmetry,RpZhvuAtP1Wfj592zfqjzZK4KK83,symmetry-judgement-task,167,850853,0.0-46.0-5.0-1.0-1.0-8.0,,,,,,,,,,1.0,1.0,,,,64137069043a6e0150c4beae,08:57:54,03/04/2024
,"<div style=""font-size: 10rem; color: #0000FF"">K</div>",,ospan,letter,RpZhvuAtP1Wfj592zfqjzZK4KK83,html-keyboard-response,168,851854,0.0-46.0-5.0-1.0-1.0-9.0,,,,,,,,,,,,,,,64137069043a6e0150c4beae,08:57:54,03/04/2024
1243.0,,,ospan,symmetry,RpZhvuAtP1Wfj592zfqjzZK4KK83,symmetry-judgement-task,169,855933,0.0-46.0-5.0-1.0-1.0-10.0,,,,,,,,,,1.0,1.0,,,,64137069043a6e0150c4beae,08:57:54,03/04/2024
,"<div style=""font-size: 10rem; color: #0000FF"">Q</div>",,ospan,letter,RpZhvuAtP1Wfj592zfqjzZK4KK83,html-keyboard-response,170,856935,0.0-46.0-5.0-1.0-1.0-11.0,,,,,,,,,,,,,,,64137069043a6e0150c4beae,08:57:54,03/04/2024
1572.0,,,ospan,symmetry,RpZhvuAtP1Wfj592zfqjzZK4KK83,symmetry-judgement-task,171,861355,0.0-46.0-5.0-1.0-1.0-12.0,,,,,,,,,,1.0,1.0,,,,64137069043a6e0150c4beae,08:57:54,03/04/2024
,"<div style=""font-size: 10rem; color: #0000FF"">G</div>",,ospan,letter,RpZhvuAtP1Wfj592zfqjzZK4KK83,html-keyboard-response,172,862357,0.0-46.0-5.0-1.0-1.0-13.0,,,,,,,,,,,,,,,64137069043a6e0150c4beae,08:57:54,03/04/2024
7505.0,"<div class = numbox><p style=""font-size: 2.4rem"">Please recall the letters you saw to the best of your ability. If you do not remember a particular letter, use the SKIP button.<br><b>(When you are ready to lock in your answer, press ENTER)</b></p><button id = button_1 class = ""square num-button"" onclick = ""recordClick(this)""><div class = content><div class = numbers>C</div></div></button><button id = button_2 class = ""square num-button"" onclick = ""recordClick(this)""><div class = content><div class = numbers>G</div></div></button><button id = button_3 class = ""square num-button"" onclick = ""recordClick(this)""><div class = content><div class = numbers>H</div></div></button><button id = button_4 class = ""square num-button"" onclick = ""recordClick(this)""><div class = content><div class = numbers>J</div></div></button><button id = button_5 class = ""square num-button"" onclick = ""recordClick(this)""><div class = content><div class = numbers>K</div></div></button><button id = button_6 class = ""square num-button"" onclick = ""recordClick(this)""><div class = content><div class = numbers>L</div></div></button><button id = button_7 class = ""square num-button"" onclick = ""recordClick(this)""><div class = content><div class = numbers>N</div></div></button><button id = button_8 class = ""square num-button"" onclick = ""recordClick(this)""><div class = content><div class = numbers>P</div></div></button><button id = button_9 class = ""square num-button"" onclick = ""recordClick(this)""><div class = content><div class = numbers>Q</div></div></button><button id = button_10 class = ""square num-button"" onclick = ""recordClick(this)""><div class = content><div class = numbers>R</div></div></button><button id = button_11 class = ""square num-button"" onclick = ""recordClick(this)""><div class = content><div class = numbers>S</div></div></button><button id = button_12 class = ""square num-button"" onclick = ""recordClick(this)""><div class = content><div class = numbers>Y</div></div></button><button class = clear_button id = ""ClearButton"" onclick = ""clearResponse()"">BACKSPACE</button><button class = blank_button id = ""BlankButton"" onclick = ""blankResponse()"">SKIP</button><p style=""font-size: 2.4rem""><u><b>Current Answer:</b></u></p><br><br><div id=echoed_txt style=""font-size: 5rem; color:blue;""><b></b></div></div>",enter,ospan,retrieval,RpZhvuAtP1Wfj592zfqjzZK4KK83,html-keyboard-response,173,870614,0.0-46.0-5.0-1.0-2.0,28,27,21,7.0,"[""H"",""Y"",""L"",""P"",""K"",""Q"",""J""]","[""H"",""Y"",""L"",""P"",""K"",""Q"",""G""]",0.0,6.0,,,,,,,64137069043a6e0150c4beae,08:57:54,03/04/2024
789.0,[''],0,ospan,feedback,RpZhvuAtP1Wfj592zfqjzZK4KK83,html-button-response,174,871905,0.0-46.0-5.0-1.0-3.0,,,,,,,,,,,,100.0,0.0,,64137069043a6e0150c4beae,08:57:54,03/04/2024
,"<p style=""font-size:75px;"">...</p>",,ospan,iti,RpZhvuAtP1Wfj592zfqjzZK4KK83,html-keyboard-response,175,872908,0.0-46.0-6.0-0.0-0.0,,,,,,,,,,,,,,,64137069043a6e0150c4beae,08:57:54,03/04/2024
1744.0,,,ospan,symmetry,RpZhvuAtP1Wfj592zfqjzZK4KK83,symmetry-judgement-task,176,876783,0.0-46.0-6.0-0.0-1.0-0.0,,,,,,,,,,1.0,1.0,,,,64137069043a6e0150c4beae,08:57:54,03/04/2024
,"<div style=""font-size: 10rem; color: #0000FF"">S</div>",,ospan,letter,RpZhvuAtP1Wfj592zfqjzZK4KK83,html-keyboard-response,177,877784,0.0-46.0-6.0-0.0-1.0-1.0,,,,,,,,,,,,,,,64137069043a6e0150c4beae,08:57:54,03/04/2024
1310.0,,,ospan,symmetry,RpZhvuAtP1Wfj592zfqjzZK4KK83,symmetry-judgement-task,178,882026,0.0-46.0-6.0-0.0-1.0-2.0,,,,,,,,,,1.0,1.0,,,,64137069043a6e0150c4beae,08:57:54,03/04/2024
,"<div style=""font-size: 10rem; color: #0000FF"">L</div>",,ospan,letter,RpZhvuAtP1Wfj592zfqjzZK4KK83,html-keyboard-response,179,883028,0.0-46.0-6.0-0.0-1.0-3.0,,,,,,,,,,,,,,,64137069043a6e0150c4beae,08:57:54,03/04/2024
1506.0,,,ospan,symmetry,RpZhvuAtP1Wfj592zfqjzZK4KK83,symmetry-judgement-task,180,887423,0.0-46.0-6.0-0.0-1.0-4.0,,,,,,,,,,1.0,1.0,,,,64137069043a6e0150c4beae,08:57:54,03/04/2024
,"<div style=""font-size: 10rem; color: #0000FF"">G</div>",,ospan,letter,RpZhvuAtP1Wfj592zfqjzZK4KK83,html-keyboard-response,181,888425,0.0-46.0-6.0-0.0-1.0-5.0,,,,,,,,,,,,,,,64137069043a6e0150c4beae,08:57:54,03/04/2024
1229.0,,,ospan,symmetry,RpZhvuAtP1Wfj592zfqjzZK4KK83,symmetry-judgement-task,182,892501,0.0-46.0-6.0-0.0-1.0-6.0,,,,,,,,,,1.0,1.0,,,,64137069043a6e0150c4beae,08:57:54,03/04/2024
,"<div style=""font-size: 10rem; color: #0000FF"">C</div>",,ospan,letter,RpZhvuAtP1Wfj592zfqjzZK4KK83,html-keyboard-response,183,893503,0.0-46.0-6.0-0.0-1.0-7.0,,,,,,,,,,,,,,,64137069043a6e0150c4beae,08:57:54,03/04/2024
1329.0,,,ospan,symmetry,RpZhvuAtP1Wfj592zfqjzZK4KK83,symmetry-judgement-task,184,897677,0.0-46.0-6.0-0.0-1.0-8.0,,,,,,,,,,1.0,1.0,,,,64137069043a6e0150c4beae,08:57:54,03/04/2024
,"<div style=""font-size: 10rem; color: #0000FF"">H</div>",,ospan,letter,RpZhvuAtP1Wfj592zfqjzZK4KK83,html-keyboard-response,185,898679,0.0-46.0-6.0-0.0-1.0-9.0,,,,,,,,,,,,,,,64137069043a6e0150c4beae,08:57:54,03/04/2024
11798.0,"<div class = numbox><p style=""font-size: 2.4rem"">Please recall the letters you saw to the best of your ability. If you do not remember a particular letter, use the SKIP button.<br><b>(When you are ready to lock in your answer, press ENTER)</b></p><button id = button_1 class = ""square num-button"" onclick = ""recordClick(this)""><div class = content><div class = numbers>C</div></div></button><button id = button_2 class = ""square num-button"" onclick = ""recordClick(this)""><div class = content><div class = numbers>G</div></div></button><button id = button_3 class = ""square num-button"" onclick = ""recordClick(this)""><div class = content><div class = numbers>H</div></div></button><button id = button_4 class = ""square num-button"" onclick = ""recordClick(this)""><div class = content><div class = numbers>J</div></div></button><button id = button_5 class = ""square num-button"" onclick = ""recordClick(this)""><div class = content><div class = numbers>K</div></div></button><button id = button_6 class = ""square num-button"" onclick = ""recordClick(this)""><div class = content><div class = numbers>L</div></div></button><button id = button_7 class = ""square num-button"" onclick = ""recordClick(this)""><div class = content><div class = numbers>N</div></div></button><button id = button_8 class = ""square num-button"" onclick = ""recordClick(this)""><div class = content><div class = numbers>P</div></div></button><button id = button_9 class = ""square num-button"" onclick = ""recordClick(this)""><div class = content><div class = numbers>Q</div></div></button><button id = button_10 class = ""square num-button"" onclick = ""recordClick(this)""><div class = content><div class = numbers>R</div></div></button><button id = button_11 class = ""square num-button"" onclick = ""recordClick(this)""><div class = content><div class = numbers>S</div></div></button><button id = button_12 class = ""square num-button"" onclick = ""recordClick(this)""><div class = content><div class = numbers>Y</div></div></button><button class = clear_button id = ""ClearButton"" onclick = ""clearResponse()"">BACKSPACE</button><button class = blank_button id = ""BlankButton"" onclick = ""blankResponse()"">SKIP</button><p style=""font-size: 2.4rem""><u><b>Current Answer:</b></u></p><br><br><div id=echoed_txt style=""font-size: 5rem; color:blue;""><b></b></div></div>",enter,ospan,retrieval,RpZhvuAtP1Wfj592zfqjzZK4KK83,html-keyboard-response,186,911229,0.0-46.0-6.0-0.0-2.0,33,32,26,5.0,"[""S"",""L"",""G"",""C"",""H""]","[""S"",""L"",""G"",""C"",""H""]",1.0,5.0,,,,,,,64137069043a6e0150c4beae,08:57:54,03/04/2024
614.0,[''],0,ospan,feedback,RpZhvuAtP1Wfj592zfqjzZK4KK83,html-button-response,187,912345,0.0-46.0-6.0-0.0-3.0,,,,,,,,,,,,100.0,0.0,,64137069043a6e0150c4beae,08:57:54,03/04/2024
,"<p style=""font-size:75px;"">...</p>",,ospan,iti,RpZhvuAtP1Wfj592zfqjzZK4KK83,html-keyboard-response,188,913348,0.0-46.0-6.0-1.0-0.0,,,,,,,,,,,,,,,64137069043a6e0150c4beae,08:57:54,03/04/2024
2299.0,,,ospan,symmetry,RpZhvuAtP1Wfj592zfqjzZK4KK83,symmetry-judgement-task,189,917752,0.0-46.0-6.0-1.0-1.0-0.0,,,,,,,,,,1.0,1.0,,,,64137069043a6e0150c4beae,08:57:54,03/04/2024
,"<div style=""font-size: 10rem; color: #0000FF"">S</div>",,ospan,letter,RpZhvuAtP1Wfj592zfqjzZK4KK83,html-keyboard-response,190,918754,0.0-46.0-6.0-1.0-1.0-1.0,,,,,,,,,,,,,,,64137069043a6e0150c4beae,08:57:54,03/04/2024
1312.0,,,ospan,symmetry,RpZhvuAtP1Wfj592zfqjzZK4KK83,symmetry-judgement-task,191,922911,0.0-46.0-6.0-1.0-1.0-2.0,,,,,,,,,,1.0,1.0,,,,64137069043a6e0150c4beae,08:57:54,03/04/2024
,"<div style=""font-size: 10rem; color: #0000FF"">P</div>",,ospan,letter,RpZhvuAtP1Wfj592zfqjzZK4KK83,html-keyboard-response,192,923912,0.0-46.0-6.0-1.0-1.0-3.0,,,,,,,,,,,,,,,64137069043a6e0150c4beae,08:57:54,03/04/2024
1256.0,,,ospan,symmetry,RpZhvuAtP1Wfj592zfqjzZK4KK83,symmetry-judgement-task,193,928013,0.0-46.0-6.0-1.0-1.0-4.0,,,,,,,,,,1.0,1.0,,,,64137069043a6e0150c4beae,08:57:54,03/04/2024
,"<div style=""font-size: 10rem; color: #0000FF"">J</div>",,ospan,letter,RpZhvuAtP1Wfj592zfqjzZK4KK83,html-keyboard-response,194,929014,0.0-46.0-6.0-1.0-1.0-5.0,,,,,,,,,,,,,,,64137069043a6e0150c4beae,08:57:54,03/04/2024
974.0,,,ospan,symmetry,RpZhvuAtP1Wfj592zfqjzZK4KK83,symmetry-judgement-task,195,932935,0.0-46.0-6.0-1.0-1.0-6.0,,,,,,,,,,1.0,1.0,,,,64137069043a6e0150c4beae,08:57:54,03/04/2024
,"<div style=""font-size: 10rem; color: #0000FF"">N</div>",,ospan,letter,RpZhvuAtP1Wfj592zfqjzZK4KK83,html-keyboard-response,196,933937,0.0-46.0-6.0-1.0-1.0-7.0,,,,,,,,,,,,,,,64137069043a6e0150c4beae,08:57:54,03/04/2024
1874.0,,,ospan,symmetry,RpZhvuAtP1Wfj592zfqjzZK4KK83,symmetry-judgement-task,197,938698,0.0-46.0-6.0-1.0-1.0-8.0,,,,,,,,,,1.0,1.0,,,,64137069043a6e0150c4beae,08:57:54,03/04/2024
,"<div style=""font-size: 10rem; color: #0000FF"">H</div>",,ospan,letter,RpZhvuAtP1Wfj592zfqjzZK4KK83,html-keyboard-response,198,939699,0.0-46.0-6.0-1.0-1.0-9.0,,,,,,,,,,,,,,,64137069043a6e0150c4beae,08:57:54,03/04/2024
1272.0,,,ospan,symmetry,RpZhvuAtP1Wfj592zfqjzZK4KK83,symmetry-judgement-task,199,943905,0.0-46.0-6.0-1.0-1.0-10.0,,,,,,,,,,1.0,1.0,,,,64137069043a6e0150c4beae,08:57:54,03/04/2024
,"<div style=""font-size: 10rem; color: #0000FF"">L</div>",,ospan,letter,RpZhvuAtP1Wfj592zfqjzZK4KK83,html-keyboard-response,200,944906,0.0-46.0-6.0-1.0-1.0-11.0,,,,,,,,,,,,,,,64137069043a6e0150c4beae,08:57:54,03/04/2024
1110.0,,,ospan,symmetry,RpZhvuAtP1Wfj592zfqjzZK4KK83,symmetry-judgement-task,201,948951,0.0-46.0-6.0-1.0-1.0-12.0,,,,,,,,,,1.0,1.0,,,,64137069043a6e0150c4beae,08:57:54,03/04/2024
,"<div style=""font-size: 10rem; color: #0000FF"">R</div>",,ospan,letter,RpZhvuAtP1Wfj592zfqjzZK4KK83,html-keyboard-response,202,949952,0.0-46.0-6.0-1.0-1.0-13.0,,,,,,,,,,,,,,,64137069043a6e0150c4beae,08:57:54,03/04/2024
1472.0,,,ospan,symmetry,RpZhvuAtP1Wfj592zfqjzZK4KK83,symmetry-judgement-task,203,954783,0.0-46.0-6.0-1.0-1.0-14.0,,,,,,,,,,1.0,1.0,,,,64137069043a6e0150c4beae,08:57:54,03/04/2024
,"<div style=""font-size: 10rem; color: #0000FF"">Q</div>",,ospan,letter,RpZhvuAtP1Wfj592zfqjzZK4KK83,html-keyboard-response,204,955784,0.0-46.0-6.0-1.0-1.0-15.0,,,,,,,,,,,,,,,64137069043a6e0150c4beae,08:57:54,03/04/2024
6493.999999999884,"<div class = numbox><p style=""font-size: 2.4rem"">Please recall the letters you saw to the best of your ability. If you do not remember a particular letter, use the SKIP button.<br><b>(When you are ready to lock in your answer, press ENTER)</b></p><button id = button_1 class = ""square num-button"" onclick = ""recordClick(this)""><div class = content><div class = numbers>C</div></div></button><button id = button_2 class = ""square num-button"" onclick = ""recordClick(this)""><div class = content><div class = numbers>G</div></div></button><button id = button_3 class = ""square num-button"" onclick = ""recordClick(this)""><div class = content><div class = numbers>H</div></div></button><button id = button_4 class = ""square num-button"" onclick = ""recordClick(this)""><div class = content><div class = numbers>J</div></div></button><button id = button_5 class = ""square num-button"" onclick = ""recordClick(this)""><div class = content><div class = numbers>K</div></div></button><button id = button_6 class = ""square num-button"" onclick = ""recordClick(this)""><div class = content><div class = numbers>L</div></div></button><button id = button_7 class = ""square num-button"" onclick = ""recordClick(this)""><div class = content><div class = numbers>N</div></div></button><button id = button_8 class = ""square num-button"" onclick = ""recordClick(this)""><div class = content><div class = numbers>P</div></div></button><button id = button_9 class = ""square num-button"" onclick = ""recordClick(this)""><div class = content><div class = numbers>Q</div></div></button><button id = button_10 class = ""square num-button"" onclick = ""recordClick(this)""><div class = content><div class = numbers>R</div></div></button><button id = button_11 class = ""square num-button"" onclick = ""recordClick(this)""><div class = content><div class = numbers>S</div></div></button><button id = button_12 class = ""square num-button"" onclick = ""recordClick(this)""><div class = content><div class = numbers>Y</div></div></button><button class = clear_button id = ""ClearButton"" onclick = ""clearResponse()"">BACKSPACE</button><button class = blank_button id = ""BlankButton"" onclick = ""blankResponse()"">SKIP</button><p style=""font-size: 2.4rem""><u><b>Current Answer:</b></u></p><br><br><div id=echoed_txt style=""font-size: 5rem; color:blue;""><b></b></div></div>",enter,ospan,retrieval,RpZhvuAtP1Wfj592zfqjzZK4KK83,html-keyboard-response,205,963029,0.0-46.0-6.0-1.0-2.0,41,39,26,8.0,"[""S"",""P"",""J"",""N"",""H"",""L"",""R""]","[""S"",""P"",""J"",""N"",""H"",""L"",""R"",""Q""]",0.0,7.0,,,,,,,64137069043a6e0150c4beae,08:57:54,03/04/2024
675.0,[''],0,ospan,feedback,RpZhvuAtP1Wfj592zfqjzZK4KK83,html-button-response,206,964207,0.0-46.0-6.0-1.0-3.0,,,,,,,,,,,,100.0,0.0,,64137069043a6e0150c4beae,08:57:54,03/04/2024
9599.0,,{'Q0': 'Very enjoyable- like a brainteaser'},ospan,survey_ospan,RpZhvuAtP1Wfj592zfqjzZK4KK83,lmdlab-survey-text,207,974558,0.0-46.0-7.0,,,,,,,,,,,,,,RpZhvuAtP1Wfj592zfqjzZK4KK83,64137069043a6e0150c4beae,08:57:54,03/04/2024
1233.0000000001164,<p><p style='font-size: 3rem'>Great work!<br><br>This completes the symmetry and memory task.</p><br><br><br>,0,ospan,finish,RpZhvuAtP1Wfj592zfqjzZK4KK83,html-button-response,208,975797,0.0-46.0-8.0,41,39,26,,,,,,,,,100.0,,,64137069043a6e0150c4beae,08:57:54,03/04/2024
