rt,stimulus,response,exp_name,exp_stage,subjectID,trial_type,trial_index,time_elapsed,internal_node_id,ospan_shown,ospan_total,ospan_abs,length,resp_actual,resp_correct,full_correct,num_correct,feedback,accuracy,correct,math_acc,math_warning,databaseID,prolificID,start_time,date
3424.399999976158,<div class = 'left_align' style='font-size: 3.25rem; line-height: 1.3;'><p class = 'center_align'><b>Welcome to the Symmetry and Memory Task</b><br><br><br><br></p>Press 'continue' to show the instructions.<br><br><br><br></div>,0,ospan,instruct,gTJC4qlLSZQJKi8PfflxDx6cFzt2,html-button-response,54,553828,0.0-46.0-0.0-0.0-0.0,,,,,,,,,,,,,,,55e876f25e4d360012cc283d,09:56:16,03/04/2024
94277.80000001192,"<div class = 'left_align' style='font-size: 3.25rem; line-height: 1.3;'><p class = 'center_align'><b>Symmetry and Memory Task</b><br><br></p>In this task, you will try to memorize letters you see on the screen<br>while you also view black and white grid pictures.<br><br>In the next few minutes, you will have some practice to get you familiar<br>with how the task works.<br><br>It may be difficult sometimes, but please do not worry about making mistakes!<br><br>We will begin by practicing the letter part of the task.<br><br><br><br></div>",0,ospan,instruct,gTJC4qlLSZQJKi8PfflxDx6cFzt2,html-button-response,55,648372,0.0-46.0-0.0-0.0-1.0,,,,,,,,,,,,,,,55e876f25e4d360012cc283d,09:56:16,03/04/2024
28260.0,"<div class = 'left_align' style='font-size: 3.25rem; line-height: 1.3;'>For this practice part, letters will appear on the screen one at a time.<br><br>Try to remember each letter in the order presented.<br><br>After some letters have been shown, you will see a response screen. Your<br>goal is to report the letters you saw <b>in order</b>. If you do not remember<br>a particular letter, you will have the option to leave it blank.<br><br><br><br></div>",0,ospan,instruct,gTJC4qlLSZQJKi8PfflxDx6cFzt2,html-button-response,56,676885,0.0-46.0-0.0-0.0-2.0,,,,,,,,,,,,,,,55e876f25e4d360012cc283d,09:56:16,03/04/2024
2621.400000035763,"<div class = 'left_align' style='font-size: 3.25rem; line-height: 1.3;'>Remember, it is very important to get the letters in the same<br>order as you see them.<br><br>When you are ready, you may begin the letter practice.</div><br><br><br><br>",0,ospan,instruct,gTJC4qlLSZQJKi8PfflxDx6cFzt2,html-button-response,57,679763,0.0-46.0-0.0-0.0-3.0,,,,,,,,,,,,,,,55e876f25e4d360012cc283d,09:56:16,03/04/2024
,"<p style=""font-size:75px;"">...</p>",,ospan,iti,gTJC4qlLSZQJKi8PfflxDx6cFzt2,html-keyboard-response,58,681028,0.0-46.0-0.0-1.0-0.0,,,,,,,,,,,,,,,55e876f25e4d360012cc283d,09:56:16,03/04/2024
,"<div style=""font-size: 10rem; color: #0000FF"">G</div>",,ospan,letter,gTJC4qlLSZQJKi8PfflxDx6cFzt2,html-keyboard-response,59,682035,0.0-46.0-0.0-1.0-1.0,,,,,,,,,,,,,,,55e876f25e4d360012cc283d,09:56:16,03/04/2024
,"<div style=""font-size: 10rem; color: #0000FF"">L</div>",,ospan,letter,gTJC4qlLSZQJKi8PfflxDx6cFzt2,html-keyboard-response,60,683794,0.0-46.0-0.0-1.0-2.0,,,,,,,,,,,,,,,55e876f25e4d360012cc283d,09:56:16,03/04/2024
12755.899999976158,"<div class = numbox><p style=""font-size: 2.4rem"">Please recall the letters you saw to the best of your ability. If you do not remember a particular letter, use the SKIP button.<br><b>(When you are ready to lock in your answer, press ENTER)</b></p><button id = button_1 class = ""square num-button"" onclick = ""recordClick(this)""><div class = content><div class = numbers>C</div></div></button><button id = button_2 class = ""square num-button"" onclick = ""recordClick(this)""><div class = content><div class = numbers>G</div></div></button><button id = button_3 class = ""square num-button"" onclick = ""recordClick(this)""><div class = content><div class = numbers>H</div></div></button><button id = button_4 class = ""square num-button"" onclick = ""recordClick(this)""><div class = content><div class = numbers>J</div></div></button><button id = button_5 class = ""square num-button"" onclick = ""recordClick(this)""><div class = content><div class = numbers>K</div></div></button><button id = button_6 class = ""square num-button"" onclick = ""recordClick(this)""><div class = content><div class = numbers>L</div></div></button><button id = button_7 class = ""square num-button"" onclick = ""recordClick(this)""><div class = content><div class = numbers>N</div></div></button><button id = button_8 class = ""square num-button"" onclick = ""recordClick(this)""><div class = content><div class = numbers>P</div></div></button><button id = button_9 class = ""square num-button"" onclick = ""recordClick(this)""><div class = content><div class = numbers>Q</div></div></button><button id = button_10 class = ""square num-button"" onclick = ""recordClick(this)""><div class = content><div class = numbers>R</div></div></button><button id = button_11 class = ""square num-button"" onclick = ""recordClick(this)""><div class = content><div class = numbers>S</div></div></button><button id = button_12 class = ""square num-button"" onclick = ""recordClick(this)""><div class = content><div class = numbers>Y</div></div></button><button class = clear_button id = ""ClearButton"" onclick = ""clearResponse()"">BACKSPACE</button><button class = blank_button id = ""BlankButton"" onclick = ""blankResponse()"">SKIP</button><p style=""font-size: 2.4rem""><u><b>Current Answer:</b></u></p><br><br><div id=echoed_txt style=""font-size: 5rem; color:blue;""><b></b></div></div>",enter,ospan,retrieval,gTJC4qlLSZQJKi8PfflxDx6cFzt2,html-keyboard-response,61,697302,0.0-46.0-0.0-1.0-3.0,NA,NA,NA,2.0,"[""G"",""L""]","[""G"",""L""]",1.0,2.0,"['<font color=""green"">G</font>', '<font color=""green"">L</font>']",,,,,,55e876f25e4d360012cc283d,09:56:16,03/04/2024
1228.9000000357628,"['<p style=""font-size:44px"">Letters:<br><br><br><font color=""green"">G</font> <font color=""green"">L</font></p><br><br>']",0,ospan,practice_feedback,gTJC4qlLSZQJKi8PfflxDx6cFzt2,html-button-response,62,699035,0.0-46.0-0.0-1.0-4.0,,,,,,,,,,,,,,,55e876f25e4d360012cc283d,09:56:16,03/04/2024
,"<p style=""font-size:75px;"">...</p>",,ospan,iti,gTJC4qlLSZQJKi8PfflxDx6cFzt2,html-keyboard-response,63,700043,0.0-46.0-0.0-2.0-0.0,,,,,,,,,,,,,,,55e876f25e4d360012cc283d,09:56:16,03/04/2024
,"<div style=""font-size: 10rem; color: #0000FF"">S</div>",,ospan,letter,gTJC4qlLSZQJKi8PfflxDx6cFzt2,html-keyboard-response,64,701057,0.0-46.0-0.0-2.0-1.0,,,,,,,,,,,,,,,55e876f25e4d360012cc283d,09:56:16,03/04/2024
,"<div style=""font-size: 10rem; color: #0000FF"">P</div>",,ospan,letter,gTJC4qlLSZQJKi8PfflxDx6cFzt2,html-keyboard-response,65,702823,0.0-46.0-0.0-2.0-2.0,,,,,,,,,,,,,,,55e876f25e4d360012cc283d,09:56:16,03/04/2024
,"<div style=""font-size: 10rem; color: #0000FF"">Q</div>",,ospan,letter,gTJC4qlLSZQJKi8PfflxDx6cFzt2,html-keyboard-response,66,704587,0.0-46.0-0.0-2.0-3.0,,,,,,,,,,,,,,,55e876f25e4d360012cc283d,09:56:16,03/04/2024
3914.0,"<div class = numbox><p style=""font-size: 2.4rem"">Please recall the letters you saw to the best of your ability. If you do not remember a particular letter, use the SKIP button.<br><b>(When you are ready to lock in your answer, press ENTER)</b></p><button id = button_1 class = ""square num-button"" onclick = ""recordClick(this)""><div class = content><div class = numbers>C</div></div></button><button id = button_2 class = ""square num-button"" onclick = ""recordClick(this)""><div class = content><div class = numbers>G</div></div></button><button id = button_3 class = ""square num-button"" onclick = ""recordClick(this)""><div class = content><div class = numbers>H</div></div></button><button id = button_4 class = ""square num-button"" onclick = ""recordClick(this)""><div class = content><div class = numbers>J</div></div></button><button id = button_5 class = ""square num-button"" onclick = ""recordClick(this)""><div class = content><div class = numbers>K</div></div></button><button id = button_6 class = ""square num-button"" onclick = ""recordClick(this)""><div class = content><div class = numbers>L</div></div></button><button id = button_7 class = ""square num-button"" onclick = ""recordClick(this)""><div class = content><div class = numbers>N</div></div></button><button id = button_8 class = ""square num-button"" onclick = ""recordClick(this)""><div class = content><div class = numbers>P</div></div></button><button id = button_9 class = ""square num-button"" onclick = ""recordClick(this)""><div class = content><div class = numbers>Q</div></div></button><button id = button_10 class = ""square num-button"" onclick = ""recordClick(this)""><div class = content><div class = numbers>R</div></div></button><button id = button_11 class = ""square num-button"" onclick = ""recordClick(this)""><div class = content><div class = numbers>S</div></div></button><button id = button_12 class = ""square num-button"" onclick = ""recordClick(this)""><div class = content><div class = numbers>Y</div></div></button><button class = clear_button id = ""ClearButton"" onclick = ""clearResponse()"">BACKSPACE</button><button class = blank_button id = ""BlankButton"" onclick = ""blankResponse()"">SKIP</button><p style=""font-size: 2.4rem""><u><b>Current Answer:</b></u></p><br><br><div id=echoed_txt style=""font-size: 5rem; color:blue;""><b></b></div></div>",enter,ospan,retrieval,gTJC4qlLSZQJKi8PfflxDx6cFzt2,html-keyboard-response,67,709256,0.0-46.0-0.0-2.0-4.0,NA,NA,NA,3.0,"[""S"",""P"",""Q""]","[""S"",""P"",""Q""]",1.0,3.0,"['<font color=""green"">S</font>', '<font color=""green"">P</font>', '<font color=""green"">Q</font>']",,,,,,55e876f25e4d360012cc283d,09:56:16,03/04/2024
1387.199999988079,"['<p style=""font-size:44px"">Letters:<br><br><br><font color=""green"">S</font> <font color=""green"">P</font> <font color=""green"">Q</font></p><br><br>']",0,ospan,practice_feedback,gTJC4qlLSZQJKi8PfflxDx6cFzt2,html-button-response,68,711152,0.0-46.0-0.0-2.0-5.0,,,,,,,,,,,,,,,55e876f25e4d360012cc283d,09:56:16,03/04/2024
14573.899999976158,"<div class = 'left_align' style='font-size: 3.25rem; line-height: 1.3;'>Now you will practice doing the <b>symmetry judgment part</b> of the experiment.<br><br>A black and white grid picture will appear on the screen and you have to judge if it is <br>symmetrical or asymetrical.<br><br>A picture is 'mirror' symmetrical if its left half is identical to the right half when flipped.<br>Here are examples of a symmetrical and an asymetrical picture:<br><br><center><img src='Stimuli/img/symm_instructions_extra.png' style='height:420px; width:900'></img></center><br>To judge symmetry, imagine you were to fold each picture down the middle, like a book –<br>would the left half match the right half when folded onto each other?<br><br></div><br>",0,ospan,instruct,gTJC4qlLSZQJKi8PfflxDx6cFzt2,html-button-response,69,725728,0.0-46.0-1.0-0.0-0.0,,,,,,,,,,,,,,,55e876f25e4d360012cc283d,09:56:16,03/04/2024
6412.900000035763,"<div class = 'left_align' style='font-size: 3.25rem; line-height: 1.3;'>When you have viewed the picture and determined whether it is symmetrical or not,<br>you can <b>click the Yes or No button</b> below to answer.<br><br>If you take longer than 15 seconds, it will continue automatically<br>and record the answer as an error.</div><br>",0,ospan,instruct,gTJC4qlLSZQJKi8PfflxDx6cFzt2,html-button-response,70,732400,0.0-46.0-1.0-0.0-1.0,,,,,,,,,,,,,,,55e876f25e4d360012cc283d,09:56:16,03/04/2024
5705.099999964237,"<div class = 'left_align' style='font-size: 3.25rem; line-height: 1.3;'>It is <b>very</b> important that you make the symmetry judgment correctly.<br><br>It is also important that you try and judge the picture as quickly as you can.<br><br>When you are ready, click on the button below to try some practice problems.</div><br><br><br><br>",0,ospan,instruct,gTJC4qlLSZQJKi8PfflxDx6cFzt2,html-button-response,71,738360,0.0-46.0-1.0-0.0-2.0,,,,,,,,,,,,,,,55e876f25e4d360012cc283d,09:56:16,03/04/2024
1124.0,,,ospan,symmetry,gTJC4qlLSZQJKi8PfflxDx6cFzt2,symmetry-judgement-task,72,740281,0.0-46.0-1.0-1.0-0.0,,,,,,,,,,1.0,1.0,,,,55e876f25e4d360012cc283d,09:56:16,03/04/2024
,"<p style=""color:green; font-size: 35px"">Correct</p>",,ospan,feedback,gTJC4qlLSZQJKi8PfflxDx6cFzt2,html-keyboard-response,73,741045,0.0-46.0-1.0-1.0-1.0,,,,,,,,,,,,,,,55e876f25e4d360012cc283d,09:56:16,03/04/2024
1534.0,,,ospan,symmetry,gTJC4qlLSZQJKi8PfflxDx6cFzt2,symmetry-judgement-task,74,745211,0.0-46.0-1.0-1.0-2.0,,,,,,,,,,1.0,1.0,,,,55e876f25e4d360012cc283d,09:56:16,03/04/2024
,"<p style=""color:green; font-size: 35px"">Correct</p>",,ospan,feedback,gTJC4qlLSZQJKi8PfflxDx6cFzt2,html-keyboard-response,75,745965,0.0-46.0-1.0-1.0-3.0,,,,,,,,,,,,,,,55e876f25e4d360012cc283d,09:56:16,03/04/2024
1589.0,,,ospan,symmetry,gTJC4qlLSZQJKi8PfflxDx6cFzt2,symmetry-judgement-task,76,750186,0.0-46.0-1.0-1.0-4.0,,,,,,,,,,1.0,1.0,,,,55e876f25e4d360012cc283d,09:56:16,03/04/2024
,"<p style=""color:green; font-size: 35px"">Correct</p>",,ospan,feedback,gTJC4qlLSZQJKi8PfflxDx6cFzt2,html-keyboard-response,77,750944,0.0-46.0-1.0-1.0-5.0,,,,,,,,,,,,,,,55e876f25e4d360012cc283d,09:56:16,03/04/2024
1153.6000000238419,"<p style=""font-size: 3rem;"">You responded correctly on 3 of 3 symmetry judgments. Good job!</p><br><br>",0,ospan,practice,gTJC4qlLSZQJKi8PfflxDx6cFzt2,html-button-response,78,754107,0.0-46.0-1.0-2.0,,,,,,,,,,,,,,,55e876f25e4d360012cc283d,09:56:16,03/04/2024
14664.5,"<div class = 'left_align' style='font-size: 3.25rem; line-height: 1.3;'>Now you will practice doing both parts of the experiment at the same time.<br><br>In the next practice set, you will be given one grid picture to judge.<br>Then letter will appear on the screen. Try to remember the letter.<br><br>It is <b>very important</b> to make the symmetry judgment as quickly and accurately as possible.<br><br>Just as before, once you have make the symmetry judgment, you can click Yes or No.<br><b>Note that you will no longer see Correct or Incorrect feedback.</div><br><br><br><br>",0,ospan,instruct,gTJC4qlLSZQJKi8PfflxDx6cFzt2,html-button-response,79,769026,0.0-46.0-2.0-0.0-0.0,,,,,,,,,,,,,,,55e876f25e4d360012cc283d,09:56:16,03/04/2024
64454.30000001192,"<div class = 'left_align' style='font-size: 3.25rem; line-height: 1.3;'>After the letter goes away, another grid picture will appear, and then<br>another letter.<br><br>At the end of each set of letters and grids, you will recall the letters to the best<br>of your ability. Remember, try your best to get the letters in the correct order.<br><br>It is important to <b>quickly</b> and <b>accurately</b> make the symmetry judgments.</div><br><br><br><br>",0,ospan,instruct,gTJC4qlLSZQJKi8PfflxDx6cFzt2,html-button-response,80,833739,0.0-46.0-2.0-0.0-1.0,,,,,,,,,,,,,,,55e876f25e4d360012cc283d,09:56:16,03/04/2024
12032.800000011921,"<div class = 'left_align' style='font-size: 3.25rem; line-height: 1.3;'>On the feedback screen, if you are not doing well at the symmetry judgments,<br>you will also see a warning in the middle. This indicates your percent <br>correct for the grid pictures for the entire experiment.<br><br>It is <b>very</b> important for you to keep accuracy at least at 85%: <u>We can only use<br>data where the participant was at least 85% accurate on the judgments.</u> Therefore,<br> please try your best to perform well on the symmetry judgments, <b>at the same time</b><br>doing your best to recall as many letters as possible.<br><br>Click the button to try some practice problems.</div><br><br><br><br>",0,ospan,instruct,gTJC4qlLSZQJKi8PfflxDx6cFzt2,html-button-response,81,846040,0.0-46.0-2.0-0.0-2.0,,,,,,,,,,,,,,,55e876f25e4d360012cc283d,09:56:16,03/04/2024
,"<p style=""font-size:75px;"">...</p>",,ospan,iti,gTJC4qlLSZQJKi8PfflxDx6cFzt2,html-keyboard-response,82,847307,0.0-46.0-2.0-1.0-0.0,,,,,,,,,,,,,,,55e876f25e4d360012cc283d,09:56:16,03/04/2024
1255.0,,,ospan,symmetry,gTJC4qlLSZQJKi8PfflxDx6cFzt2,symmetry-judgement-task,83,849682,0.0-46.0-2.0-1.0-1.0-0.0,,,,,,,,,,1.0,1.0,,,,55e876f25e4d360012cc283d,09:56:16,03/04/2024
,"<div style=""font-size: 10rem; color: #0000FF"">P</div>",,ospan,letter,gTJC4qlLSZQJKi8PfflxDx6cFzt2,html-keyboard-response,84,850689,0.0-46.0-2.0-1.0-1.0-1.0,,,,,,,,,,,,,,,55e876f25e4d360012cc283d,09:56:16,03/04/2024
1202.0,,,ospan,symmetry,gTJC4qlLSZQJKi8PfflxDx6cFzt2,symmetry-judgement-task,85,853757,0.0-46.0-2.0-1.0-1.0-2.0,,,,,,,,,,1.0,1.0,,,,55e876f25e4d360012cc283d,09:56:16,03/04/2024
,"<div style=""font-size: 10rem; color: #0000FF"">S</div>",,ospan,letter,gTJC4qlLSZQJKi8PfflxDx6cFzt2,html-keyboard-response,86,854762,0.0-46.0-2.0-1.0-1.0-3.0,,,,,,,,,,,,,,,55e876f25e4d360012cc283d,09:56:16,03/04/2024
1029.0,,,ospan,symmetry,gTJC4qlLSZQJKi8PfflxDx6cFzt2,symmetry-judgement-task,87,857649,0.0-46.0-2.0-1.0-1.0-4.0,,,,,,,,,,1.0,1.0,,,,55e876f25e4d360012cc283d,09:56:16,03/04/2024
,"<div style=""font-size: 10rem; color: #0000FF"">N</div>",,ospan,letter,gTJC4qlLSZQJKi8PfflxDx6cFzt2,html-keyboard-response,88,858658,0.0-46.0-2.0-1.0-1.0-5.0,,,,,,,,,,,,,,,55e876f25e4d360012cc283d,09:56:16,03/04/2024
4717.0,"<div class = numbox><p style=""font-size: 2.4rem"">Please recall the letters you saw to the best of your ability. If you do not remember a particular letter, use the SKIP button.<br><b>(When you are ready to lock in your answer, press ENTER)</b></p><button id = button_1 class = ""square num-button"" onclick = ""recordClick(this)""><div class = content><div class = numbers>C</div></div></button><button id = button_2 class = ""square num-button"" onclick = ""recordClick(this)""><div class = content><div class = numbers>G</div></div></button><button id = button_3 class = ""square num-button"" onclick = ""recordClick(this)""><div class = content><div class = numbers>H</div></div></button><button id = button_4 class = ""square num-button"" onclick = ""recordClick(this)""><div class = content><div class = numbers>J</div></div></button><button id = button_5 class = ""square num-button"" onclick = ""recordClick(this)""><div class = content><div class = numbers>K</div></div></button><button id = button_6 class = ""square num-button"" onclick = ""recordClick(this)""><div class = content><div class = numbers>L</div></div></button><button id = button_7 class = ""square num-button"" onclick = ""recordClick(this)""><div class = content><div class = numbers>N</div></div></button><button id = button_8 class = ""square num-button"" onclick = ""recordClick(this)""><div class = content><div class = numbers>P</div></div></button><button id = button_9 class = ""square num-button"" onclick = ""recordClick(this)""><div class = content><div class = numbers>Q</div></div></button><button id = button_10 class = ""square num-button"" onclick = ""recordClick(this)""><div class = content><div class = numbers>R</div></div></button><button id = button_11 class = ""square num-button"" onclick = ""recordClick(this)""><div class = content><div class = numbers>S</div></div></button><button id = button_12 class = ""square num-button"" onclick = ""recordClick(this)""><div class = content><div class = numbers>Y</div></div></button><button class = clear_button id = ""ClearButton"" onclick = ""clearResponse()"">BACKSPACE</button><button class = blank_button id = ""BlankButton"" onclick = ""blankResponse()"">SKIP</button><p style=""font-size: 2.4rem""><u><b>Current Answer:</b></u></p><br><br><div id=echoed_txt style=""font-size: 5rem; color:blue;""><b></b></div></div>",enter,ospan,retrieval,gTJC4qlLSZQJKi8PfflxDx6cFzt2,html-keyboard-response,89,864128,0.0-46.0-2.0-1.0-2.0-0.0,NA,NA,NA,3.0,"[""P"",""S"",""N""]","[""P"",""S"",""N""]",1.0,3.0,"['<font color=""green"">P</font>', '<font color=""green"">S</font>', '<font color=""green"">N</font>']",,,,,,55e876f25e4d360012cc283d,09:56:16,03/04/2024
978.7000000476837,"['<p style=""font-size:44px"">Letters:<br><br><br><font color=""green"">P</font> <font color=""green"">S</font> <font color=""green"">N</font></p><br><br><p style=""font-size:30px"">Symmetry:<br><br><font color=""green"">100%</font></p><br><br>']",0,ospan,practice_feedback,gTJC4qlLSZQJKi8PfflxDx6cFzt2,html-button-response,90,865618,0.0-46.0-2.0-1.0-2.0-1.0,,,,,,,,,,,,,,,55e876f25e4d360012cc283d,09:56:16,03/04/2024
,"<p style=""font-size:75px;"">...</p>",,ospan,iti,gTJC4qlLSZQJKi8PfflxDx6cFzt2,html-keyboard-response,91,866625,0.0-46.0-2.0-2.0-0.0,,,,,,,,,,,,,,,55e876f25e4d360012cc283d,09:56:16,03/04/2024
1243.0,,,ospan,symmetry,gTJC4qlLSZQJKi8PfflxDx6cFzt2,symmetry-judgement-task,92,868900,0.0-46.0-2.0-2.0-1.0-0.0,,,,,,,,,,1.0,1.0,,,,55e876f25e4d360012cc283d,09:56:16,03/04/2024
,"<div style=""font-size: 10rem; color: #0000FF"">C</div>",,ospan,letter,gTJC4qlLSZQJKi8PfflxDx6cFzt2,html-keyboard-response,93,869909,0.0-46.0-2.0-2.0-1.0-1.0,,,,,,,,,,,,,,,55e876f25e4d360012cc283d,09:56:16,03/04/2024
1709.0,,,ospan,symmetry,gTJC4qlLSZQJKi8PfflxDx6cFzt2,symmetry-judgement-task,94,873474,0.0-46.0-2.0-2.0-1.0-2.0,,,,,,,,,,1.0,1.0,,,,55e876f25e4d360012cc283d,09:56:16,03/04/2024
,"<div style=""font-size: 10rem; color: #0000FF"">H</div>",,ospan,letter,gTJC4qlLSZQJKi8PfflxDx6cFzt2,html-keyboard-response,95,874483,0.0-46.0-2.0-2.0-1.0-3.0,,,,,,,,,,,,,,,55e876f25e4d360012cc283d,09:56:16,03/04/2024
1108.0,,,ospan,symmetry,gTJC4qlLSZQJKi8PfflxDx6cFzt2,symmetry-judgement-task,96,877470,0.0-46.0-2.0-2.0-1.0-4.0,,,,,,,,,,1.0,1.0,,,,55e876f25e4d360012cc283d,09:56:16,03/04/2024
,"<div style=""font-size: 10rem; color: #0000FF"">S</div>",,ospan,letter,gTJC4qlLSZQJKi8PfflxDx6cFzt2,html-keyboard-response,97,878480,0.0-46.0-2.0-2.0-1.0-5.0,,,,,,,,,,,,,,,55e876f25e4d360012cc283d,09:56:16,03/04/2024
3008.699999988079,"<div class = numbox><p style=""font-size: 2.4rem"">Please recall the letters you saw to the best of your ability. If you do not remember a particular letter, use the SKIP button.<br><b>(When you are ready to lock in your answer, press ENTER)</b></p><button id = button_1 class = ""square num-button"" onclick = ""recordClick(this)""><div class = content><div class = numbers>C</div></div></button><button id = button_2 class = ""square num-button"" onclick = ""recordClick(this)""><div class = content><div class = numbers>G</div></div></button><button id = button_3 class = ""square num-button"" onclick = ""recordClick(this)""><div class = content><div class = numbers>H</div></div></button><button id = button_4 class = ""square num-button"" onclick = ""recordClick(this)""><div class = content><div class = numbers>J</div></div></button><button id = button_5 class = ""square num-button"" onclick = ""recordClick(this)""><div class = content><div class = numbers>K</div></div></button><button id = button_6 class = ""square num-button"" onclick = ""recordClick(this)""><div class = content><div class = numbers>L</div></div></button><button id = button_7 class = ""square num-button"" onclick = ""recordClick(this)""><div class = content><div class = numbers>N</div></div></button><button id = button_8 class = ""square num-button"" onclick = ""recordClick(this)""><div class = content><div class = numbers>P</div></div></button><button id = button_9 class = ""square num-button"" onclick = ""recordClick(this)""><div class = content><div class = numbers>Q</div></div></button><button id = button_10 class = ""square num-button"" onclick = ""recordClick(this)""><div class = content><div class = numbers>R</div></div></button><button id = button_11 class = ""square num-button"" onclick = ""recordClick(this)""><div class = content><div class = numbers>S</div></div></button><button id = button_12 class = ""square num-button"" onclick = ""recordClick(this)""><div class = content><div class = numbers>Y</div></div></button><button class = clear_button id = ""ClearButton"" onclick = ""clearResponse()"">BACKSPACE</button><button class = blank_button id = ""BlankButton"" onclick = ""blankResponse()"">SKIP</button><p style=""font-size: 2.4rem""><u><b>Current Answer:</b></u></p><br><br><div id=echoed_txt style=""font-size: 5rem; color:blue;""><b></b></div></div>",enter,ospan,retrieval,gTJC4qlLSZQJKi8PfflxDx6cFzt2,html-keyboard-response,98,882247,0.0-46.0-2.0-2.0-2.0-0.0,NA,NA,NA,3.0,"[""C"",""H"",""S""]","[""C"",""H"",""S""]",1.0,3.0,"['<font color=""green"">C</font>', '<font color=""green"">H</font>', '<font color=""green"">S</font>']",,,,,,55e876f25e4d360012cc283d,09:56:16,03/04/2024
1139.6000000238419,"['<p style=""font-size:44px"">Letters:<br><br><br><font color=""green"">C</font> <font color=""green"">H</font> <font color=""green"">S</font></p><br><br><p style=""font-size:30px"">Symmetry:<br><br><font color=""green"">100%</font></p><br><br>']",0,ospan,practice_feedback,gTJC4qlLSZQJKi8PfflxDx6cFzt2,html-button-response,99,883897,0.0-46.0-2.0-2.0-2.0-1.0,,,,,,,,,,,,,,,55e876f25e4d360012cc283d,09:56:16,03/04/2024
15094.199999988079,"<div class = 'left_align' style='font-size: 3rem; line-height: 1.3;'><b>Great work! That is the end of practice.</b><br><br>The real trials will look just like the practice trials you just completed.<br><br><u>Here, you will not see feedback</u>. First, you will see an grid picture to judge,<br>then a letter to remember. When the recall screen appears, report the letters in the<br>order presented. If you forget a letter, remember to use the <b>blank</b> button to move to the<br>next letter. Some of the sets will have more symmetry grids and letters than others.<br><br>It is important that you do your best on both the symmetry judgments and the letter recall<br>parts of the experiment. For for the symmetry judgments, try to work as <b>quickly</b> and <br>as <b>accurately</b> as possible. Remember to keep your symmetry accuracy at 85% or above.<br><br><b>For the letters, do NOT use any external aid (e.g., writing on paper, electronic device).</b><br><br>It is <u>very important</u> to our experiment to have a <b>true</b> view of your real performance.<br><br>Do not worry if you miss some when it gets hard! This task is meant to be very challenging!<br><br>Click the button to begin.</div><br><br><br><br>",0,ospan,starting_real_here,gTJC4qlLSZQJKi8PfflxDx6cFzt2,html-button-response,100,898993,0.0-46.0-2.0-3.0,,,,,,,,,,,,,,,55e876f25e4d360012cc283d,09:56:16,03/04/2024
,"<p style=""font-size:75px;"">...</p>",,ospan,iti,gTJC4qlLSZQJKi8PfflxDx6cFzt2,html-keyboard-response,101,900260,0.0-46.0-3.0-0.0-0.0,,,,,,,,,,,,,,,55e876f25e4d360012cc283d,09:56:16,03/04/2024
853.0,,,ospan,symmetry,gTJC4qlLSZQJKi8PfflxDx6cFzt2,symmetry-judgement-task,102,902235,0.0-46.0-3.0-0.0-1.0-0.0,,,,,,,,,,1.0,1.0,,,,55e876f25e4d360012cc283d,09:56:16,03/04/2024
,"<div style=""font-size: 10rem; color: #0000FF"">K</div>",,ospan,letter,gTJC4qlLSZQJKi8PfflxDx6cFzt2,html-keyboard-response,103,903242,0.0-46.0-3.0-0.0-1.0-1.0,,,,,,,,,,,,,,,55e876f25e4d360012cc283d,09:56:16,03/04/2024
793.0,,,ospan,symmetry,gTJC4qlLSZQJKi8PfflxDx6cFzt2,symmetry-judgement-task,104,905912,0.0-46.0-3.0-0.0-1.0-2.0,,,,,,,,,,1.0,1.0,,,,55e876f25e4d360012cc283d,09:56:16,03/04/2024
,"<div style=""font-size: 10rem; color: #0000FF"">S</div>",,ospan,letter,gTJC4qlLSZQJKi8PfflxDx6cFzt2,html-keyboard-response,105,906917,0.0-46.0-3.0-0.0-1.0-3.0,,,,,,,,,,,,,,,55e876f25e4d360012cc283d,09:56:16,03/04/2024
824.0,,,ospan,symmetry,gTJC4qlLSZQJKi8PfflxDx6cFzt2,symmetry-judgement-task,106,909594,0.0-46.0-3.0-0.0-1.0-4.0,,,,,,,,,,1.0,1.0,,,,55e876f25e4d360012cc283d,09:56:16,03/04/2024
,"<div style=""font-size: 10rem; color: #0000FF"">N</div>",,ospan,letter,gTJC4qlLSZQJKi8PfflxDx6cFzt2,html-keyboard-response,107,910604,0.0-46.0-3.0-0.0-1.0-5.0,,,,,,,,,,,,,,,55e876f25e4d360012cc283d,09:56:16,03/04/2024
5877.0,"<div class = numbox><p style=""font-size: 2.4rem"">Please recall the letters you saw to the best of your ability. If you do not remember a particular letter, use the SKIP button.<br><b>(When you are ready to lock in your answer, press ENTER)</b></p><button id = button_1 class = ""square num-button"" onclick = ""recordClick(this)""><div class = content><div class = numbers>C</div></div></button><button id = button_2 class = ""square num-button"" onclick = ""recordClick(this)""><div class = content><div class = numbers>G</div></div></button><button id = button_3 class = ""square num-button"" onclick = ""recordClick(this)""><div class = content><div class = numbers>H</div></div></button><button id = button_4 class = ""square num-button"" onclick = ""recordClick(this)""><div class = content><div class = numbers>J</div></div></button><button id = button_5 class = ""square num-button"" onclick = ""recordClick(this)""><div class = content><div class = numbers>K</div></div></button><button id = button_6 class = ""square num-button"" onclick = ""recordClick(this)""><div class = content><div class = numbers>L</div></div></button><button id = button_7 class = ""square num-button"" onclick = ""recordClick(this)""><div class = content><div class = numbers>N</div></div></button><button id = button_8 class = ""square num-button"" onclick = ""recordClick(this)""><div class = content><div class = numbers>P</div></div></button><button id = button_9 class = ""square num-button"" onclick = ""recordClick(this)""><div class = content><div class = numbers>Q</div></div></button><button id = button_10 class = ""square num-button"" onclick = ""recordClick(this)""><div class = content><div class = numbers>R</div></div></button><button id = button_11 class = ""square num-button"" onclick = ""recordClick(this)""><div class = content><div class = numbers>S</div></div></button><button id = button_12 class = ""square num-button"" onclick = ""recordClick(this)""><div class = content><div class = numbers>Y</div></div></button><button class = clear_button id = ""ClearButton"" onclick = ""clearResponse()"">BACKSPACE</button><button class = blank_button id = ""BlankButton"" onclick = ""blankResponse()"">SKIP</button><p style=""font-size: 2.4rem""><u><b>Current Answer:</b></u></p><br><br><div id=echoed_txt style=""font-size: 5rem; color:blue;""><b></b></div></div>",enter,ospan,retrieval,gTJC4qlLSZQJKi8PfflxDx6cFzt2,html-keyboard-response,108,917238,0.0-46.0-3.0-0.0-2.0,3,3,3,3.0,"[""K"",""S"",""N""]","[""K"",""S"",""N""]",1.0,3.0,,,,,,,55e876f25e4d360012cc283d,09:56:16,03/04/2024
811.8999999761581,[''],0,ospan,feedback,gTJC4qlLSZQJKi8PfflxDx6cFzt2,html-button-response,109,918553,0.0-46.0-3.0-0.0-3.0,,,,,,,,,,,,100.0,0.0,,55e876f25e4d360012cc283d,09:56:16,03/04/2024
,"<p style=""font-size:75px;"">...</p>",,ospan,iti,gTJC4qlLSZQJKi8PfflxDx6cFzt2,html-keyboard-response,110,919568,0.0-46.0-4.0-0.0-0.0,,,,,,,,,,,,,,,55e876f25e4d360012cc283d,09:56:16,03/04/2024
1621.0,,,ospan,symmetry,gTJC4qlLSZQJKi8PfflxDx6cFzt2,symmetry-judgement-task,111,922227,0.0-46.0-4.0-0.0-1.0-0.0,,,,,,,,,,1.0,1.0,,,,55e876f25e4d360012cc283d,09:56:16,03/04/2024
,"<div style=""font-size: 10rem; color: #0000FF"">Q</div>",,ospan,letter,gTJC4qlLSZQJKi8PfflxDx6cFzt2,html-keyboard-response,112,923235,0.0-46.0-4.0-0.0-1.0-1.0,,,,,,,,,,,,,,,55e876f25e4d360012cc283d,09:56:16,03/04/2024
1063.0,,,ospan,symmetry,gTJC4qlLSZQJKi8PfflxDx6cFzt2,symmetry-judgement-task,113,926159,0.0-46.0-4.0-0.0-1.0-2.0,,,,,,,,,,1.0,1.0,,,,55e876f25e4d360012cc283d,09:56:16,03/04/2024
,"<div style=""font-size: 10rem; color: #0000FF"">R</div>",,ospan,letter,gTJC4qlLSZQJKi8PfflxDx6cFzt2,html-keyboard-response,114,927174,0.0-46.0-4.0-0.0-1.0-3.0,,,,,,,,,,,,,,,55e876f25e4d360012cc283d,09:56:16,03/04/2024
1559.0,,,ospan,symmetry,gTJC4qlLSZQJKi8PfflxDx6cFzt2,symmetry-judgement-task,115,930585,0.0-46.0-4.0-0.0-1.0-4.0,,,,,,,,,,1.0,1.0,,,,55e876f25e4d360012cc283d,09:56:16,03/04/2024
,"<div style=""font-size: 10rem; color: #0000FF"">H</div>",,ospan,letter,gTJC4qlLSZQJKi8PfflxDx6cFzt2,html-keyboard-response,116,931596,0.0-46.0-4.0-0.0-1.0-5.0,,,,,,,,,,,,,,,55e876f25e4d360012cc283d,09:56:16,03/04/2024
1313.0,,,ospan,symmetry,gTJC4qlLSZQJKi8PfflxDx6cFzt2,symmetry-judgement-task,117,934778,0.0-46.0-4.0-0.0-1.0-6.0,,,,,,,,,,1.0,1.0,,,,55e876f25e4d360012cc283d,09:56:16,03/04/2024
,"<div style=""font-size: 10rem; color: #0000FF"">K</div>",,ospan,letter,gTJC4qlLSZQJKi8PfflxDx6cFzt2,html-keyboard-response,118,935786,0.0-46.0-4.0-0.0-1.0-7.0,,,,,,,,,,,,,,,55e876f25e4d360012cc283d,09:56:16,03/04/2024
4966.299999952316,"<div class = numbox><p style=""font-size: 2.4rem"">Please recall the letters you saw to the best of your ability. If you do not remember a particular letter, use the SKIP button.<br><b>(When you are ready to lock in your answer, press ENTER)</b></p><button id = button_1 class = ""square num-button"" onclick = ""recordClick(this)""><div class = content><div class = numbers>C</div></div></button><button id = button_2 class = ""square num-button"" onclick = ""recordClick(this)""><div class = content><div class = numbers>G</div></div></button><button id = button_3 class = ""square num-button"" onclick = ""recordClick(this)""><div class = content><div class = numbers>H</div></div></button><button id = button_4 class = ""square num-button"" onclick = ""recordClick(this)""><div class = content><div class = numbers>J</div></div></button><button id = button_5 class = ""square num-button"" onclick = ""recordClick(this)""><div class = content><div class = numbers>K</div></div></button><button id = button_6 class = ""square num-button"" onclick = ""recordClick(this)""><div class = content><div class = numbers>L</div></div></button><button id = button_7 class = ""square num-button"" onclick = ""recordClick(this)""><div class = content><div class = numbers>N</div></div></button><button id = button_8 class = ""square num-button"" onclick = ""recordClick(this)""><div class = content><div class = numbers>P</div></div></button><button id = button_9 class = ""square num-button"" onclick = ""recordClick(this)""><div class = content><div class = numbers>Q</div></div></button><button id = button_10 class = ""square num-button"" onclick = ""recordClick(this)""><div class = content><div class = numbers>R</div></div></button><button id = button_11 class = ""square num-button"" onclick = ""recordClick(this)""><div class = content><div class = numbers>S</div></div></button><button id = button_12 class = ""square num-button"" onclick = ""recordClick(this)""><div class = content><div class = numbers>Y</div></div></button><button class = clear_button id = ""ClearButton"" onclick = ""clearResponse()"">BACKSPACE</button><button class = blank_button id = ""BlankButton"" onclick = ""blankResponse()"">SKIP</button><p style=""font-size: 2.4rem""><u><b>Current Answer:</b></u></p><br><br><div id=echoed_txt style=""font-size: 5rem; color:blue;""><b></b></div></div>",enter,ospan,retrieval,gTJC4qlLSZQJKi8PfflxDx6cFzt2,html-keyboard-response,119,941509,0.0-46.0-4.0-0.0-2.0,7,7,7,4.0,"[""Q"",""R"",""H"",""K""]","[""Q"",""R"",""H"",""K""]",1.0,4.0,,,,,,,55e876f25e4d360012cc283d,09:56:16,03/04/2024
676.5999999642372,[''],0,ospan,feedback,gTJC4qlLSZQJKi8PfflxDx6cFzt2,html-button-response,120,942693,0.0-46.0-4.0-0.0-3.0,,,,,,,,,,,,100.0,0.0,,55e876f25e4d360012cc283d,09:56:16,03/04/2024
,"<p style=""font-size:75px;"">...</p>",,ospan,iti,gTJC4qlLSZQJKi8PfflxDx6cFzt2,html-keyboard-response,121,943711,0.0-46.0-4.0-1.0-0.0,,,,,,,,,,,,,,,55e876f25e4d360012cc283d,09:56:16,03/04/2024
947.0,,,ospan,symmetry,gTJC4qlLSZQJKi8PfflxDx6cFzt2,symmetry-judgement-task,122,945773,0.0-46.0-4.0-1.0-1.0-0.0,,,,,,,,,,1.0,1.0,,,,55e876f25e4d360012cc283d,09:56:16,03/04/2024
,"<div style=""font-size: 10rem; color: #0000FF"">J</div>",,ospan,letter,gTJC4qlLSZQJKi8PfflxDx6cFzt2,html-keyboard-response,123,946782,0.0-46.0-4.0-1.0-1.0-1.0,,,,,,,,,,,,,,,55e876f25e4d360012cc283d,09:56:16,03/04/2024
926.0,,,ospan,symmetry,gTJC4qlLSZQJKi8PfflxDx6cFzt2,symmetry-judgement-task,124,949574,0.0-46.0-4.0-1.0-1.0-2.0,,,,,,,,,,1.0,1.0,,,,55e876f25e4d360012cc283d,09:56:16,03/04/2024
,"<div style=""font-size: 10rem; color: #0000FF"">P</div>",,ospan,letter,gTJC4qlLSZQJKi8PfflxDx6cFzt2,html-keyboard-response,125,950584,0.0-46.0-4.0-1.0-1.0-3.0,,,,,,,,,,,,,,,55e876f25e4d360012cc283d,09:56:16,03/04/2024
1420.0,,,ospan,symmetry,gTJC4qlLSZQJKi8PfflxDx6cFzt2,symmetry-judgement-task,126,953865,0.0-46.0-4.0-1.0-1.0-4.0,,,,,,,,,,1.0,1.0,,,,55e876f25e4d360012cc283d,09:56:16,03/04/2024
,"<div style=""font-size: 10rem; color: #0000FF"">H</div>",,ospan,letter,gTJC4qlLSZQJKi8PfflxDx6cFzt2,html-keyboard-response,127,954875,0.0-46.0-4.0-1.0-1.0-5.0,,,,,,,,,,,,,,,55e876f25e4d360012cc283d,09:56:16,03/04/2024
1562.0,,,ospan,symmetry,gTJC4qlLSZQJKi8PfflxDx6cFzt2,symmetry-judgement-task,128,958308,0.0-46.0-4.0-1.0-1.0-6.0,,,,,,,,,,1.0,1.0,,,,55e876f25e4d360012cc283d,09:56:16,03/04/2024
,"<div style=""font-size: 10rem; color: #0000FF"">Y</div>",,ospan,letter,gTJC4qlLSZQJKi8PfflxDx6cFzt2,html-keyboard-response,129,959315,0.0-46.0-4.0-1.0-1.0-7.0,,,,,,,,,,,,,,,55e876f25e4d360012cc283d,09:56:16,03/04/2024
974.0,,,ospan,symmetry,gTJC4qlLSZQJKi8PfflxDx6cFzt2,symmetry-judgement-task,130,962161,0.0-46.0-4.0-1.0-1.0-8.0,,,,,,,,,,1.0,1.0,,,,55e876f25e4d360012cc283d,09:56:16,03/04/2024
,"<div style=""font-size: 10rem; color: #0000FF"">L</div>",,ospan,letter,gTJC4qlLSZQJKi8PfflxDx6cFzt2,html-keyboard-response,131,963169,0.0-46.0-4.0-1.0-1.0-9.0,,,,,,,,,,,,,,,55e876f25e4d360012cc283d,09:56:16,03/04/2024
8511.200000047684,"<div class = numbox><p style=""font-size: 2.4rem"">Please recall the letters you saw to the best of your ability. If you do not remember a particular letter, use the SKIP button.<br><b>(When you are ready to lock in your answer, press ENTER)</b></p><button id = button_1 class = ""square num-button"" onclick = ""recordClick(this)""><div class = content><div class = numbers>C</div></div></button><button id = button_2 class = ""square num-button"" onclick = ""recordClick(this)""><div class = content><div class = numbers>G</div></div></button><button id = button_3 class = ""square num-button"" onclick = ""recordClick(this)""><div class = content><div class = numbers>H</div></div></button><button id = button_4 class = ""square num-button"" onclick = ""recordClick(this)""><div class = content><div class = numbers>J</div></div></button><button id = button_5 class = ""square num-button"" onclick = ""recordClick(this)""><div class = content><div class = numbers>K</div></div></button><button id = button_6 class = ""square num-button"" onclick = ""recordClick(this)""><div class = content><div class = numbers>L</div></div></button><button id = button_7 class = ""square num-button"" onclick = ""recordClick(this)""><div class = content><div class = numbers>N</div></div></button><button id = button_8 class = ""square num-button"" onclick = ""recordClick(this)""><div class = content><div class = numbers>P</div></div></button><button id = button_9 class = ""square num-button"" onclick = ""recordClick(this)""><div class = content><div class = numbers>Q</div></div></button><button id = button_10 class = ""square num-button"" onclick = ""recordClick(this)""><div class = content><div class = numbers>R</div></div></button><button id = button_11 class = ""square num-button"" onclick = ""recordClick(this)""><div class = content><div class = numbers>S</div></div></button><button id = button_12 class = ""square num-button"" onclick = ""recordClick(this)""><div class = content><div class = numbers>Y</div></div></button><button class = clear_button id = ""ClearButton"" onclick = ""clearResponse()"">BACKSPACE</button><button class = blank_button id = ""BlankButton"" onclick = ""blankResponse()"">SKIP</button><p style=""font-size: 2.4rem""><u><b>Current Answer:</b></u></p><br><br><div id=echoed_txt style=""font-size: 5rem; color:blue;""><b></b></div></div>",enter,ospan,retrieval,gTJC4qlLSZQJKi8PfflxDx6cFzt2,html-keyboard-response,132,972435,0.0-46.0-4.0-1.0-2.0,12,12,12,5.0,"[""J"",""P"",""H"",""Y"",""L""]","[""J"",""P"",""H"",""Y"",""L""]",1.0,5.0,,,,,,,55e876f25e4d360012cc283d,09:56:16,03/04/2024
3945.399999976158,[''],0,ospan,feedback,gTJC4qlLSZQJKi8PfflxDx6cFzt2,html-button-response,133,976885,0.0-46.0-4.0-1.0-3.0,,,,,,,,,,,,100.0,0.0,,55e876f25e4d360012cc283d,09:56:16,03/04/2024
,"<p style=""font-size:75px;"">...</p>",,ospan,iti,gTJC4qlLSZQJKi8PfflxDx6cFzt2,html-keyboard-response,134,977891,0.0-46.0-4.0-2.0-0.0,,,,,,,,,,,,,,,55e876f25e4d360012cc283d,09:56:16,03/04/2024
1257.0,,,ospan,symmetry,gTJC4qlLSZQJKi8PfflxDx6cFzt2,symmetry-judgement-task,135,980247,0.0-46.0-4.0-2.0-1.0-0.0,,,,,,,,,,1.0,1.0,,,,55e876f25e4d360012cc283d,09:56:16,03/04/2024
,"<div style=""font-size: 10rem; color: #0000FF"">G</div>",,ospan,letter,gTJC4qlLSZQJKi8PfflxDx6cFzt2,html-keyboard-response,136,981256,0.0-46.0-4.0-2.0-1.0-1.0,,,,,,,,,,,,,,,55e876f25e4d360012cc283d,09:56:16,03/04/2024
1064.0,,,ospan,symmetry,gTJC4qlLSZQJKi8PfflxDx6cFzt2,symmetry-judgement-task,137,984182,0.0-46.0-4.0-2.0-1.0-2.0,,,,,,,,,,1.0,1.0,,,,55e876f25e4d360012cc283d,09:56:16,03/04/2024
,"<div style=""font-size: 10rem; color: #0000FF"">S</div>",,ospan,letter,gTJC4qlLSZQJKi8PfflxDx6cFzt2,html-keyboard-response,138,985194,0.0-46.0-4.0-2.0-1.0-3.0,,,,,,,,,,,,,,,55e876f25e4d360012cc283d,09:56:16,03/04/2024
831.0,,,ospan,symmetry,gTJC4qlLSZQJKi8PfflxDx6cFzt2,symmetry-judgement-task,139,987882,0.0-46.0-4.0-2.0-1.0-4.0,,,,,,,,,,1.0,1.0,,,,55e876f25e4d360012cc283d,09:56:16,03/04/2024
,"<div style=""font-size: 10rem; color: #0000FF"">H</div>",,ospan,letter,gTJC4qlLSZQJKi8PfflxDx6cFzt2,html-keyboard-response,140,988891,0.0-46.0-4.0-2.0-1.0-5.0,,,,,,,,,,,,,,,55e876f25e4d360012cc283d,09:56:16,03/04/2024
4153.199999988079,"<div class = numbox><p style=""font-size: 2.4rem"">Please recall the letters you saw to the best of your ability. If you do not remember a particular letter, use the SKIP button.<br><b>(When you are ready to lock in your answer, press ENTER)</b></p><button id = button_1 class = ""square num-button"" onclick = ""recordClick(this)""><div class = content><div class = numbers>C</div></div></button><button id = button_2 class = ""square num-button"" onclick = ""recordClick(this)""><div class = content><div class = numbers>G</div></div></button><button id = button_3 class = ""square num-button"" onclick = ""recordClick(this)""><div class = content><div class = numbers>H</div></div></button><button id = button_4 class = ""square num-button"" onclick = ""recordClick(this)""><div class = content><div class = numbers>J</div></div></button><button id = button_5 class = ""square num-button"" onclick = ""recordClick(this)""><div class = content><div class = numbers>K</div></div></button><button id = button_6 class = ""square num-button"" onclick = ""recordClick(this)""><div class = content><div class = numbers>L</div></div></button><button id = button_7 class = ""square num-button"" onclick = ""recordClick(this)""><div class = content><div class = numbers>N</div></div></button><button id = button_8 class = ""square num-button"" onclick = ""recordClick(this)""><div class = content><div class = numbers>P</div></div></button><button id = button_9 class = ""square num-button"" onclick = ""recordClick(this)""><div class = content><div class = numbers>Q</div></div></button><button id = button_10 class = ""square num-button"" onclick = ""recordClick(this)""><div class = content><div class = numbers>R</div></div></button><button id = button_11 class = ""square num-button"" onclick = ""recordClick(this)""><div class = content><div class = numbers>S</div></div></button><button id = button_12 class = ""square num-button"" onclick = ""recordClick(this)""><div class = content><div class = numbers>Y</div></div></button><button class = clear_button id = ""ClearButton"" onclick = ""clearResponse()"">BACKSPACE</button><button class = blank_button id = ""BlankButton"" onclick = ""blankResponse()"">SKIP</button><p style=""font-size: 2.4rem""><u><b>Current Answer:</b></u></p><br><br><div id=echoed_txt style=""font-size: 5rem; color:blue;""><b></b></div></div>",enter,ospan,retrieval,gTJC4qlLSZQJKi8PfflxDx6cFzt2,html-keyboard-response,141,993806,0.0-46.0-4.0-2.0-2.0,15,15,15,3.0,"[""G"",""S"",""H""]","[""G"",""S"",""H""]",1.0,3.0,,,,,,,55e876f25e4d360012cc283d,09:56:16,03/04/2024
689.3000000119209,[''],0,ospan,feedback,gTJC4qlLSZQJKi8PfflxDx6cFzt2,html-button-response,142,995002,0.0-46.0-4.0-2.0-3.0,,,,,,,,,,,,100.0,0.0,,55e876f25e4d360012cc283d,09:56:16,03/04/2024
,"<p style=""font-size:75px;"">...</p>",,ospan,iti,gTJC4qlLSZQJKi8PfflxDx6cFzt2,html-keyboard-response,143,996005,0.0-46.0-5.0-0.0-0.0,,,,,,,,,,,,,,,55e876f25e4d360012cc283d,09:56:16,03/04/2024
1408.0,,,ospan,symmetry,gTJC4qlLSZQJKi8PfflxDx6cFzt2,symmetry-judgement-task,144,998449,0.0-46.0-5.0-0.0-1.0-0.0,,,,,,,,,,1.0,1.0,,,,55e876f25e4d360012cc283d,09:56:16,03/04/2024
,"<div style=""font-size: 10rem; color: #0000FF"">L</div>",,ospan,letter,gTJC4qlLSZQJKi8PfflxDx6cFzt2,html-keyboard-response,145,999458,0.0-46.0-5.0-0.0-1.0-1.0,,,,,,,,,,,,,,,55e876f25e4d360012cc283d,09:56:16,03/04/2024
1461.0,,,ospan,symmetry,gTJC4qlLSZQJKi8PfflxDx6cFzt2,symmetry-judgement-task,146,1002787,0.0-46.0-5.0-0.0-1.0-2.0,,,,,,,,,,1.0,1.0,,,,55e876f25e4d360012cc283d,09:56:16,03/04/2024
,"<div style=""font-size: 10rem; color: #0000FF"">Y</div>",,ospan,letter,gTJC4qlLSZQJKi8PfflxDx6cFzt2,html-keyboard-response,147,1003794,0.0-46.0-5.0-0.0-1.0-3.0,,,,,,,,,,,,,,,55e876f25e4d360012cc283d,09:56:16,03/04/2024
1174.0,,,ospan,symmetry,gTJC4qlLSZQJKi8PfflxDx6cFzt2,symmetry-judgement-task,148,1006828,0.0-46.0-5.0-0.0-1.0-4.0,,,,,,,,,,1.0,1.0,,,,55e876f25e4d360012cc283d,09:56:16,03/04/2024
,"<div style=""font-size: 10rem; color: #0000FF"">C</div>",,ospan,letter,gTJC4qlLSZQJKi8PfflxDx6cFzt2,html-keyboard-response,149,1007838,0.0-46.0-5.0-0.0-1.0-5.0,,,,,,,,,,,,,,,55e876f25e4d360012cc283d,09:56:16,03/04/2024
959.0,,,ospan,symmetry,gTJC4qlLSZQJKi8PfflxDx6cFzt2,symmetry-judgement-task,150,1010665,0.0-46.0-5.0-0.0-1.0-6.0,,,,,,,,,,1.0,1.0,,,,55e876f25e4d360012cc283d,09:56:16,03/04/2024
,"<div style=""font-size: 10rem; color: #0000FF"">R</div>",,ospan,letter,gTJC4qlLSZQJKi8PfflxDx6cFzt2,html-keyboard-response,151,1011679,0.0-46.0-5.0-0.0-1.0-7.0,,,,,,,,,,,,,,,55e876f25e4d360012cc283d,09:56:16,03/04/2024
1147.0,,,ospan,symmetry,gTJC4qlLSZQJKi8PfflxDx6cFzt2,symmetry-judgement-task,152,1014678,0.0-46.0-5.0-0.0-1.0-8.0,,,,,,,,,,1.0,1.0,,,,55e876f25e4d360012cc283d,09:56:16,03/04/2024
,"<div style=""font-size: 10rem; color: #0000FF"">N</div>",,ospan,letter,gTJC4qlLSZQJKi8PfflxDx6cFzt2,html-keyboard-response,153,1015691,0.0-46.0-5.0-0.0-1.0-9.0,,,,,,,,,,,,,,,55e876f25e4d360012cc283d,09:56:16,03/04/2024
1440.0,,,ospan,symmetry,gTJC4qlLSZQJKi8PfflxDx6cFzt2,symmetry-judgement-task,154,1018996,0.0-46.0-5.0-0.0-1.0-10.0,,,,,,,,,,1.0,1.0,,,,55e876f25e4d360012cc283d,09:56:16,03/04/2024
,"<div style=""font-size: 10rem; color: #0000FF"">K</div>",,ospan,letter,gTJC4qlLSZQJKi8PfflxDx6cFzt2,html-keyboard-response,155,1020006,0.0-46.0-5.0-0.0-1.0-11.0,,,,,,,,,,,,,,,55e876f25e4d360012cc283d,09:56:16,03/04/2024
10225.800000011921,"<div class = numbox><p style=""font-size: 2.4rem"">Please recall the letters you saw to the best of your ability. If you do not remember a particular letter, use the SKIP button.<br><b>(When you are ready to lock in your answer, press ENTER)</b></p><button id = button_1 class = ""square num-button"" onclick = ""recordClick(this)""><div class = content><div class = numbers>C</div></div></button><button id = button_2 class = ""square num-button"" onclick = ""recordClick(this)""><div class = content><div class = numbers>G</div></div></button><button id = button_3 class = ""square num-button"" onclick = ""recordClick(this)""><div class = content><div class = numbers>H</div></div></button><button id = button_4 class = ""square num-button"" onclick = ""recordClick(this)""><div class = content><div class = numbers>J</div></div></button><button id = button_5 class = ""square num-button"" onclick = ""recordClick(this)""><div class = content><div class = numbers>K</div></div></button><button id = button_6 class = ""square num-button"" onclick = ""recordClick(this)""><div class = content><div class = numbers>L</div></div></button><button id = button_7 class = ""square num-button"" onclick = ""recordClick(this)""><div class = content><div class = numbers>N</div></div></button><button id = button_8 class = ""square num-button"" onclick = ""recordClick(this)""><div class = content><div class = numbers>P</div></div></button><button id = button_9 class = ""square num-button"" onclick = ""recordClick(this)""><div class = content><div class = numbers>Q</div></div></button><button id = button_10 class = ""square num-button"" onclick = ""recordClick(this)""><div class = content><div class = numbers>R</div></div></button><button id = button_11 class = ""square num-button"" onclick = ""recordClick(this)""><div class = content><div class = numbers>S</div></div></button><button id = button_12 class = ""square num-button"" onclick = ""recordClick(this)""><div class = content><div class = numbers>Y</div></div></button><button class = clear_button id = ""ClearButton"" onclick = ""clearResponse()"">BACKSPACE</button><button class = blank_button id = ""BlankButton"" onclick = ""blankResponse()"">SKIP</button><p style=""font-size: 2.4rem""><u><b>Current Answer:</b></u></p><br><br><div id=echoed_txt style=""font-size: 5rem; color:blue;""><b></b></div></div>",enter,ospan,retrieval,gTJC4qlLSZQJKi8PfflxDx6cFzt2,html-keyboard-response,156,1030992,0.0-46.0-5.0-0.0-2.0,21,19,15,6.0,"[""L"",""Y"",""C"",""R"",""L""]","[""L"",""Y"",""C"",""R"",""N"",""K""]",0.0,4.0,,,,,,,55e876f25e4d360012cc283d,09:56:16,03/04/2024
3104.099999964237,[''],0,ospan,feedback,gTJC4qlLSZQJKi8PfflxDx6cFzt2,html-button-response,157,1034602,0.0-46.0-5.0-0.0-3.0,,,,,,,,,,,,100.0,0.0,,55e876f25e4d360012cc283d,09:56:16,03/04/2024
,"<p style=""font-size:75px;"">...</p>",,ospan,iti,gTJC4qlLSZQJKi8PfflxDx6cFzt2,html-keyboard-response,158,1035616,0.0-46.0-5.0-1.0-0.0,,,,,,,,,,,,,,,55e876f25e4d360012cc283d,09:56:16,03/04/2024
1304.0,,,ospan,symmetry,gTJC4qlLSZQJKi8PfflxDx6cFzt2,symmetry-judgement-task,159,1038034,0.0-46.0-5.0-1.0-1.0-0.0,,,,,,,,,,1.0,1.0,,,,55e876f25e4d360012cc283d,09:56:16,03/04/2024
,"<div style=""font-size: 10rem; color: #0000FF"">K</div>",,ospan,letter,gTJC4qlLSZQJKi8PfflxDx6cFzt2,html-keyboard-response,160,1039040,0.0-46.0-5.0-1.0-1.0-1.0,,,,,,,,,,,,,,,55e876f25e4d360012cc283d,09:56:16,03/04/2024
1161.0,,,ospan,symmetry,gTJC4qlLSZQJKi8PfflxDx6cFzt2,symmetry-judgement-task,161,1042059,0.0-46.0-5.0-1.0-1.0-2.0,,,,,,,,,,1.0,1.0,,,,55e876f25e4d360012cc283d,09:56:16,03/04/2024
,"<div style=""font-size: 10rem; color: #0000FF"">R</div>",,ospan,letter,gTJC4qlLSZQJKi8PfflxDx6cFzt2,html-keyboard-response,162,1043063,0.0-46.0-5.0-1.0-1.0-3.0,,,,,,,,,,,,,,,55e876f25e4d360012cc283d,09:56:16,03/04/2024
1146.0,,,ospan,symmetry,gTJC4qlLSZQJKi8PfflxDx6cFzt2,symmetry-judgement-task,163,1046067,0.0-46.0-5.0-1.0-1.0-4.0,,,,,,,,,,1.0,1.0,,,,55e876f25e4d360012cc283d,09:56:16,03/04/2024
,"<div style=""font-size: 10rem; color: #0000FF"">P</div>",,ospan,letter,gTJC4qlLSZQJKi8PfflxDx6cFzt2,html-keyboard-response,164,1047072,0.0-46.0-5.0-1.0-1.0-5.0,,,,,,,,,,,,,,,55e876f25e4d360012cc283d,09:56:16,03/04/2024
1744.0,,,ospan,symmetry,gTJC4qlLSZQJKi8PfflxDx6cFzt2,symmetry-judgement-task,165,1050676,0.0-46.0-5.0-1.0-1.0-6.0,,,,,,,,,,1.0,1.0,,,,55e876f25e4d360012cc283d,09:56:16,03/04/2024
,"<div style=""font-size: 10rem; color: #0000FF"">G</div>",,ospan,letter,gTJC4qlLSZQJKi8PfflxDx6cFzt2,html-keyboard-response,166,1051680,0.0-46.0-5.0-1.0-1.0-7.0,,,,,,,,,,,,,,,55e876f25e4d360012cc283d,09:56:16,03/04/2024
1272.0,,,ospan,symmetry,gTJC4qlLSZQJKi8PfflxDx6cFzt2,symmetry-judgement-task,167,1054811,0.0-46.0-5.0-1.0-1.0-8.0,,,,,,,,,,1.0,1.0,,,,55e876f25e4d360012cc283d,09:56:16,03/04/2024
,"<div style=""font-size: 10rem; color: #0000FF"">C</div>",,ospan,letter,gTJC4qlLSZQJKi8PfflxDx6cFzt2,html-keyboard-response,168,1055820,0.0-46.0-5.0-1.0-1.0-9.0,,,,,,,,,,,,,,,55e876f25e4d360012cc283d,09:56:16,03/04/2024
1778.0,,,ospan,symmetry,gTJC4qlLSZQJKi8PfflxDx6cFzt2,symmetry-judgement-task,169,1059460,0.0-46.0-5.0-1.0-1.0-10.0,,,,,,,,,,1.0,1.0,,,,55e876f25e4d360012cc283d,09:56:16,03/04/2024
,"<div style=""font-size: 10rem; color: #0000FF"">S</div>",,ospan,letter,gTJC4qlLSZQJKi8PfflxDx6cFzt2,html-keyboard-response,170,1060466,0.0-46.0-5.0-1.0-1.0-11.0,,,,,,,,,,,,,,,55e876f25e4d360012cc283d,09:56:16,03/04/2024
1147.0,,,ospan,symmetry,gTJC4qlLSZQJKi8PfflxDx6cFzt2,symmetry-judgement-task,171,1063482,0.0-46.0-5.0-1.0-1.0-12.0,,,,,,,,,,1.0,1.0,,,,55e876f25e4d360012cc283d,09:56:16,03/04/2024
,"<div style=""font-size: 10rem; color: #0000FF"">N</div>",,ospan,letter,gTJC4qlLSZQJKi8PfflxDx6cFzt2,html-keyboard-response,172,1064489,0.0-46.0-5.0-1.0-1.0-13.0,,,,,,,,,,,,,,,55e876f25e4d360012cc283d,09:56:16,03/04/2024
13430.600000023842,"<div class = numbox><p style=""font-size: 2.4rem"">Please recall the letters you saw to the best of your ability. If you do not remember a particular letter, use the SKIP button.<br><b>(When you are ready to lock in your answer, press ENTER)</b></p><button id = button_1 class = ""square num-button"" onclick = ""recordClick(this)""><div class = content><div class = numbers>C</div></div></button><button id = button_2 class = ""square num-button"" onclick = ""recordClick(this)""><div class = content><div class = numbers>G</div></div></button><button id = button_3 class = ""square num-button"" onclick = ""recordClick(this)""><div class = content><div class = numbers>H</div></div></button><button id = button_4 class = ""square num-button"" onclick = ""recordClick(this)""><div class = content><div class = numbers>J</div></div></button><button id = button_5 class = ""square num-button"" onclick = ""recordClick(this)""><div class = content><div class = numbers>K</div></div></button><button id = button_6 class = ""square num-button"" onclick = ""recordClick(this)""><div class = content><div class = numbers>L</div></div></button><button id = button_7 class = ""square num-button"" onclick = ""recordClick(this)""><div class = content><div class = numbers>N</div></div></button><button id = button_8 class = ""square num-button"" onclick = ""recordClick(this)""><div class = content><div class = numbers>P</div></div></button><button id = button_9 class = ""square num-button"" onclick = ""recordClick(this)""><div class = content><div class = numbers>Q</div></div></button><button id = button_10 class = ""square num-button"" onclick = ""recordClick(this)""><div class = content><div class = numbers>R</div></div></button><button id = button_11 class = ""square num-button"" onclick = ""recordClick(this)""><div class = content><div class = numbers>S</div></div></button><button id = button_12 class = ""square num-button"" onclick = ""recordClick(this)""><div class = content><div class = numbers>Y</div></div></button><button class = clear_button id = ""ClearButton"" onclick = ""clearResponse()"">BACKSPACE</button><button class = blank_button id = ""BlankButton"" onclick = ""blankResponse()"">SKIP</button><p style=""font-size: 2.4rem""><u><b>Current Answer:</b></u></p><br><br><div id=echoed_txt style=""font-size: 5rem; color:blue;""><b></b></div></div>",enter,ospan,retrieval,gTJC4qlLSZQJKi8PfflxDx6cFzt2,html-keyboard-response,173,1078679,0.0-46.0-5.0-1.0-2.0,28,24,15,7.0,"[""K"",""R"",""P"",""G"",""C"",""L""]","[""K"",""R"",""P"",""G"",""C"",""S"",""N""]",0.0,5.0,,,,,,,55e876f25e4d360012cc283d,09:56:16,03/04/2024
2015.6000000238419,[''],0,ospan,feedback,gTJC4qlLSZQJKi8PfflxDx6cFzt2,html-button-response,174,1081201,0.0-46.0-5.0-1.0-3.0,,,,,,,,,,,,100.0,0.0,,55e876f25e4d360012cc283d,09:56:16,03/04/2024
,"<p style=""font-size:75px;"">...</p>",,ospan,iti,gTJC4qlLSZQJKi8PfflxDx6cFzt2,html-keyboard-response,175,1082215,0.0-46.0-6.0-0.0-0.0,,,,,,,,,,,,,,,55e876f25e4d360012cc283d,09:56:16,03/04/2024
1175.0,,,ospan,symmetry,gTJC4qlLSZQJKi8PfflxDx6cFzt2,symmetry-judgement-task,176,1084499,0.0-46.0-6.0-0.0-1.0-0.0,,,,,,,,,,1.0,1.0,,,,55e876f25e4d360012cc283d,09:56:16,03/04/2024
,"<div style=""font-size: 10rem; color: #0000FF"">K</div>",,ospan,letter,gTJC4qlLSZQJKi8PfflxDx6cFzt2,html-keyboard-response,177,1085513,0.0-46.0-6.0-0.0-1.0-1.0,,,,,,,,,,,,,,,55e876f25e4d360012cc283d,09:56:16,03/04/2024
1399.0,,,ospan,symmetry,gTJC4qlLSZQJKi8PfflxDx6cFzt2,symmetry-judgement-task,178,1088784,0.0-46.0-6.0-0.0-1.0-2.0,,,,,,,,,,1.0,1.0,,,,55e876f25e4d360012cc283d,09:56:16,03/04/2024
,"<div style=""font-size: 10rem; color: #0000FF"">P</div>",,ospan,letter,gTJC4qlLSZQJKi8PfflxDx6cFzt2,html-keyboard-response,179,1089791,0.0-46.0-6.0-0.0-1.0-3.0,,,,,,,,,,,,,,,55e876f25e4d360012cc283d,09:56:16,03/04/2024
903.0,,,ospan,symmetry,gTJC4qlLSZQJKi8PfflxDx6cFzt2,symmetry-judgement-task,180,1092548,0.0-46.0-6.0-0.0-1.0-4.0,,,,,,,,,,1.0,1.0,,,,55e876f25e4d360012cc283d,09:56:16,03/04/2024
,"<div style=""font-size: 10rem; color: #0000FF"">G</div>",,ospan,letter,gTJC4qlLSZQJKi8PfflxDx6cFzt2,html-keyboard-response,181,1093554,0.0-46.0-6.0-0.0-1.0-5.0,,,,,,,,,,,,,,,55e876f25e4d360012cc283d,09:56:16,03/04/2024
1708.0,,,ospan,symmetry,gTJC4qlLSZQJKi8PfflxDx6cFzt2,symmetry-judgement-task,182,1097061,0.0-46.0-6.0-0.0-1.0-6.0,,,,,,,,,,1.0,1.0,,,,55e876f25e4d360012cc283d,09:56:16,03/04/2024
,"<div style=""font-size: 10rem; color: #0000FF"">C</div>",,ospan,letter,gTJC4qlLSZQJKi8PfflxDx6cFzt2,html-keyboard-response,183,1098068,0.0-46.0-6.0-0.0-1.0-7.0,,,,,,,,,,,,,,,55e876f25e4d360012cc283d,09:56:16,03/04/2024
1082.0,,,ospan,symmetry,gTJC4qlLSZQJKi8PfflxDx6cFzt2,symmetry-judgement-task,184,1101024,0.0-46.0-6.0-0.0-1.0-8.0,,,,,,,,,,1.0,1.0,,,,55e876f25e4d360012cc283d,09:56:16,03/04/2024
,"<div style=""font-size: 10rem; color: #0000FF"">Q</div>",,ospan,letter,gTJC4qlLSZQJKi8PfflxDx6cFzt2,html-keyboard-response,185,1102028,0.0-46.0-6.0-0.0-1.0-9.0,,,,,,,,,,,,,,,55e876f25e4d360012cc283d,09:56:16,03/04/2024
14238.899999976158,"<div class = numbox><p style=""font-size: 2.4rem"">Please recall the letters you saw to the best of your ability. If you do not remember a particular letter, use the SKIP button.<br><b>(When you are ready to lock in your answer, press ENTER)</b></p><button id = button_1 class = ""square num-button"" onclick = ""recordClick(this)""><div class = content><div class = numbers>C</div></div></button><button id = button_2 class = ""square num-button"" onclick = ""recordClick(this)""><div class = content><div class = numbers>G</div></div></button><button id = button_3 class = ""square num-button"" onclick = ""recordClick(this)""><div class = content><div class = numbers>H</div></div></button><button id = button_4 class = ""square num-button"" onclick = ""recordClick(this)""><div class = content><div class = numbers>J</div></div></button><button id = button_5 class = ""square num-button"" onclick = ""recordClick(this)""><div class = content><div class = numbers>K</div></div></button><button id = button_6 class = ""square num-button"" onclick = ""recordClick(this)""><div class = content><div class = numbers>L</div></div></button><button id = button_7 class = ""square num-button"" onclick = ""recordClick(this)""><div class = content><div class = numbers>N</div></div></button><button id = button_8 class = ""square num-button"" onclick = ""recordClick(this)""><div class = content><div class = numbers>P</div></div></button><button id = button_9 class = ""square num-button"" onclick = ""recordClick(this)""><div class = content><div class = numbers>Q</div></div></button><button id = button_10 class = ""square num-button"" onclick = ""recordClick(this)""><div class = content><div class = numbers>R</div></div></button><button id = button_11 class = ""square num-button"" onclick = ""recordClick(this)""><div class = content><div class = numbers>S</div></div></button><button id = button_12 class = ""square num-button"" onclick = ""recordClick(this)""><div class = content><div class = numbers>Y</div></div></button><button class = clear_button id = ""ClearButton"" onclick = ""clearResponse()"">BACKSPACE</button><button class = blank_button id = ""BlankButton"" onclick = ""blankResponse()"">SKIP</button><p style=""font-size: 2.4rem""><u><b>Current Answer:</b></u></p><br><br><div id=echoed_txt style=""font-size: 5rem; color:blue;""><b></b></div></div>",enter,ospan,retrieval,gTJC4qlLSZQJKi8PfflxDx6cFzt2,html-keyboard-response,186,1117023,0.0-46.0-6.0-0.0-2.0,33,29,20,5.0,"[""K"",""P"",""G"",""C"",""Q""]","[""K"",""P"",""G"",""C"",""Q""]",1.0,5.0,,,,,,,55e876f25e4d360012cc283d,09:56:16,03/04/2024
735.1999999880791,[''],0,ospan,feedback,gTJC4qlLSZQJKi8PfflxDx6cFzt2,html-button-response,187,1118263,0.0-46.0-6.0-0.0-3.0,,,,,,,,,,,,100.0,0.0,,55e876f25e4d360012cc283d,09:56:16,03/04/2024
,"<p style=""font-size:75px;"">...</p>",,ospan,iti,gTJC4qlLSZQJKi8PfflxDx6cFzt2,html-keyboard-response,188,1119266,0.0-46.0-6.0-1.0-0.0,,,,,,,,,,,,,,,55e876f25e4d360012cc283d,09:56:16,03/04/2024
1051.0,,,ospan,symmetry,gTJC4qlLSZQJKi8PfflxDx6cFzt2,symmetry-judgement-task,189,1121433,0.0-46.0-6.0-1.0-1.0-0.0,,,,,,,,,,1.0,1.0,,,,55e876f25e4d360012cc283d,09:56:16,03/04/2024
,"<div style=""font-size: 10rem; color: #0000FF"">Q</div>",,ospan,letter,gTJC4qlLSZQJKi8PfflxDx6cFzt2,html-keyboard-response,190,1122441,0.0-46.0-6.0-1.0-1.0-1.0,,,,,,,,,,,,,,,55e876f25e4d360012cc283d,09:56:16,03/04/2024
897.0,,,ospan,symmetry,gTJC4qlLSZQJKi8PfflxDx6cFzt2,symmetry-judgement-task,191,1125204,0.0-46.0-6.0-1.0-1.0-2.0,,,,,,,,,,1.0,1.0,,,,55e876f25e4d360012cc283d,09:56:16,03/04/2024
,"<div style=""font-size: 10rem; color: #0000FF"">S</div>",,ospan,letter,gTJC4qlLSZQJKi8PfflxDx6cFzt2,html-keyboard-response,192,1126212,0.0-46.0-6.0-1.0-1.0-3.0,,,,,,,,,,,,,,,55e876f25e4d360012cc283d,09:56:16,03/04/2024
1254.0,,,ospan,symmetry,gTJC4qlLSZQJKi8PfflxDx6cFzt2,symmetry-judgement-task,193,1129325,0.0-46.0-6.0-1.0-1.0-4.0,,,,,,,,,,1.0,1.0,,,,55e876f25e4d360012cc283d,09:56:16,03/04/2024
,"<div style=""font-size: 10rem; color: #0000FF"">Y</div>",,ospan,letter,gTJC4qlLSZQJKi8PfflxDx6cFzt2,html-keyboard-response,194,1130333,0.0-46.0-6.0-1.0-1.0-5.0,,,,,,,,,,,,,,,55e876f25e4d360012cc283d,09:56:16,03/04/2024
930.0,,,ospan,symmetry,gTJC4qlLSZQJKi8PfflxDx6cFzt2,symmetry-judgement-task,195,1133129,0.0-46.0-6.0-1.0-1.0-6.0,,,,,,,,,,1.0,1.0,,,,55e876f25e4d360012cc283d,09:56:16,03/04/2024
,"<div style=""font-size: 10rem; color: #0000FF"">H</div>",,ospan,letter,gTJC4qlLSZQJKi8PfflxDx6cFzt2,html-keyboard-response,196,1134139,0.0-46.0-6.0-1.0-1.0-7.0,,,,,,,,,,,,,,,55e876f25e4d360012cc283d,09:56:16,03/04/2024
1501.0,,,ospan,symmetry,gTJC4qlLSZQJKi8PfflxDx6cFzt2,symmetry-judgement-task,197,1137510,0.0-46.0-6.0-1.0-1.0-8.0,,,,,,,,,,1.0,1.0,,,,55e876f25e4d360012cc283d,09:56:16,03/04/2024
,"<div style=""font-size: 10rem; color: #0000FF"">P</div>",,ospan,letter,gTJC4qlLSZQJKi8PfflxDx6cFzt2,html-keyboard-response,198,1138522,0.0-46.0-6.0-1.0-1.0-9.0,,,,,,,,,,,,,,,55e876f25e4d360012cc283d,09:56:16,03/04/2024
995.0,,,ospan,symmetry,gTJC4qlLSZQJKi8PfflxDx6cFzt2,symmetry-judgement-task,199,1141379,0.0-46.0-6.0-1.0-1.0-10.0,,,,,,,,,,1.0,1.0,,,,55e876f25e4d360012cc283d,09:56:16,03/04/2024
,"<div style=""font-size: 10rem; color: #0000FF"">C</div>",,ospan,letter,gTJC4qlLSZQJKi8PfflxDx6cFzt2,html-keyboard-response,200,1142384,0.0-46.0-6.0-1.0-1.0-11.0,,,,,,,,,,,,,,,55e876f25e4d360012cc283d,09:56:16,03/04/2024
2078.0,,,ospan,symmetry,gTJC4qlLSZQJKi8PfflxDx6cFzt2,symmetry-judgement-task,201,1146333,0.0-46.0-6.0-1.0-1.0-12.0,,,,,,,,,,1.0,1.0,,,,55e876f25e4d360012cc283d,09:56:16,03/04/2024
,"<div style=""font-size: 10rem; color: #0000FF"">K</div>",,ospan,letter,gTJC4qlLSZQJKi8PfflxDx6cFzt2,html-keyboard-response,202,1147337,0.0-46.0-6.0-1.0-1.0-13.0,,,,,,,,,,,,,,,55e876f25e4d360012cc283d,09:56:16,03/04/2024
1497.0,,,ospan,symmetry,gTJC4qlLSZQJKi8PfflxDx6cFzt2,symmetry-judgement-task,203,1150713,0.0-46.0-6.0-1.0-1.0-14.0,,,,,,,,,,1.0,1.0,,,,55e876f25e4d360012cc283d,09:56:16,03/04/2024
,"<div style=""font-size: 10rem; color: #0000FF"">L</div>",,ospan,letter,gTJC4qlLSZQJKi8PfflxDx6cFzt2,html-keyboard-response,204,1151715,0.0-46.0-6.0-1.0-1.0-15.0,,,,,,,,,,,,,,,55e876f25e4d360012cc283d,09:56:16,03/04/2024
18924.5,"<div class = numbox><p style=""font-size: 2.4rem"">Please recall the letters you saw to the best of your ability. If you do not remember a particular letter, use the SKIP button.<br><b>(When you are ready to lock in your answer, press ENTER)</b></p><button id = button_1 class = ""square num-button"" onclick = ""recordClick(this)""><div class = content><div class = numbers>C</div></div></button><button id = button_2 class = ""square num-button"" onclick = ""recordClick(this)""><div class = content><div class = numbers>G</div></div></button><button id = button_3 class = ""square num-button"" onclick = ""recordClick(this)""><div class = content><div class = numbers>H</div></div></button><button id = button_4 class = ""square num-button"" onclick = ""recordClick(this)""><div class = content><div class = numbers>J</div></div></button><button id = button_5 class = ""square num-button"" onclick = ""recordClick(this)""><div class = content><div class = numbers>K</div></div></button><button id = button_6 class = ""square num-button"" onclick = ""recordClick(this)""><div class = content><div class = numbers>L</div></div></button><button id = button_7 class = ""square num-button"" onclick = ""recordClick(this)""><div class = content><div class = numbers>N</div></div></button><button id = button_8 class = ""square num-button"" onclick = ""recordClick(this)""><div class = content><div class = numbers>P</div></div></button><button id = button_9 class = ""square num-button"" onclick = ""recordClick(this)""><div class = content><div class = numbers>Q</div></div></button><button id = button_10 class = ""square num-button"" onclick = ""recordClick(this)""><div class = content><div class = numbers>R</div></div></button><button id = button_11 class = ""square num-button"" onclick = ""recordClick(this)""><div class = content><div class = numbers>S</div></div></button><button id = button_12 class = ""square num-button"" onclick = ""recordClick(this)""><div class = content><div class = numbers>Y</div></div></button><button class = clear_button id = ""ClearButton"" onclick = ""clearResponse()"">BACKSPACE</button><button class = blank_button id = ""BlankButton"" onclick = ""blankResponse()"">SKIP</button><p style=""font-size: 2.4rem""><u><b>Current Answer:</b></u></p><br><br><div id=echoed_txt style=""font-size: 5rem; color:blue;""><b></b></div></div>",enter,ospan,retrieval,gTJC4qlLSZQJKi8PfflxDx6cFzt2,html-keyboard-response,205,1171396,0.0-46.0-6.0-1.0-2.0,41,30,20,8.0,"[""K"",""S"",""H"",""P"",""C"",""_"",""_"",""Q""]","[""Q"",""S"",""Y"",""H"",""P"",""C"",""K"",""L""]",0.0,1.0,,,,,,,55e876f25e4d360012cc283d,09:56:16,03/04/2024
716.3000000119209,[''],0,ospan,feedback,gTJC4qlLSZQJKi8PfflxDx6cFzt2,html-button-response,206,1172615,0.0-46.0-6.0-1.0-3.0,,,,,,,,,,,,100.0,0.0,,55e876f25e4d360012cc283d,09:56:16,03/04/2024
13332.599999964237,,{'Q0': 'It was fine.'},ospan,survey_ospan,gTJC4qlLSZQJKi8PfflxDx6cFzt2,lmdlab-survey-text,207,1186711,0.0-46.0-7.0,,,,,,,,,,,,,,gTJC4qlLSZQJKi8PfflxDx6cFzt2,55e876f25e4d360012cc283d,09:56:16,03/04/2024
1554.5,<p><p style='font-size: 3rem'>Great work!<br><br>This completes the symmetry and memory task.</p><br><br><br>,0,ospan,finish,gTJC4qlLSZQJKi8PfflxDx6cFzt2,html-button-response,208,1188272,0.0-46.0-8.0,41,30,20,,,,,,,,,100.0,,,55e876f25e4d360012cc283d,09:56:16,03/04/2024
