rt,stimulus,response,exp_name,exp_stage,subjectID,trial_type,trial_index,time_elapsed,internal_node_id,ospan_shown,ospan_total,ospan_abs,length,resp_actual,resp_correct,full_correct,num_correct,feedback,accuracy,correct,math_acc,math_warning,databaseID,prolificID,start_time,date
2379.5,<div class = 'left_align' style='font-size: 3.25rem; line-height: 1.3;'><p class = 'center_align'><b>Welcome to the Symmetry and Memory Task</b><br><br><br><br></p>Press 'continue' to show the instructions.<br><br><br><br></div>,0,ospan,instruct,gNihgm96RTMkjDgo8iwMVkvpJ972,html-button-response,54,492353,0.0-46.0-0.0-0.0-0.0,,,,,,,,,,,,,,,5e3da76a9e51f801298c7510,19:56:27,03/04/2024
8161.300000011921,"<div class = 'left_align' style='font-size: 3.25rem; line-height: 1.3;'><p class = 'center_align'><b>Symmetry and Memory Task</b><br><br></p>In this task, you will try to memorize letters you see on the screen<br>while you also view black and white grid pictures.<br><br>In the next few minutes, you will have some practice to get you familiar<br>with how the task works.<br><br>It may be difficult sometimes, but please do not worry about making mistakes!<br><br>We will begin by practicing the letter part of the task.<br><br><br><br></div>",0,ospan,instruct,gNihgm96RTMkjDgo8iwMVkvpJ972,html-button-response,55,500768,0.0-46.0-0.0-0.0-1.0,,,,,,,,,,,,,,,5e3da76a9e51f801298c7510,19:56:27,03/04/2024
13843.100000023842,"<div class = 'left_align' style='font-size: 3.25rem; line-height: 1.3;'>For this practice part, letters will appear on the screen one at a time.<br><br>Try to remember each letter in the order presented.<br><br>After some letters have been shown, you will see a response screen. Your<br>goal is to report the letters you saw <b>in order</b>. If you do not remember<br>a particular letter, you will have the option to leave it blank.<br><br><br><br></div>",0,ospan,instruct,gNihgm96RTMkjDgo8iwMVkvpJ972,html-button-response,56,514868,0.0-46.0-0.0-0.0-2.0,,,,,,,,,,,,,,,5e3da76a9e51f801298c7510,19:56:27,03/04/2024
1891.199999988079,"<div class = 'left_align' style='font-size: 3.25rem; line-height: 1.3;'>Remember, it is very important to get the letters in the same<br>order as you see them.<br><br>When you are ready, you may begin the letter practice.</div><br><br><br><br>",0,ospan,instruct,gNihgm96RTMkjDgo8iwMVkvpJ972,html-button-response,57,517018,0.0-46.0-0.0-0.0-3.0,,,,,,,,,,,,,,,5e3da76a9e51f801298c7510,19:56:27,03/04/2024
,"<p style=""font-size:75px;"">...</p>",,ospan,iti,gNihgm96RTMkjDgo8iwMVkvpJ972,html-keyboard-response,58,518278,0.0-46.0-0.0-1.0-0.0,,,,,,,,,,,,,,,5e3da76a9e51f801298c7510,19:56:27,03/04/2024
,"<div style=""font-size: 10rem; color: #0000FF"">L</div>",,ospan,letter,gNihgm96RTMkjDgo8iwMVkvpJ972,html-keyboard-response,59,519283,0.0-46.0-0.0-1.0-1.0,,,,,,,,,,,,,,,5e3da76a9e51f801298c7510,19:56:27,03/04/2024
,"<div style=""font-size: 10rem; color: #0000FF"">Q</div>",,ospan,letter,gNihgm96RTMkjDgo8iwMVkvpJ972,html-keyboard-response,60,521043,0.0-46.0-0.0-1.0-2.0,,,,,,,,,,,,,,,5e3da76a9e51f801298c7510,19:56:27,03/04/2024
5821.199999988079,"<div class = numbox><p style=""font-size: 2.4rem"">Please recall the letters you saw to the best of your ability. If you do not remember a particular letter, use the SKIP button.<br><b>(When you are ready to lock in your answer, press ENTER)</b></p><button id = button_1 class = ""square num-button"" onclick = ""recordClick(this)""><div class = content><div class = numbers>C</div></div></button><button id = button_2 class = ""square num-button"" onclick = ""recordClick(this)""><div class = content><div class = numbers>G</div></div></button><button id = button_3 class = ""square num-button"" onclick = ""recordClick(this)""><div class = content><div class = numbers>H</div></div></button><button id = button_4 class = ""square num-button"" onclick = ""recordClick(this)""><div class = content><div class = numbers>J</div></div></button><button id = button_5 class = ""square num-button"" onclick = ""recordClick(this)""><div class = content><div class = numbers>K</div></div></button><button id = button_6 class = ""square num-button"" onclick = ""recordClick(this)""><div class = content><div class = numbers>L</div></div></button><button id = button_7 class = ""square num-button"" onclick = ""recordClick(this)""><div class = content><div class = numbers>N</div></div></button><button id = button_8 class = ""square num-button"" onclick = ""recordClick(this)""><div class = content><div class = numbers>P</div></div></button><button id = button_9 class = ""square num-button"" onclick = ""recordClick(this)""><div class = content><div class = numbers>Q</div></div></button><button id = button_10 class = ""square num-button"" onclick = ""recordClick(this)""><div class = content><div class = numbers>R</div></div></button><button id = button_11 class = ""square num-button"" onclick = ""recordClick(this)""><div class = content><div class = numbers>S</div></div></button><button id = button_12 class = ""square num-button"" onclick = ""recordClick(this)""><div class = content><div class = numbers>Y</div></div></button><button class = clear_button id = ""ClearButton"" onclick = ""clearResponse()"">BACKSPACE</button><button class = blank_button id = ""BlankButton"" onclick = ""blankResponse()"">SKIP</button><p style=""font-size: 2.4rem""><u><b>Current Answer:</b></u></p><br><br><div id=echoed_txt style=""font-size: 5rem; color:blue;""><b></b></div></div>",enter,ospan,retrieval,gNihgm96RTMkjDgo8iwMVkvpJ972,html-keyboard-response,61,527621,0.0-46.0-0.0-1.0-3.0,NA,NA,NA,2.0,"[""L"",""Q""]","[""L"",""Q""]",1.0,2.0,"['<font color=""green"">L</font>', '<font color=""green"">Q</font>']",,,,,,5e3da76a9e51f801298c7510,19:56:27,03/04/2024
1456.2999999523163,"['<p style=""font-size:44px"">Letters:<br><br><br><font color=""green"">L</font> <font color=""green"">Q</font></p><br><br>']",0,ospan,practice_feedback,gNihgm96RTMkjDgo8iwMVkvpJ972,html-button-response,62,529584,0.0-46.0-0.0-1.0-4.0,,,,,,,,,,,,,,,5e3da76a9e51f801298c7510,19:56:27,03/04/2024
,"<p style=""font-size:75px;"">...</p>",,ospan,iti,gNihgm96RTMkjDgo8iwMVkvpJ972,html-keyboard-response,63,530592,0.0-46.0-0.0-2.0-0.0,,,,,,,,,,,,,,,5e3da76a9e51f801298c7510,19:56:27,03/04/2024
,"<div style=""font-size: 10rem; color: #0000FF"">H</div>",,ospan,letter,gNihgm96RTMkjDgo8iwMVkvpJ972,html-keyboard-response,64,531596,0.0-46.0-0.0-2.0-1.0,,,,,,,,,,,,,,,5e3da76a9e51f801298c7510,19:56:27,03/04/2024
,"<div style=""font-size: 10rem; color: #0000FF"">Q</div>",,ospan,letter,gNihgm96RTMkjDgo8iwMVkvpJ972,html-keyboard-response,65,533351,0.0-46.0-0.0-2.0-2.0,,,,,,,,,,,,,,,5e3da76a9e51f801298c7510,19:56:27,03/04/2024
,"<div style=""font-size: 10rem; color: #0000FF"">C</div>",,ospan,letter,gNihgm96RTMkjDgo8iwMVkvpJ972,html-keyboard-response,66,535113,0.0-46.0-0.0-2.0-3.0,,,,,,,,,,,,,,,5e3da76a9e51f801298c7510,19:56:27,03/04/2024
3338.800000011921,"<div class = numbox><p style=""font-size: 2.4rem"">Please recall the letters you saw to the best of your ability. If you do not remember a particular letter, use the SKIP button.<br><b>(When you are ready to lock in your answer, press ENTER)</b></p><button id = button_1 class = ""square num-button"" onclick = ""recordClick(this)""><div class = content><div class = numbers>C</div></div></button><button id = button_2 class = ""square num-button"" onclick = ""recordClick(this)""><div class = content><div class = numbers>G</div></div></button><button id = button_3 class = ""square num-button"" onclick = ""recordClick(this)""><div class = content><div class = numbers>H</div></div></button><button id = button_4 class = ""square num-button"" onclick = ""recordClick(this)""><div class = content><div class = numbers>J</div></div></button><button id = button_5 class = ""square num-button"" onclick = ""recordClick(this)""><div class = content><div class = numbers>K</div></div></button><button id = button_6 class = ""square num-button"" onclick = ""recordClick(this)""><div class = content><div class = numbers>L</div></div></button><button id = button_7 class = ""square num-button"" onclick = ""recordClick(this)""><div class = content><div class = numbers>N</div></div></button><button id = button_8 class = ""square num-button"" onclick = ""recordClick(this)""><div class = content><div class = numbers>P</div></div></button><button id = button_9 class = ""square num-button"" onclick = ""recordClick(this)""><div class = content><div class = numbers>Q</div></div></button><button id = button_10 class = ""square num-button"" onclick = ""recordClick(this)""><div class = content><div class = numbers>R</div></div></button><button id = button_11 class = ""square num-button"" onclick = ""recordClick(this)""><div class = content><div class = numbers>S</div></div></button><button id = button_12 class = ""square num-button"" onclick = ""recordClick(this)""><div class = content><div class = numbers>Y</div></div></button><button class = clear_button id = ""ClearButton"" onclick = ""clearResponse()"">BACKSPACE</button><button class = blank_button id = ""BlankButton"" onclick = ""blankResponse()"">SKIP</button><p style=""font-size: 2.4rem""><u><b>Current Answer:</b></u></p><br><br><div id=echoed_txt style=""font-size: 5rem; color:blue;""><b></b></div></div>",enter,ospan,retrieval,gNihgm96RTMkjDgo8iwMVkvpJ972,html-keyboard-response,67,539209,0.0-46.0-0.0-2.0-4.0,NA,NA,NA,3.0,"[""H"",""Q"",""C""]","[""H"",""Q"",""C""]",1.0,3.0,"['<font color=""green"">H</font>', '<font color=""green"">Q</font>', '<font color=""green"">C</font>']",,,,,,5e3da76a9e51f801298c7510,19:56:27,03/04/2024
1085.0,"['<p style=""font-size:44px"">Letters:<br><br><br><font color=""green"">H</font> <font color=""green"">Q</font> <font color=""green"">C</font></p><br><br>']",0,ospan,practice_feedback,gNihgm96RTMkjDgo8iwMVkvpJ972,html-button-response,68,540800,0.0-46.0-0.0-2.0-5.0,,,,,,,,,,,,,,,5e3da76a9e51f801298c7510,19:56:27,03/04/2024
20547.799999952316,"<div class = 'left_align' style='font-size: 3.25rem; line-height: 1.3;'>Now you will practice doing the <b>symmetry judgment part</b> of the experiment.<br><br>A black and white grid picture will appear on the screen and you have to judge if it is <br>symmetrical or asymetrical.<br><br>A picture is 'mirror' symmetrical if its left half is identical to the right half when flipped.<br>Here are examples of a symmetrical and an asymetrical picture:<br><br><center><img src='Stimuli/img/symm_instructions_extra.png' style='height:420px; width:900'></img></center><br>To judge symmetry, imagine you were to fold each picture down the middle, like a book –<br>would the left half match the right half when folded onto each other?<br><br></div><br>",0,ospan,instruct,gNihgm96RTMkjDgo8iwMVkvpJ972,html-button-response,69,561350,0.0-46.0-1.0-0.0-0.0,,,,,,,,,,,,,,,5e3da76a9e51f801298c7510,19:56:27,03/04/2024
5377.199999988079,"<div class = 'left_align' style='font-size: 3.25rem; line-height: 1.3;'>When you have viewed the picture and determined whether it is symmetrical or not,<br>you can <b>click the Yes or No button</b> below to answer.<br><br>If you take longer than 15 seconds, it will continue automatically<br>and record the answer as an error.</div><br>",0,ospan,instruct,gNihgm96RTMkjDgo8iwMVkvpJ972,html-button-response,70,566984,0.0-46.0-1.0-0.0-1.0,,,,,,,,,,,,,,,5e3da76a9e51f801298c7510,19:56:27,03/04/2024
4780.600000023842,"<div class = 'left_align' style='font-size: 3.25rem; line-height: 1.3;'>It is <b>very</b> important that you make the symmetry judgment correctly.<br><br>It is also important that you try and judge the picture as quickly as you can.<br><br>When you are ready, click on the button below to try some practice problems.</div><br><br><br><br>",0,ospan,instruct,gNihgm96RTMkjDgo8iwMVkvpJ972,html-button-response,71,572018,0.0-46.0-1.0-0.0-2.0,,,,,,,,,,,,,,,5e3da76a9e51f801298c7510,19:56:27,03/04/2024
2404.0,,,ospan,symmetry,gNihgm96RTMkjDgo8iwMVkvpJ972,symmetry-judgement-task,72,575222,0.0-46.0-1.0-1.0-0.0,,,,,,,,,,1.0,1.0,,,,5e3da76a9e51f801298c7510,19:56:27,03/04/2024
,"<p style=""color:green; font-size: 35px"">Correct</p>",,ospan,feedback,gNihgm96RTMkjDgo8iwMVkvpJ972,html-keyboard-response,73,575975,0.0-46.0-1.0-1.0-1.0,,,,,,,,,,,,,,,5e3da76a9e51f801298c7510,19:56:27,03/04/2024
2060.0,,,ospan,symmetry,gNihgm96RTMkjDgo8iwMVkvpJ972,symmetry-judgement-task,74,580654,0.0-46.0-1.0-1.0-2.0,,,,,,,,,,1.0,1.0,,,,5e3da76a9e51f801298c7510,19:56:27,03/04/2024
,"<p style=""color:green; font-size: 35px"">Correct</p>",,ospan,feedback,gNihgm96RTMkjDgo8iwMVkvpJ972,html-keyboard-response,75,581413,0.0-46.0-1.0-1.0-3.0,,,,,,,,,,,,,,,5e3da76a9e51f801298c7510,19:56:27,03/04/2024
2130.0,,,ospan,symmetry,gNihgm96RTMkjDgo8iwMVkvpJ972,symmetry-judgement-task,76,586171,0.0-46.0-1.0-1.0-4.0,,,,,,,,,,1.0,1.0,,,,5e3da76a9e51f801298c7510,19:56:27,03/04/2024
,"<p style=""color:green; font-size: 35px"">Correct</p>",,ospan,feedback,gNihgm96RTMkjDgo8iwMVkvpJ972,html-keyboard-response,77,586927,0.0-46.0-1.0-1.0-5.0,,,,,,,,,,,,,,,5e3da76a9e51f801298c7510,19:56:27,03/04/2024
1634.0999999642372,"<p style=""font-size: 3rem;"">You responded correctly on 3 of 3 symmetry judgments. Good job!</p><br><br>",0,ospan,practice,gNihgm96RTMkjDgo8iwMVkvpJ972,html-button-response,78,590567,0.0-46.0-1.0-2.0,,,,,,,,,,,,,,,5e3da76a9e51f801298c7510,19:56:27,03/04/2024
10579.699999988079,"<div class = 'left_align' style='font-size: 3.25rem; line-height: 1.3;'>Now you will practice doing both parts of the experiment at the same time.<br><br>In the next practice set, you will be given one grid picture to judge.<br>Then letter will appear on the screen. Try to remember the letter.<br><br>It is <b>very important</b> to make the symmetry judgment as quickly and accurately as possible.<br><br>Just as before, once you have make the symmetry judgment, you can click Yes or No.<br><b>Note that you will no longer see Correct or Incorrect feedback.</div><br><br><br><br>",0,ospan,instruct,gNihgm96RTMkjDgo8iwMVkvpJ972,html-button-response,79,601401,0.0-46.0-2.0-0.0-0.0,,,,,,,,,,,,,,,5e3da76a9e51f801298c7510,19:56:27,03/04/2024
7589.799999952316,"<div class = 'left_align' style='font-size: 3.25rem; line-height: 1.3;'>After the letter goes away, another grid picture will appear, and then<br>another letter.<br><br>At the end of each set of letters and grids, you will recall the letters to the best<br>of your ability. Remember, try your best to get the letters in the correct order.<br><br>It is important to <b>quickly</b> and <b>accurately</b> make the symmetry judgments.</div><br><br><br><br>",0,ospan,instruct,gNihgm96RTMkjDgo8iwMVkvpJ972,html-button-response,80,609250,0.0-46.0-2.0-0.0-1.0,,,,,,,,,,,,,,,5e3da76a9e51f801298c7510,19:56:27,03/04/2024
11175.5,"<div class = 'left_align' style='font-size: 3.25rem; line-height: 1.3;'>On the feedback screen, if you are not doing well at the symmetry judgments,<br>you will also see a warning in the middle. This indicates your percent <br>correct for the grid pictures for the entire experiment.<br><br>It is <b>very</b> important for you to keep accuracy at least at 85%: <u>We can only use<br>data where the participant was at least 85% accurate on the judgments.</u> Therefore,<br> please try your best to perform well on the symmetry judgments, <b>at the same time</b><br>doing your best to recall as many letters as possible.<br><br>Click the button to try some practice problems.</div><br><br><br><br>",0,ospan,instruct,gNihgm96RTMkjDgo8iwMVkvpJ972,html-button-response,81,620684,0.0-46.0-2.0-0.0-2.0,,,,,,,,,,,,,,,5e3da76a9e51f801298c7510,19:56:27,03/04/2024
,"<p style=""font-size:75px;"">...</p>",,ospan,iti,gNihgm96RTMkjDgo8iwMVkvpJ972,html-keyboard-response,82,621947,0.0-46.0-2.0-1.0-0.0,,,,,,,,,,,,,,,5e3da76a9e51f801298c7510,19:56:27,03/04/2024
2477.0,,,ospan,symmetry,gNihgm96RTMkjDgo8iwMVkvpJ972,symmetry-judgement-task,83,625473,0.0-46.0-2.0-1.0-1.0-0.0,,,,,,,,,,1.0,1.0,,,,5e3da76a9e51f801298c7510,19:56:27,03/04/2024
,"<div style=""font-size: 10rem; color: #0000FF"">G</div>",,ospan,letter,gNihgm96RTMkjDgo8iwMVkvpJ972,html-keyboard-response,84,626477,0.0-46.0-2.0-1.0-1.0-1.0,,,,,,,,,,,,,,,5e3da76a9e51f801298c7510,19:56:27,03/04/2024
2198.0,,,ospan,symmetry,gNihgm96RTMkjDgo8iwMVkvpJ972,symmetry-judgement-task,85,630558,0.0-46.0-2.0-1.0-1.0-2.0,,,,,,,,,,1.0,1.0,,,,5e3da76a9e51f801298c7510,19:56:27,03/04/2024
,"<div style=""font-size: 10rem; color: #0000FF"">R</div>",,ospan,letter,gNihgm96RTMkjDgo8iwMVkvpJ972,html-keyboard-response,86,631565,0.0-46.0-2.0-1.0-1.0-3.0,,,,,,,,,,,,,,,5e3da76a9e51f801298c7510,19:56:27,03/04/2024
1920.0,,,ospan,symmetry,gNihgm96RTMkjDgo8iwMVkvpJ972,symmetry-judgement-task,87,635357,0.0-46.0-2.0-1.0-1.0-4.0,,,,,,,,,,1.0,1.0,,,,5e3da76a9e51f801298c7510,19:56:27,03/04/2024
,"<div style=""font-size: 10rem; color: #0000FF"">K</div>",,ospan,letter,gNihgm96RTMkjDgo8iwMVkvpJ972,html-keyboard-response,88,636365,0.0-46.0-2.0-1.0-1.0-5.0,,,,,,,,,,,,,,,5e3da76a9e51f801298c7510,19:56:27,03/04/2024
3672.699999988079,"<div class = numbox><p style=""font-size: 2.4rem"">Please recall the letters you saw to the best of your ability. If you do not remember a particular letter, use the SKIP button.<br><b>(When you are ready to lock in your answer, press ENTER)</b></p><button id = button_1 class = ""square num-button"" onclick = ""recordClick(this)""><div class = content><div class = numbers>C</div></div></button><button id = button_2 class = ""square num-button"" onclick = ""recordClick(this)""><div class = content><div class = numbers>G</div></div></button><button id = button_3 class = ""square num-button"" onclick = ""recordClick(this)""><div class = content><div class = numbers>H</div></div></button><button id = button_4 class = ""square num-button"" onclick = ""recordClick(this)""><div class = content><div class = numbers>J</div></div></button><button id = button_5 class = ""square num-button"" onclick = ""recordClick(this)""><div class = content><div class = numbers>K</div></div></button><button id = button_6 class = ""square num-button"" onclick = ""recordClick(this)""><div class = content><div class = numbers>L</div></div></button><button id = button_7 class = ""square num-button"" onclick = ""recordClick(this)""><div class = content><div class = numbers>N</div></div></button><button id = button_8 class = ""square num-button"" onclick = ""recordClick(this)""><div class = content><div class = numbers>P</div></div></button><button id = button_9 class = ""square num-button"" onclick = ""recordClick(this)""><div class = content><div class = numbers>Q</div></div></button><button id = button_10 class = ""square num-button"" onclick = ""recordClick(this)""><div class = content><div class = numbers>R</div></div></button><button id = button_11 class = ""square num-button"" onclick = ""recordClick(this)""><div class = content><div class = numbers>S</div></div></button><button id = button_12 class = ""square num-button"" onclick = ""recordClick(this)""><div class = content><div class = numbers>Y</div></div></button><button class = clear_button id = ""ClearButton"" onclick = ""clearResponse()"">BACKSPACE</button><button class = blank_button id = ""BlankButton"" onclick = ""blankResponse()"">SKIP</button><p style=""font-size: 2.4rem""><u><b>Current Answer:</b></u></p><br><br><div id=echoed_txt style=""font-size: 5rem; color:blue;""><b></b></div></div>",enter,ospan,retrieval,gNihgm96RTMkjDgo8iwMVkvpJ972,html-keyboard-response,89,640796,0.0-46.0-2.0-1.0-2.0-0.0,NA,NA,NA,3.0,"[""G"",""R"",""K""]","[""G"",""R"",""K""]",1.0,3.0,"['<font color=""green"">G</font>', '<font color=""green"">R</font>', '<font color=""green"">K</font>']",,,,,,5e3da76a9e51f801298c7510,19:56:27,03/04/2024
1448.0,"['<p style=""font-size:44px"">Letters:<br><br><br><font color=""green"">G</font> <font color=""green"">R</font> <font color=""green"">K</font></p><br><br><p style=""font-size:30px"">Symmetry:<br><br><font color=""green"">100%</font></p><br><br>']",0,ospan,practice_feedback,gNihgm96RTMkjDgo8iwMVkvpJ972,html-button-response,90,642749,0.0-46.0-2.0-1.0-2.0-1.0,,,,,,,,,,,,,,,5e3da76a9e51f801298c7510,19:56:27,03/04/2024
,"<p style=""font-size:75px;"">...</p>",,ospan,iti,gNihgm96RTMkjDgo8iwMVkvpJ972,html-keyboard-response,91,643752,0.0-46.0-2.0-2.0-0.0,,,,,,,,,,,,,,,5e3da76a9e51f801298c7510,19:56:27,03/04/2024
1785.0,,,ospan,symmetry,gNihgm96RTMkjDgo8iwMVkvpJ972,symmetry-judgement-task,92,646591,0.0-46.0-2.0-2.0-1.0-0.0,,,,,,,,,,1.0,1.0,,,,5e3da76a9e51f801298c7510,19:56:27,03/04/2024
,"<div style=""font-size: 10rem; color: #0000FF"">S</div>",,ospan,letter,gNihgm96RTMkjDgo8iwMVkvpJ972,html-keyboard-response,93,647596,0.0-46.0-2.0-2.0-1.0-1.0,,,,,,,,,,,,,,,5e3da76a9e51f801298c7510,19:56:27,03/04/2024
1600.0,,,ospan,symmetry,gNihgm96RTMkjDgo8iwMVkvpJ972,symmetry-judgement-task,94,651073,0.0-46.0-2.0-2.0-1.0-2.0,,,,,,,,,,1.0,1.0,,,,5e3da76a9e51f801298c7510,19:56:27,03/04/2024
,"<div style=""font-size: 10rem; color: #0000FF"">K</div>",,ospan,letter,gNihgm96RTMkjDgo8iwMVkvpJ972,html-keyboard-response,95,652076,0.0-46.0-2.0-2.0-1.0-3.0,,,,,,,,,,,,,,,5e3da76a9e51f801298c7510,19:56:27,03/04/2024
1769.0,,,ospan,symmetry,gNihgm96RTMkjDgo8iwMVkvpJ972,symmetry-judgement-task,96,655718,0.0-46.0-2.0-2.0-1.0-4.0,,,,,,,,,,1.0,1.0,,,,5e3da76a9e51f801298c7510,19:56:27,03/04/2024
,"<div style=""font-size: 10rem; color: #0000FF"">J</div>",,ospan,letter,gNihgm96RTMkjDgo8iwMVkvpJ972,html-keyboard-response,97,656724,0.0-46.0-2.0-2.0-1.0-5.0,,,,,,,,,,,,,,,5e3da76a9e51f801298c7510,19:56:27,03/04/2024
3512.7999999523163,"<div class = numbox><p style=""font-size: 2.4rem"">Please recall the letters you saw to the best of your ability. If you do not remember a particular letter, use the SKIP button.<br><b>(When you are ready to lock in your answer, press ENTER)</b></p><button id = button_1 class = ""square num-button"" onclick = ""recordClick(this)""><div class = content><div class = numbers>C</div></div></button><button id = button_2 class = ""square num-button"" onclick = ""recordClick(this)""><div class = content><div class = numbers>G</div></div></button><button id = button_3 class = ""square num-button"" onclick = ""recordClick(this)""><div class = content><div class = numbers>H</div></div></button><button id = button_4 class = ""square num-button"" onclick = ""recordClick(this)""><div class = content><div class = numbers>J</div></div></button><button id = button_5 class = ""square num-button"" onclick = ""recordClick(this)""><div class = content><div class = numbers>K</div></div></button><button id = button_6 class = ""square num-button"" onclick = ""recordClick(this)""><div class = content><div class = numbers>L</div></div></button><button id = button_7 class = ""square num-button"" onclick = ""recordClick(this)""><div class = content><div class = numbers>N</div></div></button><button id = button_8 class = ""square num-button"" onclick = ""recordClick(this)""><div class = content><div class = numbers>P</div></div></button><button id = button_9 class = ""square num-button"" onclick = ""recordClick(this)""><div class = content><div class = numbers>Q</div></div></button><button id = button_10 class = ""square num-button"" onclick = ""recordClick(this)""><div class = content><div class = numbers>R</div></div></button><button id = button_11 class = ""square num-button"" onclick = ""recordClick(this)""><div class = content><div class = numbers>S</div></div></button><button id = button_12 class = ""square num-button"" onclick = ""recordClick(this)""><div class = content><div class = numbers>Y</div></div></button><button class = clear_button id = ""ClearButton"" onclick = ""clearResponse()"">BACKSPACE</button><button class = blank_button id = ""BlankButton"" onclick = ""blankResponse()"">SKIP</button><p style=""font-size: 2.4rem""><u><b>Current Answer:</b></u></p><br><br><div id=echoed_txt style=""font-size: 5rem; color:blue;""><b></b></div></div>",enter,ospan,retrieval,gNihgm96RTMkjDgo8iwMVkvpJ972,html-keyboard-response,98,660995,0.0-46.0-2.0-2.0-2.0-0.0,NA,NA,NA,3.0,"[""S"",""K"",""J""]","[""S"",""K"",""J""]",1.0,3.0,"['<font color=""green"">S</font>', '<font color=""green"">K</font>', '<font color=""green"">J</font>']",,,,,,5e3da76a9e51f801298c7510,19:56:27,03/04/2024
1267.0,"['<p style=""font-size:44px"">Letters:<br><br><br><font color=""green"">S</font> <font color=""green"">K</font> <font color=""green"">J</font></p><br><br><p style=""font-size:30px"">Symmetry:<br><br><font color=""green"">100%</font></p><br><br>']",0,ospan,practice_feedback,gNihgm96RTMkjDgo8iwMVkvpJ972,html-button-response,99,662768,0.0-46.0-2.0-2.0-2.0-1.0,,,,,,,,,,,,,,,5e3da76a9e51f801298c7510,19:56:27,03/04/2024
14296.800000011921,"<div class = 'left_align' style='font-size: 3rem; line-height: 1.3;'><b>Great work! That is the end of practice.</b><br><br>The real trials will look just like the practice trials you just completed.<br><br><u>Here, you will not see feedback</u>. First, you will see an grid picture to judge,<br>then a letter to remember. When the recall screen appears, report the letters in the<br>order presented. If you forget a letter, remember to use the <b>blank</b> button to move to the<br>next letter. Some of the sets will have more symmetry grids and letters than others.<br><br>It is important that you do your best on both the symmetry judgments and the letter recall<br>parts of the experiment. For for the symmetry judgments, try to work as <b>quickly</b> and <br>as <b>accurately</b> as possible. Remember to keep your symmetry accuracy at 85% or above.<br><br><b>For the letters, do NOT use any external aid (e.g., writing on paper, electronic device).</b><br><br>It is <u>very important</u> to our experiment to have a <b>true</b> view of your real performance.<br><br>Do not worry if you miss some when it gets hard! This task is meant to be very challenging!<br><br>Click the button to begin.</div><br><br><br><br>",0,ospan,starting_real_here,gNihgm96RTMkjDgo8iwMVkvpJ972,html-button-response,100,677067,0.0-46.0-2.0-3.0,,,,,,,,,,,,,,,5e3da76a9e51f801298c7510,19:56:27,03/04/2024
,"<p style=""font-size:75px;"">...</p>",,ospan,iti,gNihgm96RTMkjDgo8iwMVkvpJ972,html-keyboard-response,101,678327,0.0-46.0-3.0-0.0-0.0,,,,,,,,,,,,,,,5e3da76a9e51f801298c7510,19:56:27,03/04/2024
1473.0,,,ospan,symmetry,gNihgm96RTMkjDgo8iwMVkvpJ972,symmetry-judgement-task,102,680921,0.0-46.0-3.0-0.0-1.0-0.0,,,,,,,,,,1.0,1.0,,,,5e3da76a9e51f801298c7510,19:56:27,03/04/2024
,"<div style=""font-size: 10rem; color: #0000FF"">G</div>",,ospan,letter,gNihgm96RTMkjDgo8iwMVkvpJ972,html-keyboard-response,103,681925,0.0-46.0-3.0-0.0-1.0-1.0,,,,,,,,,,,,,,,5e3da76a9e51f801298c7510,19:56:27,03/04/2024
1667.0,,,ospan,symmetry,gNihgm96RTMkjDgo8iwMVkvpJ972,symmetry-judgement-task,104,685467,0.0-46.0-3.0-0.0-1.0-2.0,,,,,,,,,,1.0,1.0,,,,5e3da76a9e51f801298c7510,19:56:27,03/04/2024
,"<div style=""font-size: 10rem; color: #0000FF"">Y</div>",,ospan,letter,gNihgm96RTMkjDgo8iwMVkvpJ972,html-keyboard-response,105,686475,0.0-46.0-3.0-0.0-1.0-3.0,,,,,,,,,,,,,,,5e3da76a9e51f801298c7510,19:56:27,03/04/2024
1770.0,,,ospan,symmetry,gNihgm96RTMkjDgo8iwMVkvpJ972,symmetry-judgement-task,106,690121,0.0-46.0-3.0-0.0-1.0-4.0,,,,,,,,,,1.0,1.0,,,,5e3da76a9e51f801298c7510,19:56:27,03/04/2024
,"<div style=""font-size: 10rem; color: #0000FF"">Q</div>",,ospan,letter,gNihgm96RTMkjDgo8iwMVkvpJ972,html-keyboard-response,107,691124,0.0-46.0-3.0-0.0-1.0-5.0,,,,,,,,,,,,,,,5e3da76a9e51f801298c7510,19:56:27,03/04/2024
4046.099999964237,"<div class = numbox><p style=""font-size: 2.4rem"">Please recall the letters you saw to the best of your ability. If you do not remember a particular letter, use the SKIP button.<br><b>(When you are ready to lock in your answer, press ENTER)</b></p><button id = button_1 class = ""square num-button"" onclick = ""recordClick(this)""><div class = content><div class = numbers>C</div></div></button><button id = button_2 class = ""square num-button"" onclick = ""recordClick(this)""><div class = content><div class = numbers>G</div></div></button><button id = button_3 class = ""square num-button"" onclick = ""recordClick(this)""><div class = content><div class = numbers>H</div></div></button><button id = button_4 class = ""square num-button"" onclick = ""recordClick(this)""><div class = content><div class = numbers>J</div></div></button><button id = button_5 class = ""square num-button"" onclick = ""recordClick(this)""><div class = content><div class = numbers>K</div></div></button><button id = button_6 class = ""square num-button"" onclick = ""recordClick(this)""><div class = content><div class = numbers>L</div></div></button><button id = button_7 class = ""square num-button"" onclick = ""recordClick(this)""><div class = content><div class = numbers>N</div></div></button><button id = button_8 class = ""square num-button"" onclick = ""recordClick(this)""><div class = content><div class = numbers>P</div></div></button><button id = button_9 class = ""square num-button"" onclick = ""recordClick(this)""><div class = content><div class = numbers>Q</div></div></button><button id = button_10 class = ""square num-button"" onclick = ""recordClick(this)""><div class = content><div class = numbers>R</div></div></button><button id = button_11 class = ""square num-button"" onclick = ""recordClick(this)""><div class = content><div class = numbers>S</div></div></button><button id = button_12 class = ""square num-button"" onclick = ""recordClick(this)""><div class = content><div class = numbers>Y</div></div></button><button class = clear_button id = ""ClearButton"" onclick = ""clearResponse()"">BACKSPACE</button><button class = blank_button id = ""BlankButton"" onclick = ""blankResponse()"">SKIP</button><p style=""font-size: 2.4rem""><u><b>Current Answer:</b></u></p><br><br><div id=echoed_txt style=""font-size: 5rem; color:blue;""><b></b></div></div>",enter,ospan,retrieval,gNihgm96RTMkjDgo8iwMVkvpJ972,html-keyboard-response,108,695928,0.0-46.0-3.0-0.0-2.0,3,3,3,3.0,"[""G"",""Y"",""Q""]","[""G"",""Y"",""Q""]",1.0,3.0,,,,,,,5e3da76a9e51f801298c7510,19:56:27,03/04/2024
1002.3000000119209,[''],0,ospan,feedback,gNihgm96RTMkjDgo8iwMVkvpJ972,html-button-response,109,697435,0.0-46.0-3.0-0.0-3.0,,,,,,,,,,,,100.0,0.0,,5e3da76a9e51f801298c7510,19:56:27,03/04/2024
,"<p style=""font-size:75px;"">...</p>",,ospan,iti,gNihgm96RTMkjDgo8iwMVkvpJ972,html-keyboard-response,110,698442,0.0-46.0-4.0-0.0-0.0,,,,,,,,,,,,,,,5e3da76a9e51f801298c7510,19:56:27,03/04/2024
1161.0,,,ospan,symmetry,gNihgm96RTMkjDgo8iwMVkvpJ972,symmetry-judgement-task,111,700656,0.0-46.0-4.0-0.0-1.0-0.0,,,,,,,,,,1.0,1.0,,,,5e3da76a9e51f801298c7510,19:56:27,03/04/2024
,"<div style=""font-size: 10rem; color: #0000FF"">S</div>",,ospan,letter,gNihgm96RTMkjDgo8iwMVkvpJ972,html-keyboard-response,112,701664,0.0-46.0-4.0-0.0-1.0-1.0,,,,,,,,,,,,,,,5e3da76a9e51f801298c7510,19:56:27,03/04/2024
1260.0,,,ospan,symmetry,gNihgm96RTMkjDgo8iwMVkvpJ972,symmetry-judgement-task,113,704804,0.0-46.0-4.0-0.0-1.0-2.0,,,,,,,,,,1.0,1.0,,,,5e3da76a9e51f801298c7510,19:56:27,03/04/2024
,"<div style=""font-size: 10rem; color: #0000FF"">C</div>",,ospan,letter,gNihgm96RTMkjDgo8iwMVkvpJ972,html-keyboard-response,114,705811,0.0-46.0-4.0-0.0-1.0-3.0,,,,,,,,,,,,,,,5e3da76a9e51f801298c7510,19:56:27,03/04/2024
1260.0,,,ospan,symmetry,gNihgm96RTMkjDgo8iwMVkvpJ972,symmetry-judgement-task,115,708954,0.0-46.0-4.0-0.0-1.0-4.0,,,,,,,,,,1.0,1.0,,,,5e3da76a9e51f801298c7510,19:56:27,03/04/2024
,"<div style=""font-size: 10rem; color: #0000FF"">K</div>",,ospan,letter,gNihgm96RTMkjDgo8iwMVkvpJ972,html-keyboard-response,116,709960,0.0-46.0-4.0-0.0-1.0-5.0,,,,,,,,,,,,,,,5e3da76a9e51f801298c7510,19:56:27,03/04/2024
1455.0,,,ospan,symmetry,gNihgm96RTMkjDgo8iwMVkvpJ972,symmetry-judgement-task,117,713291,0.0-46.0-4.0-0.0-1.0-6.0,,,,,,,,,,1.0,1.0,,,,5e3da76a9e51f801298c7510,19:56:27,03/04/2024
,"<div style=""font-size: 10rem; color: #0000FF"">Q</div>",,ospan,letter,gNihgm96RTMkjDgo8iwMVkvpJ972,html-keyboard-response,118,714296,0.0-46.0-4.0-0.0-1.0-7.0,,,,,,,,,,,,,,,5e3da76a9e51f801298c7510,19:56:27,03/04/2024
4268.699999988079,"<div class = numbox><p style=""font-size: 2.4rem"">Please recall the letters you saw to the best of your ability. If you do not remember a particular letter, use the SKIP button.<br><b>(When you are ready to lock in your answer, press ENTER)</b></p><button id = button_1 class = ""square num-button"" onclick = ""recordClick(this)""><div class = content><div class = numbers>C</div></div></button><button id = button_2 class = ""square num-button"" onclick = ""recordClick(this)""><div class = content><div class = numbers>G</div></div></button><button id = button_3 class = ""square num-button"" onclick = ""recordClick(this)""><div class = content><div class = numbers>H</div></div></button><button id = button_4 class = ""square num-button"" onclick = ""recordClick(this)""><div class = content><div class = numbers>J</div></div></button><button id = button_5 class = ""square num-button"" onclick = ""recordClick(this)""><div class = content><div class = numbers>K</div></div></button><button id = button_6 class = ""square num-button"" onclick = ""recordClick(this)""><div class = content><div class = numbers>L</div></div></button><button id = button_7 class = ""square num-button"" onclick = ""recordClick(this)""><div class = content><div class = numbers>N</div></div></button><button id = button_8 class = ""square num-button"" onclick = ""recordClick(this)""><div class = content><div class = numbers>P</div></div></button><button id = button_9 class = ""square num-button"" onclick = ""recordClick(this)""><div class = content><div class = numbers>Q</div></div></button><button id = button_10 class = ""square num-button"" onclick = ""recordClick(this)""><div class = content><div class = numbers>R</div></div></button><button id = button_11 class = ""square num-button"" onclick = ""recordClick(this)""><div class = content><div class = numbers>S</div></div></button><button id = button_12 class = ""square num-button"" onclick = ""recordClick(this)""><div class = content><div class = numbers>Y</div></div></button><button class = clear_button id = ""ClearButton"" onclick = ""clearResponse()"">BACKSPACE</button><button class = blank_button id = ""BlankButton"" onclick = ""blankResponse()"">SKIP</button><p style=""font-size: 2.4rem""><u><b>Current Answer:</b></u></p><br><br><div id=echoed_txt style=""font-size: 5rem; color:blue;""><b></b></div></div>",enter,ospan,retrieval,gNihgm96RTMkjDgo8iwMVkvpJ972,html-keyboard-response,119,719319,0.0-46.0-4.0-0.0-2.0,7,7,7,4.0,"[""S"",""C"",""K"",""Q""]","[""S"",""C"",""K"",""Q""]",1.0,4.0,,,,,,,5e3da76a9e51f801298c7510,19:56:27,03/04/2024
4676.600000023842,[''],0,ospan,feedback,gNihgm96RTMkjDgo8iwMVkvpJ972,html-button-response,120,724500,0.0-46.0-4.0-0.0-3.0,,,,,,,,,,,,100.0,0.0,,5e3da76a9e51f801298c7510,19:56:27,03/04/2024
,"<p style=""font-size:75px;"">...</p>",,ospan,iti,gNihgm96RTMkjDgo8iwMVkvpJ972,html-keyboard-response,121,725507,0.0-46.0-4.0-1.0-0.0,,,,,,,,,,,,,,,5e3da76a9e51f801298c7510,19:56:27,03/04/2024
1698.0,,,ospan,symmetry,gNihgm96RTMkjDgo8iwMVkvpJ972,symmetry-judgement-task,122,728253,0.0-46.0-4.0-1.0-1.0-0.0,,,,,,,,,,1.0,1.0,,,,5e3da76a9e51f801298c7510,19:56:27,03/04/2024
,"<div style=""font-size: 10rem; color: #0000FF"">Y</div>",,ospan,letter,gNihgm96RTMkjDgo8iwMVkvpJ972,html-keyboard-response,123,729255,0.0-46.0-4.0-1.0-1.0-1.0,,,,,,,,,,,,,,,5e3da76a9e51f801298c7510,19:56:27,03/04/2024
1361.0,,,ospan,symmetry,gNihgm96RTMkjDgo8iwMVkvpJ972,symmetry-judgement-task,124,732424,0.0-46.0-4.0-1.0-1.0-2.0,,,,,,,,,,1.0,1.0,,,,5e3da76a9e51f801298c7510,19:56:27,03/04/2024
,"<div style=""font-size: 10rem; color: #0000FF"">L</div>",,ospan,letter,gNihgm96RTMkjDgo8iwMVkvpJ972,html-keyboard-response,125,733431,0.0-46.0-4.0-1.0-1.0-3.0,,,,,,,,,,,,,,,5e3da76a9e51f801298c7510,19:56:27,03/04/2024
1316.0,,,ospan,symmetry,gNihgm96RTMkjDgo8iwMVkvpJ972,symmetry-judgement-task,126,736623,0.0-46.0-4.0-1.0-1.0-4.0,,,,,,,,,,1.0,1.0,,,,5e3da76a9e51f801298c7510,19:56:27,03/04/2024
,"<div style=""font-size: 10rem; color: #0000FF"">G</div>",,ospan,letter,gNihgm96RTMkjDgo8iwMVkvpJ972,html-keyboard-response,127,737627,0.0-46.0-4.0-1.0-1.0-5.0,,,,,,,,,,,,,,,5e3da76a9e51f801298c7510,19:56:27,03/04/2024
1521.0,,,ospan,symmetry,gNihgm96RTMkjDgo8iwMVkvpJ972,symmetry-judgement-task,128,741019,0.0-46.0-4.0-1.0-1.0-6.0,,,,,,,,,,1.0,1.0,,,,5e3da76a9e51f801298c7510,19:56:27,03/04/2024
,"<div style=""font-size: 10rem; color: #0000FF"">J</div>",,ospan,letter,gNihgm96RTMkjDgo8iwMVkvpJ972,html-keyboard-response,129,742022,0.0-46.0-4.0-1.0-1.0-7.0,,,,,,,,,,,,,,,5e3da76a9e51f801298c7510,19:56:27,03/04/2024
1206.0,,,ospan,symmetry,gNihgm96RTMkjDgo8iwMVkvpJ972,symmetry-judgement-task,130,745107,0.0-46.0-4.0-1.0-1.0-8.0,,,,,,,,,,1.0,1.0,,,,5e3da76a9e51f801298c7510,19:56:27,03/04/2024
,"<div style=""font-size: 10rem; color: #0000FF"">H</div>",,ospan,letter,gNihgm96RTMkjDgo8iwMVkvpJ972,html-keyboard-response,131,746112,0.0-46.0-4.0-1.0-1.0-9.0,,,,,,,,,,,,,,,5e3da76a9e51f801298c7510,19:56:27,03/04/2024
7380.300000011921,"<div class = numbox><p style=""font-size: 2.4rem"">Please recall the letters you saw to the best of your ability. If you do not remember a particular letter, use the SKIP button.<br><b>(When you are ready to lock in your answer, press ENTER)</b></p><button id = button_1 class = ""square num-button"" onclick = ""recordClick(this)""><div class = content><div class = numbers>C</div></div></button><button id = button_2 class = ""square num-button"" onclick = ""recordClick(this)""><div class = content><div class = numbers>G</div></div></button><button id = button_3 class = ""square num-button"" onclick = ""recordClick(this)""><div class = content><div class = numbers>H</div></div></button><button id = button_4 class = ""square num-button"" onclick = ""recordClick(this)""><div class = content><div class = numbers>J</div></div></button><button id = button_5 class = ""square num-button"" onclick = ""recordClick(this)""><div class = content><div class = numbers>K</div></div></button><button id = button_6 class = ""square num-button"" onclick = ""recordClick(this)""><div class = content><div class = numbers>L</div></div></button><button id = button_7 class = ""square num-button"" onclick = ""recordClick(this)""><div class = content><div class = numbers>N</div></div></button><button id = button_8 class = ""square num-button"" onclick = ""recordClick(this)""><div class = content><div class = numbers>P</div></div></button><button id = button_9 class = ""square num-button"" onclick = ""recordClick(this)""><div class = content><div class = numbers>Q</div></div></button><button id = button_10 class = ""square num-button"" onclick = ""recordClick(this)""><div class = content><div class = numbers>R</div></div></button><button id = button_11 class = ""square num-button"" onclick = ""recordClick(this)""><div class = content><div class = numbers>S</div></div></button><button id = button_12 class = ""square num-button"" onclick = ""recordClick(this)""><div class = content><div class = numbers>Y</div></div></button><button class = clear_button id = ""ClearButton"" onclick = ""clearResponse()"">BACKSPACE</button><button class = blank_button id = ""BlankButton"" onclick = ""blankResponse()"">SKIP</button><p style=""font-size: 2.4rem""><u><b>Current Answer:</b></u></p><br><br><div id=echoed_txt style=""font-size: 5rem; color:blue;""><b></b></div></div>",enter,ospan,retrieval,gNihgm96RTMkjDgo8iwMVkvpJ972,html-keyboard-response,132,754244,0.0-46.0-4.0-1.0-2.0,12,12,12,5.0,"[""Y"",""L"",""G"",""J"",""H""]","[""Y"",""L"",""G"",""J"",""H""]",1.0,5.0,,,,,,,5e3da76a9e51f801298c7510,19:56:27,03/04/2024
1265.5,[''],0,ospan,feedback,gNihgm96RTMkjDgo8iwMVkvpJ972,html-button-response,133,756016,0.0-46.0-4.0-1.0-3.0,,,,,,,,,,,,100.0,0.0,,5e3da76a9e51f801298c7510,19:56:27,03/04/2024
,"<p style=""font-size:75px;"">...</p>",,ospan,iti,gNihgm96RTMkjDgo8iwMVkvpJ972,html-keyboard-response,134,757020,0.0-46.0-4.0-2.0-0.0,,,,,,,,,,,,,,,5e3da76a9e51f801298c7510,19:56:27,03/04/2024
1686.0,,,ospan,symmetry,gNihgm96RTMkjDgo8iwMVkvpJ972,symmetry-judgement-task,135,759754,0.0-46.0-4.0-2.0-1.0-0.0,,,,,,,,,,1.0,1.0,,,,5e3da76a9e51f801298c7510,19:56:27,03/04/2024
,"<div style=""font-size: 10rem; color: #0000FF"">P</div>",,ospan,letter,gNihgm96RTMkjDgo8iwMVkvpJ972,html-keyboard-response,136,760757,0.0-46.0-4.0-2.0-1.0-1.0,,,,,,,,,,,,,,,5e3da76a9e51f801298c7510,19:56:27,03/04/2024
1400.0,,,ospan,symmetry,gNihgm96RTMkjDgo8iwMVkvpJ972,symmetry-judgement-task,137,764035,0.0-46.0-4.0-2.0-1.0-2.0,,,,,,,,,,1.0,1.0,,,,5e3da76a9e51f801298c7510,19:56:27,03/04/2024
,"<div style=""font-size: 10rem; color: #0000FF"">N</div>",,ospan,letter,gNihgm96RTMkjDgo8iwMVkvpJ972,html-keyboard-response,138,765040,0.0-46.0-4.0-2.0-1.0-3.0,,,,,,,,,,,,,,,5e3da76a9e51f801298c7510,19:56:27,03/04/2024
1255.0,,,ospan,symmetry,gNihgm96RTMkjDgo8iwMVkvpJ972,symmetry-judgement-task,139,768171,0.0-46.0-4.0-2.0-1.0-4.0,,,,,,,,,,1.0,1.0,,,,5e3da76a9e51f801298c7510,19:56:27,03/04/2024
,"<div style=""font-size: 10rem; color: #0000FF"">C</div>",,ospan,letter,gNihgm96RTMkjDgo8iwMVkvpJ972,html-keyboard-response,140,769176,0.0-46.0-4.0-2.0-1.0-5.0,,,,,,,,,,,,,,,5e3da76a9e51f801298c7510,19:56:27,03/04/2024
3870.300000011921,"<div class = numbox><p style=""font-size: 2.4rem"">Please recall the letters you saw to the best of your ability. If you do not remember a particular letter, use the SKIP button.<br><b>(When you are ready to lock in your answer, press ENTER)</b></p><button id = button_1 class = ""square num-button"" onclick = ""recordClick(this)""><div class = content><div class = numbers>C</div></div></button><button id = button_2 class = ""square num-button"" onclick = ""recordClick(this)""><div class = content><div class = numbers>G</div></div></button><button id = button_3 class = ""square num-button"" onclick = ""recordClick(this)""><div class = content><div class = numbers>H</div></div></button><button id = button_4 class = ""square num-button"" onclick = ""recordClick(this)""><div class = content><div class = numbers>J</div></div></button><button id = button_5 class = ""square num-button"" onclick = ""recordClick(this)""><div class = content><div class = numbers>K</div></div></button><button id = button_6 class = ""square num-button"" onclick = ""recordClick(this)""><div class = content><div class = numbers>L</div></div></button><button id = button_7 class = ""square num-button"" onclick = ""recordClick(this)""><div class = content><div class = numbers>N</div></div></button><button id = button_8 class = ""square num-button"" onclick = ""recordClick(this)""><div class = content><div class = numbers>P</div></div></button><button id = button_9 class = ""square num-button"" onclick = ""recordClick(this)""><div class = content><div class = numbers>Q</div></div></button><button id = button_10 class = ""square num-button"" onclick = ""recordClick(this)""><div class = content><div class = numbers>R</div></div></button><button id = button_11 class = ""square num-button"" onclick = ""recordClick(this)""><div class = content><div class = numbers>S</div></div></button><button id = button_12 class = ""square num-button"" onclick = ""recordClick(this)""><div class = content><div class = numbers>Y</div></div></button><button class = clear_button id = ""ClearButton"" onclick = ""clearResponse()"">BACKSPACE</button><button class = blank_button id = ""BlankButton"" onclick = ""blankResponse()"">SKIP</button><p style=""font-size: 2.4rem""><u><b>Current Answer:</b></u></p><br><br><div id=echoed_txt style=""font-size: 5rem; color:blue;""><b></b></div></div>",enter,ospan,retrieval,gNihgm96RTMkjDgo8iwMVkvpJ972,html-keyboard-response,141,773805,0.0-46.0-4.0-2.0-2.0,15,15,15,3.0,"[""P"",""N"",""C""]","[""P"",""N"",""C""]",1.0,3.0,,,,,,,5e3da76a9e51f801298c7510,19:56:27,03/04/2024
824.5,[''],0,ospan,feedback,gNihgm96RTMkjDgo8iwMVkvpJ972,html-button-response,142,775133,0.0-46.0-4.0-2.0-3.0,,,,,,,,,,,,100.0,0.0,,5e3da76a9e51f801298c7510,19:56:27,03/04/2024
,"<p style=""font-size:75px;"">...</p>",,ospan,iti,gNihgm96RTMkjDgo8iwMVkvpJ972,html-keyboard-response,143,776136,0.0-46.0-5.0-0.0-0.0,,,,,,,,,,,,,,,5e3da76a9e51f801298c7510,19:56:27,03/04/2024
1454.0,,,ospan,symmetry,gNihgm96RTMkjDgo8iwMVkvpJ972,symmetry-judgement-task,144,778708,0.0-46.0-5.0-0.0-1.0-0.0,,,,,,,,,,1.0,1.0,,,,5e3da76a9e51f801298c7510,19:56:27,03/04/2024
,"<div style=""font-size: 10rem; color: #0000FF"">Q</div>",,ospan,letter,gNihgm96RTMkjDgo8iwMVkvpJ972,html-keyboard-response,145,779716,0.0-46.0-5.0-0.0-1.0-1.0,,,,,,,,,,,,,,,5e3da76a9e51f801298c7510,19:56:27,03/04/2024
1463.0,,,ospan,symmetry,gNihgm96RTMkjDgo8iwMVkvpJ972,symmetry-judgement-task,146,783051,0.0-46.0-5.0-0.0-1.0-2.0,,,,,,,,,,1.0,1.0,,,,5e3da76a9e51f801298c7510,19:56:27,03/04/2024
,"<div style=""font-size: 10rem; color: #0000FF"">S</div>",,ospan,letter,gNihgm96RTMkjDgo8iwMVkvpJ972,html-keyboard-response,147,784058,0.0-46.0-5.0-0.0-1.0-3.0,,,,,,,,,,,,,,,5e3da76a9e51f801298c7510,19:56:27,03/04/2024
1273.0,,,ospan,symmetry,gNihgm96RTMkjDgo8iwMVkvpJ972,symmetry-judgement-task,148,787207,0.0-46.0-5.0-0.0-1.0-4.0,,,,,,,,,,1.0,1.0,,,,5e3da76a9e51f801298c7510,19:56:27,03/04/2024
,"<div style=""font-size: 10rem; color: #0000FF"">J</div>",,ospan,letter,gNihgm96RTMkjDgo8iwMVkvpJ972,html-keyboard-response,149,788210,0.0-46.0-5.0-0.0-1.0-5.0,,,,,,,,,,,,,,,5e3da76a9e51f801298c7510,19:56:27,03/04/2024
1405.0,,,ospan,symmetry,gNihgm96RTMkjDgo8iwMVkvpJ972,symmetry-judgement-task,150,791488,0.0-46.0-5.0-0.0-1.0-6.0,,,,,,,,,,1.0,1.0,,,,5e3da76a9e51f801298c7510,19:56:27,03/04/2024
,"<div style=""font-size: 10rem; color: #0000FF"">R</div>",,ospan,letter,gNihgm96RTMkjDgo8iwMVkvpJ972,html-keyboard-response,151,792493,0.0-46.0-5.0-0.0-1.0-7.0,,,,,,,,,,,,,,,5e3da76a9e51f801298c7510,19:56:27,03/04/2024
1485.0,,,ospan,symmetry,gNihgm96RTMkjDgo8iwMVkvpJ972,symmetry-judgement-task,152,795856,0.0-46.0-5.0-0.0-1.0-8.0,,,,,,,,,,1.0,1.0,,,,5e3da76a9e51f801298c7510,19:56:27,03/04/2024
,"<div style=""font-size: 10rem; color: #0000FF"">G</div>",,ospan,letter,gNihgm96RTMkjDgo8iwMVkvpJ972,html-keyboard-response,153,796859,0.0-46.0-5.0-0.0-1.0-9.0,,,,,,,,,,,,,,,5e3da76a9e51f801298c7510,19:56:27,03/04/2024
2082.0,,,ospan,symmetry,gNihgm96RTMkjDgo8iwMVkvpJ972,symmetry-judgement-task,154,800820,0.0-46.0-5.0-0.0-1.0-10.0,,,,,,,,,,1.0,1.0,,,,5e3da76a9e51f801298c7510,19:56:27,03/04/2024
,"<div style=""font-size: 10rem; color: #0000FF"">H</div>",,ospan,letter,gNihgm96RTMkjDgo8iwMVkvpJ972,html-keyboard-response,155,801824,0.0-46.0-5.0-0.0-1.0-11.0,,,,,,,,,,,,,,,5e3da76a9e51f801298c7510,19:56:27,03/04/2024
10841.399999976158,"<div class = numbox><p style=""font-size: 2.4rem"">Please recall the letters you saw to the best of your ability. If you do not remember a particular letter, use the SKIP button.<br><b>(When you are ready to lock in your answer, press ENTER)</b></p><button id = button_1 class = ""square num-button"" onclick = ""recordClick(this)""><div class = content><div class = numbers>C</div></div></button><button id = button_2 class = ""square num-button"" onclick = ""recordClick(this)""><div class = content><div class = numbers>G</div></div></button><button id = button_3 class = ""square num-button"" onclick = ""recordClick(this)""><div class = content><div class = numbers>H</div></div></button><button id = button_4 class = ""square num-button"" onclick = ""recordClick(this)""><div class = content><div class = numbers>J</div></div></button><button id = button_5 class = ""square num-button"" onclick = ""recordClick(this)""><div class = content><div class = numbers>K</div></div></button><button id = button_6 class = ""square num-button"" onclick = ""recordClick(this)""><div class = content><div class = numbers>L</div></div></button><button id = button_7 class = ""square num-button"" onclick = ""recordClick(this)""><div class = content><div class = numbers>N</div></div></button><button id = button_8 class = ""square num-button"" onclick = ""recordClick(this)""><div class = content><div class = numbers>P</div></div></button><button id = button_9 class = ""square num-button"" onclick = ""recordClick(this)""><div class = content><div class = numbers>Q</div></div></button><button id = button_10 class = ""square num-button"" onclick = ""recordClick(this)""><div class = content><div class = numbers>R</div></div></button><button id = button_11 class = ""square num-button"" onclick = ""recordClick(this)""><div class = content><div class = numbers>S</div></div></button><button id = button_12 class = ""square num-button"" onclick = ""recordClick(this)""><div class = content><div class = numbers>Y</div></div></button><button class = clear_button id = ""ClearButton"" onclick = ""clearResponse()"">BACKSPACE</button><button class = blank_button id = ""BlankButton"" onclick = ""blankResponse()"">SKIP</button><p style=""font-size: 2.4rem""><u><b>Current Answer:</b></u></p><br><br><div id=echoed_txt style=""font-size: 5rem; color:blue;""><b></b></div></div>",enter,ospan,retrieval,gNihgm96RTMkjDgo8iwMVkvpJ972,html-keyboard-response,156,813425,0.0-46.0-5.0-0.0-2.0,21,19,15,6.0,"[""Q"",""S"",""G"",""R"",""C"",""H""]","[""Q"",""S"",""J"",""R"",""G"",""H""]",0.0,4.0,,,,,,,5e3da76a9e51f801298c7510,19:56:27,03/04/2024
1219.7999999523163,[''],0,ospan,feedback,gNihgm96RTMkjDgo8iwMVkvpJ972,html-button-response,157,815150,0.0-46.0-5.0-0.0-3.0,,,,,,,,,,,,100.0,0.0,,5e3da76a9e51f801298c7510,19:56:27,03/04/2024
,"<p style=""font-size:75px;"">...</p>",,ospan,iti,gNihgm96RTMkjDgo8iwMVkvpJ972,html-keyboard-response,158,816153,0.0-46.0-5.0-1.0-0.0,,,,,,,,,,,,,,,5e3da76a9e51f801298c7510,19:56:27,03/04/2024
1509.0,,,ospan,symmetry,gNihgm96RTMkjDgo8iwMVkvpJ972,symmetry-judgement-task,159,818707,0.0-46.0-5.0-1.0-1.0-0.0,,,,,,,,,,1.0,1.0,,,,5e3da76a9e51f801298c7510,19:56:27,03/04/2024
,"<div style=""font-size: 10rem; color: #0000FF"">C</div>",,ospan,letter,gNihgm96RTMkjDgo8iwMVkvpJ972,html-keyboard-response,160,819714,0.0-46.0-5.0-1.0-1.0-1.0,,,,,,,,,,,,,,,5e3da76a9e51f801298c7510,19:56:27,03/04/2024
1308.0,,,ospan,symmetry,gNihgm96RTMkjDgo8iwMVkvpJ972,symmetry-judgement-task,161,822906,0.0-46.0-5.0-1.0-1.0-2.0,,,,,,,,,,1.0,1.0,,,,5e3da76a9e51f801298c7510,19:56:27,03/04/2024
,"<div style=""font-size: 10rem; color: #0000FF"">H</div>",,ospan,letter,gNihgm96RTMkjDgo8iwMVkvpJ972,html-keyboard-response,162,823913,0.0-46.0-5.0-1.0-1.0-3.0,,,,,,,,,,,,,,,5e3da76a9e51f801298c7510,19:56:27,03/04/2024
1202.0,,,ospan,symmetry,gNihgm96RTMkjDgo8iwMVkvpJ972,symmetry-judgement-task,163,826991,0.0-46.0-5.0-1.0-1.0-4.0,,,,,,,,,,1.0,1.0,,,,5e3da76a9e51f801298c7510,19:56:27,03/04/2024
,"<div style=""font-size: 10rem; color: #0000FF"">J</div>",,ospan,letter,gNihgm96RTMkjDgo8iwMVkvpJ972,html-keyboard-response,164,827996,0.0-46.0-5.0-1.0-1.0-5.0,,,,,,,,,,,,,,,5e3da76a9e51f801298c7510,19:56:27,03/04/2024
1185.0,,,ospan,symmetry,gNihgm96RTMkjDgo8iwMVkvpJ972,symmetry-judgement-task,165,831054,0.0-46.0-5.0-1.0-1.0-6.0,,,,,,,,,,1.0,1.0,,,,5e3da76a9e51f801298c7510,19:56:27,03/04/2024
,"<div style=""font-size: 10rem; color: #0000FF"">Q</div>",,ospan,letter,gNihgm96RTMkjDgo8iwMVkvpJ972,html-keyboard-response,166,832061,0.0-46.0-5.0-1.0-1.0-7.0,,,,,,,,,,,,,,,5e3da76a9e51f801298c7510,19:56:27,03/04/2024
1581.0,,,ospan,symmetry,gNihgm96RTMkjDgo8iwMVkvpJ972,symmetry-judgement-task,167,835520,0.0-46.0-5.0-1.0-1.0-8.0,,,,,,,,,,1.0,1.0,,,,5e3da76a9e51f801298c7510,19:56:27,03/04/2024
,"<div style=""font-size: 10rem; color: #0000FF"">N</div>",,ospan,letter,gNihgm96RTMkjDgo8iwMVkvpJ972,html-keyboard-response,168,836525,0.0-46.0-5.0-1.0-1.0-9.0,,,,,,,,,,,,,,,5e3da76a9e51f801298c7510,19:56:27,03/04/2024
1417.0,,,ospan,symmetry,gNihgm96RTMkjDgo8iwMVkvpJ972,symmetry-judgement-task,169,839823,0.0-46.0-5.0-1.0-1.0-10.0,,,,,,,,,,1.0,1.0,,,,5e3da76a9e51f801298c7510,19:56:27,03/04/2024
,"<div style=""font-size: 10rem; color: #0000FF"">P</div>",,ospan,letter,gNihgm96RTMkjDgo8iwMVkvpJ972,html-keyboard-response,170,840830,0.0-46.0-5.0-1.0-1.0-11.0,,,,,,,,,,,,,,,5e3da76a9e51f801298c7510,19:56:27,03/04/2024
2067.0,,,ospan,symmetry,gNihgm96RTMkjDgo8iwMVkvpJ972,symmetry-judgement-task,171,844770,0.0-46.0-5.0-1.0-1.0-12.0,,,,,,,,,,1.0,1.0,,,,5e3da76a9e51f801298c7510,19:56:27,03/04/2024
,"<div style=""font-size: 10rem; color: #0000FF"">K</div>",,ospan,letter,gNihgm96RTMkjDgo8iwMVkvpJ972,html-keyboard-response,172,845780,0.0-46.0-5.0-1.0-1.0-13.0,,,,,,,,,,,,,,,5e3da76a9e51f801298c7510,19:56:27,03/04/2024
7973.800000011921,"<div class = numbox><p style=""font-size: 2.4rem"">Please recall the letters you saw to the best of your ability. If you do not remember a particular letter, use the SKIP button.<br><b>(When you are ready to lock in your answer, press ENTER)</b></p><button id = button_1 class = ""square num-button"" onclick = ""recordClick(this)""><div class = content><div class = numbers>C</div></div></button><button id = button_2 class = ""square num-button"" onclick = ""recordClick(this)""><div class = content><div class = numbers>G</div></div></button><button id = button_3 class = ""square num-button"" onclick = ""recordClick(this)""><div class = content><div class = numbers>H</div></div></button><button id = button_4 class = ""square num-button"" onclick = ""recordClick(this)""><div class = content><div class = numbers>J</div></div></button><button id = button_5 class = ""square num-button"" onclick = ""recordClick(this)""><div class = content><div class = numbers>K</div></div></button><button id = button_6 class = ""square num-button"" onclick = ""recordClick(this)""><div class = content><div class = numbers>L</div></div></button><button id = button_7 class = ""square num-button"" onclick = ""recordClick(this)""><div class = content><div class = numbers>N</div></div></button><button id = button_8 class = ""square num-button"" onclick = ""recordClick(this)""><div class = content><div class = numbers>P</div></div></button><button id = button_9 class = ""square num-button"" onclick = ""recordClick(this)""><div class = content><div class = numbers>Q</div></div></button><button id = button_10 class = ""square num-button"" onclick = ""recordClick(this)""><div class = content><div class = numbers>R</div></div></button><button id = button_11 class = ""square num-button"" onclick = ""recordClick(this)""><div class = content><div class = numbers>S</div></div></button><button id = button_12 class = ""square num-button"" onclick = ""recordClick(this)""><div class = content><div class = numbers>Y</div></div></button><button class = clear_button id = ""ClearButton"" onclick = ""clearResponse()"">BACKSPACE</button><button class = blank_button id = ""BlankButton"" onclick = ""blankResponse()"">SKIP</button><p style=""font-size: 2.4rem""><u><b>Current Answer:</b></u></p><br><br><div id=echoed_txt style=""font-size: 5rem; color:blue;""><b></b></div></div>",enter,ospan,retrieval,gNihgm96RTMkjDgo8iwMVkvpJ972,html-keyboard-response,173,854509,0.0-46.0-5.0-1.0-2.0,28,26,22,7.0,"[""C"",""H"",""J"",""Q"",""N"",""P"",""K""]","[""C"",""H"",""J"",""Q"",""N"",""P"",""K""]",1.0,7.0,,,,,,,5e3da76a9e51f801298c7510,19:56:27,03/04/2024
953.4000000357628,[''],0,ospan,feedback,gNihgm96RTMkjDgo8iwMVkvpJ972,html-button-response,174,855966,0.0-46.0-5.0-1.0-3.0,,,,,,,,,,,,100.0,0.0,,5e3da76a9e51f801298c7510,19:56:27,03/04/2024
,"<p style=""font-size:75px;"">...</p>",,ospan,iti,gNihgm96RTMkjDgo8iwMVkvpJ972,html-keyboard-response,175,856969,0.0-46.0-6.0-0.0-0.0,,,,,,,,,,,,,,,5e3da76a9e51f801298c7510,19:56:27,03/04/2024
1382.0,,,ospan,symmetry,gNihgm96RTMkjDgo8iwMVkvpJ972,symmetry-judgement-task,176,859473,0.0-46.0-6.0-0.0-1.0-0.0,,,,,,,,,,1.0,1.0,,,,5e3da76a9e51f801298c7510,19:56:27,03/04/2024
,"<div style=""font-size: 10rem; color: #0000FF"">G</div>",,ospan,letter,gNihgm96RTMkjDgo8iwMVkvpJ972,html-keyboard-response,177,860480,0.0-46.0-6.0-0.0-1.0-1.0,,,,,,,,,,,,,,,5e3da76a9e51f801298c7510,19:56:27,03/04/2024
1615.0,,,ospan,symmetry,gNihgm96RTMkjDgo8iwMVkvpJ972,symmetry-judgement-task,178,863973,0.0-46.0-6.0-0.0-1.0-2.0,,,,,,,,,,1.0,1.0,,,,5e3da76a9e51f801298c7510,19:56:27,03/04/2024
,"<div style=""font-size: 10rem; color: #0000FF"">Q</div>",,ospan,letter,gNihgm96RTMkjDgo8iwMVkvpJ972,html-keyboard-response,179,864981,0.0-46.0-6.0-0.0-1.0-3.0,,,,,,,,,,,,,,,5e3da76a9e51f801298c7510,19:56:27,03/04/2024
2512.0,,,ospan,symmetry,gNihgm96RTMkjDgo8iwMVkvpJ972,symmetry-judgement-task,180,869373,0.0-46.0-6.0-0.0-1.0-4.0,,,,,,,,,,1.0,1.0,,,,5e3da76a9e51f801298c7510,19:56:27,03/04/2024
,"<div style=""font-size: 10rem; color: #0000FF"">S</div>",,ospan,letter,gNihgm96RTMkjDgo8iwMVkvpJ972,html-keyboard-response,181,870380,0.0-46.0-6.0-0.0-1.0-5.0,,,,,,,,,,,,,,,5e3da76a9e51f801298c7510,19:56:27,03/04/2024
2330.0,,,ospan,symmetry,gNihgm96RTMkjDgo8iwMVkvpJ972,symmetry-judgement-task,182,874590,0.0-46.0-6.0-0.0-1.0-6.0,,,,,,,,,,1.0,1.0,,,,5e3da76a9e51f801298c7510,19:56:27,03/04/2024
,"<div style=""font-size: 10rem; color: #0000FF"">Y</div>",,ospan,letter,gNihgm96RTMkjDgo8iwMVkvpJ972,html-keyboard-response,183,875594,0.0-46.0-6.0-0.0-1.0-7.0,,,,,,,,,,,,,,,5e3da76a9e51f801298c7510,19:56:27,03/04/2024
1867.0,,,ospan,symmetry,gNihgm96RTMkjDgo8iwMVkvpJ972,symmetry-judgement-task,184,879339,0.0-46.0-6.0-0.0-1.0-8.0,,,,,,,,,,1.0,1.0,,,,5e3da76a9e51f801298c7510,19:56:27,03/04/2024
,"<div style=""font-size: 10rem; color: #0000FF"">R</div>",,ospan,letter,gNihgm96RTMkjDgo8iwMVkvpJ972,html-keyboard-response,185,880345,0.0-46.0-6.0-0.0-1.0-9.0,,,,,,,,,,,,,,,5e3da76a9e51f801298c7510,19:56:27,03/04/2024
5860.300000011921,"<div class = numbox><p style=""font-size: 2.4rem"">Please recall the letters you saw to the best of your ability. If you do not remember a particular letter, use the SKIP button.<br><b>(When you are ready to lock in your answer, press ENTER)</b></p><button id = button_1 class = ""square num-button"" onclick = ""recordClick(this)""><div class = content><div class = numbers>C</div></div></button><button id = button_2 class = ""square num-button"" onclick = ""recordClick(this)""><div class = content><div class = numbers>G</div></div></button><button id = button_3 class = ""square num-button"" onclick = ""recordClick(this)""><div class = content><div class = numbers>H</div></div></button><button id = button_4 class = ""square num-button"" onclick = ""recordClick(this)""><div class = content><div class = numbers>J</div></div></button><button id = button_5 class = ""square num-button"" onclick = ""recordClick(this)""><div class = content><div class = numbers>K</div></div></button><button id = button_6 class = ""square num-button"" onclick = ""recordClick(this)""><div class = content><div class = numbers>L</div></div></button><button id = button_7 class = ""square num-button"" onclick = ""recordClick(this)""><div class = content><div class = numbers>N</div></div></button><button id = button_8 class = ""square num-button"" onclick = ""recordClick(this)""><div class = content><div class = numbers>P</div></div></button><button id = button_9 class = ""square num-button"" onclick = ""recordClick(this)""><div class = content><div class = numbers>Q</div></div></button><button id = button_10 class = ""square num-button"" onclick = ""recordClick(this)""><div class = content><div class = numbers>R</div></div></button><button id = button_11 class = ""square num-button"" onclick = ""recordClick(this)""><div class = content><div class = numbers>S</div></div></button><button id = button_12 class = ""square num-button"" onclick = ""recordClick(this)""><div class = content><div class = numbers>Y</div></div></button><button class = clear_button id = ""ClearButton"" onclick = ""clearResponse()"">BACKSPACE</button><button class = blank_button id = ""BlankButton"" onclick = ""blankResponse()"">SKIP</button><p style=""font-size: 2.4rem""><u><b>Current Answer:</b></u></p><br><br><div id=echoed_txt style=""font-size: 5rem; color:blue;""><b></b></div></div>",enter,ospan,retrieval,gNihgm96RTMkjDgo8iwMVkvpJ972,html-keyboard-response,186,886962,0.0-46.0-6.0-0.0-2.0,33,31,27,5.0,"[""G"",""Q"",""S"",""Y"",""R""]","[""G"",""Q"",""S"",""Y"",""R""]",1.0,5.0,,,,,,,5e3da76a9e51f801298c7510,19:56:27,03/04/2024
1020.3000000119209,[''],0,ospan,feedback,gNihgm96RTMkjDgo8iwMVkvpJ972,html-button-response,187,888487,0.0-46.0-6.0-0.0-3.0,,,,,,,,,,,,100.0,0.0,,5e3da76a9e51f801298c7510,19:56:27,03/04/2024
,"<p style=""font-size:75px;"">...</p>",,ospan,iti,gNihgm96RTMkjDgo8iwMVkvpJ972,html-keyboard-response,188,889496,0.0-46.0-6.0-1.0-0.0,,,,,,,,,,,,,,,5e3da76a9e51f801298c7510,19:56:27,03/04/2024
1673.0,,,ospan,symmetry,gNihgm96RTMkjDgo8iwMVkvpJ972,symmetry-judgement-task,189,892223,0.0-46.0-6.0-1.0-1.0-0.0,,,,,,,,,,1.0,1.0,,,,5e3da76a9e51f801298c7510,19:56:27,03/04/2024
,"<div style=""font-size: 10rem; color: #0000FF"">J</div>",,ospan,letter,gNihgm96RTMkjDgo8iwMVkvpJ972,html-keyboard-response,190,893229,0.0-46.0-6.0-1.0-1.0-1.0,,,,,,,,,,,,,,,5e3da76a9e51f801298c7510,19:56:27,03/04/2024
1184.0,,,ospan,symmetry,gNihgm96RTMkjDgo8iwMVkvpJ972,symmetry-judgement-task,191,896289,0.0-46.0-6.0-1.0-1.0-2.0,,,,,,,,,,1.0,1.0,,,,5e3da76a9e51f801298c7510,19:56:27,03/04/2024
,"<div style=""font-size: 10rem; color: #0000FF"">P</div>",,ospan,letter,gNihgm96RTMkjDgo8iwMVkvpJ972,html-keyboard-response,192,897297,0.0-46.0-6.0-1.0-1.0-3.0,,,,,,,,,,,,,,,5e3da76a9e51f801298c7510,19:56:27,03/04/2024
1231.0,,,ospan,symmetry,gNihgm96RTMkjDgo8iwMVkvpJ972,symmetry-judgement-task,193,900405,0.0-46.0-6.0-1.0-1.0-4.0,,,,,,,,,,1.0,1.0,,,,5e3da76a9e51f801298c7510,19:56:27,03/04/2024
,"<div style=""font-size: 10rem; color: #0000FF"">Q</div>",,ospan,letter,gNihgm96RTMkjDgo8iwMVkvpJ972,html-keyboard-response,194,901413,0.0-46.0-6.0-1.0-1.0-5.0,,,,,,,,,,,,,,,5e3da76a9e51f801298c7510,19:56:27,03/04/2024
1346.0,,,ospan,symmetry,gNihgm96RTMkjDgo8iwMVkvpJ972,symmetry-judgement-task,195,904638,0.0-46.0-6.0-1.0-1.0-6.0,,,,,,,,,,1.0,1.0,,,,5e3da76a9e51f801298c7510,19:56:27,03/04/2024
,"<div style=""font-size: 10rem; color: #0000FF"">R</div>",,ospan,letter,gNihgm96RTMkjDgo8iwMVkvpJ972,html-keyboard-response,196,905641,0.0-46.0-6.0-1.0-1.0-7.0,,,,,,,,,,,,,,,5e3da76a9e51f801298c7510,19:56:27,03/04/2024
1433.0,,,ospan,symmetry,gNihgm96RTMkjDgo8iwMVkvpJ972,symmetry-judgement-task,197,908951,0.0-46.0-6.0-1.0-1.0-8.0,,,,,,,,,,1.0,1.0,,,,5e3da76a9e51f801298c7510,19:56:27,03/04/2024
,"<div style=""font-size: 10rem; color: #0000FF"">N</div>",,ospan,letter,gNihgm96RTMkjDgo8iwMVkvpJ972,html-keyboard-response,198,909954,0.0-46.0-6.0-1.0-1.0-9.0,,,,,,,,,,,,,,,5e3da76a9e51f801298c7510,19:56:27,03/04/2024
1239.0,,,ospan,symmetry,gNihgm96RTMkjDgo8iwMVkvpJ972,symmetry-judgement-task,199,913073,0.0-46.0-6.0-1.0-1.0-10.0,,,,,,,,,,1.0,1.0,,,,5e3da76a9e51f801298c7510,19:56:27,03/04/2024
,"<div style=""font-size: 10rem; color: #0000FF"">L</div>",,ospan,letter,gNihgm96RTMkjDgo8iwMVkvpJ972,html-keyboard-response,200,914082,0.0-46.0-6.0-1.0-1.0-11.0,,,,,,,,,,,,,,,5e3da76a9e51f801298c7510,19:56:27,03/04/2024
1293.0,,,ospan,symmetry,gNihgm96RTMkjDgo8iwMVkvpJ972,symmetry-judgement-task,201,917254,0.0-46.0-6.0-1.0-1.0-12.0,,,,,,,,,,1.0,1.0,,,,5e3da76a9e51f801298c7510,19:56:27,03/04/2024
,"<div style=""font-size: 10rem; color: #0000FF"">C</div>",,ospan,letter,gNihgm96RTMkjDgo8iwMVkvpJ972,html-keyboard-response,202,918261,0.0-46.0-6.0-1.0-1.0-13.0,,,,,,,,,,,,,,,5e3da76a9e51f801298c7510,19:56:27,03/04/2024
2313.0,,,ospan,symmetry,gNihgm96RTMkjDgo8iwMVkvpJ972,symmetry-judgement-task,203,922456,0.0-46.0-6.0-1.0-1.0-14.0,,,,,,,,,,1.0,1.0,,,,5e3da76a9e51f801298c7510,19:56:27,03/04/2024
,"<div style=""font-size: 10rem; color: #0000FF"">S</div>",,ospan,letter,gNihgm96RTMkjDgo8iwMVkvpJ972,html-keyboard-response,204,923459,0.0-46.0-6.0-1.0-1.0-15.0,,,,,,,,,,,,,,,5e3da76a9e51f801298c7510,19:56:27,03/04/2024
8480.199999988079,"<div class = numbox><p style=""font-size: 2.4rem"">Please recall the letters you saw to the best of your ability. If you do not remember a particular letter, use the SKIP button.<br><b>(When you are ready to lock in your answer, press ENTER)</b></p><button id = button_1 class = ""square num-button"" onclick = ""recordClick(this)""><div class = content><div class = numbers>C</div></div></button><button id = button_2 class = ""square num-button"" onclick = ""recordClick(this)""><div class = content><div class = numbers>G</div></div></button><button id = button_3 class = ""square num-button"" onclick = ""recordClick(this)""><div class = content><div class = numbers>H</div></div></button><button id = button_4 class = ""square num-button"" onclick = ""recordClick(this)""><div class = content><div class = numbers>J</div></div></button><button id = button_5 class = ""square num-button"" onclick = ""recordClick(this)""><div class = content><div class = numbers>K</div></div></button><button id = button_6 class = ""square num-button"" onclick = ""recordClick(this)""><div class = content><div class = numbers>L</div></div></button><button id = button_7 class = ""square num-button"" onclick = ""recordClick(this)""><div class = content><div class = numbers>N</div></div></button><button id = button_8 class = ""square num-button"" onclick = ""recordClick(this)""><div class = content><div class = numbers>P</div></div></button><button id = button_9 class = ""square num-button"" onclick = ""recordClick(this)""><div class = content><div class = numbers>Q</div></div></button><button id = button_10 class = ""square num-button"" onclick = ""recordClick(this)""><div class = content><div class = numbers>R</div></div></button><button id = button_11 class = ""square num-button"" onclick = ""recordClick(this)""><div class = content><div class = numbers>S</div></div></button><button id = button_12 class = ""square num-button"" onclick = ""recordClick(this)""><div class = content><div class = numbers>Y</div></div></button><button class = clear_button id = ""ClearButton"" onclick = ""clearResponse()"">BACKSPACE</button><button class = blank_button id = ""BlankButton"" onclick = ""blankResponse()"">SKIP</button><p style=""font-size: 2.4rem""><u><b>Current Answer:</b></u></p><br><br><div id=echoed_txt style=""font-size: 5rem; color:blue;""><b></b></div></div>",enter,ospan,retrieval,gNihgm96RTMkjDgo8iwMVkvpJ972,html-keyboard-response,205,932694,0.0-46.0-6.0-1.0-2.0,41,37,27,8.0,"[""J"",""P"",""Q"",""R"",""L"",""N"",""C"",""S""]","[""J"",""P"",""Q"",""R"",""N"",""L"",""C"",""S""]",0.0,6.0,,,,,,,5e3da76a9e51f801298c7510,19:56:27,03/04/2024
1052.3999999761581,[''],0,ospan,feedback,gNihgm96RTMkjDgo8iwMVkvpJ972,html-button-response,206,934250,0.0-46.0-6.0-1.0-3.0,,,,,,,,,,,,100.0,0.0,,5e3da76a9e51f801298c7510,19:56:27,03/04/2024
22050.0,,"{'Q0': 'I enjoy memory challenges in general, nothing I can really think to improve upon.'}",ospan,survey_ospan,gNihgm96RTMkjDgo8iwMVkvpJ972,lmdlab-survey-text,207,957055,0.0-46.0-7.0,,,,,,,,,,,,,,gNihgm96RTMkjDgo8iwMVkvpJ972,5e3da76a9e51f801298c7510,19:56:27,03/04/2024
1205.5999999642372,<p><p style='font-size: 3rem'>Great work!<br><br>This completes the symmetry and memory task.</p><br><br><br>,0,ospan,finish,gNihgm96RTMkjDgo8iwMVkvpJ972,html-button-response,208,958267,0.0-46.0-8.0,41,37,27,,,,,,,,,100.0,,,5e3da76a9e51f801298c7510,19:56:27,03/04/2024
