rt,stimulus,response,exp_name,exp_stage,subjectID,trial_type,trial_index,time_elapsed,internal_node_id,ospan_shown,ospan_total,ospan_abs,length,resp_actual,resp_correct,full_correct,num_correct,feedback,accuracy,correct,math_acc,math_warning,databaseID,prolificID,start_time,date
1923.2999999821186,<div class = 'left_align' style='font-size: 3.25rem; line-height: 1.3;'><p class = 'center_align'><b>Welcome to the Symmetry and Memory Task</b><br><br><br><br></p>Press 'continue' to show the instructions.<br><br><br><br></div>,0,ospan,instruct,I3Zypm1ABXXTTSn9FY6dbmNIM3X2,html-button-response,51,403824,0.0-43.0-0.0-0.0-0.0,,,,,,,,,,,,,,,627a76b96bea55210aecbba9,09:48:22,05/03/2024
6968.5,"<div class = 'left_align' style='font-size: 3.25rem; line-height: 1.3;'><p class = 'center_align'><b>Symmetry and Memory Task</b><br><br></p>In this task, you will try to memorize letters you see on the screen<br>while you also view black and white grid pictures.<br><br>In the next few minutes, you will have some practice to get you familiar<br>with how the task works.<br><br>It may be difficult sometimes, but please do not worry about making mistakes!<br><br>We will begin by practicing the letter part of the task.<br><br><br><br></div>",0,ospan,instruct,I3Zypm1ABXXTTSn9FY6dbmNIM3X2,html-button-response,52,411052,0.0-43.0-0.0-0.0-1.0,,,,,,,,,,,,,,,627a76b96bea55210aecbba9,09:48:22,05/03/2024
8695.699999988079,"<div class = 'left_align' style='font-size: 3.25rem; line-height: 1.3;'>For this practice part, letters will appear on the screen one at a time.<br><br>Try to remember each letter in the order presented.<br><br>After some letters have been shown, you will see a response screen. Your<br>goal is to report the letters you saw <b>in order</b>. If you do not remember<br>a particular letter, you will have the option to leave it blank.<br><br><br><br></div>",0,ospan,instruct,I3Zypm1ABXXTTSn9FY6dbmNIM3X2,html-button-response,53,420002,0.0-43.0-0.0-0.0-2.0,,,,,,,,,,,,,,,627a76b96bea55210aecbba9,09:48:22,05/03/2024
3175.9000000059605,"<div class = 'left_align' style='font-size: 3.25rem; line-height: 1.3;'>Remember, it is very important to get the letters in the same<br>order as you see them.<br><br>When you are ready, you may begin the letter practice.</div><br><br><br><br>",0,ospan,instruct,I3Zypm1ABXXTTSn9FY6dbmNIM3X2,html-button-response,54,423434,0.0-43.0-0.0-0.0-3.0,,,,,,,,,,,,,,,627a76b96bea55210aecbba9,09:48:22,05/03/2024
,"<p style=""font-size:75px;"">...</p>",,ospan,iti,I3Zypm1ABXXTTSn9FY6dbmNIM3X2,html-keyboard-response,55,424695,0.0-43.0-0.0-1.0-0.0,,,,,,,,,,,,,,,627a76b96bea55210aecbba9,09:48:22,05/03/2024
,"<div style=""font-size: 10rem; color: #0000FF"">P</div>",,ospan,letter,I3Zypm1ABXXTTSn9FY6dbmNIM3X2,html-keyboard-response,56,425702,0.0-43.0-0.0-1.0-1.0,,,,,,,,,,,,,,,627a76b96bea55210aecbba9,09:48:22,05/03/2024
,"<div style=""font-size: 10rem; color: #0000FF"">L</div>",,ospan,letter,I3Zypm1ABXXTTSn9FY6dbmNIM3X2,html-keyboard-response,57,427463,0.0-43.0-0.0-1.0-2.0,,,,,,,,,,,,,,,627a76b96bea55210aecbba9,09:48:22,05/03/2024
5010.9000000059605,"<div class = numbox><p style=""font-size: 2.4rem"">Please recall the letters you saw to the best of your ability. If you do not remember a particular letter, use the SKIP button.<br><b>(When you are ready to lock in your answer, press ENTER)</b></p><button id = button_1 class = ""square num-button"" onclick = ""recordClick(this)""><div class = content><div class = numbers>C</div></div></button><button id = button_2 class = ""square num-button"" onclick = ""recordClick(this)""><div class = content><div class = numbers>G</div></div></button><button id = button_3 class = ""square num-button"" onclick = ""recordClick(this)""><div class = content><div class = numbers>H</div></div></button><button id = button_4 class = ""square num-button"" onclick = ""recordClick(this)""><div class = content><div class = numbers>J</div></div></button><button id = button_5 class = ""square num-button"" onclick = ""recordClick(this)""><div class = content><div class = numbers>K</div></div></button><button id = button_6 class = ""square num-button"" onclick = ""recordClick(this)""><div class = content><div class = numbers>L</div></div></button><button id = button_7 class = ""square num-button"" onclick = ""recordClick(this)""><div class = content><div class = numbers>N</div></div></button><button id = button_8 class = ""square num-button"" onclick = ""recordClick(this)""><div class = content><div class = numbers>P</div></div></button><button id = button_9 class = ""square num-button"" onclick = ""recordClick(this)""><div class = content><div class = numbers>Q</div></div></button><button id = button_10 class = ""square num-button"" onclick = ""recordClick(this)""><div class = content><div class = numbers>R</div></div></button><button id = button_11 class = ""square num-button"" onclick = ""recordClick(this)""><div class = content><div class = numbers>S</div></div></button><button id = button_12 class = ""square num-button"" onclick = ""recordClick(this)""><div class = content><div class = numbers>Y</div></div></button><button class = clear_button id = ""ClearButton"" onclick = ""clearResponse()"">BACKSPACE</button><button class = blank_button id = ""BlankButton"" onclick = ""blankResponse()"">SKIP</button><p style=""font-size: 2.4rem""><u><b>Current Answer:</b></u></p><br><br><div id=echoed_txt style=""font-size: 5rem; color:blue;""><b></b></div></div>",enter,ospan,retrieval,I3Zypm1ABXXTTSn9FY6dbmNIM3X2,html-keyboard-response,58,433232,0.0-43.0-0.0-1.0-3.0,NA,NA,NA,2.0,"[""P"",""L""]","[""P"",""L""]",1.0,2.0,"['<font color=""green"">P</font>', '<font color=""green"">L</font>']",,,,,,627a76b96bea55210aecbba9,09:48:22,05/03/2024
1040.0,"['<p style=""font-size:44px"">Letters:<br><br><br><font color=""green"">P</font> <font color=""green"">L</font></p><br><br>']",0,ospan,practice_feedback,I3Zypm1ABXXTTSn9FY6dbmNIM3X2,html-button-response,59,434778,0.0-43.0-0.0-1.0-4.0,,,,,,,,,,,,,,,627a76b96bea55210aecbba9,09:48:22,05/03/2024
,"<p style=""font-size:75px;"">...</p>",,ospan,iti,I3Zypm1ABXXTTSn9FY6dbmNIM3X2,html-keyboard-response,60,435781,0.0-43.0-0.0-2.0-0.0,,,,,,,,,,,,,,,627a76b96bea55210aecbba9,09:48:22,05/03/2024
,"<div style=""font-size: 10rem; color: #0000FF"">K</div>",,ospan,letter,I3Zypm1ABXXTTSn9FY6dbmNIM3X2,html-keyboard-response,61,436784,0.0-43.0-0.0-2.0-1.0,,,,,,,,,,,,,,,627a76b96bea55210aecbba9,09:48:22,05/03/2024
,"<div style=""font-size: 10rem; color: #0000FF"">L</div>",,ospan,letter,I3Zypm1ABXXTTSn9FY6dbmNIM3X2,html-keyboard-response,62,438549,0.0-43.0-0.0-2.0-2.0,,,,,,,,,,,,,,,627a76b96bea55210aecbba9,09:48:22,05/03/2024
,"<div style=""font-size: 10rem; color: #0000FF"">G</div>",,ospan,letter,I3Zypm1ABXXTTSn9FY6dbmNIM3X2,html-keyboard-response,63,440315,0.0-43.0-0.0-2.0-3.0,,,,,,,,,,,,,,,627a76b96bea55210aecbba9,09:48:22,05/03/2024
3594.0,"<div class = numbox><p style=""font-size: 2.4rem"">Please recall the letters you saw to the best of your ability. If you do not remember a particular letter, use the SKIP button.<br><b>(When you are ready to lock in your answer, press ENTER)</b></p><button id = button_1 class = ""square num-button"" onclick = ""recordClick(this)""><div class = content><div class = numbers>C</div></div></button><button id = button_2 class = ""square num-button"" onclick = ""recordClick(this)""><div class = content><div class = numbers>G</div></div></button><button id = button_3 class = ""square num-button"" onclick = ""recordClick(this)""><div class = content><div class = numbers>H</div></div></button><button id = button_4 class = ""square num-button"" onclick = ""recordClick(this)""><div class = content><div class = numbers>J</div></div></button><button id = button_5 class = ""square num-button"" onclick = ""recordClick(this)""><div class = content><div class = numbers>K</div></div></button><button id = button_6 class = ""square num-button"" onclick = ""recordClick(this)""><div class = content><div class = numbers>L</div></div></button><button id = button_7 class = ""square num-button"" onclick = ""recordClick(this)""><div class = content><div class = numbers>N</div></div></button><button id = button_8 class = ""square num-button"" onclick = ""recordClick(this)""><div class = content><div class = numbers>P</div></div></button><button id = button_9 class = ""square num-button"" onclick = ""recordClick(this)""><div class = content><div class = numbers>Q</div></div></button><button id = button_10 class = ""square num-button"" onclick = ""recordClick(this)""><div class = content><div class = numbers>R</div></div></button><button id = button_11 class = ""square num-button"" onclick = ""recordClick(this)""><div class = content><div class = numbers>S</div></div></button><button id = button_12 class = ""square num-button"" onclick = ""recordClick(this)""><div class = content><div class = numbers>Y</div></div></button><button class = clear_button id = ""ClearButton"" onclick = ""clearResponse()"">BACKSPACE</button><button class = blank_button id = ""BlankButton"" onclick = ""blankResponse()"">SKIP</button><p style=""font-size: 2.4rem""><u><b>Current Answer:</b></u></p><br><br><div id=echoed_txt style=""font-size: 5rem; color:blue;""><b></b></div></div>",enter,ospan,retrieval,I3Zypm1ABXXTTSn9FY6dbmNIM3X2,html-keyboard-response,64,444664,0.0-43.0-0.0-2.0-4.0,NA,NA,NA,3.0,"[""K"",""L"",""G""]","[""K"",""L"",""G""]",1.0,3.0,"['<font color=""green"">K</font>', '<font color=""green"">L</font>', '<font color=""green"">G</font>']",,,,,,627a76b96bea55210aecbba9,09:48:22,05/03/2024
885.2999999821186,"['<p style=""font-size:44px"">Letters:<br><br><br><font color=""green"">K</font> <font color=""green"">L</font> <font color=""green"">G</font></p><br><br>']",0,ospan,practice_feedback,I3Zypm1ABXXTTSn9FY6dbmNIM3X2,html-button-response,65,446062,0.0-43.0-0.0-2.0-5.0,,,,,,,,,,,,,,,627a76b96bea55210aecbba9,09:48:22,05/03/2024
11823.09999999404,"<div class = 'left_align' style='font-size: 3.25rem; line-height: 1.3;'>Now you will practice doing the <b>symmetry judgment part</b> of the experiment.<br><br>A black and white grid picture will appear on the screen and you have to judge if it is <br>symmetrical or asymetrical.<br><br>A picture is 'mirror' symmetrical if its left half is identical to the right half when flipped.<br>Here are examples of a symmetrical and an asymetrical picture:<br><br><center><img src='Stimuli/img/symm_instructions_extra.png' style='height:420px; width:900'></img></center><br>To judge symmetry, imagine you were to fold each picture down the middle, like a book –<br>would the left half match the right half when folded onto each other?<br><br></div><br>",0,ospan,instruct,I3Zypm1ABXXTTSn9FY6dbmNIM3X2,html-button-response,66,457886,0.0-43.0-1.0-0.0-0.0,,,,,,,,,,,,,,,627a76b96bea55210aecbba9,09:48:22,05/03/2024
4052.2999999821186,"<div class = 'left_align' style='font-size: 3.25rem; line-height: 1.3;'>When you have viewed the picture and determined whether it is symmetrical or not,<br>you can <b>click the Yes or No button</b> below to answer.<br><br>If you take longer than 15 seconds, it will continue automatically<br>and record the answer as an error.</div><br>",0,ospan,instruct,I3Zypm1ABXXTTSn9FY6dbmNIM3X2,html-button-response,67,462198,0.0-43.0-1.0-0.0-1.0,,,,,,,,,,,,,,,627a76b96bea55210aecbba9,09:48:22,05/03/2024
1415.0999999940395,"<div class = 'left_align' style='font-size: 3.25rem; line-height: 1.3;'>It is <b>very</b> important that you make the symmetry judgment correctly.<br><br>It is also important that you try and judge the picture as quickly as you can.<br><br>When you are ready, click on the button below to try some practice problems.</div><br><br><br><br>",0,ospan,instruct,I3Zypm1ABXXTTSn9FY6dbmNIM3X2,html-button-response,68,463868,0.0-43.0-1.0-0.0-2.0,,,,,,,,,,,,,,,627a76b96bea55210aecbba9,09:48:22,05/03/2024
4756.0,,,ospan,symmetry,I3Zypm1ABXXTTSn9FY6dbmNIM3X2,symmetry-judgement-task,69,469413,0.0-43.0-1.0-1.0-0.0,,,,,,,,,,1.0,1.0,,,,627a76b96bea55210aecbba9,09:48:22,05/03/2024
,"<p style=""color:green; font-size: 35px"">Correct</p>",,ospan,feedback,I3Zypm1ABXXTTSn9FY6dbmNIM3X2,html-keyboard-response,70,470170,0.0-43.0-1.0-1.0-1.0,,,,,,,,,,,,,,,627a76b96bea55210aecbba9,09:48:22,05/03/2024
3673.0,,,ospan,symmetry,I3Zypm1ABXXTTSn9FY6dbmNIM3X2,symmetry-judgement-task,71,476497,0.0-43.0-1.0-1.0-2.0,,,,,,,,,,1.0,1.0,,,,627a76b96bea55210aecbba9,09:48:22,05/03/2024
,"<p style=""color:green; font-size: 35px"">Correct</p>",,ospan,feedback,I3Zypm1ABXXTTSn9FY6dbmNIM3X2,html-keyboard-response,72,477255,0.0-43.0-1.0-1.0-3.0,,,,,,,,,,,,,,,627a76b96bea55210aecbba9,09:48:22,05/03/2024
1564.0,,,ospan,symmetry,I3Zypm1ABXXTTSn9FY6dbmNIM3X2,symmetry-judgement-task,73,481484,0.0-43.0-1.0-1.0-4.0,,,,,,,,,,1.0,1.0,,,,627a76b96bea55210aecbba9,09:48:22,05/03/2024
,"<p style=""color:green; font-size: 35px"">Correct</p>",,ospan,feedback,I3Zypm1ABXXTTSn9FY6dbmNIM3X2,html-keyboard-response,74,482238,0.0-43.0-1.0-1.0-5.0,,,,,,,,,,,,,,,627a76b96bea55210aecbba9,09:48:22,05/03/2024
998.2999999821186,"<p style=""font-size: 3rem;"">You responded correctly on 3 of 3 symmetry judgments. Good job!</p><br><br>",0,ospan,practice,I3Zypm1ABXXTTSn9FY6dbmNIM3X2,html-button-response,75,485244,0.0-43.0-1.0-2.0,,,,,,,,,,,,,,,627a76b96bea55210aecbba9,09:48:22,05/03/2024
16422.09999999404,"<div class = 'left_align' style='font-size: 3.25rem; line-height: 1.3;'>Now you will practice doing both parts of the experiment at the same time.<br><br>In the next practice set, you will be given one grid picture to judge.<br>Then letter will appear on the screen. Try to remember the letter.<br><br>It is <b>very important</b> to make the symmetry judgment as quickly and accurately as possible.<br><br>Just as before, once you have make the symmetry judgment, you can click Yes or No.<br><b>Note that you will no longer see Correct or Incorrect feedback.</div><br><br><br><br>",0,ospan,instruct,I3Zypm1ABXXTTSn9FY6dbmNIM3X2,html-button-response,76,501929,0.0-43.0-2.0-0.0-0.0,,,,,,,,,,,,,,,627a76b96bea55210aecbba9,09:48:22,05/03/2024
7730.0,"<div class = 'left_align' style='font-size: 3.25rem; line-height: 1.3;'>After the letter goes away, another grid picture will appear, and then<br>another letter.<br><br>At the end of each set of letters and grids, you will recall the letters to the best<br>of your ability. Remember, try your best to get the letters in the correct order.<br><br>It is important to <b>quickly</b> and <b>accurately</b> make the symmetry judgments.</div><br><br><br><br>",0,ospan,instruct,I3Zypm1ABXXTTSn9FY6dbmNIM3X2,html-button-response,77,509912,0.0-43.0-2.0-0.0-1.0,,,,,,,,,,,,,,,627a76b96bea55210aecbba9,09:48:22,05/03/2024
10113.800000011921,"<div class = 'left_align' style='font-size: 3.25rem; line-height: 1.3;'>On the feedback screen, if you are not doing well at the symmetry judgments,<br>you will also see a warning in the middle. This indicates your percent <br>correct for the grid pictures for the entire experiment.<br><br>It is <b>very</b> important for you to keep accuracy at least at 85%: <u>We can only use<br>data where the participant was at least 85% accurate on the judgments.</u> Therefore,<br> please try your best to perform well on the symmetry judgments, <b>at the same time</b><br>doing your best to recall as many letters as possible.<br><br>Click the button to try some practice problems.</div><br><br><br><br>",0,ospan,instruct,I3Zypm1ABXXTTSn9FY6dbmNIM3X2,html-button-response,78,520278,0.0-43.0-2.0-0.0-2.0,,,,,,,,,,,,,,,627a76b96bea55210aecbba9,09:48:22,05/03/2024
,"<p style=""font-size:75px;"">...</p>",,ospan,iti,I3Zypm1ABXXTTSn9FY6dbmNIM3X2,html-keyboard-response,79,521547,0.0-43.0-2.0-1.0-0.0,,,,,,,,,,,,,,,627a76b96bea55210aecbba9,09:48:22,05/03/2024
1897.0,,,ospan,symmetry,I3Zypm1ABXXTTSn9FY6dbmNIM3X2,symmetry-judgement-task,80,524474,0.0-43.0-2.0-1.0-1.0-0.0,,,,,,,,,,1.0,1.0,,,,627a76b96bea55210aecbba9,09:48:22,05/03/2024
,"<div style=""font-size: 10rem; color: #0000FF"">Q</div>",,ospan,letter,I3Zypm1ABXXTTSn9FY6dbmNIM3X2,html-keyboard-response,81,525480,0.0-43.0-2.0-1.0-1.0-1.0,,,,,,,,,,,,,,,627a76b96bea55210aecbba9,09:48:22,05/03/2024
2406.0,,,ospan,symmetry,I3Zypm1ABXXTTSn9FY6dbmNIM3X2,symmetry-judgement-task,82,529791,0.0-43.0-2.0-1.0-1.0-2.0,,,,,,,,,,1.0,1.0,,,,627a76b96bea55210aecbba9,09:48:22,05/03/2024
,"<div style=""font-size: 10rem; color: #0000FF"">K</div>",,ospan,letter,I3Zypm1ABXXTTSn9FY6dbmNIM3X2,html-keyboard-response,83,530800,0.0-43.0-2.0-1.0-1.0-3.0,,,,,,,,,,,,,,,627a76b96bea55210aecbba9,09:48:22,05/03/2024
2607.0,,,ospan,symmetry,I3Zypm1ABXXTTSn9FY6dbmNIM3X2,symmetry-judgement-task,84,535308,0.0-43.0-2.0-1.0-1.0-4.0,,,,,,,,,,1.0,1.0,,,,627a76b96bea55210aecbba9,09:48:22,05/03/2024
,"<div style=""font-size: 10rem; color: #0000FF"">P</div>",,ospan,letter,I3Zypm1ABXXTTSn9FY6dbmNIM3X2,html-keyboard-response,85,536317,0.0-43.0-2.0-1.0-1.0-5.0,,,,,,,,,,,,,,,627a76b96bea55210aecbba9,09:48:22,05/03/2024
3733.4000000059605,"<div class = numbox><p style=""font-size: 2.4rem"">Please recall the letters you saw to the best of your ability. If you do not remember a particular letter, use the SKIP button.<br><b>(When you are ready to lock in your answer, press ENTER)</b></p><button id = button_1 class = ""square num-button"" onclick = ""recordClick(this)""><div class = content><div class = numbers>C</div></div></button><button id = button_2 class = ""square num-button"" onclick = ""recordClick(this)""><div class = content><div class = numbers>G</div></div></button><button id = button_3 class = ""square num-button"" onclick = ""recordClick(this)""><div class = content><div class = numbers>H</div></div></button><button id = button_4 class = ""square num-button"" onclick = ""recordClick(this)""><div class = content><div class = numbers>J</div></div></button><button id = button_5 class = ""square num-button"" onclick = ""recordClick(this)""><div class = content><div class = numbers>K</div></div></button><button id = button_6 class = ""square num-button"" onclick = ""recordClick(this)""><div class = content><div class = numbers>L</div></div></button><button id = button_7 class = ""square num-button"" onclick = ""recordClick(this)""><div class = content><div class = numbers>N</div></div></button><button id = button_8 class = ""square num-button"" onclick = ""recordClick(this)""><div class = content><div class = numbers>P</div></div></button><button id = button_9 class = ""square num-button"" onclick = ""recordClick(this)""><div class = content><div class = numbers>Q</div></div></button><button id = button_10 class = ""square num-button"" onclick = ""recordClick(this)""><div class = content><div class = numbers>R</div></div></button><button id = button_11 class = ""square num-button"" onclick = ""recordClick(this)""><div class = content><div class = numbers>S</div></div></button><button id = button_12 class = ""square num-button"" onclick = ""recordClick(this)""><div class = content><div class = numbers>Y</div></div></button><button class = clear_button id = ""ClearButton"" onclick = ""clearResponse()"">BACKSPACE</button><button class = blank_button id = ""BlankButton"" onclick = ""blankResponse()"">SKIP</button><p style=""font-size: 2.4rem""><u><b>Current Answer:</b></u></p><br><br><div id=echoed_txt style=""font-size: 5rem; color:blue;""><b></b></div></div>",enter,ospan,retrieval,I3Zypm1ABXXTTSn9FY6dbmNIM3X2,html-keyboard-response,86,540808,0.0-43.0-2.0-1.0-2.0-0.0,NA,NA,NA,3.0,"[""Q"",""K"",""P""]","[""Q"",""K"",""P""]",1.0,3.0,"['<font color=""green"">Q</font>', '<font color=""green"">K</font>', '<font color=""green"">P</font>']",,,,,,627a76b96bea55210aecbba9,09:48:22,05/03/2024
5581.0999999940395,"['<p style=""font-size:44px"">Letters:<br><br><br><font color=""green"">Q</font> <font color=""green"">K</font> <font color=""green"">P</font></p><br><br><p style=""font-size:30px"">Symmetry:<br><br><font color=""green"">100%</font></p><br><br>']",0,ospan,practice_feedback,I3Zypm1ABXXTTSn9FY6dbmNIM3X2,html-button-response,87,546898,0.0-43.0-2.0-1.0-2.0-1.0,,,,,,,,,,,,,,,627a76b96bea55210aecbba9,09:48:22,05/03/2024
,"<p style=""font-size:75px;"">...</p>",,ospan,iti,I3Zypm1ABXXTTSn9FY6dbmNIM3X2,html-keyboard-response,88,547904,0.0-43.0-2.0-2.0-0.0,,,,,,,,,,,,,,,627a76b96bea55210aecbba9,09:48:22,05/03/2024
2199.0,,,ospan,symmetry,I3Zypm1ABXXTTSn9FY6dbmNIM3X2,symmetry-judgement-task,89,551133,0.0-43.0-2.0-2.0-1.0-0.0,,,,,,,,,,1.0,1.0,,,,627a76b96bea55210aecbba9,09:48:22,05/03/2024
,"<div style=""font-size: 10rem; color: #0000FF"">L</div>",,ospan,letter,I3Zypm1ABXXTTSn9FY6dbmNIM3X2,html-keyboard-response,90,552140,0.0-43.0-2.0-2.0-1.0-1.0,,,,,,,,,,,,,,,627a76b96bea55210aecbba9,09:48:22,05/03/2024
3369.0,,,ospan,symmetry,I3Zypm1ABXXTTSn9FY6dbmNIM3X2,symmetry-judgement-task,91,557420,0.0-43.0-2.0-2.0-1.0-2.0,,,,,,,,,,1.0,1.0,,,,627a76b96bea55210aecbba9,09:48:22,05/03/2024
,"<div style=""font-size: 10rem; color: #0000FF"">R</div>",,ospan,letter,I3Zypm1ABXXTTSn9FY6dbmNIM3X2,html-keyboard-response,92,558429,0.0-43.0-2.0-2.0-1.0-3.0,,,,,,,,,,,,,,,627a76b96bea55210aecbba9,09:48:22,05/03/2024
2374.0,,,ospan,symmetry,I3Zypm1ABXXTTSn9FY6dbmNIM3X2,symmetry-judgement-task,93,562706,0.0-43.0-2.0-2.0-1.0-4.0,,,,,,,,,,1.0,1.0,,,,627a76b96bea55210aecbba9,09:48:22,05/03/2024
,"<div style=""font-size: 10rem; color: #0000FF"">S</div>",,ospan,letter,I3Zypm1ABXXTTSn9FY6dbmNIM3X2,html-keyboard-response,94,563715,0.0-43.0-2.0-2.0-1.0-5.0,,,,,,,,,,,,,,,627a76b96bea55210aecbba9,09:48:22,05/03/2024
4680.800000011921,"<div class = numbox><p style=""font-size: 2.4rem"">Please recall the letters you saw to the best of your ability. If you do not remember a particular letter, use the SKIP button.<br><b>(When you are ready to lock in your answer, press ENTER)</b></p><button id = button_1 class = ""square num-button"" onclick = ""recordClick(this)""><div class = content><div class = numbers>C</div></div></button><button id = button_2 class = ""square num-button"" onclick = ""recordClick(this)""><div class = content><div class = numbers>G</div></div></button><button id = button_3 class = ""square num-button"" onclick = ""recordClick(this)""><div class = content><div class = numbers>H</div></div></button><button id = button_4 class = ""square num-button"" onclick = ""recordClick(this)""><div class = content><div class = numbers>J</div></div></button><button id = button_5 class = ""square num-button"" onclick = ""recordClick(this)""><div class = content><div class = numbers>K</div></div></button><button id = button_6 class = ""square num-button"" onclick = ""recordClick(this)""><div class = content><div class = numbers>L</div></div></button><button id = button_7 class = ""square num-button"" onclick = ""recordClick(this)""><div class = content><div class = numbers>N</div></div></button><button id = button_8 class = ""square num-button"" onclick = ""recordClick(this)""><div class = content><div class = numbers>P</div></div></button><button id = button_9 class = ""square num-button"" onclick = ""recordClick(this)""><div class = content><div class = numbers>Q</div></div></button><button id = button_10 class = ""square num-button"" onclick = ""recordClick(this)""><div class = content><div class = numbers>R</div></div></button><button id = button_11 class = ""square num-button"" onclick = ""recordClick(this)""><div class = content><div class = numbers>S</div></div></button><button id = button_12 class = ""square num-button"" onclick = ""recordClick(this)""><div class = content><div class = numbers>Y</div></div></button><button class = clear_button id = ""ClearButton"" onclick = ""clearResponse()"">BACKSPACE</button><button class = blank_button id = ""BlankButton"" onclick = ""blankResponse()"">SKIP</button><p style=""font-size: 2.4rem""><u><b>Current Answer:</b></u></p><br><br><div id=echoed_txt style=""font-size: 5rem; color:blue;""><b></b></div></div>",enter,ospan,retrieval,I3Zypm1ABXXTTSn9FY6dbmNIM3X2,html-keyboard-response,95,569152,0.0-43.0-2.0-2.0-2.0-0.0,NA,NA,NA,3.0,"[""L"",""R"",""S""]","[""L"",""R"",""S""]",1.0,3.0,"['<font color=""green"">L</font>', '<font color=""green"">R</font>', '<font color=""green"">S</font>']",,,,,,627a76b96bea55210aecbba9,09:48:22,05/03/2024
1596.4000000059605,"['<p style=""font-size:44px"">Letters:<br><br><br><font color=""green"">L</font> <font color=""green"">R</font> <font color=""green"">S</font></p><br><br><p style=""font-size:30px"">Symmetry:<br><br><font color=""green"">100%</font></p><br><br>']",0,ospan,practice_feedback,I3Zypm1ABXXTTSn9FY6dbmNIM3X2,html-button-response,96,571252,0.0-43.0-2.0-2.0-2.0-1.0,,,,,,,,,,,,,,,627a76b96bea55210aecbba9,09:48:22,05/03/2024
27114.69999998808,"<div class = 'left_align' style='font-size: 3rem; line-height: 1.3;'><b>Great work! That is the end of practice.</b><br><br>The real trials will look just like the practice trials you just completed.<br><br><u>Here, you will not see feedback</u>. First, you will see an grid picture to judge,<br>then a letter to remember. When the recall screen appears, report the letters in the<br>order presented. If you forget a letter, remember to use the <b>blank</b> button to move to the<br>next letter. Some of the sets will have more symmetry grids and letters than others.<br><br>It is important that you do your best on both the symmetry judgments and the letter recall<br>parts of the experiment. For for the symmetry judgments, try to work as <b>quickly</b> and <br>as <b>accurately</b> as possible. Remember to keep your symmetry accuracy at 85% or above.<br><br><b>For the letters, do NOT use any external aid (e.g., writing on paper, electronic device).</b><br><br>It is <u>very important</u> to our experiment to have a <b>true</b> view of your real performance.<br><br>Do not worry if you miss some when it gets hard! This task is meant to be very challenging!<br><br>Click the button to begin.</div><br><br><br><br>",0,ospan,starting_real_here,I3Zypm1ABXXTTSn9FY6dbmNIM3X2,html-button-response,97,598368,0.0-43.0-2.0-3.0,,,,,,,,,,,,,,,627a76b96bea55210aecbba9,09:48:22,05/03/2024
,"<p style=""font-size:75px;"">...</p>",,ospan,iti,I3Zypm1ABXXTTSn9FY6dbmNIM3X2,html-keyboard-response,98,599627,0.0-43.0-3.0-0.0-0.0,,,,,,,,,,,,,,,627a76b96bea55210aecbba9,09:48:22,05/03/2024
2674.0,,,ospan,symmetry,I3Zypm1ABXXTTSn9FY6dbmNIM3X2,symmetry-judgement-task,99,603330,0.0-43.0-3.0-0.0-1.0-0.0,,,,,,,,,,1.0,1.0,,,,627a76b96bea55210aecbba9,09:48:22,05/03/2024
,"<div style=""font-size: 10rem; color: #0000FF"">G</div>",,ospan,letter,I3Zypm1ABXXTTSn9FY6dbmNIM3X2,html-keyboard-response,100,604340,0.0-43.0-3.0-0.0-1.0-1.0,,,,,,,,,,,,,,,627a76b96bea55210aecbba9,09:48:22,05/03/2024
1972.0,,,ospan,symmetry,I3Zypm1ABXXTTSn9FY6dbmNIM3X2,symmetry-judgement-task,101,608214,0.0-43.0-3.0-0.0-1.0-2.0,,,,,,,,,,1.0,1.0,,,,627a76b96bea55210aecbba9,09:48:22,05/03/2024
,"<div style=""font-size: 10rem; color: #0000FF"">H</div>",,ospan,letter,I3Zypm1ABXXTTSn9FY6dbmNIM3X2,html-keyboard-response,102,609223,0.0-43.0-3.0-0.0-1.0-3.0,,,,,,,,,,,,,,,627a76b96bea55210aecbba9,09:48:22,05/03/2024
2365.0,,,ospan,symmetry,I3Zypm1ABXXTTSn9FY6dbmNIM3X2,symmetry-judgement-task,103,613490,0.0-43.0-3.0-0.0-1.0-4.0,,,,,,,,,,1.0,1.0,,,,627a76b96bea55210aecbba9,09:48:22,05/03/2024
,"<div style=""font-size: 10rem; color: #0000FF"">J</div>",,ospan,letter,I3Zypm1ABXXTTSn9FY6dbmNIM3X2,html-keyboard-response,104,614500,0.0-43.0-3.0-0.0-1.0-5.0,,,,,,,,,,,,,,,627a76b96bea55210aecbba9,09:48:22,05/03/2024
3902.9000000059605,"<div class = numbox><p style=""font-size: 2.4rem"">Please recall the letters you saw to the best of your ability. If you do not remember a particular letter, use the SKIP button.<br><b>(When you are ready to lock in your answer, press ENTER)</b></p><button id = button_1 class = ""square num-button"" onclick = ""recordClick(this)""><div class = content><div class = numbers>C</div></div></button><button id = button_2 class = ""square num-button"" onclick = ""recordClick(this)""><div class = content><div class = numbers>G</div></div></button><button id = button_3 class = ""square num-button"" onclick = ""recordClick(this)""><div class = content><div class = numbers>H</div></div></button><button id = button_4 class = ""square num-button"" onclick = ""recordClick(this)""><div class = content><div class = numbers>J</div></div></button><button id = button_5 class = ""square num-button"" onclick = ""recordClick(this)""><div class = content><div class = numbers>K</div></div></button><button id = button_6 class = ""square num-button"" onclick = ""recordClick(this)""><div class = content><div class = numbers>L</div></div></button><button id = button_7 class = ""square num-button"" onclick = ""recordClick(this)""><div class = content><div class = numbers>N</div></div></button><button id = button_8 class = ""square num-button"" onclick = ""recordClick(this)""><div class = content><div class = numbers>P</div></div></button><button id = button_9 class = ""square num-button"" onclick = ""recordClick(this)""><div class = content><div class = numbers>Q</div></div></button><button id = button_10 class = ""square num-button"" onclick = ""recordClick(this)""><div class = content><div class = numbers>R</div></div></button><button id = button_11 class = ""square num-button"" onclick = ""recordClick(this)""><div class = content><div class = numbers>S</div></div></button><button id = button_12 class = ""square num-button"" onclick = ""recordClick(this)""><div class = content><div class = numbers>Y</div></div></button><button class = clear_button id = ""ClearButton"" onclick = ""clearResponse()"">BACKSPACE</button><button class = blank_button id = ""BlankButton"" onclick = ""blankResponse()"">SKIP</button><p style=""font-size: 2.4rem""><u><b>Current Answer:</b></u></p><br><br><div id=echoed_txt style=""font-size: 5rem; color:blue;""><b></b></div></div>",enter,ospan,retrieval,I3Zypm1ABXXTTSn9FY6dbmNIM3X2,html-keyboard-response,105,619160,0.0-43.0-3.0-0.0-2.0,3,3,3,3.0,"[""G"",""H"",""J""]","[""G"",""H"",""J""]",1.0,3.0,,,,,,,627a76b96bea55210aecbba9,09:48:22,05/03/2024
1259.7000000178814,[''],0,ospan,feedback,I3Zypm1ABXXTTSn9FY6dbmNIM3X2,html-button-response,106,620934,0.0-43.0-3.0-0.0-3.0,,,,,,,,,,,,100.0,0.0,,627a76b96bea55210aecbba9,09:48:22,05/03/2024
,"<p style=""font-size:75px;"">...</p>",,ospan,iti,I3Zypm1ABXXTTSn9FY6dbmNIM3X2,html-keyboard-response,107,621937,0.0-43.0-4.0-0.0-0.0,,,,,,,,,,,,,,,627a76b96bea55210aecbba9,09:48:22,05/03/2024
1776.0,,,ospan,symmetry,I3Zypm1ABXXTTSn9FY6dbmNIM3X2,symmetry-judgement-task,108,624860,0.0-43.0-4.0-0.0-1.0-0.0,,,,,,,,,,1.0,1.0,,,,627a76b96bea55210aecbba9,09:48:22,05/03/2024
,"<div style=""font-size: 10rem; color: #0000FF"">S</div>",,ospan,letter,I3Zypm1ABXXTTSn9FY6dbmNIM3X2,html-keyboard-response,109,625871,0.0-43.0-4.0-0.0-1.0-1.0,,,,,,,,,,,,,,,627a76b96bea55210aecbba9,09:48:22,05/03/2024
2288.0,,,ospan,symmetry,I3Zypm1ABXXTTSn9FY6dbmNIM3X2,symmetry-judgement-task,110,630050,0.0-43.0-4.0-0.0-1.0-2.0,,,,,,,,,,1.0,1.0,,,,627a76b96bea55210aecbba9,09:48:22,05/03/2024
,"<div style=""font-size: 10rem; color: #0000FF"">Y</div>",,ospan,letter,I3Zypm1ABXXTTSn9FY6dbmNIM3X2,html-keyboard-response,111,631054,0.0-43.0-4.0-0.0-1.0-3.0,,,,,,,,,,,,,,,627a76b96bea55210aecbba9,09:48:22,05/03/2024
1743.0,,,ospan,symmetry,I3Zypm1ABXXTTSn9FY6dbmNIM3X2,symmetry-judgement-task,112,634702,0.0-43.0-4.0-0.0-1.0-4.0,,,,,,,,,,1.0,1.0,,,,627a76b96bea55210aecbba9,09:48:22,05/03/2024
,"<div style=""font-size: 10rem; color: #0000FF"">G</div>",,ospan,letter,I3Zypm1ABXXTTSn9FY6dbmNIM3X2,html-keyboard-response,113,635710,0.0-43.0-4.0-0.0-1.0-5.0,,,,,,,,,,,,,,,627a76b96bea55210aecbba9,09:48:22,05/03/2024
3563.0,,,ospan,symmetry,I3Zypm1ABXXTTSn9FY6dbmNIM3X2,symmetry-judgement-task,114,641166,0.0-43.0-4.0-0.0-1.0-6.0,,,,,,,,,,1.0,1.0,,,,627a76b96bea55210aecbba9,09:48:22,05/03/2024
,"<div style=""font-size: 10rem; color: #0000FF"">K</div>",,ospan,letter,I3Zypm1ABXXTTSn9FY6dbmNIM3X2,html-keyboard-response,115,642174,0.0-43.0-4.0-0.0-1.0-7.0,,,,,,,,,,,,,,,627a76b96bea55210aecbba9,09:48:22,05/03/2024
4528.200000017881,"<div class = numbox><p style=""font-size: 2.4rem"">Please recall the letters you saw to the best of your ability. If you do not remember a particular letter, use the SKIP button.<br><b>(When you are ready to lock in your answer, press ENTER)</b></p><button id = button_1 class = ""square num-button"" onclick = ""recordClick(this)""><div class = content><div class = numbers>C</div></div></button><button id = button_2 class = ""square num-button"" onclick = ""recordClick(this)""><div class = content><div class = numbers>G</div></div></button><button id = button_3 class = ""square num-button"" onclick = ""recordClick(this)""><div class = content><div class = numbers>H</div></div></button><button id = button_4 class = ""square num-button"" onclick = ""recordClick(this)""><div class = content><div class = numbers>J</div></div></button><button id = button_5 class = ""square num-button"" onclick = ""recordClick(this)""><div class = content><div class = numbers>K</div></div></button><button id = button_6 class = ""square num-button"" onclick = ""recordClick(this)""><div class = content><div class = numbers>L</div></div></button><button id = button_7 class = ""square num-button"" onclick = ""recordClick(this)""><div class = content><div class = numbers>N</div></div></button><button id = button_8 class = ""square num-button"" onclick = ""recordClick(this)""><div class = content><div class = numbers>P</div></div></button><button id = button_9 class = ""square num-button"" onclick = ""recordClick(this)""><div class = content><div class = numbers>Q</div></div></button><button id = button_10 class = ""square num-button"" onclick = ""recordClick(this)""><div class = content><div class = numbers>R</div></div></button><button id = button_11 class = ""square num-button"" onclick = ""recordClick(this)""><div class = content><div class = numbers>S</div></div></button><button id = button_12 class = ""square num-button"" onclick = ""recordClick(this)""><div class = content><div class = numbers>Y</div></div></button><button class = clear_button id = ""ClearButton"" onclick = ""clearResponse()"">BACKSPACE</button><button class = blank_button id = ""BlankButton"" onclick = ""blankResponse()"">SKIP</button><p style=""font-size: 2.4rem""><u><b>Current Answer:</b></u></p><br><br><div id=echoed_txt style=""font-size: 5rem; color:blue;""><b></b></div></div>",enter,ospan,retrieval,I3Zypm1ABXXTTSn9FY6dbmNIM3X2,html-keyboard-response,116,647456,0.0-43.0-4.0-0.0-2.0,7,7,7,4.0,"[""S"",""Y"",""G"",""K""]","[""S"",""Y"",""G"",""K""]",1.0,4.0,,,,,,,627a76b96bea55210aecbba9,09:48:22,05/03/2024
1574.2000000178814,[''],0,ospan,feedback,I3Zypm1ABXXTTSn9FY6dbmNIM3X2,html-button-response,117,649544,0.0-43.0-4.0-0.0-3.0,,,,,,,,,,,,100.0,0.0,,627a76b96bea55210aecbba9,09:48:22,05/03/2024
,"<p style=""font-size:75px;"">...</p>",,ospan,iti,I3Zypm1ABXXTTSn9FY6dbmNIM3X2,html-keyboard-response,118,650548,0.0-43.0-4.0-1.0-0.0,,,,,,,,,,,,,,,627a76b96bea55210aecbba9,09:48:22,05/03/2024
2153.0,,,ospan,symmetry,I3Zypm1ABXXTTSn9FY6dbmNIM3X2,symmetry-judgement-task,119,653847,0.0-43.0-4.0-1.0-1.0-0.0,,,,,,,,,,1.0,1.0,,,,627a76b96bea55210aecbba9,09:48:22,05/03/2024
,"<div style=""font-size: 10rem; color: #0000FF"">R</div>",,ospan,letter,I3Zypm1ABXXTTSn9FY6dbmNIM3X2,html-keyboard-response,120,654856,0.0-43.0-4.0-1.0-1.0-1.0,,,,,,,,,,,,,,,627a76b96bea55210aecbba9,09:48:22,05/03/2024
2677.0,,,ospan,symmetry,I3Zypm1ABXXTTSn9FY6dbmNIM3X2,symmetry-judgement-task,121,659423,0.0-43.0-4.0-1.0-1.0-2.0,,,,,,,,,,1.0,1.0,,,,627a76b96bea55210aecbba9,09:48:22,05/03/2024
,"<div style=""font-size: 10rem; color: #0000FF"">N</div>",,ospan,letter,I3Zypm1ABXXTTSn9FY6dbmNIM3X2,html-keyboard-response,122,660432,0.0-43.0-4.0-1.0-1.0-3.0,,,,,,,,,,,,,,,627a76b96bea55210aecbba9,09:48:22,05/03/2024
3369.0,,,ospan,symmetry,I3Zypm1ABXXTTSn9FY6dbmNIM3X2,symmetry-judgement-task,123,665706,0.0-43.0-4.0-1.0-1.0-4.0,,,,,,,,,,1.0,1.0,,,,627a76b96bea55210aecbba9,09:48:22,05/03/2024
,"<div style=""font-size: 10rem; color: #0000FF"">P</div>",,ospan,letter,I3Zypm1ABXXTTSn9FY6dbmNIM3X2,html-keyboard-response,124,666713,0.0-43.0-4.0-1.0-1.0-5.0,,,,,,,,,,,,,,,627a76b96bea55210aecbba9,09:48:22,05/03/2024
3168.5,"<div class = numbox><p style=""font-size: 2.4rem"">Please recall the letters you saw to the best of your ability. If you do not remember a particular letter, use the SKIP button.<br><b>(When you are ready to lock in your answer, press ENTER)</b></p><button id = button_1 class = ""square num-button"" onclick = ""recordClick(this)""><div class = content><div class = numbers>C</div></div></button><button id = button_2 class = ""square num-button"" onclick = ""recordClick(this)""><div class = content><div class = numbers>G</div></div></button><button id = button_3 class = ""square num-button"" onclick = ""recordClick(this)""><div class = content><div class = numbers>H</div></div></button><button id = button_4 class = ""square num-button"" onclick = ""recordClick(this)""><div class = content><div class = numbers>J</div></div></button><button id = button_5 class = ""square num-button"" onclick = ""recordClick(this)""><div class = content><div class = numbers>K</div></div></button><button id = button_6 class = ""square num-button"" onclick = ""recordClick(this)""><div class = content><div class = numbers>L</div></div></button><button id = button_7 class = ""square num-button"" onclick = ""recordClick(this)""><div class = content><div class = numbers>N</div></div></button><button id = button_8 class = ""square num-button"" onclick = ""recordClick(this)""><div class = content><div class = numbers>P</div></div></button><button id = button_9 class = ""square num-button"" onclick = ""recordClick(this)""><div class = content><div class = numbers>Q</div></div></button><button id = button_10 class = ""square num-button"" onclick = ""recordClick(this)""><div class = content><div class = numbers>R</div></div></button><button id = button_11 class = ""square num-button"" onclick = ""recordClick(this)""><div class = content><div class = numbers>S</div></div></button><button id = button_12 class = ""square num-button"" onclick = ""recordClick(this)""><div class = content><div class = numbers>Y</div></div></button><button class = clear_button id = ""ClearButton"" onclick = ""clearResponse()"">BACKSPACE</button><button class = blank_button id = ""BlankButton"" onclick = ""blankResponse()"">SKIP</button><p style=""font-size: 2.4rem""><u><b>Current Answer:</b></u></p><br><br><div id=echoed_txt style=""font-size: 5rem; color:blue;""><b></b></div></div>",enter,ospan,retrieval,I3Zypm1ABXXTTSn9FY6dbmNIM3X2,html-keyboard-response,125,670640,0.0-43.0-4.0-1.0-2.0,10,10,10,3.0,"[""R"",""N"",""P""]","[""R"",""N"",""P""]",1.0,3.0,,,,,,,627a76b96bea55210aecbba9,09:48:22,05/03/2024
1126.5,[''],0,ospan,feedback,I3Zypm1ABXXTTSn9FY6dbmNIM3X2,html-button-response,126,672272,0.0-43.0-4.0-1.0-3.0,,,,,,,,,,,,100.0,0.0,,627a76b96bea55210aecbba9,09:48:22,05/03/2024
,"<p style=""font-size:75px;"">...</p>",,ospan,iti,I3Zypm1ABXXTTSn9FY6dbmNIM3X2,html-keyboard-response,127,673286,0.0-43.0-4.0-2.0-0.0,,,,,,,,,,,,,,,627a76b96bea55210aecbba9,09:48:22,05/03/2024
1891.0,,,ospan,symmetry,I3Zypm1ABXXTTSn9FY6dbmNIM3X2,symmetry-judgement-task,128,676331,0.0-43.0-4.0-2.0-1.0-0.0,,,,,,,,,,1.0,1.0,,,,627a76b96bea55210aecbba9,09:48:22,05/03/2024
,"<div style=""font-size: 10rem; color: #0000FF"">S</div>",,ospan,letter,I3Zypm1ABXXTTSn9FY6dbmNIM3X2,html-keyboard-response,129,677341,0.0-43.0-4.0-2.0-1.0-1.0,,,,,,,,,,,,,,,627a76b96bea55210aecbba9,09:48:22,05/03/2024
2202.0,,,ospan,symmetry,I3Zypm1ABXXTTSn9FY6dbmNIM3X2,symmetry-judgement-task,130,681327,0.0-43.0-4.0-2.0-1.0-2.0,,,,,,,,,,1.0,1.0,,,,627a76b96bea55210aecbba9,09:48:22,05/03/2024
,"<div style=""font-size: 10rem; color: #0000FF"">G</div>",,ospan,letter,I3Zypm1ABXXTTSn9FY6dbmNIM3X2,html-keyboard-response,131,682335,0.0-43.0-4.0-2.0-1.0-3.0,,,,,,,,,,,,,,,627a76b96bea55210aecbba9,09:48:22,05/03/2024
2268.0,,,ospan,symmetry,I3Zypm1ABXXTTSn9FY6dbmNIM3X2,symmetry-judgement-task,132,686503,0.0-43.0-4.0-2.0-1.0-4.0,,,,,,,,,,1.0,1.0,,,,627a76b96bea55210aecbba9,09:48:22,05/03/2024
,"<div style=""font-size: 10rem; color: #0000FF"">Y</div>",,ospan,letter,I3Zypm1ABXXTTSn9FY6dbmNIM3X2,html-keyboard-response,133,687513,0.0-43.0-4.0-2.0-1.0-5.0,,,,,,,,,,,,,,,627a76b96bea55210aecbba9,09:48:22,05/03/2024
1482.0,,,ospan,symmetry,I3Zypm1ABXXTTSn9FY6dbmNIM3X2,symmetry-judgement-task,134,690890,0.0-43.0-4.0-2.0-1.0-6.0,,,,,,,,,,1.0,1.0,,,,627a76b96bea55210aecbba9,09:48:22,05/03/2024
,"<div style=""font-size: 10rem; color: #0000FF"">H</div>",,ospan,letter,I3Zypm1ABXXTTSn9FY6dbmNIM3X2,html-keyboard-response,135,691895,0.0-43.0-4.0-2.0-1.0-7.0,,,,,,,,,,,,,,,627a76b96bea55210aecbba9,09:48:22,05/03/2024
3921.0,,,ospan,symmetry,I3Zypm1ABXXTTSn9FY6dbmNIM3X2,symmetry-judgement-task,136,697718,0.0-43.0-4.0-2.0-1.0-8.0,,,,,,,,,,1.0,1.0,,,,627a76b96bea55210aecbba9,09:48:22,05/03/2024
,"<div style=""font-size: 10rem; color: #0000FF"">J</div>",,ospan,letter,I3Zypm1ABXXTTSn9FY6dbmNIM3X2,html-keyboard-response,137,698729,0.0-43.0-4.0-2.0-1.0-9.0,,,,,,,,,,,,,,,627a76b96bea55210aecbba9,09:48:22,05/03/2024
5307.300000011921,"<div class = numbox><p style=""font-size: 2.4rem"">Please recall the letters you saw to the best of your ability. If you do not remember a particular letter, use the SKIP button.<br><b>(When you are ready to lock in your answer, press ENTER)</b></p><button id = button_1 class = ""square num-button"" onclick = ""recordClick(this)""><div class = content><div class = numbers>C</div></div></button><button id = button_2 class = ""square num-button"" onclick = ""recordClick(this)""><div class = content><div class = numbers>G</div></div></button><button id = button_3 class = ""square num-button"" onclick = ""recordClick(this)""><div class = content><div class = numbers>H</div></div></button><button id = button_4 class = ""square num-button"" onclick = ""recordClick(this)""><div class = content><div class = numbers>J</div></div></button><button id = button_5 class = ""square num-button"" onclick = ""recordClick(this)""><div class = content><div class = numbers>K</div></div></button><button id = button_6 class = ""square num-button"" onclick = ""recordClick(this)""><div class = content><div class = numbers>L</div></div></button><button id = button_7 class = ""square num-button"" onclick = ""recordClick(this)""><div class = content><div class = numbers>N</div></div></button><button id = button_8 class = ""square num-button"" onclick = ""recordClick(this)""><div class = content><div class = numbers>P</div></div></button><button id = button_9 class = ""square num-button"" onclick = ""recordClick(this)""><div class = content><div class = numbers>Q</div></div></button><button id = button_10 class = ""square num-button"" onclick = ""recordClick(this)""><div class = content><div class = numbers>R</div></div></button><button id = button_11 class = ""square num-button"" onclick = ""recordClick(this)""><div class = content><div class = numbers>S</div></div></button><button id = button_12 class = ""square num-button"" onclick = ""recordClick(this)""><div class = content><div class = numbers>Y</div></div></button><button class = clear_button id = ""ClearButton"" onclick = ""clearResponse()"">BACKSPACE</button><button class = blank_button id = ""BlankButton"" onclick = ""blankResponse()"">SKIP</button><p style=""font-size: 2.4rem""><u><b>Current Answer:</b></u></p><br><br><div id=echoed_txt style=""font-size: 5rem; color:blue;""><b></b></div></div>",enter,ospan,retrieval,I3Zypm1ABXXTTSn9FY6dbmNIM3X2,html-keyboard-response,138,704792,0.0-43.0-4.0-2.0-2.0,15,15,15,5.0,"[""S"",""G"",""Y"",""H"",""J""]","[""S"",""G"",""Y"",""H"",""J""]",1.0,5.0,,,,,,,627a76b96bea55210aecbba9,09:48:22,05/03/2024
993.0,[''],0,ospan,feedback,I3Zypm1ABXXTTSn9FY6dbmNIM3X2,html-button-response,139,706298,0.0-43.0-4.0-2.0-3.0,,,,,,,,,,,,100.0,0.0,,627a76b96bea55210aecbba9,09:48:22,05/03/2024
,"<p style=""font-size:75px;"">...</p>",,ospan,iti,I3Zypm1ABXXTTSn9FY6dbmNIM3X2,html-keyboard-response,140,707309,0.0-43.0-5.0-0.0-0.0,,,,,,,,,,,,,,,627a76b96bea55210aecbba9,09:48:22,05/03/2024
3073.0,,,ospan,symmetry,I3Zypm1ABXXTTSn9FY6dbmNIM3X2,symmetry-judgement-task,141,711522,0.0-43.0-5.0-0.0-1.0-0.0,,,,,,,,,,1.0,1.0,,,,627a76b96bea55210aecbba9,09:48:22,05/03/2024
,"<div style=""font-size: 10rem; color: #0000FF"">Y</div>",,ospan,letter,I3Zypm1ABXXTTSn9FY6dbmNIM3X2,html-keyboard-response,142,712529,0.0-43.0-5.0-0.0-1.0-1.0,,,,,,,,,,,,,,,627a76b96bea55210aecbba9,09:48:22,05/03/2024
2367.0,,,ospan,symmetry,I3Zypm1ABXXTTSn9FY6dbmNIM3X2,symmetry-judgement-task,143,716795,0.0-43.0-5.0-0.0-1.0-2.0,,,,,,,,,,1.0,1.0,,,,627a76b96bea55210aecbba9,09:48:22,05/03/2024
,"<div style=""font-size: 10rem; color: #0000FF"">J</div>",,ospan,letter,I3Zypm1ABXXTTSn9FY6dbmNIM3X2,html-keyboard-response,144,717805,0.0-43.0-5.0-0.0-1.0-3.0,,,,,,,,,,,,,,,627a76b96bea55210aecbba9,09:48:22,05/03/2024
1672.0,,,ospan,symmetry,I3Zypm1ABXXTTSn9FY6dbmNIM3X2,symmetry-judgement-task,145,721378,0.0-43.0-5.0-0.0-1.0-4.0,,,,,,,,,,1.0,1.0,,,,627a76b96bea55210aecbba9,09:48:22,05/03/2024
,"<div style=""font-size: 10rem; color: #0000FF"">K</div>",,ospan,letter,I3Zypm1ABXXTTSn9FY6dbmNIM3X2,html-keyboard-response,146,722389,0.0-43.0-5.0-0.0-1.0-5.0,,,,,,,,,,,,,,,627a76b96bea55210aecbba9,09:48:22,05/03/2024
4287.0,,,ospan,symmetry,I3Zypm1ABXXTTSn9FY6dbmNIM3X2,symmetry-judgement-task,147,728577,0.0-43.0-5.0-0.0-1.0-6.0,,,,,,,,,,1.0,1.0,,,,627a76b96bea55210aecbba9,09:48:22,05/03/2024
,"<div style=""font-size: 10rem; color: #0000FF"">N</div>",,ospan,letter,I3Zypm1ABXXTTSn9FY6dbmNIM3X2,html-keyboard-response,148,729584,0.0-43.0-5.0-0.0-1.0-7.0,,,,,,,,,,,,,,,627a76b96bea55210aecbba9,09:48:22,05/03/2024
1355.0,,,ospan,symmetry,I3Zypm1ABXXTTSn9FY6dbmNIM3X2,symmetry-judgement-task,149,732836,0.0-43.0-5.0-0.0-1.0-8.0,,,,,,,,,,1.0,1.0,,,,627a76b96bea55210aecbba9,09:48:22,05/03/2024
,"<div style=""font-size: 10rem; color: #0000FF"">R</div>",,ospan,letter,I3Zypm1ABXXTTSn9FY6dbmNIM3X2,html-keyboard-response,150,733847,0.0-43.0-5.0-0.0-1.0-9.0,,,,,,,,,,,,,,,627a76b96bea55210aecbba9,09:48:22,05/03/2024
4659.0,,,ospan,symmetry,I3Zypm1ABXXTTSn9FY6dbmNIM3X2,symmetry-judgement-task,151,740414,0.0-43.0-5.0-0.0-1.0-10.0,,,,,,,,,,1.0,1.0,,,,627a76b96bea55210aecbba9,09:48:22,05/03/2024
,"<div style=""font-size: 10rem; color: #0000FF"">P</div>",,ospan,letter,I3Zypm1ABXXTTSn9FY6dbmNIM3X2,html-keyboard-response,152,741422,0.0-43.0-5.0-0.0-1.0-11.0,,,,,,,,,,,,,,,627a76b96bea55210aecbba9,09:48:22,05/03/2024
6325.5999999940395,"<div class = numbox><p style=""font-size: 2.4rem"">Please recall the letters you saw to the best of your ability. If you do not remember a particular letter, use the SKIP button.<br><b>(When you are ready to lock in your answer, press ENTER)</b></p><button id = button_1 class = ""square num-button"" onclick = ""recordClick(this)""><div class = content><div class = numbers>C</div></div></button><button id = button_2 class = ""square num-button"" onclick = ""recordClick(this)""><div class = content><div class = numbers>G</div></div></button><button id = button_3 class = ""square num-button"" onclick = ""recordClick(this)""><div class = content><div class = numbers>H</div></div></button><button id = button_4 class = ""square num-button"" onclick = ""recordClick(this)""><div class = content><div class = numbers>J</div></div></button><button id = button_5 class = ""square num-button"" onclick = ""recordClick(this)""><div class = content><div class = numbers>K</div></div></button><button id = button_6 class = ""square num-button"" onclick = ""recordClick(this)""><div class = content><div class = numbers>L</div></div></button><button id = button_7 class = ""square num-button"" onclick = ""recordClick(this)""><div class = content><div class = numbers>N</div></div></button><button id = button_8 class = ""square num-button"" onclick = ""recordClick(this)""><div class = content><div class = numbers>P</div></div></button><button id = button_9 class = ""square num-button"" onclick = ""recordClick(this)""><div class = content><div class = numbers>Q</div></div></button><button id = button_10 class = ""square num-button"" onclick = ""recordClick(this)""><div class = content><div class = numbers>R</div></div></button><button id = button_11 class = ""square num-button"" onclick = ""recordClick(this)""><div class = content><div class = numbers>S</div></div></button><button id = button_12 class = ""square num-button"" onclick = ""recordClick(this)""><div class = content><div class = numbers>Y</div></div></button><button class = clear_button id = ""ClearButton"" onclick = ""clearResponse()"">BACKSPACE</button><button class = blank_button id = ""BlankButton"" onclick = ""blankResponse()"">SKIP</button><p style=""font-size: 2.4rem""><u><b>Current Answer:</b></u></p><br><br><div id=echoed_txt style=""font-size: 5rem; color:blue;""><b></b></div></div>",enter,ospan,retrieval,I3Zypm1ABXXTTSn9FY6dbmNIM3X2,html-keyboard-response,153,748504,0.0-43.0-5.0-0.0-2.0,21,21,21,6.0,"[""Y"",""J"",""K"",""N"",""R"",""P""]","[""Y"",""J"",""K"",""N"",""R"",""P""]",1.0,6.0,,,,,,,627a76b96bea55210aecbba9,09:48:22,05/03/2024
950.7000000178814,[''],0,ospan,feedback,I3Zypm1ABXXTTSn9FY6dbmNIM3X2,html-button-response,154,749958,0.0-43.0-5.0-0.0-3.0,,,,,,,,,,,,100.0,0.0,,627a76b96bea55210aecbba9,09:48:22,05/03/2024
,"<p style=""font-size:75px;"">...</p>",,ospan,iti,I3Zypm1ABXXTTSn9FY6dbmNIM3X2,html-keyboard-response,155,750960,0.0-43.0-5.0-1.0-0.0,,,,,,,,,,,,,,,627a76b96bea55210aecbba9,09:48:22,05/03/2024
2850.0,,,ospan,symmetry,I3Zypm1ABXXTTSn9FY6dbmNIM3X2,symmetry-judgement-task,156,754848,0.0-43.0-5.0-1.0-1.0-0.0,,,,,,,,,,1.0,1.0,,,,627a76b96bea55210aecbba9,09:48:22,05/03/2024
,"<div style=""font-size: 10rem; color: #0000FF"">S</div>",,ospan,letter,I3Zypm1ABXXTTSn9FY6dbmNIM3X2,html-keyboard-response,157,755858,0.0-43.0-5.0-1.0-1.0-1.0,,,,,,,,,,,,,,,627a76b96bea55210aecbba9,09:48:22,05/03/2024
1372.0,,,ospan,symmetry,I3Zypm1ABXXTTSn9FY6dbmNIM3X2,symmetry-judgement-task,158,759129,0.0-43.0-5.0-1.0-1.0-2.0,,,,,,,,,,1.0,1.0,,,,627a76b96bea55210aecbba9,09:48:22,05/03/2024
,"<div style=""font-size: 10rem; color: #0000FF"">Y</div>",,ospan,letter,I3Zypm1ABXXTTSn9FY6dbmNIM3X2,html-keyboard-response,159,760141,0.0-43.0-5.0-1.0-1.0-3.0,,,,,,,,,,,,,,,627a76b96bea55210aecbba9,09:48:22,05/03/2024
2065.0,,,ospan,symmetry,I3Zypm1ABXXTTSn9FY6dbmNIM3X2,symmetry-judgement-task,160,764089,0.0-43.0-5.0-1.0-1.0-4.0,,,,,,,,,,1.0,1.0,,,,627a76b96bea55210aecbba9,09:48:22,05/03/2024
,"<div style=""font-size: 10rem; color: #0000FF"">Q</div>",,ospan,letter,I3Zypm1ABXXTTSn9FY6dbmNIM3X2,html-keyboard-response,161,765100,0.0-43.0-5.0-1.0-1.0-5.0,,,,,,,,,,,,,,,627a76b96bea55210aecbba9,09:48:22,05/03/2024
1252.0,,,ospan,symmetry,I3Zypm1ABXXTTSn9FY6dbmNIM3X2,symmetry-judgement-task,162,768133,0.0-43.0-5.0-1.0-1.0-6.0,,,,,,,,,,1.0,1.0,,,,627a76b96bea55210aecbba9,09:48:22,05/03/2024
,"<div style=""font-size: 10rem; color: #0000FF"">C</div>",,ospan,letter,I3Zypm1ABXXTTSn9FY6dbmNIM3X2,html-keyboard-response,163,769136,0.0-43.0-5.0-1.0-1.0-7.0,,,,,,,,,,,,,,,627a76b96bea55210aecbba9,09:48:22,05/03/2024
1828.0,,,ospan,symmetry,I3Zypm1ABXXTTSn9FY6dbmNIM3X2,symmetry-judgement-task,164,772862,0.0-43.0-5.0-1.0-1.0-8.0,,,,,,,,,,1.0,1.0,,,,627a76b96bea55210aecbba9,09:48:22,05/03/2024
,"<div style=""font-size: 10rem; color: #0000FF"">J</div>",,ospan,letter,I3Zypm1ABXXTTSn9FY6dbmNIM3X2,html-keyboard-response,165,773873,0.0-43.0-5.0-1.0-1.0-9.0,,,,,,,,,,,,,,,627a76b96bea55210aecbba9,09:48:22,05/03/2024
1129.0,,,ospan,symmetry,I3Zypm1ABXXTTSn9FY6dbmNIM3X2,symmetry-judgement-task,166,776903,0.0-43.0-5.0-1.0-1.0-10.0,,,,,,,,,,1.0,1.0,,,,627a76b96bea55210aecbba9,09:48:22,05/03/2024
,"<div style=""font-size: 10rem; color: #0000FF"">H</div>",,ospan,letter,I3Zypm1ABXXTTSn9FY6dbmNIM3X2,html-keyboard-response,167,777916,0.0-43.0-5.0-1.0-1.0-11.0,,,,,,,,,,,,,,,627a76b96bea55210aecbba9,09:48:22,05/03/2024
6251.0,,,ospan,symmetry,I3Zypm1ABXXTTSn9FY6dbmNIM3X2,symmetry-judgement-task,168,786055,0.0-43.0-5.0-1.0-1.0-12.0,,,,,,,,,,1.0,1.0,,,,627a76b96bea55210aecbba9,09:48:22,05/03/2024
,"<div style=""font-size: 10rem; color: #0000FF"">N</div>",,ospan,letter,I3Zypm1ABXXTTSn9FY6dbmNIM3X2,html-keyboard-response,169,787065,0.0-43.0-5.0-1.0-1.0-13.0,,,,,,,,,,,,,,,627a76b96bea55210aecbba9,09:48:22,05/03/2024
6210.5,"<div class = numbox><p style=""font-size: 2.4rem"">Please recall the letters you saw to the best of your ability. If you do not remember a particular letter, use the SKIP button.<br><b>(When you are ready to lock in your answer, press ENTER)</b></p><button id = button_1 class = ""square num-button"" onclick = ""recordClick(this)""><div class = content><div class = numbers>C</div></div></button><button id = button_2 class = ""square num-button"" onclick = ""recordClick(this)""><div class = content><div class = numbers>G</div></div></button><button id = button_3 class = ""square num-button"" onclick = ""recordClick(this)""><div class = content><div class = numbers>H</div></div></button><button id = button_4 class = ""square num-button"" onclick = ""recordClick(this)""><div class = content><div class = numbers>J</div></div></button><button id = button_5 class = ""square num-button"" onclick = ""recordClick(this)""><div class = content><div class = numbers>K</div></div></button><button id = button_6 class = ""square num-button"" onclick = ""recordClick(this)""><div class = content><div class = numbers>L</div></div></button><button id = button_7 class = ""square num-button"" onclick = ""recordClick(this)""><div class = content><div class = numbers>N</div></div></button><button id = button_8 class = ""square num-button"" onclick = ""recordClick(this)""><div class = content><div class = numbers>P</div></div></button><button id = button_9 class = ""square num-button"" onclick = ""recordClick(this)""><div class = content><div class = numbers>Q</div></div></button><button id = button_10 class = ""square num-button"" onclick = ""recordClick(this)""><div class = content><div class = numbers>R</div></div></button><button id = button_11 class = ""square num-button"" onclick = ""recordClick(this)""><div class = content><div class = numbers>S</div></div></button><button id = button_12 class = ""square num-button"" onclick = ""recordClick(this)""><div class = content><div class = numbers>Y</div></div></button><button class = clear_button id = ""ClearButton"" onclick = ""clearResponse()"">BACKSPACE</button><button class = blank_button id = ""BlankButton"" onclick = ""blankResponse()"">SKIP</button><p style=""font-size: 2.4rem""><u><b>Current Answer:</b></u></p><br><br><div id=echoed_txt style=""font-size: 5rem; color:blue;""><b></b></div></div>",enter,ospan,retrieval,I3Zypm1ABXXTTSn9FY6dbmNIM3X2,html-keyboard-response,170,794032,0.0-43.0-5.0-1.0-2.0,28,28,28,7.0,"[""S"",""Y"",""Q"",""C"",""J"",""H"",""N""]","[""S"",""Y"",""Q"",""C"",""J"",""H"",""N""]",1.0,7.0,,,,,,,627a76b96bea55210aecbba9,09:48:22,05/03/2024
700.1000000238419,[''],0,ospan,feedback,I3Zypm1ABXXTTSn9FY6dbmNIM3X2,html-button-response,171,795236,0.0-43.0-5.0-1.0-3.0,,,,,,,,,,,,100.0,0.0,,627a76b96bea55210aecbba9,09:48:22,05/03/2024
,"<p style=""font-size:75px;"">...</p>",,ospan,iti,I3Zypm1ABXXTTSn9FY6dbmNIM3X2,html-keyboard-response,172,796245,0.0-43.0-6.0-0.0-0.0,,,,,,,,,,,,,,,627a76b96bea55210aecbba9,09:48:22,05/03/2024
2560.0,,,ospan,symmetry,I3Zypm1ABXXTTSn9FY6dbmNIM3X2,symmetry-judgement-task,173,799944,0.0-43.0-6.0-0.0-1.0-0.0,,,,,,,,,,1.0,1.0,,,,627a76b96bea55210aecbba9,09:48:22,05/03/2024
,"<div style=""font-size: 10rem; color: #0000FF"">J</div>",,ospan,letter,I3Zypm1ABXXTTSn9FY6dbmNIM3X2,html-keyboard-response,174,800950,0.0-43.0-6.0-0.0-1.0-1.0,,,,,,,,,,,,,,,627a76b96bea55210aecbba9,09:48:22,05/03/2024
1331.0,,,ospan,symmetry,I3Zypm1ABXXTTSn9FY6dbmNIM3X2,symmetry-judgement-task,175,804192,0.0-43.0-6.0-0.0-1.0-2.0,,,,,,,,,,1.0,1.0,,,,627a76b96bea55210aecbba9,09:48:22,05/03/2024
,"<div style=""font-size: 10rem; color: #0000FF"">C</div>",,ospan,letter,I3Zypm1ABXXTTSn9FY6dbmNIM3X2,html-keyboard-response,176,805202,0.0-43.0-6.0-0.0-1.0-3.0,,,,,,,,,,,,,,,627a76b96bea55210aecbba9,09:48:22,05/03/2024
4873.0,,,ospan,symmetry,I3Zypm1ABXXTTSn9FY6dbmNIM3X2,symmetry-judgement-task,177,811971,0.0-43.0-6.0-0.0-1.0-4.0,,,,,,,,,,1.0,1.0,,,,627a76b96bea55210aecbba9,09:48:22,05/03/2024
,"<div style=""font-size: 10rem; color: #0000FF"">P</div>",,ospan,letter,I3Zypm1ABXXTTSn9FY6dbmNIM3X2,html-keyboard-response,178,812976,0.0-43.0-6.0-0.0-1.0-5.0,,,,,,,,,,,,,,,627a76b96bea55210aecbba9,09:48:22,05/03/2024
1742.0,,,ospan,symmetry,I3Zypm1ABXXTTSn9FY6dbmNIM3X2,symmetry-judgement-task,179,816611,0.0-43.0-6.0-0.0-1.0-6.0,,,,,,,,,,1.0,1.0,,,,627a76b96bea55210aecbba9,09:48:22,05/03/2024
,"<div style=""font-size: 10rem; color: #0000FF"">R</div>",,ospan,letter,I3Zypm1ABXXTTSn9FY6dbmNIM3X2,html-keyboard-response,180,817616,0.0-43.0-6.0-0.0-1.0-7.0,,,,,,,,,,,,,,,627a76b96bea55210aecbba9,09:48:22,05/03/2024
1304.0,,,ospan,symmetry,I3Zypm1ABXXTTSn9FY6dbmNIM3X2,symmetry-judgement-task,181,820827,0.0-43.0-6.0-0.0-1.0-8.0,,,,,,,,,,1.0,1.0,,,,627a76b96bea55210aecbba9,09:48:22,05/03/2024
,"<div style=""font-size: 10rem; color: #0000FF"">H</div>",,ospan,letter,I3Zypm1ABXXTTSn9FY6dbmNIM3X2,html-keyboard-response,182,821836,0.0-43.0-6.0-0.0-1.0-9.0,,,,,,,,,,,,,,,627a76b96bea55210aecbba9,09:48:22,05/03/2024
7036.899999976158,"<div class = numbox><p style=""font-size: 2.4rem"">Please recall the letters you saw to the best of your ability. If you do not remember a particular letter, use the SKIP button.<br><b>(When you are ready to lock in your answer, press ENTER)</b></p><button id = button_1 class = ""square num-button"" onclick = ""recordClick(this)""><div class = content><div class = numbers>C</div></div></button><button id = button_2 class = ""square num-button"" onclick = ""recordClick(this)""><div class = content><div class = numbers>G</div></div></button><button id = button_3 class = ""square num-button"" onclick = ""recordClick(this)""><div class = content><div class = numbers>H</div></div></button><button id = button_4 class = ""square num-button"" onclick = ""recordClick(this)""><div class = content><div class = numbers>J</div></div></button><button id = button_5 class = ""square num-button"" onclick = ""recordClick(this)""><div class = content><div class = numbers>K</div></div></button><button id = button_6 class = ""square num-button"" onclick = ""recordClick(this)""><div class = content><div class = numbers>L</div></div></button><button id = button_7 class = ""square num-button"" onclick = ""recordClick(this)""><div class = content><div class = numbers>N</div></div></button><button id = button_8 class = ""square num-button"" onclick = ""recordClick(this)""><div class = content><div class = numbers>P</div></div></button><button id = button_9 class = ""square num-button"" onclick = ""recordClick(this)""><div class = content><div class = numbers>Q</div></div></button><button id = button_10 class = ""square num-button"" onclick = ""recordClick(this)""><div class = content><div class = numbers>R</div></div></button><button id = button_11 class = ""square num-button"" onclick = ""recordClick(this)""><div class = content><div class = numbers>S</div></div></button><button id = button_12 class = ""square num-button"" onclick = ""recordClick(this)""><div class = content><div class = numbers>Y</div></div></button><button class = clear_button id = ""ClearButton"" onclick = ""clearResponse()"">BACKSPACE</button><button class = blank_button id = ""BlankButton"" onclick = ""blankResponse()"">SKIP</button><p style=""font-size: 2.4rem""><u><b>Current Answer:</b></u></p><br><br><div id=echoed_txt style=""font-size: 5rem; color:blue;""><b></b></div></div>",enter,ospan,retrieval,I3Zypm1ABXXTTSn9FY6dbmNIM3X2,html-keyboard-response,183,829632,0.0-43.0-6.0-0.0-2.0,33,33,33,5.0,"[""J"",""C"",""P"",""R"",""H""]","[""J"",""C"",""P"",""R"",""H""]",1.0,5.0,,,,,,,627a76b96bea55210aecbba9,09:48:22,05/03/2024
728.9000000059605,[''],0,ospan,feedback,I3Zypm1ABXXTTSn9FY6dbmNIM3X2,html-button-response,184,830874,0.0-43.0-6.0-0.0-3.0,,,,,,,,,,,,100.0,0.0,,627a76b96bea55210aecbba9,09:48:22,05/03/2024
,"<p style=""font-size:75px;"">...</p>",,ospan,iti,I3Zypm1ABXXTTSn9FY6dbmNIM3X2,html-keyboard-response,185,831889,0.0-43.0-6.0-1.0-0.0,,,,,,,,,,,,,,,627a76b96bea55210aecbba9,09:48:22,05/03/2024
1970.0,,,ospan,symmetry,I3Zypm1ABXXTTSn9FY6dbmNIM3X2,symmetry-judgement-task,186,834989,0.0-43.0-6.0-1.0-1.0-0.0,,,,,,,,,,1.0,1.0,,,,627a76b96bea55210aecbba9,09:48:22,05/03/2024
,"<div style=""font-size: 10rem; color: #0000FF"">G</div>",,ospan,letter,I3Zypm1ABXXTTSn9FY6dbmNIM3X2,html-keyboard-response,187,835997,0.0-43.0-6.0-1.0-1.0-1.0,,,,,,,,,,,,,,,627a76b96bea55210aecbba9,09:48:22,05/03/2024
1268.0,,,ospan,symmetry,I3Zypm1ABXXTTSn9FY6dbmNIM3X2,symmetry-judgement-task,188,839157,0.0-43.0-6.0-1.0-1.0-2.0,,,,,,,,,,1.0,1.0,,,,627a76b96bea55210aecbba9,09:48:22,05/03/2024
,"<div style=""font-size: 10rem; color: #0000FF"">H</div>",,ospan,letter,I3Zypm1ABXXTTSn9FY6dbmNIM3X2,html-keyboard-response,189,840163,0.0-43.0-6.0-1.0-1.0-3.0,,,,,,,,,,,,,,,627a76b96bea55210aecbba9,09:48:22,05/03/2024
1347.0,,,ospan,symmetry,I3Zypm1ABXXTTSn9FY6dbmNIM3X2,symmetry-judgement-task,190,843418,0.0-43.0-6.0-1.0-1.0-4.0,,,,,,,,,,1.0,1.0,,,,627a76b96bea55210aecbba9,09:48:22,05/03/2024
,"<div style=""font-size: 10rem; color: #0000FF"">Q</div>",,ospan,letter,I3Zypm1ABXXTTSn9FY6dbmNIM3X2,html-keyboard-response,191,844427,0.0-43.0-6.0-1.0-1.0-5.0,,,,,,,,,,,,,,,627a76b96bea55210aecbba9,09:48:22,05/03/2024
1378.0,,,ospan,symmetry,I3Zypm1ABXXTTSn9FY6dbmNIM3X2,symmetry-judgement-task,192,847702,0.0-43.0-6.0-1.0-1.0-6.0,,,,,,,,,,1.0,1.0,,,,627a76b96bea55210aecbba9,09:48:22,05/03/2024
,"<div style=""font-size: 10rem; color: #0000FF"">K</div>",,ospan,letter,I3Zypm1ABXXTTSn9FY6dbmNIM3X2,html-keyboard-response,193,848712,0.0-43.0-6.0-1.0-1.0-7.0,,,,,,,,,,,,,,,627a76b96bea55210aecbba9,09:48:22,05/03/2024
1591.0,,,ospan,symmetry,I3Zypm1ABXXTTSn9FY6dbmNIM3X2,symmetry-judgement-task,194,852198,0.0-43.0-6.0-1.0-1.0-8.0,,,,,,,,,,1.0,1.0,,,,627a76b96bea55210aecbba9,09:48:22,05/03/2024
,"<div style=""font-size: 10rem; color: #0000FF"">N</div>",,ospan,letter,I3Zypm1ABXXTTSn9FY6dbmNIM3X2,html-keyboard-response,195,853205,0.0-43.0-6.0-1.0-1.0-9.0,,,,,,,,,,,,,,,627a76b96bea55210aecbba9,09:48:22,05/03/2024
1203.0,,,ospan,symmetry,I3Zypm1ABXXTTSn9FY6dbmNIM3X2,symmetry-judgement-task,196,856289,0.0-43.0-6.0-1.0-1.0-10.0,,,,,,,,,,1.0,1.0,,,,627a76b96bea55210aecbba9,09:48:22,05/03/2024
,"<div style=""font-size: 10rem; color: #0000FF"">J</div>",,ospan,letter,I3Zypm1ABXXTTSn9FY6dbmNIM3X2,html-keyboard-response,197,857298,0.0-43.0-6.0-1.0-1.0-11.0,,,,,,,,,,,,,,,627a76b96bea55210aecbba9,09:48:22,05/03/2024
6431.0,,,ospan,symmetry,I3Zypm1ABXXTTSn9FY6dbmNIM3X2,symmetry-judgement-task,198,865628,0.0-43.0-6.0-1.0-1.0-12.0,,,,,,,,,,1.0,1.0,,,,627a76b96bea55210aecbba9,09:48:22,05/03/2024
,"<div style=""font-size: 10rem; color: #0000FF"">C</div>",,ospan,letter,I3Zypm1ABXXTTSn9FY6dbmNIM3X2,html-keyboard-response,199,866639,0.0-43.0-6.0-1.0-1.0-13.0,,,,,,,,,,,,,,,627a76b96bea55210aecbba9,09:48:22,05/03/2024
3916.0,,,ospan,symmetry,I3Zypm1ABXXTTSn9FY6dbmNIM3X2,symmetry-judgement-task,200,872450,0.0-43.0-6.0-1.0-1.0-14.0,,,,,,,,,,1.0,1.0,,,,627a76b96bea55210aecbba9,09:48:22,05/03/2024
,"<div style=""font-size: 10rem; color: #0000FF"">R</div>",,ospan,letter,I3Zypm1ABXXTTSn9FY6dbmNIM3X2,html-keyboard-response,201,873456,0.0-43.0-6.0-1.0-1.0-15.0,,,,,,,,,,,,,,,627a76b96bea55210aecbba9,09:48:22,05/03/2024
14579.600000023842,"<div class = numbox><p style=""font-size: 2.4rem"">Please recall the letters you saw to the best of your ability. If you do not remember a particular letter, use the SKIP button.<br><b>(When you are ready to lock in your answer, press ENTER)</b></p><button id = button_1 class = ""square num-button"" onclick = ""recordClick(this)""><div class = content><div class = numbers>C</div></div></button><button id = button_2 class = ""square num-button"" onclick = ""recordClick(this)""><div class = content><div class = numbers>G</div></div></button><button id = button_3 class = ""square num-button"" onclick = ""recordClick(this)""><div class = content><div class = numbers>H</div></div></button><button id = button_4 class = ""square num-button"" onclick = ""recordClick(this)""><div class = content><div class = numbers>J</div></div></button><button id = button_5 class = ""square num-button"" onclick = ""recordClick(this)""><div class = content><div class = numbers>K</div></div></button><button id = button_6 class = ""square num-button"" onclick = ""recordClick(this)""><div class = content><div class = numbers>L</div></div></button><button id = button_7 class = ""square num-button"" onclick = ""recordClick(this)""><div class = content><div class = numbers>N</div></div></button><button id = button_8 class = ""square num-button"" onclick = ""recordClick(this)""><div class = content><div class = numbers>P</div></div></button><button id = button_9 class = ""square num-button"" onclick = ""recordClick(this)""><div class = content><div class = numbers>Q</div></div></button><button id = button_10 class = ""square num-button"" onclick = ""recordClick(this)""><div class = content><div class = numbers>R</div></div></button><button id = button_11 class = ""square num-button"" onclick = ""recordClick(this)""><div class = content><div class = numbers>S</div></div></button><button id = button_12 class = ""square num-button"" onclick = ""recordClick(this)""><div class = content><div class = numbers>Y</div></div></button><button class = clear_button id = ""ClearButton"" onclick = ""clearResponse()"">BACKSPACE</button><button class = blank_button id = ""BlankButton"" onclick = ""blankResponse()"">SKIP</button><p style=""font-size: 2.4rem""><u><b>Current Answer:</b></u></p><br><br><div id=echoed_txt style=""font-size: 5rem; color:blue;""><b></b></div></div>",enter,ospan,retrieval,I3Zypm1ABXXTTSn9FY6dbmNIM3X2,html-keyboard-response,202,888792,0.0-43.0-6.0-1.0-2.0,41,40,33,8.0,"[""G"",""H"",""Q"",""K"",""N"",""J"",""C""]","[""G"",""H"",""Q"",""K"",""N"",""J"",""C"",""R""]",0.0,7.0,,,,,,,627a76b96bea55210aecbba9,09:48:22,05/03/2024
1119.800000011921,[''],0,ospan,feedback,I3Zypm1ABXXTTSn9FY6dbmNIM3X2,html-button-response,203,890422,0.0-43.0-6.0-1.0-3.0,,,,,,,,,,,,100.0,0.0,,627a76b96bea55210aecbba9,09:48:22,05/03/2024
11191.799999982119,,{'Q0': 'Nothing to improve'},ospan,survey_ospan,I3Zypm1ABXXTTSn9FY6dbmNIM3X2,lmdlab-survey-text,204,902377,0.0-43.0-7.0,,,,,,,,,,,,,,I3Zypm1ABXXTTSn9FY6dbmNIM3X2,627a76b96bea55210aecbba9,09:48:22,05/03/2024
891.3999999761581,<p><p style='font-size: 3rem'>Great work!<br><br>This completes the symmetry and memory task.</p><br><br><br>,0,ospan,finish,I3Zypm1ABXXTTSn9FY6dbmNIM3X2,html-button-response,205,903270,0.0-43.0-8.0,41,40,33,,,,,,,,,100.0,,,627a76b96bea55210aecbba9,09:48:22,05/03/2024
