rt,stimulus,response,exp_name,exp_stage,subjectID,trial_type,trial_index,time_elapsed,internal_node_id,ospan_shown,ospan_total,ospan_abs,length,resp_actual,resp_correct,full_correct,num_correct,feedback,accuracy,correct,math_acc,math_warning,databaseID,prolificID,start_time,date
2068.399999976158,<div class = 'left_align' style='font-size: 3.25rem; line-height: 1.3;'><p class = 'center_align'><b>Welcome to the Symmetry and Memory Task</b><br><br><br><br></p>Press 'continue' to show the instructions.<br><br><br><br></div>,0,ospan,instruct,UGYYcbnSNFXqruozRNRvZ9PKAOt1,html-button-response,51,420089,0.0-43.0-0.0-0.0-0.0,,,,,,,,,,,,,,,59baf1a2178f1b0001828a26,20:18:09,06/03/2024
6487.0,"<div class = 'left_align' style='font-size: 3.25rem; line-height: 1.3;'><p class = 'center_align'><b>Symmetry and Memory Task</b><br><br></p>In this task, you will try to memorize letters you see on the screen<br>while you also view black and white grid pictures.<br><br>In the next few minutes, you will have some practice to get you familiar<br>with how the task works.<br><br>It may be difficult sometimes, but please do not worry about making mistakes!<br><br>We will begin by practicing the letter part of the task.<br><br><br><br></div>",0,ospan,instruct,UGYYcbnSNFXqruozRNRvZ9PKAOt1,html-button-response,52,426841,0.0-43.0-0.0-0.0-1.0,,,,,,,,,,,,,,,59baf1a2178f1b0001828a26,20:18:09,06/03/2024
9462.0,"<div class = 'left_align' style='font-size: 3.25rem; line-height: 1.3;'>For this practice part, letters will appear on the screen one at a time.<br><br>Try to remember each letter in the order presented.<br><br>After some letters have been shown, you will see a response screen. Your<br>goal is to report the letters you saw <b>in order</b>. If you do not remember<br>a particular letter, you will have the option to leave it blank.<br><br><br><br></div>",0,ospan,instruct,UGYYcbnSNFXqruozRNRvZ9PKAOt1,html-button-response,53,436561,0.0-43.0-0.0-0.0-2.0,,,,,,,,,,,,,,,59baf1a2178f1b0001828a26,20:18:09,06/03/2024
1262.7999999523163,"<div class = 'left_align' style='font-size: 3.25rem; line-height: 1.3;'>Remember, it is very important to get the letters in the same<br>order as you see them.<br><br>When you are ready, you may begin the letter practice.</div><br><br><br><br>",0,ospan,instruct,UGYYcbnSNFXqruozRNRvZ9PKAOt1,html-button-response,54,438091,0.0-43.0-0.0-0.0-3.0,,,,,,,,,,,,,,,59baf1a2178f1b0001828a26,20:18:09,06/03/2024
,"<p style=""font-size:75px;"">...</p>",,ospan,iti,UGYYcbnSNFXqruozRNRvZ9PKAOt1,html-keyboard-response,55,439371,0.0-43.0-0.0-1.0-0.0,,,,,,,,,,,,,,,59baf1a2178f1b0001828a26,20:18:09,06/03/2024
,"<div style=""font-size: 10rem; color: #0000FF"">Y</div>",,ospan,letter,UGYYcbnSNFXqruozRNRvZ9PKAOt1,html-keyboard-response,56,440385,0.0-43.0-0.0-1.0-1.0,,,,,,,,,,,,,,,59baf1a2178f1b0001828a26,20:18:09,06/03/2024
,"<div style=""font-size: 10rem; color: #0000FF"">Q</div>",,ospan,letter,UGYYcbnSNFXqruozRNRvZ9PKAOt1,html-keyboard-response,57,442155,0.0-43.0-0.0-1.0-2.0,,,,,,,,,,,,,,,59baf1a2178f1b0001828a26,20:18:09,06/03/2024
8042.100000023842,"<div class = numbox><p style=""font-size: 2.4rem"">Please recall the letters you saw to the best of your ability. If you do not remember a particular letter, use the SKIP button.<br><b>(When you are ready to lock in your answer, press ENTER)</b></p><button id = button_1 class = ""square num-button"" onclick = ""recordClick(this)""><div class = content><div class = numbers>C</div></div></button><button id = button_2 class = ""square num-button"" onclick = ""recordClick(this)""><div class = content><div class = numbers>G</div></div></button><button id = button_3 class = ""square num-button"" onclick = ""recordClick(this)""><div class = content><div class = numbers>H</div></div></button><button id = button_4 class = ""square num-button"" onclick = ""recordClick(this)""><div class = content><div class = numbers>J</div></div></button><button id = button_5 class = ""square num-button"" onclick = ""recordClick(this)""><div class = content><div class = numbers>K</div></div></button><button id = button_6 class = ""square num-button"" onclick = ""recordClick(this)""><div class = content><div class = numbers>L</div></div></button><button id = button_7 class = ""square num-button"" onclick = ""recordClick(this)""><div class = content><div class = numbers>N</div></div></button><button id = button_8 class = ""square num-button"" onclick = ""recordClick(this)""><div class = content><div class = numbers>P</div></div></button><button id = button_9 class = ""square num-button"" onclick = ""recordClick(this)""><div class = content><div class = numbers>Q</div></div></button><button id = button_10 class = ""square num-button"" onclick = ""recordClick(this)""><div class = content><div class = numbers>R</div></div></button><button id = button_11 class = ""square num-button"" onclick = ""recordClick(this)""><div class = content><div class = numbers>S</div></div></button><button id = button_12 class = ""square num-button"" onclick = ""recordClick(this)""><div class = content><div class = numbers>Y</div></div></button><button class = clear_button id = ""ClearButton"" onclick = ""clearResponse()"">BACKSPACE</button><button class = blank_button id = ""BlankButton"" onclick = ""blankResponse()"">SKIP</button><p style=""font-size: 2.4rem""><u><b>Current Answer:</b></u></p><br><br><div id=echoed_txt style=""font-size: 5rem; color:blue;""><b></b></div></div>",enter,ospan,retrieval,UGYYcbnSNFXqruozRNRvZ9PKAOt1,html-keyboard-response,58,450967,0.0-43.0-0.0-1.0-3.0,NA,NA,NA,2.0,"[""Y"",""Q""]","[""Y"",""Q""]",1.0,2.0,"['<font color=""green"">Y</font>', '<font color=""green"">Q</font>']",,,,,,59baf1a2178f1b0001828a26,20:18:09,06/03/2024
1344.3999999761581,"['<p style=""font-size:44px"">Letters:<br><br><br><font color=""green"">Y</font> <font color=""green"">Q</font></p><br><br>']",0,ospan,practice_feedback,UGYYcbnSNFXqruozRNRvZ9PKAOt1,html-button-response,59,452833,0.0-43.0-0.0-1.0-4.0,,,,,,,,,,,,,,,59baf1a2178f1b0001828a26,20:18:09,06/03/2024
,"<p style=""font-size:75px;"">...</p>",,ospan,iti,UGYYcbnSNFXqruozRNRvZ9PKAOt1,html-keyboard-response,60,453842,0.0-43.0-0.0-2.0-0.0,,,,,,,,,,,,,,,59baf1a2178f1b0001828a26,20:18:09,06/03/2024
,"<div style=""font-size: 10rem; color: #0000FF"">H</div>",,ospan,letter,UGYYcbnSNFXqruozRNRvZ9PKAOt1,html-keyboard-response,61,454868,0.0-43.0-0.0-2.0-1.0,,,,,,,,,,,,,,,59baf1a2178f1b0001828a26,20:18:09,06/03/2024
,"<div style=""font-size: 10rem; color: #0000FF"">L</div>",,ospan,letter,UGYYcbnSNFXqruozRNRvZ9PKAOt1,html-keyboard-response,62,456649,0.0-43.0-0.0-2.0-2.0,,,,,,,,,,,,,,,59baf1a2178f1b0001828a26,20:18:09,06/03/2024
,"<div style=""font-size: 10rem; color: #0000FF"">G</div>",,ospan,letter,UGYYcbnSNFXqruozRNRvZ9PKAOt1,html-keyboard-response,63,458434,0.0-43.0-0.0-2.0-3.0,,,,,,,,,,,,,,,59baf1a2178f1b0001828a26,20:18:09,06/03/2024
4510.299999952316,"<div class = numbox><p style=""font-size: 2.4rem"">Please recall the letters you saw to the best of your ability. If you do not remember a particular letter, use the SKIP button.<br><b>(When you are ready to lock in your answer, press ENTER)</b></p><button id = button_1 class = ""square num-button"" onclick = ""recordClick(this)""><div class = content><div class = numbers>C</div></div></button><button id = button_2 class = ""square num-button"" onclick = ""recordClick(this)""><div class = content><div class = numbers>G</div></div></button><button id = button_3 class = ""square num-button"" onclick = ""recordClick(this)""><div class = content><div class = numbers>H</div></div></button><button id = button_4 class = ""square num-button"" onclick = ""recordClick(this)""><div class = content><div class = numbers>J</div></div></button><button id = button_5 class = ""square num-button"" onclick = ""recordClick(this)""><div class = content><div class = numbers>K</div></div></button><button id = button_6 class = ""square num-button"" onclick = ""recordClick(this)""><div class = content><div class = numbers>L</div></div></button><button id = button_7 class = ""square num-button"" onclick = ""recordClick(this)""><div class = content><div class = numbers>N</div></div></button><button id = button_8 class = ""square num-button"" onclick = ""recordClick(this)""><div class = content><div class = numbers>P</div></div></button><button id = button_9 class = ""square num-button"" onclick = ""recordClick(this)""><div class = content><div class = numbers>Q</div></div></button><button id = button_10 class = ""square num-button"" onclick = ""recordClick(this)""><div class = content><div class = numbers>R</div></div></button><button id = button_11 class = ""square num-button"" onclick = ""recordClick(this)""><div class = content><div class = numbers>S</div></div></button><button id = button_12 class = ""square num-button"" onclick = ""recordClick(this)""><div class = content><div class = numbers>Y</div></div></button><button class = clear_button id = ""ClearButton"" onclick = ""clearResponse()"">BACKSPACE</button><button class = blank_button id = ""BlankButton"" onclick = ""blankResponse()"">SKIP</button><p style=""font-size: 2.4rem""><u><b>Current Answer:</b></u></p><br><br><div id=echoed_txt style=""font-size: 5rem; color:blue;""><b></b></div></div>",enter,ospan,retrieval,UGYYcbnSNFXqruozRNRvZ9PKAOt1,html-keyboard-response,64,463705,0.0-43.0-0.0-2.0-4.0,NA,NA,NA,3.0,"[""H"",""L"",""G""]","[""H"",""L"",""G""]",1.0,3.0,"['<font color=""green"">H</font>', '<font color=""green"">L</font>', '<font color=""green"">G</font>']",,,,,,59baf1a2178f1b0001828a26,20:18:09,06/03/2024
765.2999999523163,"['<p style=""font-size:44px"">Letters:<br><br><br><font color=""green"">H</font> <font color=""green"">L</font> <font color=""green"">G</font></p><br><br>']",0,ospan,practice_feedback,UGYYcbnSNFXqruozRNRvZ9PKAOt1,html-button-response,65,464989,0.0-43.0-0.0-2.0-5.0,,,,,,,,,,,,,,,59baf1a2178f1b0001828a26,20:18:09,06/03/2024
12689.199999928474,"<div class = 'left_align' style='font-size: 3.25rem; line-height: 1.3;'>Now you will practice doing the <b>symmetry judgment part</b> of the experiment.<br><br>A black and white grid picture will appear on the screen and you have to judge if it is <br>symmetrical or asymetrical.<br><br>A picture is 'mirror' symmetrical if its left half is identical to the right half when flipped.<br>Here are examples of a symmetrical and an asymetrical picture:<br><br><center><img src='Stimuli/img/symm_instructions_extra.png' style='height:420px; width:900'></img></center><br>To judge symmetry, imagine you were to fold each picture down the middle, like a book –<br>would the left half match the right half when folded onto each other?<br><br></div><br>",0,ospan,instruct,UGYYcbnSNFXqruozRNRvZ9PKAOt1,html-button-response,66,477683,0.0-43.0-1.0-0.0-0.0,,,,,,,,,,,,,,,59baf1a2178f1b0001828a26,20:18:09,06/03/2024
1935.0,"<div class = 'left_align' style='font-size: 3.25rem; line-height: 1.3;'>When you have viewed the picture and determined whether it is symmetrical or not,<br>you can <b>click the Yes or No button</b> below to answer.<br><br>If you take longer than 15 seconds, it will continue automatically<br>and record the answer as an error.</div><br>",0,ospan,instruct,UGYYcbnSNFXqruozRNRvZ9PKAOt1,html-button-response,67,479875,0.0-43.0-1.0-0.0-1.0,,,,,,,,,,,,,,,59baf1a2178f1b0001828a26,20:18:09,06/03/2024
1063.0,"<div class = 'left_align' style='font-size: 3.25rem; line-height: 1.3;'>It is <b>very</b> important that you make the symmetry judgment correctly.<br><br>It is also important that you try and judge the picture as quickly as you can.<br><br>When you are ready, click on the button below to try some practice problems.</div><br><br><br><br>",0,ospan,instruct,UGYYcbnSNFXqruozRNRvZ9PKAOt1,html-button-response,68,481201,0.0-43.0-1.0-0.0-2.0,,,,,,,,,,,,,,,59baf1a2178f1b0001828a26,20:18:09,06/03/2024
4283.0,,,ospan,symmetry,UGYYcbnSNFXqruozRNRvZ9PKAOt1,symmetry-judgement-task,69,486841,0.0-43.0-1.0-1.0-0.0,,,,,,,,,,1.0,1.0,,,,59baf1a2178f1b0001828a26,20:18:09,06/03/2024
,"<p style=""color:green; font-size: 35px"">Correct</p>",,ospan,feedback,UGYYcbnSNFXqruozRNRvZ9PKAOt1,html-keyboard-response,70,487597,0.0-43.0-1.0-1.0-1.0,,,,,,,,,,,,,,,59baf1a2178f1b0001828a26,20:18:09,06/03/2024
1511.0,,,ospan,symmetry,UGYYcbnSNFXqruozRNRvZ9PKAOt1,symmetry-judgement-task,71,492324,0.0-43.0-1.0-1.0-2.0,,,,,,,,,,1.0,1.0,,,,59baf1a2178f1b0001828a26,20:18:09,06/03/2024
,"<p style=""color:green; font-size: 35px"">Correct</p>",,ospan,feedback,UGYYcbnSNFXqruozRNRvZ9PKAOt1,html-keyboard-response,72,493081,0.0-43.0-1.0-1.0-3.0,,,,,,,,,,,,,,,59baf1a2178f1b0001828a26,20:18:09,06/03/2024
1960.0,,,ospan,symmetry,UGYYcbnSNFXqruozRNRvZ9PKAOt1,symmetry-judgement-task,73,498204,0.0-43.0-1.0-1.0-4.0,,,,,,,,,,1.0,1.0,,,,59baf1a2178f1b0001828a26,20:18:09,06/03/2024
,"<p style=""color:green; font-size: 35px"">Correct</p>",,ospan,feedback,UGYYcbnSNFXqruozRNRvZ9PKAOt1,html-keyboard-response,74,498965,0.0-43.0-1.0-1.0-5.0,,,,,,,,,,,,,,,59baf1a2178f1b0001828a26,20:18:09,06/03/2024
993.9000000953674,"<p style=""font-size: 3rem;"">You responded correctly on 3 of 3 symmetry judgments. Good job!</p><br><br>",0,ospan,practice,UGYYcbnSNFXqruozRNRvZ9PKAOt1,html-button-response,75,501978,0.0-43.0-1.0-2.0,,,,,,,,,,,,,,,59baf1a2178f1b0001828a26,20:18:09,06/03/2024
1932.0,"<div class = 'left_align' style='font-size: 3.25rem; line-height: 1.3;'>Now you will practice doing both parts of the experiment at the same time.<br><br>In the next practice set, you will be given one grid picture to judge.<br>Then letter will appear on the screen. Try to remember the letter.<br><br>It is <b>very important</b> to make the symmetry judgment as quickly and accurately as possible.<br><br>Just as before, once you have make the symmetry judgment, you can click Yes or No.<br><b>Note that you will no longer see Correct or Incorrect feedback.</div><br><br><br><br>",0,ospan,instruct,UGYYcbnSNFXqruozRNRvZ9PKAOt1,html-button-response,76,504171,0.0-43.0-2.0-0.0-0.0,,,,,,,,,,,,,,,59baf1a2178f1b0001828a26,20:18:09,06/03/2024
920.1000000238419,"<div class = 'left_align' style='font-size: 3.25rem; line-height: 1.3;'>After the letter goes away, another grid picture will appear, and then<br>another letter.<br><br>At the end of each set of letters and grids, you will recall the letters to the best<br>of your ability. Remember, try your best to get the letters in the correct order.<br><br>It is important to <b>quickly</b> and <b>accurately</b> make the symmetry judgments.</div><br><br><br><br>",0,ospan,instruct,UGYYcbnSNFXqruozRNRvZ9PKAOt1,html-button-response,77,505353,0.0-43.0-2.0-0.0-1.0,,,,,,,,,,,,,,,59baf1a2178f1b0001828a26,20:18:09,06/03/2024
4606.600000023842,"<div class = 'left_align' style='font-size: 3.25rem; line-height: 1.3;'>On the feedback screen, if you are not doing well at the symmetry judgments,<br>you will also see a warning in the middle. This indicates your percent <br>correct for the grid pictures for the entire experiment.<br><br>It is <b>very</b> important for you to keep accuracy at least at 85%: <u>We can only use<br>data where the participant was at least 85% accurate on the judgments.</u> Therefore,<br> please try your best to perform well on the symmetry judgments, <b>at the same time</b><br>doing your best to recall as many letters as possible.<br><br>Click the button to try some practice problems.</div><br><br><br><br>",0,ospan,instruct,UGYYcbnSNFXqruozRNRvZ9PKAOt1,html-button-response,78,510233,0.0-43.0-2.0-0.0-2.0,,,,,,,,,,,,,,,59baf1a2178f1b0001828a26,20:18:09,06/03/2024
,"<p style=""font-size:75px;"">...</p>",,ospan,iti,UGYYcbnSNFXqruozRNRvZ9PKAOt1,html-keyboard-response,79,511524,0.0-43.0-2.0-1.0-0.0,,,,,,,,,,,,,,,59baf1a2178f1b0001828a26,20:18:09,06/03/2024
2027.0,,,ospan,symmetry,UGYYcbnSNFXqruozRNRvZ9PKAOt1,symmetry-judgement-task,80,515423,0.0-43.0-2.0-1.0-1.0-0.0,,,,,,,,,,1.0,1.0,,,,59baf1a2178f1b0001828a26,20:18:09,06/03/2024
,"<div style=""font-size: 10rem; color: #0000FF"">C</div>",,ospan,letter,UGYYcbnSNFXqruozRNRvZ9PKAOt1,html-keyboard-response,81,516430,0.0-43.0-2.0-1.0-1.0-1.0,,,,,,,,,,,,,,,59baf1a2178f1b0001828a26,20:18:09,06/03/2024
2474.0,,,ospan,symmetry,UGYYcbnSNFXqruozRNRvZ9PKAOt1,symmetry-judgement-task,82,521359,0.0-43.0-2.0-1.0-1.0-2.0,,,,,,,,,,1.0,1.0,,,,59baf1a2178f1b0001828a26,20:18:09,06/03/2024
,"<div style=""font-size: 10rem; color: #0000FF"">R</div>",,ospan,letter,UGYYcbnSNFXqruozRNRvZ9PKAOt1,html-keyboard-response,83,522391,0.0-43.0-2.0-1.0-1.0-3.0,,,,,,,,,,,,,,,59baf1a2178f1b0001828a26,20:18:09,06/03/2024
3081.0,,,ospan,symmetry,UGYYcbnSNFXqruozRNRvZ9PKAOt1,symmetry-judgement-task,84,527968,0.0-43.0-2.0-1.0-1.0-4.0,,,,,,,,,,1.0,1.0,,,,59baf1a2178f1b0001828a26,20:18:09,06/03/2024
,"<div style=""font-size: 10rem; color: #0000FF"">N</div>",,ospan,letter,UGYYcbnSNFXqruozRNRvZ9PKAOt1,html-keyboard-response,85,528992,0.0-43.0-2.0-1.0-1.0-5.0,,,,,,,,,,,,,,,59baf1a2178f1b0001828a26,20:18:09,06/03/2024
4035.7999999523163,"<div class = numbox><p style=""font-size: 2.4rem"">Please recall the letters you saw to the best of your ability. If you do not remember a particular letter, use the SKIP button.<br><b>(When you are ready to lock in your answer, press ENTER)</b></p><button id = button_1 class = ""square num-button"" onclick = ""recordClick(this)""><div class = content><div class = numbers>C</div></div></button><button id = button_2 class = ""square num-button"" onclick = ""recordClick(this)""><div class = content><div class = numbers>G</div></div></button><button id = button_3 class = ""square num-button"" onclick = ""recordClick(this)""><div class = content><div class = numbers>H</div></div></button><button id = button_4 class = ""square num-button"" onclick = ""recordClick(this)""><div class = content><div class = numbers>J</div></div></button><button id = button_5 class = ""square num-button"" onclick = ""recordClick(this)""><div class = content><div class = numbers>K</div></div></button><button id = button_6 class = ""square num-button"" onclick = ""recordClick(this)""><div class = content><div class = numbers>L</div></div></button><button id = button_7 class = ""square num-button"" onclick = ""recordClick(this)""><div class = content><div class = numbers>N</div></div></button><button id = button_8 class = ""square num-button"" onclick = ""recordClick(this)""><div class = content><div class = numbers>P</div></div></button><button id = button_9 class = ""square num-button"" onclick = ""recordClick(this)""><div class = content><div class = numbers>Q</div></div></button><button id = button_10 class = ""square num-button"" onclick = ""recordClick(this)""><div class = content><div class = numbers>R</div></div></button><button id = button_11 class = ""square num-button"" onclick = ""recordClick(this)""><div class = content><div class = numbers>S</div></div></button><button id = button_12 class = ""square num-button"" onclick = ""recordClick(this)""><div class = content><div class = numbers>Y</div></div></button><button class = clear_button id = ""ClearButton"" onclick = ""clearResponse()"">BACKSPACE</button><button class = blank_button id = ""BlankButton"" onclick = ""blankResponse()"">SKIP</button><p style=""font-size: 2.4rem""><u><b>Current Answer:</b></u></p><br><br><div id=echoed_txt style=""font-size: 5rem; color:blue;""><b></b></div></div>",enter,ospan,retrieval,UGYYcbnSNFXqruozRNRvZ9PKAOt1,html-keyboard-response,86,533787,0.0-43.0-2.0-1.0-2.0-0.0,NA,NA,NA,3.0,"[""C"",""R"",""N""]","[""C"",""R"",""N""]",1.0,3.0,"['<font color=""green"">C</font>', '<font color=""green"">R</font>', '<font color=""green"">N</font>']",,,,,,59baf1a2178f1b0001828a26,20:18:09,06/03/2024
1235.9000000953674,"['<p style=""font-size:44px"">Letters:<br><br><br><font color=""green"">C</font> <font color=""green"">R</font> <font color=""green"">N</font></p><br><br><p style=""font-size:30px"">Symmetry:<br><br><font color=""green"">100%</font></p><br><br>']",0,ospan,practice_feedback,UGYYcbnSNFXqruozRNRvZ9PKAOt1,html-button-response,87,535539,0.0-43.0-2.0-1.0-2.0-1.0,,,,,,,,,,,,,,,59baf1a2178f1b0001828a26,20:18:09,06/03/2024
,"<p style=""font-size:75px;"">...</p>",,ospan,iti,UGYYcbnSNFXqruozRNRvZ9PKAOt1,html-keyboard-response,88,536545,0.0-43.0-2.0-2.0-0.0,,,,,,,,,,,,,,,59baf1a2178f1b0001828a26,20:18:09,06/03/2024
2512.0,,,ospan,symmetry,UGYYcbnSNFXqruozRNRvZ9PKAOt1,symmetry-judgement-task,89,540251,0.0-43.0-2.0-2.0-1.0-0.0,,,,,,,,,,1.0,1.0,,,,59baf1a2178f1b0001828a26,20:18:09,06/03/2024
,"<div style=""font-size: 10rem; color: #0000FF"">K</div>",,ospan,letter,UGYYcbnSNFXqruozRNRvZ9PKAOt1,html-keyboard-response,90,541269,0.0-43.0-2.0-2.0-1.0-1.0,,,,,,,,,,,,,,,59baf1a2178f1b0001828a26,20:18:09,06/03/2024
1788.0,,,ospan,symmetry,UGYYcbnSNFXqruozRNRvZ9PKAOt1,symmetry-judgement-task,91,545687,0.0-43.0-2.0-2.0-1.0-2.0,,,,,,,,,,1.0,1.0,,,,59baf1a2178f1b0001828a26,20:18:09,06/03/2024
,"<div style=""font-size: 10rem; color: #0000FF"">L</div>",,ospan,letter,UGYYcbnSNFXqruozRNRvZ9PKAOt1,html-keyboard-response,92,546704,0.0-43.0-2.0-2.0-1.0-3.0,,,,,,,,,,,,,,,59baf1a2178f1b0001828a26,20:18:09,06/03/2024
2341.0,,,ospan,symmetry,UGYYcbnSNFXqruozRNRvZ9PKAOt1,symmetry-judgement-task,93,551529,0.0-43.0-2.0-2.0-1.0-4.0,,,,,,,,,,1.0,1.0,,,,59baf1a2178f1b0001828a26,20:18:09,06/03/2024
,"<div style=""font-size: 10rem; color: #0000FF"">Y</div>",,ospan,letter,UGYYcbnSNFXqruozRNRvZ9PKAOt1,html-keyboard-response,94,552540,0.0-43.0-2.0-2.0-1.0-5.0,,,,,,,,,,,,,,,59baf1a2178f1b0001828a26,20:18:09,06/03/2024
3513.100000023842,"<div class = numbox><p style=""font-size: 2.4rem"">Please recall the letters you saw to the best of your ability. If you do not remember a particular letter, use the SKIP button.<br><b>(When you are ready to lock in your answer, press ENTER)</b></p><button id = button_1 class = ""square num-button"" onclick = ""recordClick(this)""><div class = content><div class = numbers>C</div></div></button><button id = button_2 class = ""square num-button"" onclick = ""recordClick(this)""><div class = content><div class = numbers>G</div></div></button><button id = button_3 class = ""square num-button"" onclick = ""recordClick(this)""><div class = content><div class = numbers>H</div></div></button><button id = button_4 class = ""square num-button"" onclick = ""recordClick(this)""><div class = content><div class = numbers>J</div></div></button><button id = button_5 class = ""square num-button"" onclick = ""recordClick(this)""><div class = content><div class = numbers>K</div></div></button><button id = button_6 class = ""square num-button"" onclick = ""recordClick(this)""><div class = content><div class = numbers>L</div></div></button><button id = button_7 class = ""square num-button"" onclick = ""recordClick(this)""><div class = content><div class = numbers>N</div></div></button><button id = button_8 class = ""square num-button"" onclick = ""recordClick(this)""><div class = content><div class = numbers>P</div></div></button><button id = button_9 class = ""square num-button"" onclick = ""recordClick(this)""><div class = content><div class = numbers>Q</div></div></button><button id = button_10 class = ""square num-button"" onclick = ""recordClick(this)""><div class = content><div class = numbers>R</div></div></button><button id = button_11 class = ""square num-button"" onclick = ""recordClick(this)""><div class = content><div class = numbers>S</div></div></button><button id = button_12 class = ""square num-button"" onclick = ""recordClick(this)""><div class = content><div class = numbers>Y</div></div></button><button class = clear_button id = ""ClearButton"" onclick = ""clearResponse()"">BACKSPACE</button><button class = blank_button id = ""BlankButton"" onclick = ""blankResponse()"">SKIP</button><p style=""font-size: 2.4rem""><u><b>Current Answer:</b></u></p><br><br><div id=echoed_txt style=""font-size: 5rem; color:blue;""><b></b></div></div>",enter,ospan,retrieval,UGYYcbnSNFXqruozRNRvZ9PKAOt1,html-keyboard-response,95,556811,0.0-43.0-2.0-2.0-2.0-0.0,NA,NA,NA,3.0,"[""K"",""L"",""Y""]","[""K"",""L"",""Y""]",1.0,3.0,"['<font color=""green"">K</font>', '<font color=""green"">L</font>', '<font color=""green"">Y</font>']",,,,,,59baf1a2178f1b0001828a26,20:18:09,06/03/2024
1132.6000000238419,"['<p style=""font-size:44px"">Letters:<br><br><br><font color=""green"">K</font> <font color=""green"">L</font> <font color=""green"">Y</font></p><br><br><p style=""font-size:30px"">Symmetry:<br><br><font color=""green"">100%</font></p><br><br>']",0,ospan,practice_feedback,UGYYcbnSNFXqruozRNRvZ9PKAOt1,html-button-response,96,558467,0.0-43.0-2.0-2.0-2.0-1.0,,,,,,,,,,,,,,,59baf1a2178f1b0001828a26,20:18:09,06/03/2024
11019.0,"<div class = 'left_align' style='font-size: 3rem; line-height: 1.3;'><b>Great work! That is the end of practice.</b><br><br>The real trials will look just like the practice trials you just completed.<br><br><u>Here, you will not see feedback</u>. First, you will see an grid picture to judge,<br>then a letter to remember. When the recall screen appears, report the letters in the<br>order presented. If you forget a letter, remember to use the <b>blank</b> button to move to the<br>next letter. Some of the sets will have more symmetry grids and letters than others.<br><br>It is important that you do your best on both the symmetry judgments and the letter recall<br>parts of the experiment. For for the symmetry judgments, try to work as <b>quickly</b> and <br>as <b>accurately</b> as possible. Remember to keep your symmetry accuracy at 85% or above.<br><br><b>For the letters, do NOT use any external aid (e.g., writing on paper, electronic device).</b><br><br>It is <u>very important</u> to our experiment to have a <b>true</b> view of your real performance.<br><br>Do not worry if you miss some when it gets hard! This task is meant to be very challenging!<br><br>Click the button to begin.</div><br><br><br><br>",0,ospan,starting_real_here,UGYYcbnSNFXqruozRNRvZ9PKAOt1,html-button-response,97,569489,0.0-43.0-2.0-3.0,,,,,,,,,,,,,,,59baf1a2178f1b0001828a26,20:18:09,06/03/2024
,"<p style=""font-size:75px;"">...</p>",,ospan,iti,UGYYcbnSNFXqruozRNRvZ9PKAOt1,html-keyboard-response,98,570749,0.0-43.0-3.0-0.0-0.0,,,,,,,,,,,,,,,59baf1a2178f1b0001828a26,20:18:09,06/03/2024
2766.0,,,ospan,symmetry,UGYYcbnSNFXqruozRNRvZ9PKAOt1,symmetry-judgement-task,99,575289,0.0-43.0-3.0-0.0-1.0-0.0,,,,,,,,,,1.0,1.0,,,,59baf1a2178f1b0001828a26,20:18:09,06/03/2024
,"<div style=""font-size: 10rem; color: #0000FF"">S</div>",,ospan,letter,UGYYcbnSNFXqruozRNRvZ9PKAOt1,html-keyboard-response,100,576297,0.0-43.0-3.0-0.0-1.0-1.0,,,,,,,,,,,,,,,59baf1a2178f1b0001828a26,20:18:09,06/03/2024
2678.0,,,ospan,symmetry,UGYYcbnSNFXqruozRNRvZ9PKAOt1,symmetry-judgement-task,101,581516,0.0-43.0-3.0-0.0-1.0-2.0,,,,,,,,,,1.0,1.0,,,,59baf1a2178f1b0001828a26,20:18:09,06/03/2024
,"<div style=""font-size: 10rem; color: #0000FF"">Y</div>",,ospan,letter,UGYYcbnSNFXqruozRNRvZ9PKAOt1,html-keyboard-response,102,582538,0.0-43.0-3.0-0.0-1.0-3.0,,,,,,,,,,,,,,,59baf1a2178f1b0001828a26,20:18:09,06/03/2024
3232.0,,,ospan,symmetry,UGYYcbnSNFXqruozRNRvZ9PKAOt1,symmetry-judgement-task,103,588164,0.0-43.0-3.0-0.0-1.0-4.0,,,,,,,,,,1.0,1.0,,,,59baf1a2178f1b0001828a26,20:18:09,06/03/2024
,"<div style=""font-size: 10rem; color: #0000FF"">C</div>",,ospan,letter,UGYYcbnSNFXqruozRNRvZ9PKAOt1,html-keyboard-response,104,589174,0.0-43.0-3.0-0.0-1.0-5.0,,,,,,,,,,,,,,,59baf1a2178f1b0001828a26,20:18:09,06/03/2024
3578.899999976158,"<div class = numbox><p style=""font-size: 2.4rem"">Please recall the letters you saw to the best of your ability. If you do not remember a particular letter, use the SKIP button.<br><b>(When you are ready to lock in your answer, press ENTER)</b></p><button id = button_1 class = ""square num-button"" onclick = ""recordClick(this)""><div class = content><div class = numbers>C</div></div></button><button id = button_2 class = ""square num-button"" onclick = ""recordClick(this)""><div class = content><div class = numbers>G</div></div></button><button id = button_3 class = ""square num-button"" onclick = ""recordClick(this)""><div class = content><div class = numbers>H</div></div></button><button id = button_4 class = ""square num-button"" onclick = ""recordClick(this)""><div class = content><div class = numbers>J</div></div></button><button id = button_5 class = ""square num-button"" onclick = ""recordClick(this)""><div class = content><div class = numbers>K</div></div></button><button id = button_6 class = ""square num-button"" onclick = ""recordClick(this)""><div class = content><div class = numbers>L</div></div></button><button id = button_7 class = ""square num-button"" onclick = ""recordClick(this)""><div class = content><div class = numbers>N</div></div></button><button id = button_8 class = ""square num-button"" onclick = ""recordClick(this)""><div class = content><div class = numbers>P</div></div></button><button id = button_9 class = ""square num-button"" onclick = ""recordClick(this)""><div class = content><div class = numbers>Q</div></div></button><button id = button_10 class = ""square num-button"" onclick = ""recordClick(this)""><div class = content><div class = numbers>R</div></div></button><button id = button_11 class = ""square num-button"" onclick = ""recordClick(this)""><div class = content><div class = numbers>S</div></div></button><button id = button_12 class = ""square num-button"" onclick = ""recordClick(this)""><div class = content><div class = numbers>Y</div></div></button><button class = clear_button id = ""ClearButton"" onclick = ""clearResponse()"">BACKSPACE</button><button class = blank_button id = ""BlankButton"" onclick = ""blankResponse()"">SKIP</button><p style=""font-size: 2.4rem""><u><b>Current Answer:</b></u></p><br><br><div id=echoed_txt style=""font-size: 5rem; color:blue;""><b></b></div></div>",enter,ospan,retrieval,UGYYcbnSNFXqruozRNRvZ9PKAOt1,html-keyboard-response,105,593523,0.0-43.0-3.0-0.0-2.0,3,3,3,3.0,"[""S"",""Y"",""C""]","[""S"",""Y"",""C""]",1.0,3.0,,,,,,,59baf1a2178f1b0001828a26,20:18:09,06/03/2024
794.1999999284744,[''],0,ospan,feedback,UGYYcbnSNFXqruozRNRvZ9PKAOt1,html-button-response,106,594841,0.0-43.0-3.0-0.0-3.0,,,,,,,,,,,,100.0,0.0,,59baf1a2178f1b0001828a26,20:18:09,06/03/2024
,"<p style=""font-size:75px;"">...</p>",,ospan,iti,UGYYcbnSNFXqruozRNRvZ9PKAOt1,html-keyboard-response,107,595855,0.0-43.0-4.0-0.0-0.0,,,,,,,,,,,,,,,59baf1a2178f1b0001828a26,20:18:09,06/03/2024
2186.0,,,ospan,symmetry,UGYYcbnSNFXqruozRNRvZ9PKAOt1,symmetry-judgement-task,108,599733,0.0-43.0-4.0-0.0-1.0-0.0,,,,,,,,,,1.0,1.0,,,,59baf1a2178f1b0001828a26,20:18:09,06/03/2024
,"<div style=""font-size: 10rem; color: #0000FF"">Q</div>",,ospan,letter,UGYYcbnSNFXqruozRNRvZ9PKAOt1,html-keyboard-response,109,600740,0.0-43.0-4.0-0.0-1.0-1.0,,,,,,,,,,,,,,,59baf1a2178f1b0001828a26,20:18:09,06/03/2024
3418.0,,,ospan,symmetry,UGYYcbnSNFXqruozRNRvZ9PKAOt1,symmetry-judgement-task,110,606558,0.0-43.0-4.0-0.0-1.0-2.0,,,,,,,,,,1.0,1.0,,,,59baf1a2178f1b0001828a26,20:18:09,06/03/2024
,"<div style=""font-size: 10rem; color: #0000FF"">R</div>",,ospan,letter,UGYYcbnSNFXqruozRNRvZ9PKAOt1,html-keyboard-response,111,607566,0.0-43.0-4.0-0.0-1.0-3.0,,,,,,,,,,,,,,,59baf1a2178f1b0001828a26,20:18:09,06/03/2024
1621.0,,,ospan,symmetry,UGYYcbnSNFXqruozRNRvZ9PKAOt1,symmetry-judgement-task,112,611617,0.0-43.0-4.0-0.0-1.0-4.0,,,,,,,,,,1.0,1.0,,,,59baf1a2178f1b0001828a26,20:18:09,06/03/2024
,"<div style=""font-size: 10rem; color: #0000FF"">J</div>",,ospan,letter,UGYYcbnSNFXqruozRNRvZ9PKAOt1,html-keyboard-response,113,612627,0.0-43.0-4.0-0.0-1.0-5.0,,,,,,,,,,,,,,,59baf1a2178f1b0001828a26,20:18:09,06/03/2024
3299.0,,,ospan,symmetry,UGYYcbnSNFXqruozRNRvZ9PKAOt1,symmetry-judgement-task,114,618335,0.0-43.0-4.0-0.0-1.0-6.0,,,,,,,,,,1.0,1.0,,,,59baf1a2178f1b0001828a26,20:18:09,06/03/2024
,"<div style=""font-size: 10rem; color: #0000FF"">N</div>",,ospan,letter,UGYYcbnSNFXqruozRNRvZ9PKAOt1,html-keyboard-response,115,619340,0.0-43.0-4.0-0.0-1.0-7.0,,,,,,,,,,,,,,,59baf1a2178f1b0001828a26,20:18:09,06/03/2024
5730.5,"<div class = numbox><p style=""font-size: 2.4rem"">Please recall the letters you saw to the best of your ability. If you do not remember a particular letter, use the SKIP button.<br><b>(When you are ready to lock in your answer, press ENTER)</b></p><button id = button_1 class = ""square num-button"" onclick = ""recordClick(this)""><div class = content><div class = numbers>C</div></div></button><button id = button_2 class = ""square num-button"" onclick = ""recordClick(this)""><div class = content><div class = numbers>G</div></div></button><button id = button_3 class = ""square num-button"" onclick = ""recordClick(this)""><div class = content><div class = numbers>H</div></div></button><button id = button_4 class = ""square num-button"" onclick = ""recordClick(this)""><div class = content><div class = numbers>J</div></div></button><button id = button_5 class = ""square num-button"" onclick = ""recordClick(this)""><div class = content><div class = numbers>K</div></div></button><button id = button_6 class = ""square num-button"" onclick = ""recordClick(this)""><div class = content><div class = numbers>L</div></div></button><button id = button_7 class = ""square num-button"" onclick = ""recordClick(this)""><div class = content><div class = numbers>N</div></div></button><button id = button_8 class = ""square num-button"" onclick = ""recordClick(this)""><div class = content><div class = numbers>P</div></div></button><button id = button_9 class = ""square num-button"" onclick = ""recordClick(this)""><div class = content><div class = numbers>Q</div></div></button><button id = button_10 class = ""square num-button"" onclick = ""recordClick(this)""><div class = content><div class = numbers>R</div></div></button><button id = button_11 class = ""square num-button"" onclick = ""recordClick(this)""><div class = content><div class = numbers>S</div></div></button><button id = button_12 class = ""square num-button"" onclick = ""recordClick(this)""><div class = content><div class = numbers>Y</div></div></button><button class = clear_button id = ""ClearButton"" onclick = ""clearResponse()"">BACKSPACE</button><button class = blank_button id = ""BlankButton"" onclick = ""blankResponse()"">SKIP</button><p style=""font-size: 2.4rem""><u><b>Current Answer:</b></u></p><br><br><div id=echoed_txt style=""font-size: 5rem; color:blue;""><b></b></div></div>",enter,ospan,retrieval,UGYYcbnSNFXqruozRNRvZ9PKAOt1,html-keyboard-response,116,625829,0.0-43.0-4.0-0.0-2.0,7,7,7,4.0,"[""Q"",""R"",""J"",""N""]","[""Q"",""R"",""J"",""N""]",1.0,4.0,,,,,,,59baf1a2178f1b0001828a26,20:18:09,06/03/2024
1158.1999999284744,[''],0,ospan,feedback,UGYYcbnSNFXqruozRNRvZ9PKAOt1,html-button-response,117,627507,0.0-43.0-4.0-0.0-3.0,,,,,,,,,,,,100.0,0.0,,59baf1a2178f1b0001828a26,20:18:09,06/03/2024
,"<p style=""font-size:75px;"">...</p>",,ospan,iti,UGYYcbnSNFXqruozRNRvZ9PKAOt1,html-keyboard-response,118,628518,0.0-43.0-4.0-1.0-0.0,,,,,,,,,,,,,,,59baf1a2178f1b0001828a26,20:18:09,06/03/2024
2338.0,,,ospan,symmetry,UGYYcbnSNFXqruozRNRvZ9PKAOt1,symmetry-judgement-task,119,632652,0.0-43.0-4.0-1.0-1.0-0.0,,,,,,,,,,1.0,1.0,,,,59baf1a2178f1b0001828a26,20:18:09,06/03/2024
,"<div style=""font-size: 10rem; color: #0000FF"">C</div>",,ospan,letter,UGYYcbnSNFXqruozRNRvZ9PKAOt1,html-keyboard-response,120,633664,0.0-43.0-4.0-1.0-1.0-1.0,,,,,,,,,,,,,,,59baf1a2178f1b0001828a26,20:18:09,06/03/2024
1946.0,,,ospan,symmetry,UGYYcbnSNFXqruozRNRvZ9PKAOt1,symmetry-judgement-task,121,638052,0.0-43.0-4.0-1.0-1.0-2.0,,,,,,,,,,1.0,1.0,,,,59baf1a2178f1b0001828a26,20:18:09,06/03/2024
,"<div style=""font-size: 10rem; color: #0000FF"">Y</div>",,ospan,letter,UGYYcbnSNFXqruozRNRvZ9PKAOt1,html-keyboard-response,122,639075,0.0-43.0-4.0-1.0-1.0-3.0,,,,,,,,,,,,,,,59baf1a2178f1b0001828a26,20:18:09,06/03/2024
2588.0,,,ospan,symmetry,UGYYcbnSNFXqruozRNRvZ9PKAOt1,symmetry-judgement-task,123,644039,0.0-43.0-4.0-1.0-1.0-4.0,,,,,,,,,,1.0,1.0,,,,59baf1a2178f1b0001828a26,20:18:09,06/03/2024
,"<div style=""font-size: 10rem; color: #0000FF"">P</div>",,ospan,letter,UGYYcbnSNFXqruozRNRvZ9PKAOt1,html-keyboard-response,124,645045,0.0-43.0-4.0-1.0-1.0-5.0,,,,,,,,,,,,,,,59baf1a2178f1b0001828a26,20:18:09,06/03/2024
2418.0,,,ospan,symmetry,UGYYcbnSNFXqruozRNRvZ9PKAOt1,symmetry-judgement-task,125,649853,0.0-43.0-4.0-1.0-1.0-6.0,,,,,,,,,,1.0,1.0,,,,59baf1a2178f1b0001828a26,20:18:09,06/03/2024
,"<div style=""font-size: 10rem; color: #0000FF"">R</div>",,ospan,letter,UGYYcbnSNFXqruozRNRvZ9PKAOt1,html-keyboard-response,126,650867,0.0-43.0-4.0-1.0-1.0-7.0,,,,,,,,,,,,,,,59baf1a2178f1b0001828a26,20:18:09,06/03/2024
1920.0,,,ospan,symmetry,UGYYcbnSNFXqruozRNRvZ9PKAOt1,symmetry-judgement-task,127,655315,0.0-43.0-4.0-1.0-1.0-8.0,,,,,,,,,,1.0,1.0,,,,59baf1a2178f1b0001828a26,20:18:09,06/03/2024
,"<div style=""font-size: 10rem; color: #0000FF"">G</div>",,ospan,letter,UGYYcbnSNFXqruozRNRvZ9PKAOt1,html-keyboard-response,128,656332,0.0-43.0-4.0-1.0-1.0-9.0,,,,,,,,,,,,,,,59baf1a2178f1b0001828a26,20:18:09,06/03/2024
5309.600000023842,"<div class = numbox><p style=""font-size: 2.4rem"">Please recall the letters you saw to the best of your ability. If you do not remember a particular letter, use the SKIP button.<br><b>(When you are ready to lock in your answer, press ENTER)</b></p><button id = button_1 class = ""square num-button"" onclick = ""recordClick(this)""><div class = content><div class = numbers>C</div></div></button><button id = button_2 class = ""square num-button"" onclick = ""recordClick(this)""><div class = content><div class = numbers>G</div></div></button><button id = button_3 class = ""square num-button"" onclick = ""recordClick(this)""><div class = content><div class = numbers>H</div></div></button><button id = button_4 class = ""square num-button"" onclick = ""recordClick(this)""><div class = content><div class = numbers>J</div></div></button><button id = button_5 class = ""square num-button"" onclick = ""recordClick(this)""><div class = content><div class = numbers>K</div></div></button><button id = button_6 class = ""square num-button"" onclick = ""recordClick(this)""><div class = content><div class = numbers>L</div></div></button><button id = button_7 class = ""square num-button"" onclick = ""recordClick(this)""><div class = content><div class = numbers>N</div></div></button><button id = button_8 class = ""square num-button"" onclick = ""recordClick(this)""><div class = content><div class = numbers>P</div></div></button><button id = button_9 class = ""square num-button"" onclick = ""recordClick(this)""><div class = content><div class = numbers>Q</div></div></button><button id = button_10 class = ""square num-button"" onclick = ""recordClick(this)""><div class = content><div class = numbers>R</div></div></button><button id = button_11 class = ""square num-button"" onclick = ""recordClick(this)""><div class = content><div class = numbers>S</div></div></button><button id = button_12 class = ""square num-button"" onclick = ""recordClick(this)""><div class = content><div class = numbers>Y</div></div></button><button class = clear_button id = ""ClearButton"" onclick = ""clearResponse()"">BACKSPACE</button><button class = blank_button id = ""BlankButton"" onclick = ""blankResponse()"">SKIP</button><p style=""font-size: 2.4rem""><u><b>Current Answer:</b></u></p><br><br><div id=echoed_txt style=""font-size: 5rem; color:blue;""><b></b></div></div>",enter,ospan,retrieval,UGYYcbnSNFXqruozRNRvZ9PKAOt1,html-keyboard-response,129,662410,0.0-43.0-4.0-1.0-2.0,12,12,12,5.0,"[""C"",""Y"",""P"",""R"",""G""]","[""C"",""Y"",""P"",""R"",""G""]",1.0,5.0,,,,,,,59baf1a2178f1b0001828a26,20:18:09,06/03/2024
1082.9000000953674,[''],0,ospan,feedback,UGYYcbnSNFXqruozRNRvZ9PKAOt1,html-button-response,130,664011,0.0-43.0-4.0-1.0-3.0,,,,,,,,,,,,100.0,0.0,,59baf1a2178f1b0001828a26,20:18:09,06/03/2024
,"<p style=""font-size:75px;"">...</p>",,ospan,iti,UGYYcbnSNFXqruozRNRvZ9PKAOt1,html-keyboard-response,131,665021,0.0-43.0-4.0-2.0-0.0,,,,,,,,,,,,,,,59baf1a2178f1b0001828a26,20:18:09,06/03/2024
1859.0,,,ospan,symmetry,UGYYcbnSNFXqruozRNRvZ9PKAOt1,symmetry-judgement-task,132,668780,0.0-43.0-4.0-2.0-1.0-0.0,,,,,,,,,,1.0,1.0,,,,59baf1a2178f1b0001828a26,20:18:09,06/03/2024
,"<div style=""font-size: 10rem; color: #0000FF"">P</div>",,ospan,letter,UGYYcbnSNFXqruozRNRvZ9PKAOt1,html-keyboard-response,133,669801,0.0-43.0-4.0-2.0-1.0-1.0,,,,,,,,,,,,,,,59baf1a2178f1b0001828a26,20:18:09,06/03/2024
3102.0,,,ospan,symmetry,UGYYcbnSNFXqruozRNRvZ9PKAOt1,symmetry-judgement-task,134,675369,0.0-43.0-4.0-2.0-1.0-2.0,,,,,,,,,,1.0,1.0,,,,59baf1a2178f1b0001828a26,20:18:09,06/03/2024
,"<div style=""font-size: 10rem; color: #0000FF"">L</div>",,ospan,letter,UGYYcbnSNFXqruozRNRvZ9PKAOt1,html-keyboard-response,135,676391,0.0-43.0-4.0-2.0-1.0-3.0,,,,,,,,,,,,,,,59baf1a2178f1b0001828a26,20:18:09,06/03/2024
2502.0,,,ospan,symmetry,UGYYcbnSNFXqruozRNRvZ9PKAOt1,symmetry-judgement-task,136,681371,0.0-43.0-4.0-2.0-1.0-4.0,,,,,,,,,,1.0,1.0,,,,59baf1a2178f1b0001828a26,20:18:09,06/03/2024
,"<div style=""font-size: 10rem; color: #0000FF"">Q</div>",,ospan,letter,UGYYcbnSNFXqruozRNRvZ9PKAOt1,html-keyboard-response,137,682384,0.0-43.0-4.0-2.0-1.0-5.0,,,,,,,,,,,,,,,59baf1a2178f1b0001828a26,20:18:09,06/03/2024
3729.0,"<div class = numbox><p style=""font-size: 2.4rem"">Please recall the letters you saw to the best of your ability. If you do not remember a particular letter, use the SKIP button.<br><b>(When you are ready to lock in your answer, press ENTER)</b></p><button id = button_1 class = ""square num-button"" onclick = ""recordClick(this)""><div class = content><div class = numbers>C</div></div></button><button id = button_2 class = ""square num-button"" onclick = ""recordClick(this)""><div class = content><div class = numbers>G</div></div></button><button id = button_3 class = ""square num-button"" onclick = ""recordClick(this)""><div class = content><div class = numbers>H</div></div></button><button id = button_4 class = ""square num-button"" onclick = ""recordClick(this)""><div class = content><div class = numbers>J</div></div></button><button id = button_5 class = ""square num-button"" onclick = ""recordClick(this)""><div class = content><div class = numbers>K</div></div></button><button id = button_6 class = ""square num-button"" onclick = ""recordClick(this)""><div class = content><div class = numbers>L</div></div></button><button id = button_7 class = ""square num-button"" onclick = ""recordClick(this)""><div class = content><div class = numbers>N</div></div></button><button id = button_8 class = ""square num-button"" onclick = ""recordClick(this)""><div class = content><div class = numbers>P</div></div></button><button id = button_9 class = ""square num-button"" onclick = ""recordClick(this)""><div class = content><div class = numbers>Q</div></div></button><button id = button_10 class = ""square num-button"" onclick = ""recordClick(this)""><div class = content><div class = numbers>R</div></div></button><button id = button_11 class = ""square num-button"" onclick = ""recordClick(this)""><div class = content><div class = numbers>S</div></div></button><button id = button_12 class = ""square num-button"" onclick = ""recordClick(this)""><div class = content><div class = numbers>Y</div></div></button><button class = clear_button id = ""ClearButton"" onclick = ""clearResponse()"">BACKSPACE</button><button class = blank_button id = ""BlankButton"" onclick = ""blankResponse()"">SKIP</button><p style=""font-size: 2.4rem""><u><b>Current Answer:</b></u></p><br><br><div id=echoed_txt style=""font-size: 5rem; color:blue;""><b></b></div></div>",enter,ospan,retrieval,UGYYcbnSNFXqruozRNRvZ9PKAOt1,html-keyboard-response,138,686867,0.0-43.0-4.0-2.0-2.0,15,15,15,3.0,"[""P"",""L"",""Q""]","[""P"",""L"",""Q""]",1.0,3.0,,,,,,,59baf1a2178f1b0001828a26,20:18:09,06/03/2024
1177.5999999046326,[''],0,ospan,feedback,UGYYcbnSNFXqruozRNRvZ9PKAOt1,html-button-response,139,688562,0.0-43.0-4.0-2.0-3.0,,,,,,,,,,,,100.0,0.0,,59baf1a2178f1b0001828a26,20:18:09,06/03/2024
,"<p style=""font-size:75px;"">...</p>",,ospan,iti,UGYYcbnSNFXqruozRNRvZ9PKAOt1,html-keyboard-response,140,689576,0.0-43.0-5.0-0.0-0.0,,,,,,,,,,,,,,,59baf1a2178f1b0001828a26,20:18:09,06/03/2024
1784.0,,,ospan,symmetry,UGYYcbnSNFXqruozRNRvZ9PKAOt1,symmetry-judgement-task,141,693141,0.0-43.0-5.0-0.0-1.0-0.0,,,,,,,,,,1.0,1.0,,,,59baf1a2178f1b0001828a26,20:18:09,06/03/2024
,"<div style=""font-size: 10rem; color: #0000FF"">S</div>",,ospan,letter,UGYYcbnSNFXqruozRNRvZ9PKAOt1,html-keyboard-response,142,694148,0.0-43.0-5.0-0.0-1.0-1.0,,,,,,,,,,,,,,,59baf1a2178f1b0001828a26,20:18:09,06/03/2024
1990.0,,,ospan,symmetry,UGYYcbnSNFXqruozRNRvZ9PKAOt1,symmetry-judgement-task,143,698592,0.0-43.0-5.0-0.0-1.0-2.0,,,,,,,,,,1.0,1.0,,,,59baf1a2178f1b0001828a26,20:18:09,06/03/2024
,"<div style=""font-size: 10rem; color: #0000FF"">N</div>",,ospan,letter,UGYYcbnSNFXqruozRNRvZ9PKAOt1,html-keyboard-response,144,699618,0.0-43.0-5.0-0.0-1.0-3.0,,,,,,,,,,,,,,,59baf1a2178f1b0001828a26,20:18:09,06/03/2024
1334.0,,,ospan,symmetry,UGYYcbnSNFXqruozRNRvZ9PKAOt1,symmetry-judgement-task,145,703355,0.0-43.0-5.0-0.0-1.0-4.0,,,,,,,,,,1.0,1.0,,,,59baf1a2178f1b0001828a26,20:18:09,06/03/2024
,"<div style=""font-size: 10rem; color: #0000FF"">J</div>",,ospan,letter,UGYYcbnSNFXqruozRNRvZ9PKAOt1,html-keyboard-response,146,704364,0.0-43.0-5.0-0.0-1.0-5.0,,,,,,,,,,,,,,,59baf1a2178f1b0001828a26,20:18:09,06/03/2024
1511.0,,,ospan,symmetry,UGYYcbnSNFXqruozRNRvZ9PKAOt1,symmetry-judgement-task,147,708296,0.0-43.0-5.0-0.0-1.0-6.0,,,,,,,,,,1.0,1.0,,,,59baf1a2178f1b0001828a26,20:18:09,06/03/2024
,"<div style=""font-size: 10rem; color: #0000FF"">K</div>",,ospan,letter,UGYYcbnSNFXqruozRNRvZ9PKAOt1,html-keyboard-response,148,709305,0.0-43.0-5.0-0.0-1.0-7.0,,,,,,,,,,,,,,,59baf1a2178f1b0001828a26,20:18:09,06/03/2024
1545.0,,,ospan,symmetry,UGYYcbnSNFXqruozRNRvZ9PKAOt1,symmetry-judgement-task,149,713275,0.0-43.0-5.0-0.0-1.0-8.0,,,,,,,,,,1.0,1.0,,,,59baf1a2178f1b0001828a26,20:18:09,06/03/2024
,"<div style=""font-size: 10rem; color: #0000FF"">L</div>",,ospan,letter,UGYYcbnSNFXqruozRNRvZ9PKAOt1,html-keyboard-response,150,714283,0.0-43.0-5.0-0.0-1.0-9.0,,,,,,,,,,,,,,,59baf1a2178f1b0001828a26,20:18:09,06/03/2024
3620.0,,,ospan,symmetry,UGYYcbnSNFXqruozRNRvZ9PKAOt1,symmetry-judgement-task,151,720258,0.0-43.0-5.0-0.0-1.0-10.0,,,,,,,,,,1.0,1.0,,,,59baf1a2178f1b0001828a26,20:18:09,06/03/2024
,"<div style=""font-size: 10rem; color: #0000FF"">R</div>",,ospan,letter,UGYYcbnSNFXqruozRNRvZ9PKAOt1,html-keyboard-response,152,721277,0.0-43.0-5.0-0.0-1.0-11.0,,,,,,,,,,,,,,,59baf1a2178f1b0001828a26,20:18:09,06/03/2024
6498.0,"<div class = numbox><p style=""font-size: 2.4rem"">Please recall the letters you saw to the best of your ability. If you do not remember a particular letter, use the SKIP button.<br><b>(When you are ready to lock in your answer, press ENTER)</b></p><button id = button_1 class = ""square num-button"" onclick = ""recordClick(this)""><div class = content><div class = numbers>C</div></div></button><button id = button_2 class = ""square num-button"" onclick = ""recordClick(this)""><div class = content><div class = numbers>G</div></div></button><button id = button_3 class = ""square num-button"" onclick = ""recordClick(this)""><div class = content><div class = numbers>H</div></div></button><button id = button_4 class = ""square num-button"" onclick = ""recordClick(this)""><div class = content><div class = numbers>J</div></div></button><button id = button_5 class = ""square num-button"" onclick = ""recordClick(this)""><div class = content><div class = numbers>K</div></div></button><button id = button_6 class = ""square num-button"" onclick = ""recordClick(this)""><div class = content><div class = numbers>L</div></div></button><button id = button_7 class = ""square num-button"" onclick = ""recordClick(this)""><div class = content><div class = numbers>N</div></div></button><button id = button_8 class = ""square num-button"" onclick = ""recordClick(this)""><div class = content><div class = numbers>P</div></div></button><button id = button_9 class = ""square num-button"" onclick = ""recordClick(this)""><div class = content><div class = numbers>Q</div></div></button><button id = button_10 class = ""square num-button"" onclick = ""recordClick(this)""><div class = content><div class = numbers>R</div></div></button><button id = button_11 class = ""square num-button"" onclick = ""recordClick(this)""><div class = content><div class = numbers>S</div></div></button><button id = button_12 class = ""square num-button"" onclick = ""recordClick(this)""><div class = content><div class = numbers>Y</div></div></button><button class = clear_button id = ""ClearButton"" onclick = ""clearResponse()"">BACKSPACE</button><button class = blank_button id = ""BlankButton"" onclick = ""blankResponse()"">SKIP</button><p style=""font-size: 2.4rem""><u><b>Current Answer:</b></u></p><br><br><div id=echoed_txt style=""font-size: 5rem; color:blue;""><b></b></div></div>",enter,ospan,retrieval,UGYYcbnSNFXqruozRNRvZ9PKAOt1,html-keyboard-response,153,728540,0.0-43.0-5.0-0.0-2.0,21,19,15,6.0,"[""S"",""N"",""K"",""J"",""L"",""R""]","[""S"",""N"",""J"",""K"",""L"",""R""]",0.0,4.0,,,,,,,59baf1a2178f1b0001828a26,20:18:09,06/03/2024
920.1000000238419,[''],0,ospan,feedback,UGYYcbnSNFXqruozRNRvZ9PKAOt1,html-button-response,154,729978,0.0-43.0-5.0-0.0-3.0,,,,,,,,,,,,100.0,0.0,,59baf1a2178f1b0001828a26,20:18:09,06/03/2024
,"<p style=""font-size:75px;"">...</p>",,ospan,iti,UGYYcbnSNFXqruozRNRvZ9PKAOt1,html-keyboard-response,155,730992,0.0-43.0-5.0-1.0-0.0,,,,,,,,,,,,,,,59baf1a2178f1b0001828a26,20:18:09,06/03/2024
1479.0,,,ospan,symmetry,UGYYcbnSNFXqruozRNRvZ9PKAOt1,symmetry-judgement-task,156,734300,0.0-43.0-5.0-1.0-1.0-0.0,,,,,,,,,,1.0,1.0,,,,59baf1a2178f1b0001828a26,20:18:09,06/03/2024
,"<div style=""font-size: 10rem; color: #0000FF"">J</div>",,ospan,letter,UGYYcbnSNFXqruozRNRvZ9PKAOt1,html-keyboard-response,157,735340,0.0-43.0-5.0-1.0-1.0-1.0,,,,,,,,,,,,,,,59baf1a2178f1b0001828a26,20:18:09,06/03/2024
1944.0,,,ospan,symmetry,UGYYcbnSNFXqruozRNRvZ9PKAOt1,symmetry-judgement-task,158,739753,0.0-43.0-5.0-1.0-1.0-2.0,,,,,,,,,,1.0,1.0,,,,59baf1a2178f1b0001828a26,20:18:09,06/03/2024
,"<div style=""font-size: 10rem; color: #0000FF"">K</div>",,ospan,letter,UGYYcbnSNFXqruozRNRvZ9PKAOt1,html-keyboard-response,159,740778,0.0-43.0-5.0-1.0-1.0-3.0,,,,,,,,,,,,,,,59baf1a2178f1b0001828a26,20:18:09,06/03/2024
1358.0,,,ospan,symmetry,UGYYcbnSNFXqruozRNRvZ9PKAOt1,symmetry-judgement-task,160,744561,0.0-43.0-5.0-1.0-1.0-4.0,,,,,,,,,,1.0,1.0,,,,59baf1a2178f1b0001828a26,20:18:09,06/03/2024
,"<div style=""font-size: 10rem; color: #0000FF"">Y</div>",,ospan,letter,UGYYcbnSNFXqruozRNRvZ9PKAOt1,html-keyboard-response,161,745572,0.0-43.0-5.0-1.0-1.0-5.0,,,,,,,,,,,,,,,59baf1a2178f1b0001828a26,20:18:09,06/03/2024
1405.0,,,ospan,symmetry,UGYYcbnSNFXqruozRNRvZ9PKAOt1,symmetry-judgement-task,162,749367,0.0-43.0-5.0-1.0-1.0-6.0,,,,,,,,,,1.0,1.0,,,,59baf1a2178f1b0001828a26,20:18:09,06/03/2024
,"<div style=""font-size: 10rem; color: #0000FF"">H</div>",,ospan,letter,UGYYcbnSNFXqruozRNRvZ9PKAOt1,html-keyboard-response,163,750382,0.0-43.0-5.0-1.0-1.0-7.0,,,,,,,,,,,,,,,59baf1a2178f1b0001828a26,20:18:09,06/03/2024
1412.0,,,ospan,symmetry,UGYYcbnSNFXqruozRNRvZ9PKAOt1,symmetry-judgement-task,164,754228,0.0-43.0-5.0-1.0-1.0-8.0,,,,,,,,,,1.0,1.0,,,,59baf1a2178f1b0001828a26,20:18:09,06/03/2024
,"<div style=""font-size: 10rem; color: #0000FF"">S</div>",,ospan,letter,UGYYcbnSNFXqruozRNRvZ9PKAOt1,html-keyboard-response,165,755238,0.0-43.0-5.0-1.0-1.0-9.0,,,,,,,,,,,,,,,59baf1a2178f1b0001828a26,20:18:09,06/03/2024
5808.0,,,ospan,symmetry,UGYYcbnSNFXqruozRNRvZ9PKAOt1,symmetry-judgement-task,166,763478,0.0-43.0-5.0-1.0-1.0-10.0,,,,,,,,,,1.0,1.0,,,,59baf1a2178f1b0001828a26,20:18:09,06/03/2024
,"<div style=""font-size: 10rem; color: #0000FF"">C</div>",,ospan,letter,UGYYcbnSNFXqruozRNRvZ9PKAOt1,html-keyboard-response,167,764496,0.0-43.0-5.0-1.0-1.0-11.0,,,,,,,,,,,,,,,59baf1a2178f1b0001828a26,20:18:09,06/03/2024
1411.0,,,ospan,symmetry,UGYYcbnSNFXqruozRNRvZ9PKAOt1,symmetry-judgement-task,168,768282,0.0-43.0-5.0-1.0-1.0-12.0,,,,,,,,,,1.0,1.0,,,,59baf1a2178f1b0001828a26,20:18:09,06/03/2024
,"<div style=""font-size: 10rem; color: #0000FF"">N</div>",,ospan,letter,UGYYcbnSNFXqruozRNRvZ9PKAOt1,html-keyboard-response,169,769308,0.0-43.0-5.0-1.0-1.0-13.0,,,,,,,,,,,,,,,59baf1a2178f1b0001828a26,20:18:09,06/03/2024
10696.199999928474,"<div class = numbox><p style=""font-size: 2.4rem"">Please recall the letters you saw to the best of your ability. If you do not remember a particular letter, use the SKIP button.<br><b>(When you are ready to lock in your answer, press ENTER)</b></p><button id = button_1 class = ""square num-button"" onclick = ""recordClick(this)""><div class = content><div class = numbers>C</div></div></button><button id = button_2 class = ""square num-button"" onclick = ""recordClick(this)""><div class = content><div class = numbers>G</div></div></button><button id = button_3 class = ""square num-button"" onclick = ""recordClick(this)""><div class = content><div class = numbers>H</div></div></button><button id = button_4 class = ""square num-button"" onclick = ""recordClick(this)""><div class = content><div class = numbers>J</div></div></button><button id = button_5 class = ""square num-button"" onclick = ""recordClick(this)""><div class = content><div class = numbers>K</div></div></button><button id = button_6 class = ""square num-button"" onclick = ""recordClick(this)""><div class = content><div class = numbers>L</div></div></button><button id = button_7 class = ""square num-button"" onclick = ""recordClick(this)""><div class = content><div class = numbers>N</div></div></button><button id = button_8 class = ""square num-button"" onclick = ""recordClick(this)""><div class = content><div class = numbers>P</div></div></button><button id = button_9 class = ""square num-button"" onclick = ""recordClick(this)""><div class = content><div class = numbers>Q</div></div></button><button id = button_10 class = ""square num-button"" onclick = ""recordClick(this)""><div class = content><div class = numbers>R</div></div></button><button id = button_11 class = ""square num-button"" onclick = ""recordClick(this)""><div class = content><div class = numbers>S</div></div></button><button id = button_12 class = ""square num-button"" onclick = ""recordClick(this)""><div class = content><div class = numbers>Y</div></div></button><button class = clear_button id = ""ClearButton"" onclick = ""clearResponse()"">BACKSPACE</button><button class = blank_button id = ""BlankButton"" onclick = ""blankResponse()"">SKIP</button><p style=""font-size: 2.4rem""><u><b>Current Answer:</b></u></p><br><br><div id=echoed_txt style=""font-size: 5rem; color:blue;""><b></b></div></div>",enter,ospan,retrieval,UGYYcbnSNFXqruozRNRvZ9PKAOt1,html-keyboard-response,170,780761,0.0-43.0-5.0-1.0-2.0,28,24,15,7.0,"[""J"",""K"",""Y"",""S"",""H"",""C"",""N""]","[""J"",""K"",""Y"",""H"",""S"",""C"",""N""]",0.0,5.0,,,,,,,59baf1a2178f1b0001828a26,20:18:09,06/03/2024
1193.5999999046326,[''],0,ospan,feedback,UGYYcbnSNFXqruozRNRvZ9PKAOt1,html-button-response,171,782466,0.0-43.0-5.0-1.0-3.0,,,,,,,,,,,,100.0,0.0,,59baf1a2178f1b0001828a26,20:18:09,06/03/2024
,"<p style=""font-size:75px;"">...</p>",,ospan,iti,UGYYcbnSNFXqruozRNRvZ9PKAOt1,html-keyboard-response,172,783489,0.0-43.0-6.0-0.0-0.0,,,,,,,,,,,,,,,59baf1a2178f1b0001828a26,20:18:09,06/03/2024
1479.0,,,ospan,symmetry,UGYYcbnSNFXqruozRNRvZ9PKAOt1,symmetry-judgement-task,173,786847,0.0-43.0-6.0-0.0-1.0-0.0,,,,,,,,,,1.0,1.0,,,,59baf1a2178f1b0001828a26,20:18:09,06/03/2024
,"<div style=""font-size: 10rem; color: #0000FF"">G</div>",,ospan,letter,UGYYcbnSNFXqruozRNRvZ9PKAOt1,html-keyboard-response,174,787856,0.0-43.0-6.0-0.0-1.0-1.0,,,,,,,,,,,,,,,59baf1a2178f1b0001828a26,20:18:09,06/03/2024
1153.0,,,ospan,symmetry,UGYYcbnSNFXqruozRNRvZ9PKAOt1,symmetry-judgement-task,175,791462,0.0-43.0-6.0-0.0-1.0-2.0,,,,,,,,,,1.0,1.0,,,,59baf1a2178f1b0001828a26,20:18:09,06/03/2024
,"<div style=""font-size: 10rem; color: #0000FF"">R</div>",,ospan,letter,UGYYcbnSNFXqruozRNRvZ9PKAOt1,html-keyboard-response,176,792487,0.0-43.0-6.0-0.0-1.0-3.0,,,,,,,,,,,,,,,59baf1a2178f1b0001828a26,20:18:09,06/03/2024
1322.0,,,ospan,symmetry,UGYYcbnSNFXqruozRNRvZ9PKAOt1,symmetry-judgement-task,177,796181,0.0-43.0-6.0-0.0-1.0-4.0,,,,,,,,,,1.0,1.0,,,,59baf1a2178f1b0001828a26,20:18:09,06/03/2024
,"<div style=""font-size: 10rem; color: #0000FF"">H</div>",,ospan,letter,UGYYcbnSNFXqruozRNRvZ9PKAOt1,html-keyboard-response,178,797190,0.0-43.0-6.0-0.0-1.0-5.0,,,,,,,,,,,,,,,59baf1a2178f1b0001828a26,20:18:09,06/03/2024
1459.0,,,ospan,symmetry,UGYYcbnSNFXqruozRNRvZ9PKAOt1,symmetry-judgement-task,179,801009,0.0-43.0-6.0-0.0-1.0-6.0,,,,,,,,,,1.0,1.0,,,,59baf1a2178f1b0001828a26,20:18:09,06/03/2024
,"<div style=""font-size: 10rem; color: #0000FF"">J</div>",,ospan,letter,UGYYcbnSNFXqruozRNRvZ9PKAOt1,html-keyboard-response,180,802024,0.0-43.0-6.0-0.0-1.0-7.0,,,,,,,,,,,,,,,59baf1a2178f1b0001828a26,20:18:09,06/03/2024
2606.0,,,ospan,symmetry,UGYYcbnSNFXqruozRNRvZ9PKAOt1,symmetry-judgement-task,181,807050,0.0-43.0-6.0-0.0-1.0-8.0,,,,,,,,,,1.0,1.0,,,,59baf1a2178f1b0001828a26,20:18:09,06/03/2024
,"<div style=""font-size: 10rem; color: #0000FF"">Q</div>",,ospan,letter,UGYYcbnSNFXqruozRNRvZ9PKAOt1,html-keyboard-response,182,808061,0.0-43.0-6.0-0.0-1.0-9.0,,,,,,,,,,,,,,,59baf1a2178f1b0001828a26,20:18:09,06/03/2024
11500.699999928474,"<div class = numbox><p style=""font-size: 2.4rem"">Please recall the letters you saw to the best of your ability. If you do not remember a particular letter, use the SKIP button.<br><b>(When you are ready to lock in your answer, press ENTER)</b></p><button id = button_1 class = ""square num-button"" onclick = ""recordClick(this)""><div class = content><div class = numbers>C</div></div></button><button id = button_2 class = ""square num-button"" onclick = ""recordClick(this)""><div class = content><div class = numbers>G</div></div></button><button id = button_3 class = ""square num-button"" onclick = ""recordClick(this)""><div class = content><div class = numbers>H</div></div></button><button id = button_4 class = ""square num-button"" onclick = ""recordClick(this)""><div class = content><div class = numbers>J</div></div></button><button id = button_5 class = ""square num-button"" onclick = ""recordClick(this)""><div class = content><div class = numbers>K</div></div></button><button id = button_6 class = ""square num-button"" onclick = ""recordClick(this)""><div class = content><div class = numbers>L</div></div></button><button id = button_7 class = ""square num-button"" onclick = ""recordClick(this)""><div class = content><div class = numbers>N</div></div></button><button id = button_8 class = ""square num-button"" onclick = ""recordClick(this)""><div class = content><div class = numbers>P</div></div></button><button id = button_9 class = ""square num-button"" onclick = ""recordClick(this)""><div class = content><div class = numbers>Q</div></div></button><button id = button_10 class = ""square num-button"" onclick = ""recordClick(this)""><div class = content><div class = numbers>R</div></div></button><button id = button_11 class = ""square num-button"" onclick = ""recordClick(this)""><div class = content><div class = numbers>S</div></div></button><button id = button_12 class = ""square num-button"" onclick = ""recordClick(this)""><div class = content><div class = numbers>Y</div></div></button><button class = clear_button id = ""ClearButton"" onclick = ""clearResponse()"">BACKSPACE</button><button class = blank_button id = ""BlankButton"" onclick = ""blankResponse()"">SKIP</button><p style=""font-size: 2.4rem""><u><b>Current Answer:</b></u></p><br><br><div id=echoed_txt style=""font-size: 5rem; color:blue;""><b></b></div></div>",enter,ospan,retrieval,UGYYcbnSNFXqruozRNRvZ9PKAOt1,html-keyboard-response,183,820338,0.0-43.0-6.0-0.0-2.0,33,25,15,5.0,"[""J"",""R"",""K"",""L"",""Y""]","[""G"",""R"",""H"",""J"",""Q""]",0.0,1.0,,,,,,,59baf1a2178f1b0001828a26,20:18:09,06/03/2024
939.8999999761581,[''],0,ospan,feedback,UGYYcbnSNFXqruozRNRvZ9PKAOt1,html-button-response,184,821795,0.0-43.0-6.0-0.0-3.0,,,,,,,,,,,,100.0,0.0,,59baf1a2178f1b0001828a26,20:18:09,06/03/2024
,"<p style=""font-size:75px;"">...</p>",,ospan,iti,UGYYcbnSNFXqruozRNRvZ9PKAOt1,html-keyboard-response,185,822801,0.0-43.0-6.0-1.0-0.0,,,,,,,,,,,,,,,59baf1a2178f1b0001828a26,20:18:09,06/03/2024
2581.0,,,ospan,symmetry,UGYYcbnSNFXqruozRNRvZ9PKAOt1,symmetry-judgement-task,186,827211,0.0-43.0-6.0-1.0-1.0-0.0,,,,,,,,,,1.0,1.0,,,,59baf1a2178f1b0001828a26,20:18:09,06/03/2024
,"<div style=""font-size: 10rem; color: #0000FF"">P</div>",,ospan,letter,UGYYcbnSNFXqruozRNRvZ9PKAOt1,html-keyboard-response,187,828221,0.0-43.0-6.0-1.0-1.0-1.0,,,,,,,,,,,,,,,59baf1a2178f1b0001828a26,20:18:09,06/03/2024
1144.0,,,ospan,symmetry,UGYYcbnSNFXqruozRNRvZ9PKAOt1,symmetry-judgement-task,188,831761,0.0-43.0-6.0-1.0-1.0-2.0,,,,,,,,,,1.0,1.0,,,,59baf1a2178f1b0001828a26,20:18:09,06/03/2024
,"<div style=""font-size: 10rem; color: #0000FF"">L</div>",,ospan,letter,UGYYcbnSNFXqruozRNRvZ9PKAOt1,html-keyboard-response,189,832772,0.0-43.0-6.0-1.0-1.0-3.0,,,,,,,,,,,,,,,59baf1a2178f1b0001828a26,20:18:09,06/03/2024
2923.0,,,ospan,symmetry,UGYYcbnSNFXqruozRNRvZ9PKAOt1,symmetry-judgement-task,190,838058,0.0-43.0-6.0-1.0-1.0-4.0,,,,,,,,,,1.0,1.0,,,,59baf1a2178f1b0001828a26,20:18:09,06/03/2024
,"<div style=""font-size: 10rem; color: #0000FF"">N</div>",,ospan,letter,UGYYcbnSNFXqruozRNRvZ9PKAOt1,html-keyboard-response,191,839064,0.0-43.0-6.0-1.0-1.0-5.0,,,,,,,,,,,,,,,59baf1a2178f1b0001828a26,20:18:09,06/03/2024
2184.0,,,ospan,symmetry,UGYYcbnSNFXqruozRNRvZ9PKAOt1,symmetry-judgement-task,192,843672,0.0-43.0-6.0-1.0-1.0-6.0,,,,,,,,,,1.0,1.0,,,,59baf1a2178f1b0001828a26,20:18:09,06/03/2024
,"<div style=""font-size: 10rem; color: #0000FF"">K</div>",,ospan,letter,UGYYcbnSNFXqruozRNRvZ9PKAOt1,html-keyboard-response,193,844683,0.0-43.0-6.0-1.0-1.0-7.0,,,,,,,,,,,,,,,59baf1a2178f1b0001828a26,20:18:09,06/03/2024
1342.0,,,ospan,symmetry,UGYYcbnSNFXqruozRNRvZ9PKAOt1,symmetry-judgement-task,194,848437,0.0-43.0-6.0-1.0-1.0-8.0,,,,,,,,,,1.0,1.0,,,,59baf1a2178f1b0001828a26,20:18:09,06/03/2024
,"<div style=""font-size: 10rem; color: #0000FF"">G</div>",,ospan,letter,UGYYcbnSNFXqruozRNRvZ9PKAOt1,html-keyboard-response,195,849446,0.0-43.0-6.0-1.0-1.0-9.0,,,,,,,,,,,,,,,59baf1a2178f1b0001828a26,20:18:09,06/03/2024
1633.0,,,ospan,symmetry,UGYYcbnSNFXqruozRNRvZ9PKAOt1,symmetry-judgement-task,196,853467,0.0-43.0-6.0-1.0-1.0-10.0,,,,,,,,,,1.0,1.0,,,,59baf1a2178f1b0001828a26,20:18:09,06/03/2024
,"<div style=""font-size: 10rem; color: #0000FF"">Y</div>",,ospan,letter,UGYYcbnSNFXqruozRNRvZ9PKAOt1,html-keyboard-response,197,854491,0.0-43.0-6.0-1.0-1.0-11.0,,,,,,,,,,,,,,,59baf1a2178f1b0001828a26,20:18:09,06/03/2024
1342.0,,,ospan,symmetry,UGYYcbnSNFXqruozRNRvZ9PKAOt1,symmetry-judgement-task,198,858243,0.0-43.0-6.0-1.0-1.0-12.0,,,,,,,,,,1.0,1.0,,,,59baf1a2178f1b0001828a26,20:18:09,06/03/2024
,"<div style=""font-size: 10rem; color: #0000FF"">Q</div>",,ospan,letter,UGYYcbnSNFXqruozRNRvZ9PKAOt1,html-keyboard-response,199,859252,0.0-43.0-6.0-1.0-1.0-13.0,,,,,,,,,,,,,,,59baf1a2178f1b0001828a26,20:18:09,06/03/2024
1891.0,,,ospan,symmetry,UGYYcbnSNFXqruozRNRvZ9PKAOt1,symmetry-judgement-task,200,863602,0.0-43.0-6.0-1.0-1.0-14.0,,,,,,,,,,1.0,1.0,,,,59baf1a2178f1b0001828a26,20:18:09,06/03/2024
,"<div style=""font-size: 10rem; color: #0000FF"">S</div>",,ospan,letter,UGYYcbnSNFXqruozRNRvZ9PKAOt1,html-keyboard-response,201,864621,0.0-43.0-6.0-1.0-1.0-15.0,,,,,,,,,,,,,,,59baf1a2178f1b0001828a26,20:18:09,06/03/2024
7941.100000023842,"<div class = numbox><p style=""font-size: 2.4rem"">Please recall the letters you saw to the best of your ability. If you do not remember a particular letter, use the SKIP button.<br><b>(When you are ready to lock in your answer, press ENTER)</b></p><button id = button_1 class = ""square num-button"" onclick = ""recordClick(this)""><div class = content><div class = numbers>C</div></div></button><button id = button_2 class = ""square num-button"" onclick = ""recordClick(this)""><div class = content><div class = numbers>G</div></div></button><button id = button_3 class = ""square num-button"" onclick = ""recordClick(this)""><div class = content><div class = numbers>H</div></div></button><button id = button_4 class = ""square num-button"" onclick = ""recordClick(this)""><div class = content><div class = numbers>J</div></div></button><button id = button_5 class = ""square num-button"" onclick = ""recordClick(this)""><div class = content><div class = numbers>K</div></div></button><button id = button_6 class = ""square num-button"" onclick = ""recordClick(this)""><div class = content><div class = numbers>L</div></div></button><button id = button_7 class = ""square num-button"" onclick = ""recordClick(this)""><div class = content><div class = numbers>N</div></div></button><button id = button_8 class = ""square num-button"" onclick = ""recordClick(this)""><div class = content><div class = numbers>P</div></div></button><button id = button_9 class = ""square num-button"" onclick = ""recordClick(this)""><div class = content><div class = numbers>Q</div></div></button><button id = button_10 class = ""square num-button"" onclick = ""recordClick(this)""><div class = content><div class = numbers>R</div></div></button><button id = button_11 class = ""square num-button"" onclick = ""recordClick(this)""><div class = content><div class = numbers>S</div></div></button><button id = button_12 class = ""square num-button"" onclick = ""recordClick(this)""><div class = content><div class = numbers>Y</div></div></button><button class = clear_button id = ""ClearButton"" onclick = ""clearResponse()"">BACKSPACE</button><button class = blank_button id = ""BlankButton"" onclick = ""blankResponse()"">SKIP</button><p style=""font-size: 2.4rem""><u><b>Current Answer:</b></u></p><br><br><div id=echoed_txt style=""font-size: 5rem; color:blue;""><b></b></div></div>",enter,ospan,retrieval,UGYYcbnSNFXqruozRNRvZ9PKAOt1,html-keyboard-response,202,873325,0.0-43.0-6.0-1.0-2.0,41,29,15,8.0,"[""P"",""L"",""N"",""Y"",""G"",""Q"",""R""]","[""P"",""L"",""N"",""K"",""G"",""Y"",""Q"",""S""]",0.0,4.0,,,,,,,59baf1a2178f1b0001828a26,20:18:09,06/03/2024
1104.5,[''],0,ospan,feedback,UGYYcbnSNFXqruozRNRvZ9PKAOt1,html-button-response,203,874939,0.0-43.0-6.0-1.0-3.0,,,,,,,,,,,,100.0,0.0,,59baf1a2178f1b0001828a26,20:18:09,06/03/2024
10097.300000071526,,{'Q0': 'I enjoyed the memory challenge'},ospan,survey_ospan,UGYYcbnSNFXqruozRNRvZ9PKAOt1,lmdlab-survey-text,204,885797,0.0-43.0-7.0,,,,,,,,,,,,,,UGYYcbnSNFXqruozRNRvZ9PKAOt1,59baf1a2178f1b0001828a26,20:18:09,06/03/2024
1277.3000000715256,<p><p style='font-size: 3rem'>Great work!<br><br>This completes the symmetry and memory task.</p><br><br><br>,0,ospan,finish,UGYYcbnSNFXqruozRNRvZ9PKAOt1,html-button-response,205,887081,0.0-43.0-8.0,41,29,15,,,,,,,,,100.0,,,59baf1a2178f1b0001828a26,20:18:09,06/03/2024
