rt,stimulus,response,exp_name,exp_stage,subjectID,trial_type,trial_index,time_elapsed,internal_node_id,ospan_shown,ospan_total,ospan_abs,length,resp_actual,resp_correct,full_correct,num_correct,feedback,accuracy,correct,math_acc,math_warning,databaseID,prolificID,start_time,date
2140.0,<div class = 'left_align' style='font-size: 3.25rem; line-height: 1.3;'><p class = 'center_align'><b>Welcome to the Symmetry and Memory Task</b><br><br><br><br></p>Press 'continue' to show the instructions.<br><br><br><br></div>,0,ospan,instruct,6KbECHTxdThzCf1ZLvYERIpF0BE2,html-button-response,54,469216,0.0-46.0-0.0-0.0-0.0,,,,,,,,,,,,,,,6565fff05ec125a5ff77a77c,13:06:28,03/04/2024
8154.0,"<div class = 'left_align' style='font-size: 3.25rem; line-height: 1.3;'><p class = 'center_align'><b>Symmetry and Memory Task</b><br><br></p>In this task, you will try to memorize letters you see on the screen<br>while you also view black and white grid pictures.<br><br>In the next few minutes, you will have some practice to get you familiar<br>with how the task works.<br><br>It may be difficult sometimes, but please do not worry about making mistakes!<br><br>We will begin by practicing the letter part of the task.<br><br><br><br></div>",0,ospan,instruct,6KbECHTxdThzCf1ZLvYERIpF0BE2,html-button-response,55,477625,0.0-46.0-0.0-0.0-1.0,,,,,,,,,,,,,,,6565fff05ec125a5ff77a77c,13:06:28,03/04/2024
18005.99999999994,"<div class = 'left_align' style='font-size: 3.25rem; line-height: 1.3;'>For this practice part, letters will appear on the screen one at a time.<br><br>Try to remember each letter in the order presented.<br><br>After some letters have been shown, you will see a response screen. Your<br>goal is to report the letters you saw <b>in order</b>. If you do not remember<br>a particular letter, you will have the option to leave it blank.<br><br><br><br></div>",0,ospan,instruct,6KbECHTxdThzCf1ZLvYERIpF0BE2,html-button-response,56,495885,0.0-46.0-0.0-0.0-2.0,,,,,,,,,,,,,,,6565fff05ec125a5ff77a77c,13:06:28,03/04/2024
3288.999999999942,"<div class = 'left_align' style='font-size: 3.25rem; line-height: 1.3;'>Remember, it is very important to get the letters in the same<br>order as you see them.<br><br>When you are ready, you may begin the letter practice.</div><br><br><br><br>",0,ospan,instruct,6KbECHTxdThzCf1ZLvYERIpF0BE2,html-button-response,57,499426,0.0-46.0-0.0-0.0-3.0,,,,,,,,,,,,,,,6565fff05ec125a5ff77a77c,13:06:28,03/04/2024
,"<p style=""font-size:75px;"">...</p>",,ospan,iti,6KbECHTxdThzCf1ZLvYERIpF0BE2,html-keyboard-response,58,500680,0.0-46.0-0.0-1.0-0.0,,,,,,,,,,,,,,,6565fff05ec125a5ff77a77c,13:06:28,03/04/2024
,"<div style=""font-size: 10rem; color: #0000FF"">L</div>",,ospan,letter,6KbECHTxdThzCf1ZLvYERIpF0BE2,html-keyboard-response,59,501684,0.0-46.0-0.0-1.0-1.0,,,,,,,,,,,,,,,6565fff05ec125a5ff77a77c,13:06:28,03/04/2024
,"<div style=""font-size: 10rem; color: #0000FF"">H</div>",,ospan,letter,6KbECHTxdThzCf1ZLvYERIpF0BE2,html-keyboard-response,60,503437,0.0-46.0-0.0-1.0-2.0,,,,,,,,,,,,,,,6565fff05ec125a5ff77a77c,13:06:28,03/04/2024
6131.0,"<div class = numbox><p style=""font-size: 2.4rem"">Please recall the letters you saw to the best of your ability. If you do not remember a particular letter, use the SKIP button.<br><b>(When you are ready to lock in your answer, press ENTER)</b></p><button id = button_1 class = ""square num-button"" onclick = ""recordClick(this)""><div class = content><div class = numbers>C</div></div></button><button id = button_2 class = ""square num-button"" onclick = ""recordClick(this)""><div class = content><div class = numbers>G</div></div></button><button id = button_3 class = ""square num-button"" onclick = ""recordClick(this)""><div class = content><div class = numbers>H</div></div></button><button id = button_4 class = ""square num-button"" onclick = ""recordClick(this)""><div class = content><div class = numbers>J</div></div></button><button id = button_5 class = ""square num-button"" onclick = ""recordClick(this)""><div class = content><div class = numbers>K</div></div></button><button id = button_6 class = ""square num-button"" onclick = ""recordClick(this)""><div class = content><div class = numbers>L</div></div></button><button id = button_7 class = ""square num-button"" onclick = ""recordClick(this)""><div class = content><div class = numbers>N</div></div></button><button id = button_8 class = ""square num-button"" onclick = ""recordClick(this)""><div class = content><div class = numbers>P</div></div></button><button id = button_9 class = ""square num-button"" onclick = ""recordClick(this)""><div class = content><div class = numbers>Q</div></div></button><button id = button_10 class = ""square num-button"" onclick = ""recordClick(this)""><div class = content><div class = numbers>R</div></div></button><button id = button_11 class = ""square num-button"" onclick = ""recordClick(this)""><div class = content><div class = numbers>S</div></div></button><button id = button_12 class = ""square num-button"" onclick = ""recordClick(this)""><div class = content><div class = numbers>Y</div></div></button><button class = clear_button id = ""ClearButton"" onclick = ""clearResponse()"">BACKSPACE</button><button class = blank_button id = ""BlankButton"" onclick = ""blankResponse()"">SKIP</button><p style=""font-size: 2.4rem""><u><b>Current Answer:</b></u></p><br><br><div id=echoed_txt style=""font-size: 5rem; color:blue;""><b></b></div></div>",enter,ospan,retrieval,6KbECHTxdThzCf1ZLvYERIpF0BE2,html-keyboard-response,61,510322,0.0-46.0-0.0-1.0-3.0,NA,NA,NA,2.0,"[""L"",""H""]","[""L"",""H""]",1.0,2.0,"['<font color=""green"">L</font>', '<font color=""green"">H</font>']",,,,,,6565fff05ec125a5ff77a77c,13:06:28,03/04/2024
1560.0,"['<p style=""font-size:44px"">Letters:<br><br><br><font color=""green"">L</font> <font color=""green"">H</font></p><br><br>']",0,ospan,practice_feedback,6KbECHTxdThzCf1ZLvYERIpF0BE2,html-button-response,62,512385,0.0-46.0-0.0-1.0-4.0,,,,,,,,,,,,,,,6565fff05ec125a5ff77a77c,13:06:28,03/04/2024
,"<p style=""font-size:75px;"">...</p>",,ospan,iti,6KbECHTxdThzCf1ZLvYERIpF0BE2,html-keyboard-response,63,513388,0.0-46.0-0.0-2.0-0.0,,,,,,,,,,,,,,,6565fff05ec125a5ff77a77c,13:06:28,03/04/2024
,"<div style=""font-size: 10rem; color: #0000FF"">L</div>",,ospan,letter,6KbECHTxdThzCf1ZLvYERIpF0BE2,html-keyboard-response,64,514391,0.0-46.0-0.0-2.0-1.0,,,,,,,,,,,,,,,6565fff05ec125a5ff77a77c,13:06:28,03/04/2024
,"<div style=""font-size: 10rem; color: #0000FF"">Q</div>",,ospan,letter,6KbECHTxdThzCf1ZLvYERIpF0BE2,html-keyboard-response,65,516144,0.0-46.0-0.0-2.0-2.0,,,,,,,,,,,,,,,6565fff05ec125a5ff77a77c,13:06:28,03/04/2024
,"<div style=""font-size: 10rem; color: #0000FF"">J</div>",,ospan,letter,6KbECHTxdThzCf1ZLvYERIpF0BE2,html-keyboard-response,66,517898,0.0-46.0-0.0-2.0-3.0,,,,,,,,,,,,,,,6565fff05ec125a5ff77a77c,13:06:28,03/04/2024
3409.0,"<div class = numbox><p style=""font-size: 2.4rem"">Please recall the letters you saw to the best of your ability. If you do not remember a particular letter, use the SKIP button.<br><b>(When you are ready to lock in your answer, press ENTER)</b></p><button id = button_1 class = ""square num-button"" onclick = ""recordClick(this)""><div class = content><div class = numbers>C</div></div></button><button id = button_2 class = ""square num-button"" onclick = ""recordClick(this)""><div class = content><div class = numbers>G</div></div></button><button id = button_3 class = ""square num-button"" onclick = ""recordClick(this)""><div class = content><div class = numbers>H</div></div></button><button id = button_4 class = ""square num-button"" onclick = ""recordClick(this)""><div class = content><div class = numbers>J</div></div></button><button id = button_5 class = ""square num-button"" onclick = ""recordClick(this)""><div class = content><div class = numbers>K</div></div></button><button id = button_6 class = ""square num-button"" onclick = ""recordClick(this)""><div class = content><div class = numbers>L</div></div></button><button id = button_7 class = ""square num-button"" onclick = ""recordClick(this)""><div class = content><div class = numbers>N</div></div></button><button id = button_8 class = ""square num-button"" onclick = ""recordClick(this)""><div class = content><div class = numbers>P</div></div></button><button id = button_9 class = ""square num-button"" onclick = ""recordClick(this)""><div class = content><div class = numbers>Q</div></div></button><button id = button_10 class = ""square num-button"" onclick = ""recordClick(this)""><div class = content><div class = numbers>R</div></div></button><button id = button_11 class = ""square num-button"" onclick = ""recordClick(this)""><div class = content><div class = numbers>S</div></div></button><button id = button_12 class = ""square num-button"" onclick = ""recordClick(this)""><div class = content><div class = numbers>Y</div></div></button><button class = clear_button id = ""ClearButton"" onclick = ""clearResponse()"">BACKSPACE</button><button class = blank_button id = ""BlankButton"" onclick = ""blankResponse()"">SKIP</button><p style=""font-size: 2.4rem""><u><b>Current Answer:</b></u></p><br><br><div id=echoed_txt style=""font-size: 5rem; color:blue;""><b></b></div></div>",enter,ospan,retrieval,6KbECHTxdThzCf1ZLvYERIpF0BE2,html-keyboard-response,67,522061,0.0-46.0-0.0-2.0-4.0,NA,NA,NA,3.0,"[""L"",""Q"",""J""]","[""L"",""Q"",""J""]",1.0,3.0,"['<font color=""green"">L</font>', '<font color=""green"">Q</font>', '<font color=""green"">J</font>']",,,,,,6565fff05ec125a5ff77a77c,13:06:28,03/04/2024
1836.0000000001164,"['<p style=""font-size:44px"">Letters:<br><br><br><font color=""green"">L</font> <font color=""green"">Q</font> <font color=""green"">J</font></p><br><br>']",0,ospan,practice_feedback,6KbECHTxdThzCf1ZLvYERIpF0BE2,html-button-response,68,524400,0.0-46.0-0.0-2.0-5.0,,,,,,,,,,,,,,,6565fff05ec125a5ff77a77c,13:06:28,03/04/2024
11854.0,"<div class = 'left_align' style='font-size: 3.25rem; line-height: 1.3;'>Now you will practice doing the <b>symmetry judgment part</b> of the experiment.<br><br>A black and white grid picture will appear on the screen and you have to judge if it is <br>symmetrical or asymetrical.<br><br>A picture is 'mirror' symmetrical if its left half is identical to the right half when flipped.<br>Here are examples of a symmetrical and an asymetrical picture:<br><br><center><img src='Stimuli/img/symm_instructions_extra.png' style='height:420px; width:900'></img></center><br>To judge symmetry, imagine you were to fold each picture down the middle, like a book –<br>would the left half match the right half when folded onto each other?<br><br></div><br>",0,ospan,instruct,6KbECHTxdThzCf1ZLvYERIpF0BE2,html-button-response,69,536256,0.0-46.0-1.0-0.0-0.0,,,,,,,,,,,,,,,6565fff05ec125a5ff77a77c,13:06:28,03/04/2024
2765.0,"<div class = 'left_align' style='font-size: 3.25rem; line-height: 1.3;'>When you have viewed the picture and determined whether it is symmetrical or not,<br>you can <b>click the Yes or No button</b> below to answer.<br><br>If you take longer than 15 seconds, it will continue automatically<br>and record the answer as an error.</div><br>",0,ospan,instruct,6KbECHTxdThzCf1ZLvYERIpF0BE2,html-button-response,70,539274,0.0-46.0-1.0-0.0-1.0,,,,,,,,,,,,,,,6565fff05ec125a5ff77a77c,13:06:28,03/04/2024
1132.0,"<div class = 'left_align' style='font-size: 3.25rem; line-height: 1.3;'>It is <b>very</b> important that you make the symmetry judgment correctly.<br><br>It is also important that you try and judge the picture as quickly as you can.<br><br>When you are ready, click on the button below to try some practice problems.</div><br><br><br><br>",0,ospan,instruct,6KbECHTxdThzCf1ZLvYERIpF0BE2,html-button-response,71,540658,0.0-46.0-1.0-0.0-2.0,,,,,,,,,,,,,,,6565fff05ec125a5ff77a77c,13:06:28,03/04/2024
1420.0,,,ospan,symmetry,6KbECHTxdThzCf1ZLvYERIpF0BE2,symmetry-judgement-task,72,542891,0.0-46.0-1.0-1.0-0.0,,,,,,,,,,1.0,1.0,,,,6565fff05ec125a5ff77a77c,13:06:28,03/04/2024
,"<p style=""color:green; font-size: 35px"">Correct</p>",,ospan,feedback,6KbECHTxdThzCf1ZLvYERIpF0BE2,html-keyboard-response,73,543645,0.0-46.0-1.0-1.0-1.0,,,,,,,,,,,,,,,6565fff05ec125a5ff77a77c,13:06:28,03/04/2024
1330.0,,,ospan,symmetry,6KbECHTxdThzCf1ZLvYERIpF0BE2,symmetry-judgement-task,74,547534,0.0-46.0-1.0-1.0-2.0,,,,,,,,,,1.0,1.0,,,,6565fff05ec125a5ff77a77c,13:06:28,03/04/2024
,"<p style=""color:green; font-size: 35px"">Correct</p>",,ospan,feedback,6KbECHTxdThzCf1ZLvYERIpF0BE2,html-keyboard-response,75,548287,0.0-46.0-1.0-1.0-3.0,,,,,,,,,,,,,,,6565fff05ec125a5ff77a77c,13:06:28,03/04/2024
787.0,,,ospan,symmetry,6KbECHTxdThzCf1ZLvYERIpF0BE2,symmetry-judgement-task,76,551638,0.0-46.0-1.0-1.0-4.0,,,,,,,,,,1.0,1.0,,,,6565fff05ec125a5ff77a77c,13:06:28,03/04/2024
,"<p style=""color:green; font-size: 35px"">Correct</p>",,ospan,feedback,6KbECHTxdThzCf1ZLvYERIpF0BE2,html-keyboard-response,77,552391,0.0-46.0-1.0-1.0-5.0,,,,,,,,,,,,,,,6565fff05ec125a5ff77a77c,13:06:28,03/04/2024
1193.0,"<p style=""font-size: 3rem;"">You responded correctly on 3 of 3 symmetry judgments. Good job!</p><br><br>",0,ospan,practice,6KbECHTxdThzCf1ZLvYERIpF0BE2,html-button-response,78,555589,0.0-46.0-1.0-2.0,,,,,,,,,,,,,,,6565fff05ec125a5ff77a77c,13:06:28,03/04/2024
9369.0,"<div class = 'left_align' style='font-size: 3.25rem; line-height: 1.3;'>Now you will practice doing both parts of the experiment at the same time.<br><br>In the next practice set, you will be given one grid picture to judge.<br>Then letter will appear on the screen. Try to remember the letter.<br><br>It is <b>very important</b> to make the symmetry judgment as quickly and accurately as possible.<br><br>Just as before, once you have make the symmetry judgment, you can click Yes or No.<br><b>Note that you will no longer see Correct or Incorrect feedback.</div><br><br><br><br>",0,ospan,instruct,6KbECHTxdThzCf1ZLvYERIpF0BE2,html-button-response,79,565211,0.0-46.0-2.0-0.0-0.0,,,,,,,,,,,,,,,6565fff05ec125a5ff77a77c,13:06:28,03/04/2024
7036.0,"<div class = 'left_align' style='font-size: 3.25rem; line-height: 1.3;'>After the letter goes away, another grid picture will appear, and then<br>another letter.<br><br>At the end of each set of letters and grids, you will recall the letters to the best<br>of your ability. Remember, try your best to get the letters in the correct order.<br><br>It is important to <b>quickly</b> and <b>accurately</b> make the symmetry judgments.</div><br><br><br><br>",0,ospan,instruct,6KbECHTxdThzCf1ZLvYERIpF0BE2,html-button-response,80,572500,0.0-46.0-2.0-0.0-1.0,,,,,,,,,,,,,,,6565fff05ec125a5ff77a77c,13:06:28,03/04/2024
12491.0,"<div class = 'left_align' style='font-size: 3.25rem; line-height: 1.3;'>On the feedback screen, if you are not doing well at the symmetry judgments,<br>you will also see a warning in the middle. This indicates your percent <br>correct for the grid pictures for the entire experiment.<br><br>It is <b>very</b> important for you to keep accuracy at least at 85%: <u>We can only use<br>data where the participant was at least 85% accurate on the judgments.</u> Therefore,<br> please try your best to perform well on the symmetry judgments, <b>at the same time</b><br>doing your best to recall as many letters as possible.<br><br>Click the button to try some practice problems.</div><br><br><br><br>",0,ospan,instruct,6KbECHTxdThzCf1ZLvYERIpF0BE2,html-button-response,81,585245,0.0-46.0-2.0-0.0-2.0,,,,,,,,,,,,,,,6565fff05ec125a5ff77a77c,13:06:28,03/04/2024
,"<p style=""font-size:75px;"">...</p>",,ospan,iti,6KbECHTxdThzCf1ZLvYERIpF0BE2,html-keyboard-response,82,586499,0.0-46.0-2.0-1.0-0.0,,,,,,,,,,,,,,,6565fff05ec125a5ff77a77c,13:06:28,03/04/2024
1444.0,,,ospan,symmetry,6KbECHTxdThzCf1ZLvYERIpF0BE2,symmetry-judgement-task,83,589005,0.0-46.0-2.0-1.0-1.0-0.0,,,,,,,,,,1.0,1.0,,,,6565fff05ec125a5ff77a77c,13:06:28,03/04/2024
,"<div style=""font-size: 10rem; color: #0000FF"">H</div>",,ospan,letter,6KbECHTxdThzCf1ZLvYERIpF0BE2,html-keyboard-response,84,590008,0.0-46.0-2.0-1.0-1.0-1.0,,,,,,,,,,,,,,,6565fff05ec125a5ff77a77c,13:06:28,03/04/2024
1027.0,,,ospan,symmetry,6KbECHTxdThzCf1ZLvYERIpF0BE2,symmetry-judgement-task,85,592841,0.0-46.0-2.0-1.0-1.0-2.0,,,,,,,,,,1.0,1.0,,,,6565fff05ec125a5ff77a77c,13:06:28,03/04/2024
,"<div style=""font-size: 10rem; color: #0000FF"">Q</div>",,ospan,letter,6KbECHTxdThzCf1ZLvYERIpF0BE2,html-keyboard-response,86,593843,0.0-46.0-2.0-1.0-1.0-3.0,,,,,,,,,,,,,,,6565fff05ec125a5ff77a77c,13:06:28,03/04/2024
831.0,,,ospan,symmetry,6KbECHTxdThzCf1ZLvYERIpF0BE2,symmetry-judgement-task,87,596489,0.0-46.0-2.0-1.0-1.0-4.0,,,,,,,,,,1.0,1.0,,,,6565fff05ec125a5ff77a77c,13:06:28,03/04/2024
,"<div style=""font-size: 10rem; color: #0000FF"">P</div>",,ospan,letter,6KbECHTxdThzCf1ZLvYERIpF0BE2,html-keyboard-response,88,597491,0.0-46.0-2.0-1.0-1.0-5.0,,,,,,,,,,,,,,,6565fff05ec125a5ff77a77c,13:06:28,03/04/2024
4010.0,"<div class = numbox><p style=""font-size: 2.4rem"">Please recall the letters you saw to the best of your ability. If you do not remember a particular letter, use the SKIP button.<br><b>(When you are ready to lock in your answer, press ENTER)</b></p><button id = button_1 class = ""square num-button"" onclick = ""recordClick(this)""><div class = content><div class = numbers>C</div></div></button><button id = button_2 class = ""square num-button"" onclick = ""recordClick(this)""><div class = content><div class = numbers>G</div></div></button><button id = button_3 class = ""square num-button"" onclick = ""recordClick(this)""><div class = content><div class = numbers>H</div></div></button><button id = button_4 class = ""square num-button"" onclick = ""recordClick(this)""><div class = content><div class = numbers>J</div></div></button><button id = button_5 class = ""square num-button"" onclick = ""recordClick(this)""><div class = content><div class = numbers>K</div></div></button><button id = button_6 class = ""square num-button"" onclick = ""recordClick(this)""><div class = content><div class = numbers>L</div></div></button><button id = button_7 class = ""square num-button"" onclick = ""recordClick(this)""><div class = content><div class = numbers>N</div></div></button><button id = button_8 class = ""square num-button"" onclick = ""recordClick(this)""><div class = content><div class = numbers>P</div></div></button><button id = button_9 class = ""square num-button"" onclick = ""recordClick(this)""><div class = content><div class = numbers>Q</div></div></button><button id = button_10 class = ""square num-button"" onclick = ""recordClick(this)""><div class = content><div class = numbers>R</div></div></button><button id = button_11 class = ""square num-button"" onclick = ""recordClick(this)""><div class = content><div class = numbers>S</div></div></button><button id = button_12 class = ""square num-button"" onclick = ""recordClick(this)""><div class = content><div class = numbers>Y</div></div></button><button class = clear_button id = ""ClearButton"" onclick = ""clearResponse()"">BACKSPACE</button><button class = blank_button id = ""BlankButton"" onclick = ""blankResponse()"">SKIP</button><p style=""font-size: 2.4rem""><u><b>Current Answer:</b></u></p><br><br><div id=echoed_txt style=""font-size: 5rem; color:blue;""><b></b></div></div>",enter,ospan,retrieval,6KbECHTxdThzCf1ZLvYERIpF0BE2,html-keyboard-response,89,602255,0.0-46.0-2.0-1.0-2.0-0.0,NA,NA,NA,3.0,"[""H"",""Q"",""P""]","[""H"",""Q"",""P""]",1.0,3.0,"['<font color=""green"">H</font>', '<font color=""green"">Q</font>', '<font color=""green"">P</font>']",,,,,,6565fff05ec125a5ff77a77c,13:06:28,03/04/2024
999.0,"['<p style=""font-size:44px"">Letters:<br><br><br><font color=""green"">H</font> <font color=""green"">Q</font> <font color=""green"">P</font></p><br><br><p style=""font-size:30px"">Symmetry:<br><br><font color=""green"">100%</font></p><br><br>']",0,ospan,practice_feedback,6KbECHTxdThzCf1ZLvYERIpF0BE2,html-button-response,90,603757,0.0-46.0-2.0-1.0-2.0-1.0,,,,,,,,,,,,,,,6565fff05ec125a5ff77a77c,13:06:28,03/04/2024
,"<p style=""font-size:75px;"">...</p>",,ospan,iti,6KbECHTxdThzCf1ZLvYERIpF0BE2,html-keyboard-response,91,604760,0.0-46.0-2.0-2.0-0.0,,,,,,,,,,,,,,,6565fff05ec125a5ff77a77c,13:06:28,03/04/2024
1192.0,,,ospan,symmetry,6KbECHTxdThzCf1ZLvYERIpF0BE2,symmetry-judgement-task,92,607014,0.0-46.0-2.0-2.0-1.0-0.0,,,,,,,,,,1.0,1.0,,,,6565fff05ec125a5ff77a77c,13:06:28,03/04/2024
,"<div style=""font-size: 10rem; color: #0000FF"">S</div>",,ospan,letter,6KbECHTxdThzCf1ZLvYERIpF0BE2,html-keyboard-response,93,608016,0.0-46.0-2.0-2.0-1.0-1.0,,,,,,,,,,,,,,,6565fff05ec125a5ff77a77c,13:06:28,03/04/2024
945.0,,,ospan,symmetry,6KbECHTxdThzCf1ZLvYERIpF0BE2,symmetry-judgement-task,94,610776,0.0-46.0-2.0-2.0-1.0-2.0,,,,,,,,,,1.0,1.0,,,,6565fff05ec125a5ff77a77c,13:06:28,03/04/2024
,"<div style=""font-size: 10rem; color: #0000FF"">L</div>",,ospan,letter,6KbECHTxdThzCf1ZLvYERIpF0BE2,html-keyboard-response,95,611780,0.0-46.0-2.0-2.0-1.0-3.0,,,,,,,,,,,,,,,6565fff05ec125a5ff77a77c,13:06:28,03/04/2024
823.0,,,ospan,symmetry,6KbECHTxdThzCf1ZLvYERIpF0BE2,symmetry-judgement-task,96,614417,0.0-46.0-2.0-2.0-1.0-4.0,,,,,,,,,,1.0,1.0,,,,6565fff05ec125a5ff77a77c,13:06:28,03/04/2024
,"<div style=""font-size: 10rem; color: #0000FF"">C</div>",,ospan,letter,6KbECHTxdThzCf1ZLvYERIpF0BE2,html-keyboard-response,97,615420,0.0-46.0-2.0-2.0-1.0-5.0,,,,,,,,,,,,,,,6565fff05ec125a5ff77a77c,13:06:28,03/04/2024
2601.0,"<div class = numbox><p style=""font-size: 2.4rem"">Please recall the letters you saw to the best of your ability. If you do not remember a particular letter, use the SKIP button.<br><b>(When you are ready to lock in your answer, press ENTER)</b></p><button id = button_1 class = ""square num-button"" onclick = ""recordClick(this)""><div class = content><div class = numbers>C</div></div></button><button id = button_2 class = ""square num-button"" onclick = ""recordClick(this)""><div class = content><div class = numbers>G</div></div></button><button id = button_3 class = ""square num-button"" onclick = ""recordClick(this)""><div class = content><div class = numbers>H</div></div></button><button id = button_4 class = ""square num-button"" onclick = ""recordClick(this)""><div class = content><div class = numbers>J</div></div></button><button id = button_5 class = ""square num-button"" onclick = ""recordClick(this)""><div class = content><div class = numbers>K</div></div></button><button id = button_6 class = ""square num-button"" onclick = ""recordClick(this)""><div class = content><div class = numbers>L</div></div></button><button id = button_7 class = ""square num-button"" onclick = ""recordClick(this)""><div class = content><div class = numbers>N</div></div></button><button id = button_8 class = ""square num-button"" onclick = ""recordClick(this)""><div class = content><div class = numbers>P</div></div></button><button id = button_9 class = ""square num-button"" onclick = ""recordClick(this)""><div class = content><div class = numbers>Q</div></div></button><button id = button_10 class = ""square num-button"" onclick = ""recordClick(this)""><div class = content><div class = numbers>R</div></div></button><button id = button_11 class = ""square num-button"" onclick = ""recordClick(this)""><div class = content><div class = numbers>S</div></div></button><button id = button_12 class = ""square num-button"" onclick = ""recordClick(this)""><div class = content><div class = numbers>Y</div></div></button><button class = clear_button id = ""ClearButton"" onclick = ""clearResponse()"">BACKSPACE</button><button class = blank_button id = ""BlankButton"" onclick = ""blankResponse()"">SKIP</button><p style=""font-size: 2.4rem""><u><b>Current Answer:</b></u></p><br><br><div id=echoed_txt style=""font-size: 5rem; color:blue;""><b></b></div></div>",enter,ospan,retrieval,6KbECHTxdThzCf1ZLvYERIpF0BE2,html-keyboard-response,98,618776,0.0-46.0-2.0-2.0-2.0-0.0,NA,NA,NA,3.0,"[""S"",""L"",""C""]","[""S"",""L"",""C""]",1.0,3.0,"['<font color=""green"">S</font>', '<font color=""green"">L</font>', '<font color=""green"">C</font>']",,,,,,6565fff05ec125a5ff77a77c,13:06:28,03/04/2024
1288.9999999998836,"['<p style=""font-size:44px"">Letters:<br><br><br><font color=""green"">S</font> <font color=""green"">L</font> <font color=""green"">C</font></p><br><br><p style=""font-size:30px"">Symmetry:<br><br><font color=""green"">100%</font></p><br><br>']",0,ospan,practice_feedback,6KbECHTxdThzCf1ZLvYERIpF0BE2,html-button-response,99,620569,0.0-46.0-2.0-2.0-2.0-1.0,,,,,,,,,,,,,,,6565fff05ec125a5ff77a77c,13:06:28,03/04/2024
5197.999999999884,"<div class = 'left_align' style='font-size: 3rem; line-height: 1.3;'><b>Great work! That is the end of practice.</b><br><br>The real trials will look just like the practice trials you just completed.<br><br><u>Here, you will not see feedback</u>. First, you will see an grid picture to judge,<br>then a letter to remember. When the recall screen appears, report the letters in the<br>order presented. If you forget a letter, remember to use the <b>blank</b> button to move to the<br>next letter. Some of the sets will have more symmetry grids and letters than others.<br><br>It is important that you do your best on both the symmetry judgments and the letter recall<br>parts of the experiment. For for the symmetry judgments, try to work as <b>quickly</b> and <br>as <b>accurately</b> as possible. Remember to keep your symmetry accuracy at 85% or above.<br><br><b>For the letters, do NOT use any external aid (e.g., writing on paper, electronic device).</b><br><br>It is <u>very important</u> to our experiment to have a <b>true</b> view of your real performance.<br><br>Do not worry if you miss some when it gets hard! This task is meant to be very challenging!<br><br>Click the button to begin.</div><br><br><br><br>",0,ospan,starting_real_here,6KbECHTxdThzCf1ZLvYERIpF0BE2,html-button-response,100,625770,0.0-46.0-2.0-3.0,,,,,,,,,,,,,,,6565fff05ec125a5ff77a77c,13:06:28,03/04/2024
,"<p style=""font-size:75px;"">...</p>",,ospan,iti,6KbECHTxdThzCf1ZLvYERIpF0BE2,html-keyboard-response,101,627023,0.0-46.0-3.0-0.0-0.0,,,,,,,,,,,,,,,6565fff05ec125a5ff77a77c,13:06:28,03/04/2024
824.0,,,ospan,symmetry,6KbECHTxdThzCf1ZLvYERIpF0BE2,symmetry-judgement-task,102,628901,0.0-46.0-3.0-0.0-1.0-0.0,,,,,,,,,,1.0,1.0,,,,6565fff05ec125a5ff77a77c,13:06:28,03/04/2024
,"<div style=""font-size: 10rem; color: #0000FF"">L</div>",,ospan,letter,6KbECHTxdThzCf1ZLvYERIpF0BE2,html-keyboard-response,103,629904,0.0-46.0-3.0-0.0-1.0-1.0,,,,,,,,,,,,,,,6565fff05ec125a5ff77a77c,13:06:28,03/04/2024
858.0,,,ospan,symmetry,6KbECHTxdThzCf1ZLvYERIpF0BE2,symmetry-judgement-task,104,632575,0.0-46.0-3.0-0.0-1.0-2.0,,,,,,,,,,1.0,1.0,,,,6565fff05ec125a5ff77a77c,13:06:28,03/04/2024
,"<div style=""font-size: 10rem; color: #0000FF"">N</div>",,ospan,letter,6KbECHTxdThzCf1ZLvYERIpF0BE2,html-keyboard-response,105,633577,0.0-46.0-3.0-0.0-1.0-3.0,,,,,,,,,,,,,,,6565fff05ec125a5ff77a77c,13:06:28,03/04/2024
861.0,,,ospan,symmetry,6KbECHTxdThzCf1ZLvYERIpF0BE2,symmetry-judgement-task,106,636247,0.0-46.0-3.0-0.0-1.0-4.0,,,,,,,,,,1.0,1.0,,,,6565fff05ec125a5ff77a77c,13:06:28,03/04/2024
,"<div style=""font-size: 10rem; color: #0000FF"">K</div>",,ospan,letter,6KbECHTxdThzCf1ZLvYERIpF0BE2,html-keyboard-response,107,637249,0.0-46.0-3.0-0.0-1.0-5.0,,,,,,,,,,,,,,,6565fff05ec125a5ff77a77c,13:06:28,03/04/2024
3045.0,"<div class = numbox><p style=""font-size: 2.4rem"">Please recall the letters you saw to the best of your ability. If you do not remember a particular letter, use the SKIP button.<br><b>(When you are ready to lock in your answer, press ENTER)</b></p><button id = button_1 class = ""square num-button"" onclick = ""recordClick(this)""><div class = content><div class = numbers>C</div></div></button><button id = button_2 class = ""square num-button"" onclick = ""recordClick(this)""><div class = content><div class = numbers>G</div></div></button><button id = button_3 class = ""square num-button"" onclick = ""recordClick(this)""><div class = content><div class = numbers>H</div></div></button><button id = button_4 class = ""square num-button"" onclick = ""recordClick(this)""><div class = content><div class = numbers>J</div></div></button><button id = button_5 class = ""square num-button"" onclick = ""recordClick(this)""><div class = content><div class = numbers>K</div></div></button><button id = button_6 class = ""square num-button"" onclick = ""recordClick(this)""><div class = content><div class = numbers>L</div></div></button><button id = button_7 class = ""square num-button"" onclick = ""recordClick(this)""><div class = content><div class = numbers>N</div></div></button><button id = button_8 class = ""square num-button"" onclick = ""recordClick(this)""><div class = content><div class = numbers>P</div></div></button><button id = button_9 class = ""square num-button"" onclick = ""recordClick(this)""><div class = content><div class = numbers>Q</div></div></button><button id = button_10 class = ""square num-button"" onclick = ""recordClick(this)""><div class = content><div class = numbers>R</div></div></button><button id = button_11 class = ""square num-button"" onclick = ""recordClick(this)""><div class = content><div class = numbers>S</div></div></button><button id = button_12 class = ""square num-button"" onclick = ""recordClick(this)""><div class = content><div class = numbers>Y</div></div></button><button class = clear_button id = ""ClearButton"" onclick = ""clearResponse()"">BACKSPACE</button><button class = blank_button id = ""BlankButton"" onclick = ""blankResponse()"">SKIP</button><p style=""font-size: 2.4rem""><u><b>Current Answer:</b></u></p><br><br><div id=echoed_txt style=""font-size: 5rem; color:blue;""><b></b></div></div>",enter,ospan,retrieval,6KbECHTxdThzCf1ZLvYERIpF0BE2,html-keyboard-response,108,641047,0.0-46.0-3.0-0.0-2.0,3,3,3,3.0,"[""L"",""N"",""K""]","[""L"",""N"",""K""]",1.0,3.0,,,,,,,6565fff05ec125a5ff77a77c,13:06:28,03/04/2024
1041.0,[''],0,ospan,feedback,6KbECHTxdThzCf1ZLvYERIpF0BE2,html-button-response,109,642591,0.0-46.0-3.0-0.0-3.0,,,,,,,,,,,,100.0,0.0,,6565fff05ec125a5ff77a77c,13:06:28,03/04/2024
,"<p style=""font-size:75px;"">...</p>",,ospan,iti,6KbECHTxdThzCf1ZLvYERIpF0BE2,html-keyboard-response,110,643595,0.0-46.0-4.0-0.0-0.0,,,,,,,,,,,,,,,6565fff05ec125a5ff77a77c,13:06:28,03/04/2024
1191.0,,,ospan,symmetry,6KbECHTxdThzCf1ZLvYERIpF0BE2,symmetry-judgement-task,111,645841,0.0-46.0-4.0-0.0-1.0-0.0,,,,,,,,,,1.0,1.0,,,,6565fff05ec125a5ff77a77c,13:06:28,03/04/2024
,"<div style=""font-size: 10rem; color: #0000FF"">P</div>",,ospan,letter,6KbECHTxdThzCf1ZLvYERIpF0BE2,html-keyboard-response,112,646842,0.0-46.0-4.0-0.0-1.0-1.0,,,,,,,,,,,,,,,6565fff05ec125a5ff77a77c,13:06:28,03/04/2024
1014.0,,,ospan,symmetry,6KbECHTxdThzCf1ZLvYERIpF0BE2,symmetry-judgement-task,113,649661,0.0-46.0-4.0-0.0-1.0-2.0,,,,,,,,,,1.0,1.0,,,,6565fff05ec125a5ff77a77c,13:06:28,03/04/2024
,"<div style=""font-size: 10rem; color: #0000FF"">S</div>",,ospan,letter,6KbECHTxdThzCf1ZLvYERIpF0BE2,html-keyboard-response,114,650664,0.0-46.0-4.0-0.0-1.0-3.0,,,,,,,,,,,,,,,6565fff05ec125a5ff77a77c,13:06:28,03/04/2024
890.0,,,ospan,symmetry,6KbECHTxdThzCf1ZLvYERIpF0BE2,symmetry-judgement-task,115,653365,0.0-46.0-4.0-0.0-1.0-4.0,,,,,,,,,,1.0,1.0,,,,6565fff05ec125a5ff77a77c,13:06:28,03/04/2024
,"<div style=""font-size: 10rem; color: #0000FF"">Y</div>",,ospan,letter,6KbECHTxdThzCf1ZLvYERIpF0BE2,html-keyboard-response,116,654369,0.0-46.0-4.0-0.0-1.0-5.0,,,,,,,,,,,,,,,6565fff05ec125a5ff77a77c,13:06:28,03/04/2024
1254.0,,,ospan,symmetry,6KbECHTxdThzCf1ZLvYERIpF0BE2,symmetry-judgement-task,117,657434,0.0-46.0-4.0-0.0-1.0-6.0,,,,,,,,,,1.0,1.0,,,,6565fff05ec125a5ff77a77c,13:06:28,03/04/2024
,"<div style=""font-size: 10rem; color: #0000FF"">G</div>",,ospan,letter,6KbECHTxdThzCf1ZLvYERIpF0BE2,html-keyboard-response,118,658437,0.0-46.0-4.0-0.0-1.0-7.0,,,,,,,,,,,,,,,6565fff05ec125a5ff77a77c,13:06:28,03/04/2024
3298.0,"<div class = numbox><p style=""font-size: 2.4rem"">Please recall the letters you saw to the best of your ability. If you do not remember a particular letter, use the SKIP button.<br><b>(When you are ready to lock in your answer, press ENTER)</b></p><button id = button_1 class = ""square num-button"" onclick = ""recordClick(this)""><div class = content><div class = numbers>C</div></div></button><button id = button_2 class = ""square num-button"" onclick = ""recordClick(this)""><div class = content><div class = numbers>G</div></div></button><button id = button_3 class = ""square num-button"" onclick = ""recordClick(this)""><div class = content><div class = numbers>H</div></div></button><button id = button_4 class = ""square num-button"" onclick = ""recordClick(this)""><div class = content><div class = numbers>J</div></div></button><button id = button_5 class = ""square num-button"" onclick = ""recordClick(this)""><div class = content><div class = numbers>K</div></div></button><button id = button_6 class = ""square num-button"" onclick = ""recordClick(this)""><div class = content><div class = numbers>L</div></div></button><button id = button_7 class = ""square num-button"" onclick = ""recordClick(this)""><div class = content><div class = numbers>N</div></div></button><button id = button_8 class = ""square num-button"" onclick = ""recordClick(this)""><div class = content><div class = numbers>P</div></div></button><button id = button_9 class = ""square num-button"" onclick = ""recordClick(this)""><div class = content><div class = numbers>Q</div></div></button><button id = button_10 class = ""square num-button"" onclick = ""recordClick(this)""><div class = content><div class = numbers>R</div></div></button><button id = button_11 class = ""square num-button"" onclick = ""recordClick(this)""><div class = content><div class = numbers>S</div></div></button><button id = button_12 class = ""square num-button"" onclick = ""recordClick(this)""><div class = content><div class = numbers>Y</div></div></button><button class = clear_button id = ""ClearButton"" onclick = ""clearResponse()"">BACKSPACE</button><button class = blank_button id = ""BlankButton"" onclick = ""blankResponse()"">SKIP</button><p style=""font-size: 2.4rem""><u><b>Current Answer:</b></u></p><br><br><div id=echoed_txt style=""font-size: 5rem; color:blue;""><b></b></div></div>",enter,ospan,retrieval,6KbECHTxdThzCf1ZLvYERIpF0BE2,html-keyboard-response,119,662490,0.0-46.0-4.0-0.0-2.0,7,7,7,4.0,"[""P"",""S"",""Y"",""G""]","[""P"",""S"",""Y"",""G""]",1.0,4.0,,,,,,,6565fff05ec125a5ff77a77c,13:06:28,03/04/2024
892.0,[''],0,ospan,feedback,6KbECHTxdThzCf1ZLvYERIpF0BE2,html-button-response,120,663885,0.0-46.0-4.0-0.0-3.0,,,,,,,,,,,,100.0,0.0,,6565fff05ec125a5ff77a77c,13:06:28,03/04/2024
,"<p style=""font-size:75px;"">...</p>",,ospan,iti,6KbECHTxdThzCf1ZLvYERIpF0BE2,html-keyboard-response,121,664890,0.0-46.0-4.0-1.0-0.0,,,,,,,,,,,,,,,6565fff05ec125a5ff77a77c,13:06:28,03/04/2024
932.0,,,ospan,symmetry,6KbECHTxdThzCf1ZLvYERIpF0BE2,symmetry-judgement-task,122,666886,0.0-46.0-4.0-1.0-1.0-0.0,,,,,,,,,,1.0,1.0,,,,6565fff05ec125a5ff77a77c,13:06:28,03/04/2024
,"<div style=""font-size: 10rem; color: #0000FF"">H</div>",,ospan,letter,6KbECHTxdThzCf1ZLvYERIpF0BE2,html-keyboard-response,123,667888,0.0-46.0-4.0-1.0-1.0-1.0,,,,,,,,,,,,,,,6565fff05ec125a5ff77a77c,13:06:28,03/04/2024
983.0,,,ospan,symmetry,6KbECHTxdThzCf1ZLvYERIpF0BE2,symmetry-judgement-task,124,670685,0.0-46.0-4.0-1.0-1.0-2.0,,,,,,,,,,1.0,1.0,,,,6565fff05ec125a5ff77a77c,13:06:28,03/04/2024
,"<div style=""font-size: 10rem; color: #0000FF"">N</div>",,ospan,letter,6KbECHTxdThzCf1ZLvYERIpF0BE2,html-keyboard-response,125,671687,0.0-46.0-4.0-1.0-1.0-3.0,,,,,,,,,,,,,,,6565fff05ec125a5ff77a77c,13:06:28,03/04/2024
1128.0,,,ospan,symmetry,6KbECHTxdThzCf1ZLvYERIpF0BE2,symmetry-judgement-task,126,674626,0.0-46.0-4.0-1.0-1.0-4.0,,,,,,,,,,1.0,1.0,,,,6565fff05ec125a5ff77a77c,13:06:28,03/04/2024
,"<div style=""font-size: 10rem; color: #0000FF"">K</div>",,ospan,letter,6KbECHTxdThzCf1ZLvYERIpF0BE2,html-keyboard-response,127,675628,0.0-46.0-4.0-1.0-1.0-5.0,,,,,,,,,,,,,,,6565fff05ec125a5ff77a77c,13:06:28,03/04/2024
848.0,,,ospan,symmetry,6KbECHTxdThzCf1ZLvYERIpF0BE2,symmetry-judgement-task,128,678281,0.0-46.0-4.0-1.0-1.0-6.0,,,,,,,,,,1.0,1.0,,,,6565fff05ec125a5ff77a77c,13:06:28,03/04/2024
,"<div style=""font-size: 10rem; color: #0000FF"">R</div>",,ospan,letter,6KbECHTxdThzCf1ZLvYERIpF0BE2,html-keyboard-response,129,679284,0.0-46.0-4.0-1.0-1.0-7.0,,,,,,,,,,,,,,,6565fff05ec125a5ff77a77c,13:06:28,03/04/2024
1305.0,,,ospan,symmetry,6KbECHTxdThzCf1ZLvYERIpF0BE2,symmetry-judgement-task,130,682397,0.0-46.0-4.0-1.0-1.0-8.0,,,,,,,,,,1.0,1.0,,,,6565fff05ec125a5ff77a77c,13:06:28,03/04/2024
,"<div style=""font-size: 10rem; color: #0000FF"">J</div>",,ospan,letter,6KbECHTxdThzCf1ZLvYERIpF0BE2,html-keyboard-response,131,683401,0.0-46.0-4.0-1.0-1.0-9.0,,,,,,,,,,,,,,,6565fff05ec125a5ff77a77c,13:06:28,03/04/2024
6627.0,"<div class = numbox><p style=""font-size: 2.4rem"">Please recall the letters you saw to the best of your ability. If you do not remember a particular letter, use the SKIP button.<br><b>(When you are ready to lock in your answer, press ENTER)</b></p><button id = button_1 class = ""square num-button"" onclick = ""recordClick(this)""><div class = content><div class = numbers>C</div></div></button><button id = button_2 class = ""square num-button"" onclick = ""recordClick(this)""><div class = content><div class = numbers>G</div></div></button><button id = button_3 class = ""square num-button"" onclick = ""recordClick(this)""><div class = content><div class = numbers>H</div></div></button><button id = button_4 class = ""square num-button"" onclick = ""recordClick(this)""><div class = content><div class = numbers>J</div></div></button><button id = button_5 class = ""square num-button"" onclick = ""recordClick(this)""><div class = content><div class = numbers>K</div></div></button><button id = button_6 class = ""square num-button"" onclick = ""recordClick(this)""><div class = content><div class = numbers>L</div></div></button><button id = button_7 class = ""square num-button"" onclick = ""recordClick(this)""><div class = content><div class = numbers>N</div></div></button><button id = button_8 class = ""square num-button"" onclick = ""recordClick(this)""><div class = content><div class = numbers>P</div></div></button><button id = button_9 class = ""square num-button"" onclick = ""recordClick(this)""><div class = content><div class = numbers>Q</div></div></button><button id = button_10 class = ""square num-button"" onclick = ""recordClick(this)""><div class = content><div class = numbers>R</div></div></button><button id = button_11 class = ""square num-button"" onclick = ""recordClick(this)""><div class = content><div class = numbers>S</div></div></button><button id = button_12 class = ""square num-button"" onclick = ""recordClick(this)""><div class = content><div class = numbers>Y</div></div></button><button class = clear_button id = ""ClearButton"" onclick = ""clearResponse()"">BACKSPACE</button><button class = blank_button id = ""BlankButton"" onclick = ""blankResponse()"">SKIP</button><p style=""font-size: 2.4rem""><u><b>Current Answer:</b></u></p><br><br><div id=echoed_txt style=""font-size: 5rem; color:blue;""><b></b></div></div>",enter,ospan,retrieval,6KbECHTxdThzCf1ZLvYERIpF0BE2,html-keyboard-response,132,690782,0.0-46.0-4.0-1.0-2.0,12,12,12,5.0,"[""H"",""N"",""K"",""R"",""J""]","[""H"",""N"",""K"",""R"",""J""]",1.0,5.0,,,,,,,6565fff05ec125a5ff77a77c,13:06:28,03/04/2024
861.0,[''],0,ospan,feedback,6KbECHTxdThzCf1ZLvYERIpF0BE2,html-button-response,133,692147,0.0-46.0-4.0-1.0-3.0,,,,,,,,,,,,100.0,0.0,,6565fff05ec125a5ff77a77c,13:06:28,03/04/2024
,"<p style=""font-size:75px;"">...</p>",,ospan,iti,6KbECHTxdThzCf1ZLvYERIpF0BE2,html-keyboard-response,134,693152,0.0-46.0-4.0-2.0-0.0,,,,,,,,,,,,,,,6565fff05ec125a5ff77a77c,13:06:28,03/04/2024
1418.0,,,ospan,symmetry,6KbECHTxdThzCf1ZLvYERIpF0BE2,symmetry-judgement-task,135,695633,0.0-46.0-4.0-2.0-1.0-0.0,,,,,,,,,,0.0,0.0,,,,6565fff05ec125a5ff77a77c,13:06:28,03/04/2024
,"<div style=""font-size: 10rem; color: #0000FF"">Y</div>",,ospan,letter,6KbECHTxdThzCf1ZLvYERIpF0BE2,html-keyboard-response,136,696636,0.0-46.0-4.0-2.0-1.0-1.0,,,,,,,,,,,,,,,6565fff05ec125a5ff77a77c,13:06:28,03/04/2024
788.0,,,ospan,symmetry,6KbECHTxdThzCf1ZLvYERIpF0BE2,symmetry-judgement-task,137,699231,0.0-46.0-4.0-2.0-1.0-2.0,,,,,,,,,,1.0,1.0,,,,6565fff05ec125a5ff77a77c,13:06:28,03/04/2024
,"<div style=""font-size: 10rem; color: #0000FF"">P</div>",,ospan,letter,6KbECHTxdThzCf1ZLvYERIpF0BE2,html-keyboard-response,138,700234,0.0-46.0-4.0-2.0-1.0-3.0,,,,,,,,,,,,,,,6565fff05ec125a5ff77a77c,13:06:28,03/04/2024
882.0,,,ospan,symmetry,6KbECHTxdThzCf1ZLvYERIpF0BE2,symmetry-judgement-task,139,702930,0.0-46.0-4.0-2.0-1.0-4.0,,,,,,,,,,1.0,1.0,,,,6565fff05ec125a5ff77a77c,13:06:28,03/04/2024
,"<div style=""font-size: 10rem; color: #0000FF"">S</div>",,ospan,letter,6KbECHTxdThzCf1ZLvYERIpF0BE2,html-keyboard-response,140,703932,0.0-46.0-4.0-2.0-1.0-5.0,,,,,,,,,,,,,,,6565fff05ec125a5ff77a77c,13:06:28,03/04/2024
3567.0,"<div class = numbox><p style=""font-size: 2.4rem"">Please recall the letters you saw to the best of your ability. If you do not remember a particular letter, use the SKIP button.<br><b>(When you are ready to lock in your answer, press ENTER)</b></p><button id = button_1 class = ""square num-button"" onclick = ""recordClick(this)""><div class = content><div class = numbers>C</div></div></button><button id = button_2 class = ""square num-button"" onclick = ""recordClick(this)""><div class = content><div class = numbers>G</div></div></button><button id = button_3 class = ""square num-button"" onclick = ""recordClick(this)""><div class = content><div class = numbers>H</div></div></button><button id = button_4 class = ""square num-button"" onclick = ""recordClick(this)""><div class = content><div class = numbers>J</div></div></button><button id = button_5 class = ""square num-button"" onclick = ""recordClick(this)""><div class = content><div class = numbers>K</div></div></button><button id = button_6 class = ""square num-button"" onclick = ""recordClick(this)""><div class = content><div class = numbers>L</div></div></button><button id = button_7 class = ""square num-button"" onclick = ""recordClick(this)""><div class = content><div class = numbers>N</div></div></button><button id = button_8 class = ""square num-button"" onclick = ""recordClick(this)""><div class = content><div class = numbers>P</div></div></button><button id = button_9 class = ""square num-button"" onclick = ""recordClick(this)""><div class = content><div class = numbers>Q</div></div></button><button id = button_10 class = ""square num-button"" onclick = ""recordClick(this)""><div class = content><div class = numbers>R</div></div></button><button id = button_11 class = ""square num-button"" onclick = ""recordClick(this)""><div class = content><div class = numbers>S</div></div></button><button id = button_12 class = ""square num-button"" onclick = ""recordClick(this)""><div class = content><div class = numbers>Y</div></div></button><button class = clear_button id = ""ClearButton"" onclick = ""clearResponse()"">BACKSPACE</button><button class = blank_button id = ""BlankButton"" onclick = ""blankResponse()"">SKIP</button><p style=""font-size: 2.4rem""><u><b>Current Answer:</b></u></p><br><br><div id=echoed_txt style=""font-size: 5rem; color:blue;""><b></b></div></div>",enter,ospan,retrieval,6KbECHTxdThzCf1ZLvYERIpF0BE2,html-keyboard-response,141,708255,0.0-46.0-4.0-2.0-2.0,15,15,15,3.0,"[""Y"",""P"",""S""]","[""Y"",""P"",""S""]",1.0,3.0,,,,,,,6565fff05ec125a5ff77a77c,13:06:28,03/04/2024
824.0,[''],0,ospan,feedback,6KbECHTxdThzCf1ZLvYERIpF0BE2,html-button-response,142,709582,0.0-46.0-4.0-2.0-3.0,,,,,,,,,,,,93.0,0.0,,6565fff05ec125a5ff77a77c,13:06:28,03/04/2024
,"<p style=""font-size:75px;"">...</p>",,ospan,iti,6KbECHTxdThzCf1ZLvYERIpF0BE2,html-keyboard-response,143,710587,0.0-46.0-5.0-0.0-0.0,,,,,,,,,,,,,,,6565fff05ec125a5ff77a77c,13:06:28,03/04/2024
1479.0,,,ospan,symmetry,6KbECHTxdThzCf1ZLvYERIpF0BE2,symmetry-judgement-task,144,713122,0.0-46.0-5.0-0.0-1.0-0.0,,,,,,,,,,1.0,1.0,,,,6565fff05ec125a5ff77a77c,13:06:28,03/04/2024
,"<div style=""font-size: 10rem; color: #0000FF"">J</div>",,ospan,letter,6KbECHTxdThzCf1ZLvYERIpF0BE2,html-keyboard-response,145,714125,0.0-46.0-5.0-0.0-1.0-1.0,,,,,,,,,,,,,,,6565fff05ec125a5ff77a77c,13:06:28,03/04/2024
815.0,,,ospan,symmetry,6KbECHTxdThzCf1ZLvYERIpF0BE2,symmetry-judgement-task,146,716757,0.0-46.0-5.0-0.0-1.0-2.0,,,,,,,,,,1.0,1.0,,,,6565fff05ec125a5ff77a77c,13:06:28,03/04/2024
,"<div style=""font-size: 10rem; color: #0000FF"">P</div>",,ospan,letter,6KbECHTxdThzCf1ZLvYERIpF0BE2,html-keyboard-response,147,717760,0.0-46.0-5.0-0.0-1.0-3.0,,,,,,,,,,,,,,,6565fff05ec125a5ff77a77c,13:06:28,03/04/2024
907.0,,,ospan,symmetry,6KbECHTxdThzCf1ZLvYERIpF0BE2,symmetry-judgement-task,148,720475,0.0-46.0-5.0-0.0-1.0-4.0,,,,,,,,,,1.0,1.0,,,,6565fff05ec125a5ff77a77c,13:06:28,03/04/2024
,"<div style=""font-size: 10rem; color: #0000FF"">S</div>",,ospan,letter,6KbECHTxdThzCf1ZLvYERIpF0BE2,html-keyboard-response,149,721477,0.0-46.0-5.0-0.0-1.0-5.0,,,,,,,,,,,,,,,6565fff05ec125a5ff77a77c,13:06:28,03/04/2024
1142.0,,,ospan,symmetry,6KbECHTxdThzCf1ZLvYERIpF0BE2,symmetry-judgement-task,150,724427,0.0-46.0-5.0-0.0-1.0-6.0,,,,,,,,,,1.0,1.0,,,,6565fff05ec125a5ff77a77c,13:06:28,03/04/2024
,"<div style=""font-size: 10rem; color: #0000FF"">K</div>",,ospan,letter,6KbECHTxdThzCf1ZLvYERIpF0BE2,html-keyboard-response,151,725431,0.0-46.0-5.0-0.0-1.0-7.0,,,,,,,,,,,,,,,6565fff05ec125a5ff77a77c,13:06:28,03/04/2024
1349.0,,,ospan,symmetry,6KbECHTxdThzCf1ZLvYERIpF0BE2,symmetry-judgement-task,152,728590,0.0-46.0-5.0-0.0-1.0-8.0,,,,,,,,,,1.0,1.0,,,,6565fff05ec125a5ff77a77c,13:06:28,03/04/2024
,"<div style=""font-size: 10rem; color: #0000FF"">R</div>",,ospan,letter,6KbECHTxdThzCf1ZLvYERIpF0BE2,html-keyboard-response,153,729592,0.0-46.0-5.0-0.0-1.0-9.0,,,,,,,,,,,,,,,6565fff05ec125a5ff77a77c,13:06:28,03/04/2024
978.0,,,ospan,symmetry,6KbECHTxdThzCf1ZLvYERIpF0BE2,symmetry-judgement-task,154,732388,0.0-46.0-5.0-0.0-1.0-10.0,,,,,,,,,,1.0,1.0,,,,6565fff05ec125a5ff77a77c,13:06:28,03/04/2024
,"<div style=""font-size: 10rem; color: #0000FF"">H</div>",,ospan,letter,6KbECHTxdThzCf1ZLvYERIpF0BE2,html-keyboard-response,155,733391,0.0-46.0-5.0-0.0-1.0-11.0,,,,,,,,,,,,,,,6565fff05ec125a5ff77a77c,13:06:28,03/04/2024
6420.0,"<div class = numbox><p style=""font-size: 2.4rem"">Please recall the letters you saw to the best of your ability. If you do not remember a particular letter, use the SKIP button.<br><b>(When you are ready to lock in your answer, press ENTER)</b></p><button id = button_1 class = ""square num-button"" onclick = ""recordClick(this)""><div class = content><div class = numbers>C</div></div></button><button id = button_2 class = ""square num-button"" onclick = ""recordClick(this)""><div class = content><div class = numbers>G</div></div></button><button id = button_3 class = ""square num-button"" onclick = ""recordClick(this)""><div class = content><div class = numbers>H</div></div></button><button id = button_4 class = ""square num-button"" onclick = ""recordClick(this)""><div class = content><div class = numbers>J</div></div></button><button id = button_5 class = ""square num-button"" onclick = ""recordClick(this)""><div class = content><div class = numbers>K</div></div></button><button id = button_6 class = ""square num-button"" onclick = ""recordClick(this)""><div class = content><div class = numbers>L</div></div></button><button id = button_7 class = ""square num-button"" onclick = ""recordClick(this)""><div class = content><div class = numbers>N</div></div></button><button id = button_8 class = ""square num-button"" onclick = ""recordClick(this)""><div class = content><div class = numbers>P</div></div></button><button id = button_9 class = ""square num-button"" onclick = ""recordClick(this)""><div class = content><div class = numbers>Q</div></div></button><button id = button_10 class = ""square num-button"" onclick = ""recordClick(this)""><div class = content><div class = numbers>R</div></div></button><button id = button_11 class = ""square num-button"" onclick = ""recordClick(this)""><div class = content><div class = numbers>S</div></div></button><button id = button_12 class = ""square num-button"" onclick = ""recordClick(this)""><div class = content><div class = numbers>Y</div></div></button><button class = clear_button id = ""ClearButton"" onclick = ""clearResponse()"">BACKSPACE</button><button class = blank_button id = ""BlankButton"" onclick = ""blankResponse()"">SKIP</button><p style=""font-size: 2.4rem""><u><b>Current Answer:</b></u></p><br><br><div id=echoed_txt style=""font-size: 5rem; color:blue;""><b></b></div></div>",enter,ospan,retrieval,6KbECHTxdThzCf1ZLvYERIpF0BE2,html-keyboard-response,156,740565,0.0-46.0-5.0-0.0-2.0,21,21,21,6.0,"[""J"",""P"",""S"",""K"",""R"",""H""]","[""J"",""P"",""S"",""K"",""R"",""H""]",1.0,6.0,,,,,,,6565fff05ec125a5ff77a77c,13:06:28,03/04/2024
671.0,[''],0,ospan,feedback,6KbECHTxdThzCf1ZLvYERIpF0BE2,html-button-response,157,741740,0.0-46.0-5.0-0.0-3.0,,,,,,,,,,,,95.0,0.0,,6565fff05ec125a5ff77a77c,13:06:28,03/04/2024
,"<p style=""font-size:75px;"">...</p>",,ospan,iti,6KbECHTxdThzCf1ZLvYERIpF0BE2,html-keyboard-response,158,742744,0.0-46.0-5.0-1.0-0.0,,,,,,,,,,,,,,,6565fff05ec125a5ff77a77c,13:06:28,03/04/2024
935.0,,,ospan,symmetry,6KbECHTxdThzCf1ZLvYERIpF0BE2,symmetry-judgement-task,159,744739,0.0-46.0-5.0-1.0-1.0-0.0,,,,,,,,,,1.0,1.0,,,,6565fff05ec125a5ff77a77c,13:06:28,03/04/2024
,"<div style=""font-size: 10rem; color: #0000FF"">P</div>",,ospan,letter,6KbECHTxdThzCf1ZLvYERIpF0BE2,html-keyboard-response,160,745742,0.0-46.0-5.0-1.0-1.0-1.0,,,,,,,,,,,,,,,6565fff05ec125a5ff77a77c,13:06:28,03/04/2024
1220.0,,,ospan,symmetry,6KbECHTxdThzCf1ZLvYERIpF0BE2,symmetry-judgement-task,161,748767,0.0-46.0-5.0-1.0-1.0-2.0,,,,,,,,,,1.0,1.0,,,,6565fff05ec125a5ff77a77c,13:06:28,03/04/2024
,"<div style=""font-size: 10rem; color: #0000FF"">S</div>",,ospan,letter,6KbECHTxdThzCf1ZLvYERIpF0BE2,html-keyboard-response,162,749770,0.0-46.0-5.0-1.0-1.0-3.0,,,,,,,,,,,,,,,6565fff05ec125a5ff77a77c,13:06:28,03/04/2024
901.0,,,ospan,symmetry,6KbECHTxdThzCf1ZLvYERIpF0BE2,symmetry-judgement-task,163,752481,0.0-46.0-5.0-1.0-1.0-4.0,,,,,,,,,,1.0,1.0,,,,6565fff05ec125a5ff77a77c,13:06:28,03/04/2024
,"<div style=""font-size: 10rem; color: #0000FF"">J</div>",,ospan,letter,6KbECHTxdThzCf1ZLvYERIpF0BE2,html-keyboard-response,164,753484,0.0-46.0-5.0-1.0-1.0-5.0,,,,,,,,,,,,,,,6565fff05ec125a5ff77a77c,13:06:28,03/04/2024
863.0,,,ospan,symmetry,6KbECHTxdThzCf1ZLvYERIpF0BE2,symmetry-judgement-task,165,756162,0.0-46.0-5.0-1.0-1.0-6.0,,,,,,,,,,1.0,1.0,,,,6565fff05ec125a5ff77a77c,13:06:28,03/04/2024
,"<div style=""font-size: 10rem; color: #0000FF"">Y</div>",,ospan,letter,6KbECHTxdThzCf1ZLvYERIpF0BE2,html-keyboard-response,166,757164,0.0-46.0-5.0-1.0-1.0-7.0,,,,,,,,,,,,,,,6565fff05ec125a5ff77a77c,13:06:28,03/04/2024
848.0,,,ospan,symmetry,6KbECHTxdThzCf1ZLvYERIpF0BE2,symmetry-judgement-task,167,759817,0.0-46.0-5.0-1.0-1.0-8.0,,,,,,,,,,1.0,1.0,,,,6565fff05ec125a5ff77a77c,13:06:28,03/04/2024
,"<div style=""font-size: 10rem; color: #0000FF"">R</div>",,ospan,letter,6KbECHTxdThzCf1ZLvYERIpF0BE2,html-keyboard-response,168,760819,0.0-46.0-5.0-1.0-1.0-9.0,,,,,,,,,,,,,,,6565fff05ec125a5ff77a77c,13:06:28,03/04/2024
1016.0,,,ospan,symmetry,6KbECHTxdThzCf1ZLvYERIpF0BE2,symmetry-judgement-task,169,763650,0.0-46.0-5.0-1.0-1.0-10.0,,,,,,,,,,1.0,1.0,,,,6565fff05ec125a5ff77a77c,13:06:28,03/04/2024
,"<div style=""font-size: 10rem; color: #0000FF"">N</div>",,ospan,letter,6KbECHTxdThzCf1ZLvYERIpF0BE2,html-keyboard-response,170,764651,0.0-46.0-5.0-1.0-1.0-11.0,,,,,,,,,,,,,,,6565fff05ec125a5ff77a77c,13:06:28,03/04/2024
1034.0,,,ospan,symmetry,6KbECHTxdThzCf1ZLvYERIpF0BE2,symmetry-judgement-task,171,767498,0.0-46.0-5.0-1.0-1.0-12.0,,,,,,,,,,1.0,1.0,,,,6565fff05ec125a5ff77a77c,13:06:28,03/04/2024
,"<div style=""font-size: 10rem; color: #0000FF"">L</div>",,ospan,letter,6KbECHTxdThzCf1ZLvYERIpF0BE2,html-keyboard-response,172,768501,0.0-46.0-5.0-1.0-1.0-13.0,,,,,,,,,,,,,,,6565fff05ec125a5ff77a77c,13:06:28,03/04/2024
7611.0,"<div class = numbox><p style=""font-size: 2.4rem"">Please recall the letters you saw to the best of your ability. If you do not remember a particular letter, use the SKIP button.<br><b>(When you are ready to lock in your answer, press ENTER)</b></p><button id = button_1 class = ""square num-button"" onclick = ""recordClick(this)""><div class = content><div class = numbers>C</div></div></button><button id = button_2 class = ""square num-button"" onclick = ""recordClick(this)""><div class = content><div class = numbers>G</div></div></button><button id = button_3 class = ""square num-button"" onclick = ""recordClick(this)""><div class = content><div class = numbers>H</div></div></button><button id = button_4 class = ""square num-button"" onclick = ""recordClick(this)""><div class = content><div class = numbers>J</div></div></button><button id = button_5 class = ""square num-button"" onclick = ""recordClick(this)""><div class = content><div class = numbers>K</div></div></button><button id = button_6 class = ""square num-button"" onclick = ""recordClick(this)""><div class = content><div class = numbers>L</div></div></button><button id = button_7 class = ""square num-button"" onclick = ""recordClick(this)""><div class = content><div class = numbers>N</div></div></button><button id = button_8 class = ""square num-button"" onclick = ""recordClick(this)""><div class = content><div class = numbers>P</div></div></button><button id = button_9 class = ""square num-button"" onclick = ""recordClick(this)""><div class = content><div class = numbers>Q</div></div></button><button id = button_10 class = ""square num-button"" onclick = ""recordClick(this)""><div class = content><div class = numbers>R</div></div></button><button id = button_11 class = ""square num-button"" onclick = ""recordClick(this)""><div class = content><div class = numbers>S</div></div></button><button id = button_12 class = ""square num-button"" onclick = ""recordClick(this)""><div class = content><div class = numbers>Y</div></div></button><button class = clear_button id = ""ClearButton"" onclick = ""clearResponse()"">BACKSPACE</button><button class = blank_button id = ""BlankButton"" onclick = ""blankResponse()"">SKIP</button><p style=""font-size: 2.4rem""><u><b>Current Answer:</b></u></p><br><br><div id=echoed_txt style=""font-size: 5rem; color:blue;""><b></b></div></div>",enter,ospan,retrieval,6KbECHTxdThzCf1ZLvYERIpF0BE2,html-keyboard-response,173,776866,0.0-46.0-5.0-1.0-2.0,28,28,28,7.0,"[""P"",""S"",""J"",""Y"",""R"",""N"",""L""]","[""P"",""S"",""J"",""Y"",""R"",""N"",""L""]",1.0,7.0,,,,,,,6565fff05ec125a5ff77a77c,13:06:28,03/04/2024
1075.9999999998836,[''],0,ospan,feedback,6KbECHTxdThzCf1ZLvYERIpF0BE2,html-button-response,174,778447,0.0-46.0-5.0-1.0-3.0,,,,,,,,,,,,96.0,0.0,,6565fff05ec125a5ff77a77c,13:06:28,03/04/2024
,"<p style=""font-size:75px;"">...</p>",,ospan,iti,6KbECHTxdThzCf1ZLvYERIpF0BE2,html-keyboard-response,175,779453,0.0-46.0-6.0-0.0-0.0,,,,,,,,,,,,,,,6565fff05ec125a5ff77a77c,13:06:28,03/04/2024
1704.0,,,ospan,symmetry,6KbECHTxdThzCf1ZLvYERIpF0BE2,symmetry-judgement-task,176,782222,0.0-46.0-6.0-0.0-1.0-0.0,,,,,,,,,,1.0,1.0,,,,6565fff05ec125a5ff77a77c,13:06:28,03/04/2024
,"<div style=""font-size: 10rem; color: #0000FF"">Q</div>",,ospan,letter,6KbECHTxdThzCf1ZLvYERIpF0BE2,html-keyboard-response,177,783225,0.0-46.0-6.0-0.0-1.0-1.0,,,,,,,,,,,,,,,6565fff05ec125a5ff77a77c,13:06:28,03/04/2024
892.0,,,ospan,symmetry,6KbECHTxdThzCf1ZLvYERIpF0BE2,symmetry-judgement-task,178,785933,0.0-46.0-6.0-0.0-1.0-2.0,,,,,,,,,,1.0,1.0,,,,6565fff05ec125a5ff77a77c,13:06:28,03/04/2024
,"<div style=""font-size: 10rem; color: #0000FF"">Y</div>",,ospan,letter,6KbECHTxdThzCf1ZLvYERIpF0BE2,html-keyboard-response,179,786936,0.0-46.0-6.0-0.0-1.0-3.0,,,,,,,,,,,,,,,6565fff05ec125a5ff77a77c,13:06:28,03/04/2024
1109.0,,,ospan,symmetry,6KbECHTxdThzCf1ZLvYERIpF0BE2,symmetry-judgement-task,180,789856,0.0-46.0-6.0-0.0-1.0-4.0,,,,,,,,,,1.0,1.0,,,,6565fff05ec125a5ff77a77c,13:06:28,03/04/2024
,"<div style=""font-size: 10rem; color: #0000FF"">S</div>",,ospan,letter,6KbECHTxdThzCf1ZLvYERIpF0BE2,html-keyboard-response,181,790859,0.0-46.0-6.0-0.0-1.0-5.0,,,,,,,,,,,,,,,6565fff05ec125a5ff77a77c,13:06:28,03/04/2024
776.0,,,ospan,symmetry,6KbECHTxdThzCf1ZLvYERIpF0BE2,symmetry-judgement-task,182,793449,0.0-46.0-6.0-0.0-1.0-6.0,,,,,,,,,,1.0,1.0,,,,6565fff05ec125a5ff77a77c,13:06:28,03/04/2024
,"<div style=""font-size: 10rem; color: #0000FF"">G</div>",,ospan,letter,6KbECHTxdThzCf1ZLvYERIpF0BE2,html-keyboard-response,183,794452,0.0-46.0-6.0-0.0-1.0-7.0,,,,,,,,,,,,,,,6565fff05ec125a5ff77a77c,13:06:28,03/04/2024
805.0,,,ospan,symmetry,6KbECHTxdThzCf1ZLvYERIpF0BE2,symmetry-judgement-task,184,797064,0.0-46.0-6.0-0.0-1.0-8.0,,,,,,,,,,1.0,1.0,,,,6565fff05ec125a5ff77a77c,13:06:28,03/04/2024
,"<div style=""font-size: 10rem; color: #0000FF"">N</div>",,ospan,letter,6KbECHTxdThzCf1ZLvYERIpF0BE2,html-keyboard-response,185,798067,0.0-46.0-6.0-0.0-1.0-9.0,,,,,,,,,,,,,,,6565fff05ec125a5ff77a77c,13:06:28,03/04/2024
4846.0,"<div class = numbox><p style=""font-size: 2.4rem"">Please recall the letters you saw to the best of your ability. If you do not remember a particular letter, use the SKIP button.<br><b>(When you are ready to lock in your answer, press ENTER)</b></p><button id = button_1 class = ""square num-button"" onclick = ""recordClick(this)""><div class = content><div class = numbers>C</div></div></button><button id = button_2 class = ""square num-button"" onclick = ""recordClick(this)""><div class = content><div class = numbers>G</div></div></button><button id = button_3 class = ""square num-button"" onclick = ""recordClick(this)""><div class = content><div class = numbers>H</div></div></button><button id = button_4 class = ""square num-button"" onclick = ""recordClick(this)""><div class = content><div class = numbers>J</div></div></button><button id = button_5 class = ""square num-button"" onclick = ""recordClick(this)""><div class = content><div class = numbers>K</div></div></button><button id = button_6 class = ""square num-button"" onclick = ""recordClick(this)""><div class = content><div class = numbers>L</div></div></button><button id = button_7 class = ""square num-button"" onclick = ""recordClick(this)""><div class = content><div class = numbers>N</div></div></button><button id = button_8 class = ""square num-button"" onclick = ""recordClick(this)""><div class = content><div class = numbers>P</div></div></button><button id = button_9 class = ""square num-button"" onclick = ""recordClick(this)""><div class = content><div class = numbers>Q</div></div></button><button id = button_10 class = ""square num-button"" onclick = ""recordClick(this)""><div class = content><div class = numbers>R</div></div></button><button id = button_11 class = ""square num-button"" onclick = ""recordClick(this)""><div class = content><div class = numbers>S</div></div></button><button id = button_12 class = ""square num-button"" onclick = ""recordClick(this)""><div class = content><div class = numbers>Y</div></div></button><button class = clear_button id = ""ClearButton"" onclick = ""clearResponse()"">BACKSPACE</button><button class = blank_button id = ""BlankButton"" onclick = ""blankResponse()"">SKIP</button><p style=""font-size: 2.4rem""><u><b>Current Answer:</b></u></p><br><br><div id=echoed_txt style=""font-size: 5rem; color:blue;""><b></b></div></div>",enter,ospan,retrieval,6KbECHTxdThzCf1ZLvYERIpF0BE2,html-keyboard-response,186,803670,0.0-46.0-6.0-0.0-2.0,33,33,33,5.0,"[""Q"",""Y"",""S"",""G"",""N""]","[""Q"",""Y"",""S"",""G"",""N""]",1.0,5.0,,,,,,,6565fff05ec125a5ff77a77c,13:06:28,03/04/2024
972.9999999998836,[''],0,ospan,feedback,6KbECHTxdThzCf1ZLvYERIpF0BE2,html-button-response,187,805147,0.0-46.0-6.0-0.0-3.0,,,,,,,,,,,,97.0,0.0,,6565fff05ec125a5ff77a77c,13:06:28,03/04/2024
,"<p style=""font-size:75px;"">...</p>",,ospan,iti,6KbECHTxdThzCf1ZLvYERIpF0BE2,html-keyboard-response,188,806152,0.0-46.0-6.0-1.0-0.0,,,,,,,,,,,,,,,6565fff05ec125a5ff77a77c,13:06:28,03/04/2024
865.0,,,ospan,symmetry,6KbECHTxdThzCf1ZLvYERIpF0BE2,symmetry-judgement-task,189,808080,0.0-46.0-6.0-1.0-1.0-0.0,,,,,,,,,,1.0,1.0,,,,6565fff05ec125a5ff77a77c,13:06:28,03/04/2024
,"<div style=""font-size: 10rem; color: #0000FF"">N</div>",,ospan,letter,6KbECHTxdThzCf1ZLvYERIpF0BE2,html-keyboard-response,190,809083,0.0-46.0-6.0-1.0-1.0-1.0,,,,,,,,,,,,,,,6565fff05ec125a5ff77a77c,13:06:28,03/04/2024
734.0,,,ospan,symmetry,6KbECHTxdThzCf1ZLvYERIpF0BE2,symmetry-judgement-task,191,811632,0.0-46.0-6.0-1.0-1.0-2.0,,,,,,,,,,1.0,1.0,,,,6565fff05ec125a5ff77a77c,13:06:28,03/04/2024
,"<div style=""font-size: 10rem; color: #0000FF"">Q</div>",,ospan,letter,6KbECHTxdThzCf1ZLvYERIpF0BE2,html-keyboard-response,192,812636,0.0-46.0-6.0-1.0-1.0-3.0,,,,,,,,,,,,,,,6565fff05ec125a5ff77a77c,13:06:28,03/04/2024
853.0,,,ospan,symmetry,6KbECHTxdThzCf1ZLvYERIpF0BE2,symmetry-judgement-task,193,815294,0.0-46.0-6.0-1.0-1.0-4.0,,,,,,,,,,1.0,1.0,,,,6565fff05ec125a5ff77a77c,13:06:28,03/04/2024
,"<div style=""font-size: 10rem; color: #0000FF"">R</div>",,ospan,letter,6KbECHTxdThzCf1ZLvYERIpF0BE2,html-keyboard-response,194,816297,0.0-46.0-6.0-1.0-1.0-5.0,,,,,,,,,,,,,,,6565fff05ec125a5ff77a77c,13:06:28,03/04/2024
884.0,,,ospan,symmetry,6KbECHTxdThzCf1ZLvYERIpF0BE2,symmetry-judgement-task,195,818987,0.0-46.0-6.0-1.0-1.0-6.0,,,,,,,,,,1.0,1.0,,,,6565fff05ec125a5ff77a77c,13:06:28,03/04/2024
,"<div style=""font-size: 10rem; color: #0000FF"">Y</div>",,ospan,letter,6KbECHTxdThzCf1ZLvYERIpF0BE2,html-keyboard-response,196,819990,0.0-46.0-6.0-1.0-1.0-7.0,,,,,,,,,,,,,,,6565fff05ec125a5ff77a77c,13:06:28,03/04/2024
1094.0,,,ospan,symmetry,6KbECHTxdThzCf1ZLvYERIpF0BE2,symmetry-judgement-task,197,822902,0.0-46.0-6.0-1.0-1.0-8.0,,,,,,,,,,1.0,1.0,,,,6565fff05ec125a5ff77a77c,13:06:28,03/04/2024
,"<div style=""font-size: 10rem; color: #0000FF"">H</div>",,ospan,letter,6KbECHTxdThzCf1ZLvYERIpF0BE2,html-keyboard-response,198,823904,0.0-46.0-6.0-1.0-1.0-9.0,,,,,,,,,,,,,,,6565fff05ec125a5ff77a77c,13:06:28,03/04/2024
1058.0,,,ospan,symmetry,6KbECHTxdThzCf1ZLvYERIpF0BE2,symmetry-judgement-task,199,826776,0.0-46.0-6.0-1.0-1.0-10.0,,,,,,,,,,1.0,1.0,,,,6565fff05ec125a5ff77a77c,13:06:28,03/04/2024
,"<div style=""font-size: 10rem; color: #0000FF"">C</div>",,ospan,letter,6KbECHTxdThzCf1ZLvYERIpF0BE2,html-keyboard-response,200,827778,0.0-46.0-6.0-1.0-1.0-11.0,,,,,,,,,,,,,,,6565fff05ec125a5ff77a77c,13:06:28,03/04/2024
888.0,,,ospan,symmetry,6KbECHTxdThzCf1ZLvYERIpF0BE2,symmetry-judgement-task,201,830471,0.0-46.0-6.0-1.0-1.0-12.0,,,,,,,,,,1.0,1.0,,,,6565fff05ec125a5ff77a77c,13:06:28,03/04/2024
,"<div style=""font-size: 10rem; color: #0000FF"">K</div>",,ospan,letter,6KbECHTxdThzCf1ZLvYERIpF0BE2,html-keyboard-response,202,831473,0.0-46.0-6.0-1.0-1.0-13.0,,,,,,,,,,,,,,,6565fff05ec125a5ff77a77c,13:06:28,03/04/2024
1161.0,,,ospan,symmetry,6KbECHTxdThzCf1ZLvYERIpF0BE2,symmetry-judgement-task,203,834442,0.0-46.0-6.0-1.0-1.0-14.0,,,,,,,,,,1.0,1.0,,,,6565fff05ec125a5ff77a77c,13:06:28,03/04/2024
,"<div style=""font-size: 10rem; color: #0000FF"">G</div>",,ospan,letter,6KbECHTxdThzCf1ZLvYERIpF0BE2,html-keyboard-response,204,835444,0.0-46.0-6.0-1.0-1.0-15.0,,,,,,,,,,,,,,,6565fff05ec125a5ff77a77c,13:06:28,03/04/2024
18731.999999999884,"<div class = numbox><p style=""font-size: 2.4rem"">Please recall the letters you saw to the best of your ability. If you do not remember a particular letter, use the SKIP button.<br><b>(When you are ready to lock in your answer, press ENTER)</b></p><button id = button_1 class = ""square num-button"" onclick = ""recordClick(this)""><div class = content><div class = numbers>C</div></div></button><button id = button_2 class = ""square num-button"" onclick = ""recordClick(this)""><div class = content><div class = numbers>G</div></div></button><button id = button_3 class = ""square num-button"" onclick = ""recordClick(this)""><div class = content><div class = numbers>H</div></div></button><button id = button_4 class = ""square num-button"" onclick = ""recordClick(this)""><div class = content><div class = numbers>J</div></div></button><button id = button_5 class = ""square num-button"" onclick = ""recordClick(this)""><div class = content><div class = numbers>K</div></div></button><button id = button_6 class = ""square num-button"" onclick = ""recordClick(this)""><div class = content><div class = numbers>L</div></div></button><button id = button_7 class = ""square num-button"" onclick = ""recordClick(this)""><div class = content><div class = numbers>N</div></div></button><button id = button_8 class = ""square num-button"" onclick = ""recordClick(this)""><div class = content><div class = numbers>P</div></div></button><button id = button_9 class = ""square num-button"" onclick = ""recordClick(this)""><div class = content><div class = numbers>Q</div></div></button><button id = button_10 class = ""square num-button"" onclick = ""recordClick(this)""><div class = content><div class = numbers>R</div></div></button><button id = button_11 class = ""square num-button"" onclick = ""recordClick(this)""><div class = content><div class = numbers>S</div></div></button><button id = button_12 class = ""square num-button"" onclick = ""recordClick(this)""><div class = content><div class = numbers>Y</div></div></button><button class = clear_button id = ""ClearButton"" onclick = ""clearResponse()"">BACKSPACE</button><button class = blank_button id = ""BlankButton"" onclick = ""blankResponse()"">SKIP</button><p style=""font-size: 2.4rem""><u><b>Current Answer:</b></u></p><br><br><div id=echoed_txt style=""font-size: 5rem; color:blue;""><b></b></div></div>",enter,ospan,retrieval,6KbECHTxdThzCf1ZLvYERIpF0BE2,html-keyboard-response,205,854930,0.0-46.0-6.0-1.0-2.0,41,39,33,8.0,"[""N"",""Q"",""R"",""Y"",""H"",""C"",""G"",""K""]","[""N"",""Q"",""R"",""Y"",""H"",""C"",""K"",""G""]",0.0,6.0,,,,,,,6565fff05ec125a5ff77a77c,13:06:28,03/04/2024
1064.0,[''],0,ospan,feedback,6KbECHTxdThzCf1ZLvYERIpF0BE2,html-button-response,206,856499,0.0-46.0-6.0-1.0-3.0,,,,,,,,,,,,98.0,0.0,,6565fff05ec125a5ff77a77c,13:06:28,03/04/2024
3418.0,,{'Q0': ' '},ospan,survey_ospan,6KbECHTxdThzCf1ZLvYERIpF0BE2,lmdlab-survey-text,207,860672,0.0-46.0-7.0,,,,,,,,,,,,,,6KbECHTxdThzCf1ZLvYERIpF0BE2,6565fff05ec125a5ff77a77c,13:06:28,03/04/2024
2028.0000000001164,<p><p style='font-size: 3rem'>Great work!<br><br>This completes the symmetry and memory task.</p><br><br><br>,0,ospan,finish,6KbECHTxdThzCf1ZLvYERIpF0BE2,html-button-response,208,862703,0.0-46.0-8.0,41,39,33,,,,,,,,,98.0,,,6565fff05ec125a5ff77a77c,13:06:28,03/04/2024
