rt,stimulus,response,exp_name,exp_stage,subjectID,trial_type,trial_index,time_elapsed,internal_node_id,ospan_shown,ospan_total,ospan_abs,length,resp_actual,resp_correct,full_correct,num_correct,feedback,accuracy,correct,math_acc,math_warning,databaseID,prolificID,start_time,date
2395.5999999940395,<div class = 'left_align' style='font-size: 3.25rem; line-height: 1.3;'><p class = 'center_align'><b>Welcome to the Symmetry and Memory Task</b><br><br><br><br></p>Press 'continue' to show the instructions.<br><br><br><br></div>,0,ospan,instruct,te1Hnd8BjrO9F8w7sYMafEpyMuC3,html-button-response,51,347060,0.0-43.0-0.0-0.0-0.0,,,,,,,,,,,,,,,5f69c62d0bda08020d07c27e,13:56:35,06/03/2024
33230.5,"<div class = 'left_align' style='font-size: 3.25rem; line-height: 1.3;'><p class = 'center_align'><b>Symmetry and Memory Task</b><br><br></p>In this task, you will try to memorize letters you see on the screen<br>while you also view black and white grid pictures.<br><br>In the next few minutes, you will have some practice to get you familiar<br>with how the task works.<br><br>It may be difficult sometimes, but please do not worry about making mistakes!<br><br>We will begin by practicing the letter part of the task.<br><br><br><br></div>",0,ospan,instruct,te1Hnd8BjrO9F8w7sYMafEpyMuC3,html-button-response,52,380542,0.0-43.0-0.0-0.0-1.0,,,,,,,,,,,,,,,5f69c62d0bda08020d07c27e,13:56:35,06/03/2024
14279.0,"<div class = 'left_align' style='font-size: 3.25rem; line-height: 1.3;'>For this practice part, letters will appear on the screen one at a time.<br><br>Try to remember each letter in the order presented.<br><br>After some letters have been shown, you will see a response screen. Your<br>goal is to report the letters you saw <b>in order</b>. If you do not remember<br>a particular letter, you will have the option to leave it blank.<br><br><br><br></div>",0,ospan,instruct,te1Hnd8BjrO9F8w7sYMafEpyMuC3,html-button-response,53,395074,0.0-43.0-0.0-0.0-2.0,,,,,,,,,,,,,,,5f69c62d0bda08020d07c27e,13:56:35,06/03/2024
6479.5999999940395,"<div class = 'left_align' style='font-size: 3.25rem; line-height: 1.3;'>Remember, it is very important to get the letters in the same<br>order as you see them.<br><br>When you are ready, you may begin the letter practice.</div><br><br><br><br>",0,ospan,instruct,te1Hnd8BjrO9F8w7sYMafEpyMuC3,html-button-response,54,401808,0.0-43.0-0.0-0.0-3.0,,,,,,,,,,,,,,,5f69c62d0bda08020d07c27e,13:56:35,06/03/2024
,"<p style=""font-size:75px;"">...</p>",,ospan,iti,te1Hnd8BjrO9F8w7sYMafEpyMuC3,html-keyboard-response,55,403062,0.0-43.0-0.0-1.0-0.0,,,,,,,,,,,,,,,5f69c62d0bda08020d07c27e,13:56:35,06/03/2024
,"<div style=""font-size: 10rem; color: #0000FF"">Y</div>",,ospan,letter,te1Hnd8BjrO9F8w7sYMafEpyMuC3,html-keyboard-response,56,404066,0.0-43.0-0.0-1.0-1.0,,,,,,,,,,,,,,,5f69c62d0bda08020d07c27e,13:56:35,06/03/2024
,"<div style=""font-size: 10rem; color: #0000FF"">C</div>",,ospan,letter,te1Hnd8BjrO9F8w7sYMafEpyMuC3,html-keyboard-response,57,405820,0.0-43.0-0.0-1.0-2.0,,,,,,,,,,,,,,,5f69c62d0bda08020d07c27e,13:56:35,06/03/2024
6659.9000000059605,"<div class = numbox><p style=""font-size: 2.4rem"">Please recall the letters you saw to the best of your ability. If you do not remember a particular letter, use the SKIP button.<br><b>(When you are ready to lock in your answer, press ENTER)</b></p><button id = button_1 class = ""square num-button"" onclick = ""recordClick(this)""><div class = content><div class = numbers>C</div></div></button><button id = button_2 class = ""square num-button"" onclick = ""recordClick(this)""><div class = content><div class = numbers>G</div></div></button><button id = button_3 class = ""square num-button"" onclick = ""recordClick(this)""><div class = content><div class = numbers>H</div></div></button><button id = button_4 class = ""square num-button"" onclick = ""recordClick(this)""><div class = content><div class = numbers>J</div></div></button><button id = button_5 class = ""square num-button"" onclick = ""recordClick(this)""><div class = content><div class = numbers>K</div></div></button><button id = button_6 class = ""square num-button"" onclick = ""recordClick(this)""><div class = content><div class = numbers>L</div></div></button><button id = button_7 class = ""square num-button"" onclick = ""recordClick(this)""><div class = content><div class = numbers>N</div></div></button><button id = button_8 class = ""square num-button"" onclick = ""recordClick(this)""><div class = content><div class = numbers>P</div></div></button><button id = button_9 class = ""square num-button"" onclick = ""recordClick(this)""><div class = content><div class = numbers>Q</div></div></button><button id = button_10 class = ""square num-button"" onclick = ""recordClick(this)""><div class = content><div class = numbers>R</div></div></button><button id = button_11 class = ""square num-button"" onclick = ""recordClick(this)""><div class = content><div class = numbers>S</div></div></button><button id = button_12 class = ""square num-button"" onclick = ""recordClick(this)""><div class = content><div class = numbers>Y</div></div></button><button class = clear_button id = ""ClearButton"" onclick = ""clearResponse()"">BACKSPACE</button><button class = blank_button id = ""BlankButton"" onclick = ""blankResponse()"">SKIP</button><p style=""font-size: 2.4rem""><u><b>Current Answer:</b></u></p><br><br><div id=echoed_txt style=""font-size: 5rem; color:blue;""><b></b></div></div>",enter,ospan,retrieval,te1Hnd8BjrO9F8w7sYMafEpyMuC3,html-keyboard-response,58,413234,0.0-43.0-0.0-1.0-3.0,NA,NA,NA,2.0,"[""C""]","[""Y"",""C""]",0.0,0.0,"['<font color=""red"">Y</font>', '<font color=""red"">C</font>']",,,,,,5f69c62d0bda08020d07c27e,13:56:35,06/03/2024
1552.800000011921,"['<p style=""font-size:44px"">Letters:<br><br><br><font color=""red"">Y</font> <font color=""red"">C</font></p><br><br>']",0,ospan,practice_feedback,te1Hnd8BjrO9F8w7sYMafEpyMuC3,html-button-response,59,415292,0.0-43.0-0.0-1.0-4.0,,,,,,,,,,,,,,,5f69c62d0bda08020d07c27e,13:56:35,06/03/2024
,"<p style=""font-size:75px;"">...</p>",,ospan,iti,te1Hnd8BjrO9F8w7sYMafEpyMuC3,html-keyboard-response,60,416296,0.0-43.0-0.0-2.0-0.0,,,,,,,,,,,,,,,5f69c62d0bda08020d07c27e,13:56:35,06/03/2024
,"<div style=""font-size: 10rem; color: #0000FF"">C</div>",,ospan,letter,te1Hnd8BjrO9F8w7sYMafEpyMuC3,html-keyboard-response,61,417298,0.0-43.0-0.0-2.0-1.0,,,,,,,,,,,,,,,5f69c62d0bda08020d07c27e,13:56:35,06/03/2024
,"<div style=""font-size: 10rem; color: #0000FF"">R</div>",,ospan,letter,te1Hnd8BjrO9F8w7sYMafEpyMuC3,html-keyboard-response,62,419052,0.0-43.0-0.0-2.0-2.0,,,,,,,,,,,,,,,5f69c62d0bda08020d07c27e,13:56:35,06/03/2024
,"<div style=""font-size: 10rem; color: #0000FF"">P</div>",,ospan,letter,te1Hnd8BjrO9F8w7sYMafEpyMuC3,html-keyboard-response,63,420805,0.0-43.0-0.0-2.0-3.0,,,,,,,,,,,,,,,5f69c62d0bda08020d07c27e,13:56:35,06/03/2024
3556.7999999821186,"<div class = numbox><p style=""font-size: 2.4rem"">Please recall the letters you saw to the best of your ability. If you do not remember a particular letter, use the SKIP button.<br><b>(When you are ready to lock in your answer, press ENTER)</b></p><button id = button_1 class = ""square num-button"" onclick = ""recordClick(this)""><div class = content><div class = numbers>C</div></div></button><button id = button_2 class = ""square num-button"" onclick = ""recordClick(this)""><div class = content><div class = numbers>G</div></div></button><button id = button_3 class = ""square num-button"" onclick = ""recordClick(this)""><div class = content><div class = numbers>H</div></div></button><button id = button_4 class = ""square num-button"" onclick = ""recordClick(this)""><div class = content><div class = numbers>J</div></div></button><button id = button_5 class = ""square num-button"" onclick = ""recordClick(this)""><div class = content><div class = numbers>K</div></div></button><button id = button_6 class = ""square num-button"" onclick = ""recordClick(this)""><div class = content><div class = numbers>L</div></div></button><button id = button_7 class = ""square num-button"" onclick = ""recordClick(this)""><div class = content><div class = numbers>N</div></div></button><button id = button_8 class = ""square num-button"" onclick = ""recordClick(this)""><div class = content><div class = numbers>P</div></div></button><button id = button_9 class = ""square num-button"" onclick = ""recordClick(this)""><div class = content><div class = numbers>Q</div></div></button><button id = button_10 class = ""square num-button"" onclick = ""recordClick(this)""><div class = content><div class = numbers>R</div></div></button><button id = button_11 class = ""square num-button"" onclick = ""recordClick(this)""><div class = content><div class = numbers>S</div></div></button><button id = button_12 class = ""square num-button"" onclick = ""recordClick(this)""><div class = content><div class = numbers>Y</div></div></button><button class = clear_button id = ""ClearButton"" onclick = ""clearResponse()"">BACKSPACE</button><button class = blank_button id = ""BlankButton"" onclick = ""blankResponse()"">SKIP</button><p style=""font-size: 2.4rem""><u><b>Current Answer:</b></u></p><br><br><div id=echoed_txt style=""font-size: 5rem; color:blue;""><b></b></div></div>",enter,ospan,retrieval,te1Hnd8BjrO9F8w7sYMafEpyMuC3,html-keyboard-response,64,425116,0.0-43.0-0.0-2.0-4.0,NA,NA,NA,3.0,"[""C"",""R"",""P""]","[""C"",""R"",""P""]",1.0,3.0,"['<font color=""green"">C</font>', '<font color=""green"">R</font>', '<font color=""green"">P</font>']",,,,,,5f69c62d0bda08020d07c27e,13:56:35,06/03/2024
755.7999999821186,"['<p style=""font-size:44px"">Letters:<br><br><br><font color=""green"">C</font> <font color=""green"">R</font> <font color=""green"">P</font></p><br><br>']",0,ospan,practice_feedback,te1Hnd8BjrO9F8w7sYMafEpyMuC3,html-button-response,65,426375,0.0-43.0-0.0-2.0-5.0,,,,,,,,,,,,,,,5f69c62d0bda08020d07c27e,13:56:35,06/03/2024
5731.199999988079,"<div class = 'left_align' style='font-size: 3.25rem; line-height: 1.3;'>Now you will practice doing the <b>symmetry judgment part</b> of the experiment.<br><br>A black and white grid picture will appear on the screen and you have to judge if it is <br>symmetrical or asymetrical.<br><br>A picture is 'mirror' symmetrical if its left half is identical to the right half when flipped.<br>Here are examples of a symmetrical and an asymetrical picture:<br><br><center><img src='Stimuli/img/symm_instructions_extra.png' style='height:420px; width:900'></img></center><br>To judge symmetry, imagine you were to fold each picture down the middle, like a book –<br>would the left half match the right half when folded onto each other?<br><br></div><br>",0,ospan,instruct,te1Hnd8BjrO9F8w7sYMafEpyMuC3,html-button-response,66,432108,0.0-43.0-1.0-0.0-0.0,,,,,,,,,,,,,,,5f69c62d0bda08020d07c27e,13:56:35,06/03/2024
2212.0999999940395,"<div class = 'left_align' style='font-size: 3.25rem; line-height: 1.3;'>When you have viewed the picture and determined whether it is symmetrical or not,<br>you can <b>click the Yes or No button</b> below to answer.<br><br>If you take longer than 15 seconds, it will continue automatically<br>and record the answer as an error.</div><br>",0,ospan,instruct,te1Hnd8BjrO9F8w7sYMafEpyMuC3,html-button-response,67,434575,0.0-43.0-1.0-0.0-1.0,,,,,,,,,,,,,,,5f69c62d0bda08020d07c27e,13:56:35,06/03/2024
3947.5,"<div class = 'left_align' style='font-size: 3.25rem; line-height: 1.3;'>It is <b>very</b> important that you make the symmetry judgment correctly.<br><br>It is also important that you try and judge the picture as quickly as you can.<br><br>When you are ready, click on the button below to try some practice problems.</div><br><br><br><br>",0,ospan,instruct,te1Hnd8BjrO9F8w7sYMafEpyMuC3,html-button-response,68,438775,0.0-43.0-1.0-0.0-2.0,,,,,,,,,,,,,,,5f69c62d0bda08020d07c27e,13:56:35,06/03/2024
1971.0,,,ospan,symmetry,te1Hnd8BjrO9F8w7sYMafEpyMuC3,symmetry-judgement-task,69,441543,0.0-43.0-1.0-1.0-0.0,,,,,,,,,,1.0,1.0,,,,5f69c62d0bda08020d07c27e,13:56:35,06/03/2024
,"<p style=""color:green; font-size: 35px"">Correct</p>",,ospan,feedback,te1Hnd8BjrO9F8w7sYMafEpyMuC3,html-keyboard-response,70,442297,0.0-43.0-1.0-1.0-1.0,,,,,,,,,,,,,,,5f69c62d0bda08020d07c27e,13:56:35,06/03/2024
1687.0,,,ospan,symmetry,te1Hnd8BjrO9F8w7sYMafEpyMuC3,symmetry-judgement-task,71,446609,0.0-43.0-1.0-1.0-2.0,,,,,,,,,,1.0,1.0,,,,5f69c62d0bda08020d07c27e,13:56:35,06/03/2024
,"<p style=""color:green; font-size: 35px"">Correct</p>",,ospan,feedback,te1Hnd8BjrO9F8w7sYMafEpyMuC3,html-keyboard-response,72,447363,0.0-43.0-1.0-1.0-3.0,,,,,,,,,,,,,,,5f69c62d0bda08020d07c27e,13:56:35,06/03/2024
1048.0,,,ospan,symmetry,te1Hnd8BjrO9F8w7sYMafEpyMuC3,symmetry-judgement-task,73,451060,0.0-43.0-1.0-1.0-4.0,,,,,,,,,,0.0,0.0,,,,5f69c62d0bda08020d07c27e,13:56:35,06/03/2024
,"<p style=""color:red; font-size: 35px"">Incorrect</p>",,ospan,feedback,te1Hnd8BjrO9F8w7sYMafEpyMuC3,html-keyboard-response,74,451813,0.0-43.0-1.0-1.0-5.0,,,,,,,,,,,,,,,5f69c62d0bda08020d07c27e,13:56:35,06/03/2024
2041.7000000178814,"<p style=""font-size: 3rem;"">You only responded correctly on 2 of 3 symmetry judgments.<br><br><b>In the main task, you must try harder to answer accurately.</b></p><br><br>",0,ospan,practice,te1Hnd8BjrO9F8w7sYMafEpyMuC3,html-button-response,75,455858,0.0-43.0-1.0-2.0,,,,,,,,,,,,,,,5f69c62d0bda08020d07c27e,13:56:35,06/03/2024
6828.800000011921,"<div class = 'left_align' style='font-size: 3.25rem; line-height: 1.3;'>Now you will practice doing both parts of the experiment at the same time.<br><br>In the next practice set, you will be given one grid picture to judge.<br>Then letter will appear on the screen. Try to remember the letter.<br><br>It is <b>very important</b> to make the symmetry judgment as quickly and accurately as possible.<br><br>Just as before, once you have make the symmetry judgment, you can click Yes or No.<br><b>Note that you will no longer see Correct or Incorrect feedback.</div><br><br><br><br>",0,ospan,instruct,te1Hnd8BjrO9F8w7sYMafEpyMuC3,html-button-response,76,462941,0.0-43.0-2.0-0.0-0.0,,,,,,,,,,,,,,,5f69c62d0bda08020d07c27e,13:56:35,06/03/2024
1964.0999999940395,"<div class = 'left_align' style='font-size: 3.25rem; line-height: 1.3;'>After the letter goes away, another grid picture will appear, and then<br>another letter.<br><br>At the end of each set of letters and grids, you will recall the letters to the best<br>of your ability. Remember, try your best to get the letters in the correct order.<br><br>It is important to <b>quickly</b> and <b>accurately</b> make the symmetry judgments.</div><br><br><br><br>",0,ospan,instruct,te1Hnd8BjrO9F8w7sYMafEpyMuC3,html-button-response,77,465159,0.0-43.0-2.0-0.0-1.0,,,,,,,,,,,,,,,5f69c62d0bda08020d07c27e,13:56:35,06/03/2024
4277.199999988079,"<div class = 'left_align' style='font-size: 3.25rem; line-height: 1.3;'>On the feedback screen, if you are not doing well at the symmetry judgments,<br>you will also see a warning in the middle. This indicates your percent <br>correct for the grid pictures for the entire experiment.<br><br>It is <b>very</b> important for you to keep accuracy at least at 85%: <u>We can only use<br>data where the participant was at least 85% accurate on the judgments.</u> Therefore,<br> please try your best to perform well on the symmetry judgments, <b>at the same time</b><br>doing your best to recall as many letters as possible.<br><br>Click the button to try some practice problems.</div><br><br><br><br>",0,ospan,instruct,te1Hnd8BjrO9F8w7sYMafEpyMuC3,html-button-response,78,469691,0.0-43.0-2.0-0.0-2.0,,,,,,,,,,,,,,,5f69c62d0bda08020d07c27e,13:56:35,06/03/2024
,"<p style=""font-size:75px;"">...</p>",,ospan,iti,te1Hnd8BjrO9F8w7sYMafEpyMuC3,html-keyboard-response,79,470946,0.0-43.0-2.0-1.0-0.0,,,,,,,,,,,,,,,5f69c62d0bda08020d07c27e,13:56:35,06/03/2024
1254.0,,,ospan,symmetry,te1Hnd8BjrO9F8w7sYMafEpyMuC3,symmetry-judgement-task,80,473344,0.0-43.0-2.0-1.0-1.0-0.0,,,,,,,,,,1.0,1.0,,,,5f69c62d0bda08020d07c27e,13:56:35,06/03/2024
,"<div style=""font-size: 10rem; color: #0000FF"">Q</div>",,ospan,letter,te1Hnd8BjrO9F8w7sYMafEpyMuC3,html-keyboard-response,81,474348,0.0-43.0-2.0-1.0-1.0-1.0,,,,,,,,,,,,,,,5f69c62d0bda08020d07c27e,13:56:35,06/03/2024
2122.0,,,ospan,symmetry,te1Hnd8BjrO9F8w7sYMafEpyMuC3,symmetry-judgement-task,82,478360,0.0-43.0-2.0-1.0-1.0-2.0,,,,,,,,,,1.0,1.0,,,,5f69c62d0bda08020d07c27e,13:56:35,06/03/2024
,"<div style=""font-size: 10rem; color: #0000FF"">L</div>",,ospan,letter,te1Hnd8BjrO9F8w7sYMafEpyMuC3,html-keyboard-response,83,479364,0.0-43.0-2.0-1.0-1.0-3.0,,,,,,,,,,,,,,,5f69c62d0bda08020d07c27e,13:56:35,06/03/2024
1502.0,,,ospan,symmetry,te1Hnd8BjrO9F8w7sYMafEpyMuC3,symmetry-judgement-task,84,482761,0.0-43.0-2.0-1.0-1.0-4.0,,,,,,,,,,1.0,1.0,,,,5f69c62d0bda08020d07c27e,13:56:35,06/03/2024
,"<div style=""font-size: 10rem; color: #0000FF"">Y</div>",,ospan,letter,te1Hnd8BjrO9F8w7sYMafEpyMuC3,html-keyboard-response,85,483764,0.0-43.0-2.0-1.0-1.0-5.0,,,,,,,,,,,,,,,5f69c62d0bda08020d07c27e,13:56:35,06/03/2024
4136.4000000059605,"<div class = numbox><p style=""font-size: 2.4rem"">Please recall the letters you saw to the best of your ability. If you do not remember a particular letter, use the SKIP button.<br><b>(When you are ready to lock in your answer, press ENTER)</b></p><button id = button_1 class = ""square num-button"" onclick = ""recordClick(this)""><div class = content><div class = numbers>C</div></div></button><button id = button_2 class = ""square num-button"" onclick = ""recordClick(this)""><div class = content><div class = numbers>G</div></div></button><button id = button_3 class = ""square num-button"" onclick = ""recordClick(this)""><div class = content><div class = numbers>H</div></div></button><button id = button_4 class = ""square num-button"" onclick = ""recordClick(this)""><div class = content><div class = numbers>J</div></div></button><button id = button_5 class = ""square num-button"" onclick = ""recordClick(this)""><div class = content><div class = numbers>K</div></div></button><button id = button_6 class = ""square num-button"" onclick = ""recordClick(this)""><div class = content><div class = numbers>L</div></div></button><button id = button_7 class = ""square num-button"" onclick = ""recordClick(this)""><div class = content><div class = numbers>N</div></div></button><button id = button_8 class = ""square num-button"" onclick = ""recordClick(this)""><div class = content><div class = numbers>P</div></div></button><button id = button_9 class = ""square num-button"" onclick = ""recordClick(this)""><div class = content><div class = numbers>Q</div></div></button><button id = button_10 class = ""square num-button"" onclick = ""recordClick(this)""><div class = content><div class = numbers>R</div></div></button><button id = button_11 class = ""square num-button"" onclick = ""recordClick(this)""><div class = content><div class = numbers>S</div></div></button><button id = button_12 class = ""square num-button"" onclick = ""recordClick(this)""><div class = content><div class = numbers>Y</div></div></button><button class = clear_button id = ""ClearButton"" onclick = ""clearResponse()"">BACKSPACE</button><button class = blank_button id = ""BlankButton"" onclick = ""blankResponse()"">SKIP</button><p style=""font-size: 2.4rem""><u><b>Current Answer:</b></u></p><br><br><div id=echoed_txt style=""font-size: 5rem; color:blue;""><b></b></div></div>",enter,ospan,retrieval,te1Hnd8BjrO9F8w7sYMafEpyMuC3,html-keyboard-response,86,488654,0.0-43.0-2.0-1.0-2.0-0.0,NA,NA,NA,3.0,"[""Q"",""L"",""Y""]","[""Q"",""L"",""Y""]",1.0,3.0,"['<font color=""green"">Q</font>', '<font color=""green"">L</font>', '<font color=""green"">Y</font>']",,,,,,5f69c62d0bda08020d07c27e,13:56:35,06/03/2024
1131.9000000059605,"['<p style=""font-size:44px"">Letters:<br><br><br><font color=""green"">Q</font> <font color=""green"">L</font> <font color=""green"">Y</font></p><br><br><p style=""font-size:30px"">Symmetry:<br><br><font color=""green"">100%</font></p><br><br>']",0,ospan,practice_feedback,te1Hnd8BjrO9F8w7sYMafEpyMuC3,html-button-response,87,490291,0.0-43.0-2.0-1.0-2.0-1.0,,,,,,,,,,,,,,,5f69c62d0bda08020d07c27e,13:56:35,06/03/2024
,"<p style=""font-size:75px;"">...</p>",,ospan,iti,te1Hnd8BjrO9F8w7sYMafEpyMuC3,html-keyboard-response,88,491295,0.0-43.0-2.0-2.0-0.0,,,,,,,,,,,,,,,5f69c62d0bda08020d07c27e,13:56:35,06/03/2024
1154.0,,,ospan,symmetry,te1Hnd8BjrO9F8w7sYMafEpyMuC3,symmetry-judgement-task,89,493594,0.0-43.0-2.0-2.0-1.0-0.0,,,,,,,,,,1.0,1.0,,,,5f69c62d0bda08020d07c27e,13:56:35,06/03/2024
,"<div style=""font-size: 10rem; color: #0000FF"">P</div>",,ospan,letter,te1Hnd8BjrO9F8w7sYMafEpyMuC3,html-keyboard-response,90,494597,0.0-43.0-2.0-2.0-1.0-1.0,,,,,,,,,,,,,,,5f69c62d0bda08020d07c27e,13:56:35,06/03/2024
1709.0,,,ospan,symmetry,te1Hnd8BjrO9F8w7sYMafEpyMuC3,symmetry-judgement-task,91,498194,0.0-43.0-2.0-2.0-1.0-2.0,,,,,,,,,,1.0,1.0,,,,5f69c62d0bda08020d07c27e,13:56:35,06/03/2024
,"<div style=""font-size: 10rem; color: #0000FF"">H</div>",,ospan,letter,te1Hnd8BjrO9F8w7sYMafEpyMuC3,html-keyboard-response,92,499197,0.0-43.0-2.0-2.0-1.0-3.0,,,,,,,,,,,,,,,5f69c62d0bda08020d07c27e,13:56:35,06/03/2024
1230.0,,,ospan,symmetry,te1Hnd8BjrO9F8w7sYMafEpyMuC3,symmetry-judgement-task,93,502309,0.0-43.0-2.0-2.0-1.0-4.0,,,,,,,,,,1.0,1.0,,,,5f69c62d0bda08020d07c27e,13:56:35,06/03/2024
,"<div style=""font-size: 10rem; color: #0000FF"">S</div>",,ospan,letter,te1Hnd8BjrO9F8w7sYMafEpyMuC3,html-keyboard-response,94,503312,0.0-43.0-2.0-2.0-1.0-5.0,,,,,,,,,,,,,,,5f69c62d0bda08020d07c27e,13:56:35,06/03/2024
3569.0999999940395,"<div class = numbox><p style=""font-size: 2.4rem"">Please recall the letters you saw to the best of your ability. If you do not remember a particular letter, use the SKIP button.<br><b>(When you are ready to lock in your answer, press ENTER)</b></p><button id = button_1 class = ""square num-button"" onclick = ""recordClick(this)""><div class = content><div class = numbers>C</div></div></button><button id = button_2 class = ""square num-button"" onclick = ""recordClick(this)""><div class = content><div class = numbers>G</div></div></button><button id = button_3 class = ""square num-button"" onclick = ""recordClick(this)""><div class = content><div class = numbers>H</div></div></button><button id = button_4 class = ""square num-button"" onclick = ""recordClick(this)""><div class = content><div class = numbers>J</div></div></button><button id = button_5 class = ""square num-button"" onclick = ""recordClick(this)""><div class = content><div class = numbers>K</div></div></button><button id = button_6 class = ""square num-button"" onclick = ""recordClick(this)""><div class = content><div class = numbers>L</div></div></button><button id = button_7 class = ""square num-button"" onclick = ""recordClick(this)""><div class = content><div class = numbers>N</div></div></button><button id = button_8 class = ""square num-button"" onclick = ""recordClick(this)""><div class = content><div class = numbers>P</div></div></button><button id = button_9 class = ""square num-button"" onclick = ""recordClick(this)""><div class = content><div class = numbers>Q</div></div></button><button id = button_10 class = ""square num-button"" onclick = ""recordClick(this)""><div class = content><div class = numbers>R</div></div></button><button id = button_11 class = ""square num-button"" onclick = ""recordClick(this)""><div class = content><div class = numbers>S</div></div></button><button id = button_12 class = ""square num-button"" onclick = ""recordClick(this)""><div class = content><div class = numbers>Y</div></div></button><button class = clear_button id = ""ClearButton"" onclick = ""clearResponse()"">BACKSPACE</button><button class = blank_button id = ""BlankButton"" onclick = ""blankResponse()"">SKIP</button><p style=""font-size: 2.4rem""><u><b>Current Answer:</b></u></p><br><br><div id=echoed_txt style=""font-size: 5rem; color:blue;""><b></b></div></div>",enter,ospan,retrieval,te1Hnd8BjrO9F8w7sYMafEpyMuC3,html-keyboard-response,95,507634,0.0-43.0-2.0-2.0-2.0-0.0,NA,NA,NA,3.0,"[""P"",""H"",""S""]","[""P"",""H"",""S""]",1.0,3.0,"['<font color=""green"">P</font>', '<font color=""green"">H</font>', '<font color=""green"">S</font>']",,,,,,5f69c62d0bda08020d07c27e,13:56:35,06/03/2024
853.2999999821186,"['<p style=""font-size:44px"">Letters:<br><br><br><font color=""green"">P</font> <font color=""green"">H</font> <font color=""green"">S</font></p><br><br><p style=""font-size:30px"">Symmetry:<br><br><font color=""green"">100%</font></p><br><br>']",0,ospan,practice_feedback,te1Hnd8BjrO9F8w7sYMafEpyMuC3,html-button-response,96,508990,0.0-43.0-2.0-2.0-2.0-1.0,,,,,,,,,,,,,,,5f69c62d0bda08020d07c27e,13:56:35,06/03/2024
3948.2999999821186,"<div class = 'left_align' style='font-size: 3rem; line-height: 1.3;'><b>Great work! That is the end of practice.</b><br><br>The real trials will look just like the practice trials you just completed.<br><br><u>Here, you will not see feedback</u>. First, you will see an grid picture to judge,<br>then a letter to remember. When the recall screen appears, report the letters in the<br>order presented. If you forget a letter, remember to use the <b>blank</b> button to move to the<br>next letter. Some of the sets will have more symmetry grids and letters than others.<br><br>It is important that you do your best on both the symmetry judgments and the letter recall<br>parts of the experiment. For for the symmetry judgments, try to work as <b>quickly</b> and <br>as <b>accurately</b> as possible. Remember to keep your symmetry accuracy at 85% or above.<br><br><b>For the letters, do NOT use any external aid (e.g., writing on paper, electronic device).</b><br><br>It is <u>very important</u> to our experiment to have a <b>true</b> view of your real performance.<br><br>Do not worry if you miss some when it gets hard! This task is meant to be very challenging!<br><br>Click the button to begin.</div><br><br><br><br>",0,ospan,starting_real_here,te1Hnd8BjrO9F8w7sYMafEpyMuC3,html-button-response,97,512941,0.0-43.0-2.0-3.0,,,,,,,,,,,,,,,5f69c62d0bda08020d07c27e,13:56:35,06/03/2024
,"<p style=""font-size:75px;"">...</p>",,ospan,iti,te1Hnd8BjrO9F8w7sYMafEpyMuC3,html-keyboard-response,98,514196,0.0-43.0-3.0-0.0-0.0,,,,,,,,,,,,,,,5f69c62d0bda08020d07c27e,13:56:35,06/03/2024
1912.0,,,ospan,symmetry,te1Hnd8BjrO9F8w7sYMafEpyMuC3,symmetry-judgement-task,99,517160,0.0-43.0-3.0-0.0-1.0-0.0,,,,,,,,,,1.0,1.0,,,,5f69c62d0bda08020d07c27e,13:56:35,06/03/2024
,"<div style=""font-size: 10rem; color: #0000FF"">Y</div>",,ospan,letter,te1Hnd8BjrO9F8w7sYMafEpyMuC3,html-keyboard-response,100,518163,0.0-43.0-3.0-0.0-1.0-1.0,,,,,,,,,,,,,,,5f69c62d0bda08020d07c27e,13:56:35,06/03/2024
1214.0,,,ospan,symmetry,te1Hnd8BjrO9F8w7sYMafEpyMuC3,symmetry-judgement-task,101,521260,0.0-43.0-3.0-0.0-1.0-2.0,,,,,,,,,,1.0,1.0,,,,5f69c62d0bda08020d07c27e,13:56:35,06/03/2024
,"<div style=""font-size: 10rem; color: #0000FF"">C</div>",,ospan,letter,te1Hnd8BjrO9F8w7sYMafEpyMuC3,html-keyboard-response,102,522263,0.0-43.0-3.0-0.0-1.0-3.0,,,,,,,,,,,,,,,5f69c62d0bda08020d07c27e,13:56:35,06/03/2024
1097.0,,,ospan,symmetry,te1Hnd8BjrO9F8w7sYMafEpyMuC3,symmetry-judgement-task,103,525242,0.0-43.0-3.0-0.0-1.0-4.0,,,,,,,,,,1.0,1.0,,,,5f69c62d0bda08020d07c27e,13:56:35,06/03/2024
,"<div style=""font-size: 10rem; color: #0000FF"">L</div>",,ospan,letter,te1Hnd8BjrO9F8w7sYMafEpyMuC3,html-keyboard-response,104,526244,0.0-43.0-3.0-0.0-1.0-5.0,,,,,,,,,,,,,,,5f69c62d0bda08020d07c27e,13:56:35,06/03/2024
3990.100000023842,"<div class = numbox><p style=""font-size: 2.4rem"">Please recall the letters you saw to the best of your ability. If you do not remember a particular letter, use the SKIP button.<br><b>(When you are ready to lock in your answer, press ENTER)</b></p><button id = button_1 class = ""square num-button"" onclick = ""recordClick(this)""><div class = content><div class = numbers>C</div></div></button><button id = button_2 class = ""square num-button"" onclick = ""recordClick(this)""><div class = content><div class = numbers>G</div></div></button><button id = button_3 class = ""square num-button"" onclick = ""recordClick(this)""><div class = content><div class = numbers>H</div></div></button><button id = button_4 class = ""square num-button"" onclick = ""recordClick(this)""><div class = content><div class = numbers>J</div></div></button><button id = button_5 class = ""square num-button"" onclick = ""recordClick(this)""><div class = content><div class = numbers>K</div></div></button><button id = button_6 class = ""square num-button"" onclick = ""recordClick(this)""><div class = content><div class = numbers>L</div></div></button><button id = button_7 class = ""square num-button"" onclick = ""recordClick(this)""><div class = content><div class = numbers>N</div></div></button><button id = button_8 class = ""square num-button"" onclick = ""recordClick(this)""><div class = content><div class = numbers>P</div></div></button><button id = button_9 class = ""square num-button"" onclick = ""recordClick(this)""><div class = content><div class = numbers>Q</div></div></button><button id = button_10 class = ""square num-button"" onclick = ""recordClick(this)""><div class = content><div class = numbers>R</div></div></button><button id = button_11 class = ""square num-button"" onclick = ""recordClick(this)""><div class = content><div class = numbers>S</div></div></button><button id = button_12 class = ""square num-button"" onclick = ""recordClick(this)""><div class = content><div class = numbers>Y</div></div></button><button class = clear_button id = ""ClearButton"" onclick = ""clearResponse()"">BACKSPACE</button><button class = blank_button id = ""BlankButton"" onclick = ""blankResponse()"">SKIP</button><p style=""font-size: 2.4rem""><u><b>Current Answer:</b></u></p><br><br><div id=echoed_txt style=""font-size: 5rem; color:blue;""><b></b></div></div>",enter,ospan,retrieval,te1Hnd8BjrO9F8w7sYMafEpyMuC3,html-keyboard-response,105,530987,0.0-43.0-3.0-0.0-2.0,3,3,3,3.0,"[""Y"",""C"",""L""]","[""Y"",""C"",""L""]",1.0,3.0,,,,,,,5f69c62d0bda08020d07c27e,13:56:35,06/03/2024
1666.2000000178814,[''],0,ospan,feedback,te1Hnd8BjrO9F8w7sYMafEpyMuC3,html-button-response,106,533157,0.0-43.0-3.0-0.0-3.0,,,,,,,,,,,,100.0,0.0,,5f69c62d0bda08020d07c27e,13:56:35,06/03/2024
,"<p style=""font-size:75px;"">...</p>",,ospan,iti,te1Hnd8BjrO9F8w7sYMafEpyMuC3,html-keyboard-response,107,534161,0.0-43.0-4.0-0.0-0.0,,,,,,,,,,,,,,,5f69c62d0bda08020d07c27e,13:56:35,06/03/2024
1616.0,,,ospan,symmetry,te1Hnd8BjrO9F8w7sYMafEpyMuC3,symmetry-judgement-task,108,536825,0.0-43.0-4.0-0.0-1.0-0.0,,,,,,,,,,1.0,1.0,,,,5f69c62d0bda08020d07c27e,13:56:35,06/03/2024
,"<div style=""font-size: 10rem; color: #0000FF"">L</div>",,ospan,letter,te1Hnd8BjrO9F8w7sYMafEpyMuC3,html-keyboard-response,109,537828,0.0-43.0-4.0-0.0-1.0-1.0,,,,,,,,,,,,,,,5f69c62d0bda08020d07c27e,13:56:35,06/03/2024
981.0,,,ospan,symmetry,te1Hnd8BjrO9F8w7sYMafEpyMuC3,symmetry-judgement-task,110,540709,0.0-43.0-4.0-0.0-1.0-2.0,,,,,,,,,,1.0,1.0,,,,5f69c62d0bda08020d07c27e,13:56:35,06/03/2024
,"<div style=""font-size: 10rem; color: #0000FF"">K</div>",,ospan,letter,te1Hnd8BjrO9F8w7sYMafEpyMuC3,html-keyboard-response,111,541712,0.0-43.0-4.0-0.0-1.0-3.0,,,,,,,,,,,,,,,5f69c62d0bda08020d07c27e,13:56:35,06/03/2024
932.0,,,ospan,symmetry,te1Hnd8BjrO9F8w7sYMafEpyMuC3,symmetry-judgement-task,112,544526,0.0-43.0-4.0-0.0-1.0-4.0,,,,,,,,,,1.0,1.0,,,,5f69c62d0bda08020d07c27e,13:56:35,06/03/2024
,"<div style=""font-size: 10rem; color: #0000FF"">P</div>",,ospan,letter,te1Hnd8BjrO9F8w7sYMafEpyMuC3,html-keyboard-response,113,545530,0.0-43.0-4.0-0.0-1.0-5.0,,,,,,,,,,,,,,,5f69c62d0bda08020d07c27e,13:56:35,06/03/2024
1897.0,,,ospan,symmetry,te1Hnd8BjrO9F8w7sYMafEpyMuC3,symmetry-judgement-task,114,549326,0.0-43.0-4.0-0.0-1.0-6.0,,,,,,,,,,1.0,1.0,,,,5f69c62d0bda08020d07c27e,13:56:35,06/03/2024
,"<div style=""font-size: 10rem; color: #0000FF"">H</div>",,ospan,letter,te1Hnd8BjrO9F8w7sYMafEpyMuC3,html-keyboard-response,115,550330,0.0-43.0-4.0-0.0-1.0-7.0,,,,,,,,,,,,,,,5f69c62d0bda08020d07c27e,13:56:35,06/03/2024
4379.0999999940395,"<div class = numbox><p style=""font-size: 2.4rem"">Please recall the letters you saw to the best of your ability. If you do not remember a particular letter, use the SKIP button.<br><b>(When you are ready to lock in your answer, press ENTER)</b></p><button id = button_1 class = ""square num-button"" onclick = ""recordClick(this)""><div class = content><div class = numbers>C</div></div></button><button id = button_2 class = ""square num-button"" onclick = ""recordClick(this)""><div class = content><div class = numbers>G</div></div></button><button id = button_3 class = ""square num-button"" onclick = ""recordClick(this)""><div class = content><div class = numbers>H</div></div></button><button id = button_4 class = ""square num-button"" onclick = ""recordClick(this)""><div class = content><div class = numbers>J</div></div></button><button id = button_5 class = ""square num-button"" onclick = ""recordClick(this)""><div class = content><div class = numbers>K</div></div></button><button id = button_6 class = ""square num-button"" onclick = ""recordClick(this)""><div class = content><div class = numbers>L</div></div></button><button id = button_7 class = ""square num-button"" onclick = ""recordClick(this)""><div class = content><div class = numbers>N</div></div></button><button id = button_8 class = ""square num-button"" onclick = ""recordClick(this)""><div class = content><div class = numbers>P</div></div></button><button id = button_9 class = ""square num-button"" onclick = ""recordClick(this)""><div class = content><div class = numbers>Q</div></div></button><button id = button_10 class = ""square num-button"" onclick = ""recordClick(this)""><div class = content><div class = numbers>R</div></div></button><button id = button_11 class = ""square num-button"" onclick = ""recordClick(this)""><div class = content><div class = numbers>S</div></div></button><button id = button_12 class = ""square num-button"" onclick = ""recordClick(this)""><div class = content><div class = numbers>Y</div></div></button><button class = clear_button id = ""ClearButton"" onclick = ""clearResponse()"">BACKSPACE</button><button class = blank_button id = ""BlankButton"" onclick = ""blankResponse()"">SKIP</button><p style=""font-size: 2.4rem""><u><b>Current Answer:</b></u></p><br><br><div id=echoed_txt style=""font-size: 5rem; color:blue;""><b></b></div></div>",enter,ospan,retrieval,te1Hnd8BjrO9F8w7sYMafEpyMuC3,html-keyboard-response,116,555463,0.0-43.0-4.0-0.0-2.0,7,7,7,4.0,"[""L"",""K"",""P"",""H""]","[""L"",""K"",""P"",""H""]",1.0,4.0,,,,,,,5f69c62d0bda08020d07c27e,13:56:35,06/03/2024
908.2999999821186,[''],0,ospan,feedback,te1Hnd8BjrO9F8w7sYMafEpyMuC3,html-button-response,117,556874,0.0-43.0-4.0-0.0-3.0,,,,,,,,,,,,100.0,0.0,,5f69c62d0bda08020d07c27e,13:56:35,06/03/2024
,"<p style=""font-size:75px;"">...</p>",,ospan,iti,te1Hnd8BjrO9F8w7sYMafEpyMuC3,html-keyboard-response,118,557878,0.0-43.0-4.0-1.0-0.0,,,,,,,,,,,,,,,5f69c62d0bda08020d07c27e,13:56:35,06/03/2024
1528.0,,,ospan,symmetry,te1Hnd8BjrO9F8w7sYMafEpyMuC3,symmetry-judgement-task,119,560542,0.0-43.0-4.0-1.0-1.0-0.0,,,,,,,,,,1.0,1.0,,,,5f69c62d0bda08020d07c27e,13:56:35,06/03/2024
,"<div style=""font-size: 10rem; color: #0000FF"">C</div>",,ospan,letter,te1Hnd8BjrO9F8w7sYMafEpyMuC3,html-keyboard-response,120,561545,0.0-43.0-4.0-1.0-1.0-1.0,,,,,,,,,,,,,,,5f69c62d0bda08020d07c27e,13:56:35,06/03/2024
867.0,,,ospan,symmetry,te1Hnd8BjrO9F8w7sYMafEpyMuC3,symmetry-judgement-task,121,564292,0.0-43.0-4.0-1.0-1.0-2.0,,,,,,,,,,1.0,1.0,,,,5f69c62d0bda08020d07c27e,13:56:35,06/03/2024
,"<div style=""font-size: 10rem; color: #0000FF"">G</div>",,ospan,letter,te1Hnd8BjrO9F8w7sYMafEpyMuC3,html-keyboard-response,122,565296,0.0-43.0-4.0-1.0-1.0-3.0,,,,,,,,,,,,,,,5f69c62d0bda08020d07c27e,13:56:35,06/03/2024
936.0,,,ospan,symmetry,te1Hnd8BjrO9F8w7sYMafEpyMuC3,symmetry-judgement-task,123,568126,0.0-43.0-4.0-1.0-1.0-4.0,,,,,,,,,,1.0,1.0,,,,5f69c62d0bda08020d07c27e,13:56:35,06/03/2024
,"<div style=""font-size: 10rem; color: #0000FF"">Q</div>",,ospan,letter,te1Hnd8BjrO9F8w7sYMafEpyMuC3,html-keyboard-response,124,569129,0.0-43.0-4.0-1.0-1.0-5.0,,,,,,,,,,,,,,,5f69c62d0bda08020d07c27e,13:56:35,06/03/2024
2836.0,,,ospan,symmetry,te1Hnd8BjrO9F8w7sYMafEpyMuC3,symmetry-judgement-task,125,573842,0.0-43.0-4.0-1.0-1.0-6.0,,,,,,,,,,1.0,1.0,,,,5f69c62d0bda08020d07c27e,13:56:35,06/03/2024
,"<div style=""font-size: 10rem; color: #0000FF"">K</div>",,ospan,letter,te1Hnd8BjrO9F8w7sYMafEpyMuC3,html-keyboard-response,126,574845,0.0-43.0-4.0-1.0-1.0-7.0,,,,,,,,,,,,,,,5f69c62d0bda08020d07c27e,13:56:35,06/03/2024
830.0,,,ospan,symmetry,te1Hnd8BjrO9F8w7sYMafEpyMuC3,symmetry-judgement-task,127,577576,0.0-43.0-4.0-1.0-1.0-8.0,,,,,,,,,,1.0,1.0,,,,5f69c62d0bda08020d07c27e,13:56:35,06/03/2024
,"<div style=""font-size: 10rem; color: #0000FF"">L</div>",,ospan,letter,te1Hnd8BjrO9F8w7sYMafEpyMuC3,html-keyboard-response,128,578578,0.0-43.0-4.0-1.0-1.0-9.0,,,,,,,,,,,,,,,5f69c62d0bda08020d07c27e,13:56:35,06/03/2024
5325.5,"<div class = numbox><p style=""font-size: 2.4rem"">Please recall the letters you saw to the best of your ability. If you do not remember a particular letter, use the SKIP button.<br><b>(When you are ready to lock in your answer, press ENTER)</b></p><button id = button_1 class = ""square num-button"" onclick = ""recordClick(this)""><div class = content><div class = numbers>C</div></div></button><button id = button_2 class = ""square num-button"" onclick = ""recordClick(this)""><div class = content><div class = numbers>G</div></div></button><button id = button_3 class = ""square num-button"" onclick = ""recordClick(this)""><div class = content><div class = numbers>H</div></div></button><button id = button_4 class = ""square num-button"" onclick = ""recordClick(this)""><div class = content><div class = numbers>J</div></div></button><button id = button_5 class = ""square num-button"" onclick = ""recordClick(this)""><div class = content><div class = numbers>K</div></div></button><button id = button_6 class = ""square num-button"" onclick = ""recordClick(this)""><div class = content><div class = numbers>L</div></div></button><button id = button_7 class = ""square num-button"" onclick = ""recordClick(this)""><div class = content><div class = numbers>N</div></div></button><button id = button_8 class = ""square num-button"" onclick = ""recordClick(this)""><div class = content><div class = numbers>P</div></div></button><button id = button_9 class = ""square num-button"" onclick = ""recordClick(this)""><div class = content><div class = numbers>Q</div></div></button><button id = button_10 class = ""square num-button"" onclick = ""recordClick(this)""><div class = content><div class = numbers>R</div></div></button><button id = button_11 class = ""square num-button"" onclick = ""recordClick(this)""><div class = content><div class = numbers>S</div></div></button><button id = button_12 class = ""square num-button"" onclick = ""recordClick(this)""><div class = content><div class = numbers>Y</div></div></button><button class = clear_button id = ""ClearButton"" onclick = ""clearResponse()"">BACKSPACE</button><button class = blank_button id = ""BlankButton"" onclick = ""blankResponse()"">SKIP</button><p style=""font-size: 2.4rem""><u><b>Current Answer:</b></u></p><br><br><div id=echoed_txt style=""font-size: 5rem; color:blue;""><b></b></div></div>",enter,ospan,retrieval,te1Hnd8BjrO9F8w7sYMafEpyMuC3,html-keyboard-response,129,584657,0.0-43.0-4.0-1.0-2.0,12,12,12,5.0,"[""C"",""G"",""Q"",""K"",""L""]","[""C"",""G"",""Q"",""K"",""L""]",1.0,5.0,,,,,,,5f69c62d0bda08020d07c27e,13:56:35,06/03/2024
2997.199999988079,[''],0,ospan,feedback,te1Hnd8BjrO9F8w7sYMafEpyMuC3,html-button-response,130,588157,0.0-43.0-4.0-1.0-3.0,,,,,,,,,,,,100.0,0.0,,5f69c62d0bda08020d07c27e,13:56:35,06/03/2024
,"<p style=""font-size:75px;"">...</p>",,ospan,iti,te1Hnd8BjrO9F8w7sYMafEpyMuC3,html-keyboard-response,131,589161,0.0-43.0-4.0-2.0-0.0,,,,,,,,,,,,,,,5f69c62d0bda08020d07c27e,13:56:35,06/03/2024
1256.0,,,ospan,symmetry,te1Hnd8BjrO9F8w7sYMafEpyMuC3,symmetry-judgement-task,132,591558,0.0-43.0-4.0-2.0-1.0-0.0,,,,,,,,,,1.0,1.0,,,,5f69c62d0bda08020d07c27e,13:56:35,06/03/2024
,"<div style=""font-size: 10rem; color: #0000FF"">Y</div>",,ospan,letter,te1Hnd8BjrO9F8w7sYMafEpyMuC3,html-keyboard-response,133,592561,0.0-43.0-4.0-2.0-1.0-1.0,,,,,,,,,,,,,,,5f69c62d0bda08020d07c27e,13:56:35,06/03/2024
1180.0,,,ospan,symmetry,te1Hnd8BjrO9F8w7sYMafEpyMuC3,symmetry-judgement-task,134,595625,0.0-43.0-4.0-2.0-1.0-2.0,,,,,,,,,,1.0,1.0,,,,5f69c62d0bda08020d07c27e,13:56:35,06/03/2024
,"<div style=""font-size: 10rem; color: #0000FF"">G</div>",,ospan,letter,te1Hnd8BjrO9F8w7sYMafEpyMuC3,html-keyboard-response,135,596629,0.0-43.0-4.0-2.0-1.0-3.0,,,,,,,,,,,,,,,5f69c62d0bda08020d07c27e,13:56:35,06/03/2024
1182.0,,,ospan,symmetry,te1Hnd8BjrO9F8w7sYMafEpyMuC3,symmetry-judgement-task,136,599709,0.0-43.0-4.0-2.0-1.0-4.0,,,,,,,,,,1.0,1.0,,,,5f69c62d0bda08020d07c27e,13:56:35,06/03/2024
,"<div style=""font-size: 10rem; color: #0000FF"">R</div>",,ospan,letter,te1Hnd8BjrO9F8w7sYMafEpyMuC3,html-keyboard-response,137,600713,0.0-43.0-4.0-2.0-1.0-5.0,,,,,,,,,,,,,,,5f69c62d0bda08020d07c27e,13:56:35,06/03/2024
3100.699999988079,"<div class = numbox><p style=""font-size: 2.4rem"">Please recall the letters you saw to the best of your ability. If you do not remember a particular letter, use the SKIP button.<br><b>(When you are ready to lock in your answer, press ENTER)</b></p><button id = button_1 class = ""square num-button"" onclick = ""recordClick(this)""><div class = content><div class = numbers>C</div></div></button><button id = button_2 class = ""square num-button"" onclick = ""recordClick(this)""><div class = content><div class = numbers>G</div></div></button><button id = button_3 class = ""square num-button"" onclick = ""recordClick(this)""><div class = content><div class = numbers>H</div></div></button><button id = button_4 class = ""square num-button"" onclick = ""recordClick(this)""><div class = content><div class = numbers>J</div></div></button><button id = button_5 class = ""square num-button"" onclick = ""recordClick(this)""><div class = content><div class = numbers>K</div></div></button><button id = button_6 class = ""square num-button"" onclick = ""recordClick(this)""><div class = content><div class = numbers>L</div></div></button><button id = button_7 class = ""square num-button"" onclick = ""recordClick(this)""><div class = content><div class = numbers>N</div></div></button><button id = button_8 class = ""square num-button"" onclick = ""recordClick(this)""><div class = content><div class = numbers>P</div></div></button><button id = button_9 class = ""square num-button"" onclick = ""recordClick(this)""><div class = content><div class = numbers>Q</div></div></button><button id = button_10 class = ""square num-button"" onclick = ""recordClick(this)""><div class = content><div class = numbers>R</div></div></button><button id = button_11 class = ""square num-button"" onclick = ""recordClick(this)""><div class = content><div class = numbers>S</div></div></button><button id = button_12 class = ""square num-button"" onclick = ""recordClick(this)""><div class = content><div class = numbers>Y</div></div></button><button class = clear_button id = ""ClearButton"" onclick = ""clearResponse()"">BACKSPACE</button><button class = blank_button id = ""BlankButton"" onclick = ""blankResponse()"">SKIP</button><p style=""font-size: 2.4rem""><u><b>Current Answer:</b></u></p><br><br><div id=echoed_txt style=""font-size: 5rem; color:blue;""><b></b></div></div>",enter,ospan,retrieval,te1Hnd8BjrO9F8w7sYMafEpyMuC3,html-keyboard-response,138,604568,0.0-43.0-4.0-2.0-2.0,15,15,15,3.0,"[""Y"",""G"",""R""]","[""Y"",""G"",""R""]",1.0,3.0,,,,,,,5f69c62d0bda08020d07c27e,13:56:35,06/03/2024
1302.5,[''],0,ospan,feedback,te1Hnd8BjrO9F8w7sYMafEpyMuC3,html-button-response,139,606374,0.0-43.0-4.0-2.0-3.0,,,,,,,,,,,,100.0,0.0,,5f69c62d0bda08020d07c27e,13:56:35,06/03/2024
,"<p style=""font-size:75px;"">...</p>",,ospan,iti,te1Hnd8BjrO9F8w7sYMafEpyMuC3,html-keyboard-response,140,607377,0.0-43.0-5.0-0.0-0.0,,,,,,,,,,,,,,,5f69c62d0bda08020d07c27e,13:56:35,06/03/2024
952.0,,,ospan,symmetry,te1Hnd8BjrO9F8w7sYMafEpyMuC3,symmetry-judgement-task,141,609459,0.0-43.0-5.0-0.0-1.0-0.0,,,,,,,,,,1.0,1.0,,,,5f69c62d0bda08020d07c27e,13:56:35,06/03/2024
,"<div style=""font-size: 10rem; color: #0000FF"">Q</div>",,ospan,letter,te1Hnd8BjrO9F8w7sYMafEpyMuC3,html-keyboard-response,142,610463,0.0-43.0-5.0-0.0-1.0-1.0,,,,,,,,,,,,,,,5f69c62d0bda08020d07c27e,13:56:35,06/03/2024
894.0,,,ospan,symmetry,te1Hnd8BjrO9F8w7sYMafEpyMuC3,symmetry-judgement-task,143,613243,0.0-43.0-5.0-0.0-1.0-2.0,,,,,,,,,,1.0,1.0,,,,5f69c62d0bda08020d07c27e,13:56:35,06/03/2024
,"<div style=""font-size: 10rem; color: #0000FF"">L</div>",,ospan,letter,te1Hnd8BjrO9F8w7sYMafEpyMuC3,html-keyboard-response,144,614246,0.0-43.0-5.0-0.0-1.0-3.0,,,,,,,,,,,,,,,5f69c62d0bda08020d07c27e,13:56:35,06/03/2024
875.0,,,ospan,symmetry,te1Hnd8BjrO9F8w7sYMafEpyMuC3,symmetry-judgement-task,145,617009,0.0-43.0-5.0-0.0-1.0-4.0,,,,,,,,,,1.0,1.0,,,,5f69c62d0bda08020d07c27e,13:56:35,06/03/2024
,"<div style=""font-size: 10rem; color: #0000FF"">N</div>",,ospan,letter,te1Hnd8BjrO9F8w7sYMafEpyMuC3,html-keyboard-response,146,618012,0.0-43.0-5.0-0.0-1.0-5.0,,,,,,,,,,,,,,,5f69c62d0bda08020d07c27e,13:56:35,06/03/2024
2305.0,,,ospan,symmetry,te1Hnd8BjrO9F8w7sYMafEpyMuC3,symmetry-judgement-task,147,622209,0.0-43.0-5.0-0.0-1.0-6.0,,,,,,,,,,1.0,1.0,,,,5f69c62d0bda08020d07c27e,13:56:35,06/03/2024
,"<div style=""font-size: 10rem; color: #0000FF"">R</div>",,ospan,letter,te1Hnd8BjrO9F8w7sYMafEpyMuC3,html-keyboard-response,148,623213,0.0-43.0-5.0-0.0-1.0-7.0,,,,,,,,,,,,,,,5f69c62d0bda08020d07c27e,13:56:35,06/03/2024
980.0,,,ospan,symmetry,te1Hnd8BjrO9F8w7sYMafEpyMuC3,symmetry-judgement-task,149,626075,0.0-43.0-5.0-0.0-1.0-8.0,,,,,,,,,,1.0,1.0,,,,5f69c62d0bda08020d07c27e,13:56:35,06/03/2024
,"<div style=""font-size: 10rem; color: #0000FF"">J</div>",,ospan,letter,te1Hnd8BjrO9F8w7sYMafEpyMuC3,html-keyboard-response,150,627078,0.0-43.0-5.0-0.0-1.0-9.0,,,,,,,,,,,,,,,5f69c62d0bda08020d07c27e,13:56:35,06/03/2024
797.0,,,ospan,symmetry,te1Hnd8BjrO9F8w7sYMafEpyMuC3,symmetry-judgement-task,151,629759,0.0-43.0-5.0-0.0-1.0-10.0,,,,,,,,,,1.0,1.0,,,,5f69c62d0bda08020d07c27e,13:56:35,06/03/2024
,"<div style=""font-size: 10rem; color: #0000FF"">C</div>",,ospan,letter,te1Hnd8BjrO9F8w7sYMafEpyMuC3,html-keyboard-response,152,630763,0.0-43.0-5.0-0.0-1.0-11.0,,,,,,,,,,,,,,,5f69c62d0bda08020d07c27e,13:56:35,06/03/2024
6661.0999999940395,"<div class = numbox><p style=""font-size: 2.4rem"">Please recall the letters you saw to the best of your ability. If you do not remember a particular letter, use the SKIP button.<br><b>(When you are ready to lock in your answer, press ENTER)</b></p><button id = button_1 class = ""square num-button"" onclick = ""recordClick(this)""><div class = content><div class = numbers>C</div></div></button><button id = button_2 class = ""square num-button"" onclick = ""recordClick(this)""><div class = content><div class = numbers>G</div></div></button><button id = button_3 class = ""square num-button"" onclick = ""recordClick(this)""><div class = content><div class = numbers>H</div></div></button><button id = button_4 class = ""square num-button"" onclick = ""recordClick(this)""><div class = content><div class = numbers>J</div></div></button><button id = button_5 class = ""square num-button"" onclick = ""recordClick(this)""><div class = content><div class = numbers>K</div></div></button><button id = button_6 class = ""square num-button"" onclick = ""recordClick(this)""><div class = content><div class = numbers>L</div></div></button><button id = button_7 class = ""square num-button"" onclick = ""recordClick(this)""><div class = content><div class = numbers>N</div></div></button><button id = button_8 class = ""square num-button"" onclick = ""recordClick(this)""><div class = content><div class = numbers>P</div></div></button><button id = button_9 class = ""square num-button"" onclick = ""recordClick(this)""><div class = content><div class = numbers>Q</div></div></button><button id = button_10 class = ""square num-button"" onclick = ""recordClick(this)""><div class = content><div class = numbers>R</div></div></button><button id = button_11 class = ""square num-button"" onclick = ""recordClick(this)""><div class = content><div class = numbers>S</div></div></button><button id = button_12 class = ""square num-button"" onclick = ""recordClick(this)""><div class = content><div class = numbers>Y</div></div></button><button class = clear_button id = ""ClearButton"" onclick = ""clearResponse()"">BACKSPACE</button><button class = blank_button id = ""BlankButton"" onclick = ""blankResponse()"">SKIP</button><p style=""font-size: 2.4rem""><u><b>Current Answer:</b></u></p><br><br><div id=echoed_txt style=""font-size: 5rem; color:blue;""><b></b></div></div>",enter,ospan,retrieval,te1Hnd8BjrO9F8w7sYMafEpyMuC3,html-keyboard-response,153,638178,0.0-43.0-5.0-0.0-2.0,21,20,15,6.0,"[""Q"",""L"",""N"",""R"",""J""]","[""Q"",""L"",""N"",""R"",""J"",""C""]",0.0,5.0,,,,,,,5f69c62d0bda08020d07c27e,13:56:35,06/03/2024
658.5999999940395,[''],0,ospan,feedback,te1Hnd8BjrO9F8w7sYMafEpyMuC3,html-button-response,154,639340,0.0-43.0-5.0-0.0-3.0,,,,,,,,,,,,100.0,0.0,,5f69c62d0bda08020d07c27e,13:56:35,06/03/2024
,"<p style=""font-size:75px;"">...</p>",,ospan,iti,te1Hnd8BjrO9F8w7sYMafEpyMuC3,html-keyboard-response,155,640344,0.0-43.0-5.0-1.0-0.0,,,,,,,,,,,,,,,5f69c62d0bda08020d07c27e,13:56:35,06/03/2024
2233.0,,,ospan,symmetry,te1Hnd8BjrO9F8w7sYMafEpyMuC3,symmetry-judgement-task,156,643709,0.0-43.0-5.0-1.0-1.0-0.0,,,,,,,,,,1.0,1.0,,,,5f69c62d0bda08020d07c27e,13:56:35,06/03/2024
,"<div style=""font-size: 10rem; color: #0000FF"">Y</div>",,ospan,letter,te1Hnd8BjrO9F8w7sYMafEpyMuC3,html-keyboard-response,157,644713,0.0-43.0-5.0-1.0-1.0-1.0,,,,,,,,,,,,,,,5f69c62d0bda08020d07c27e,13:56:35,06/03/2024
1375.0,,,ospan,symmetry,te1Hnd8BjrO9F8w7sYMafEpyMuC3,symmetry-judgement-task,158,647976,0.0-43.0-5.0-1.0-1.0-2.0,,,,,,,,,,1.0,1.0,,,,5f69c62d0bda08020d07c27e,13:56:35,06/03/2024
,"<div style=""font-size: 10rem; color: #0000FF"">C</div>",,ospan,letter,te1Hnd8BjrO9F8w7sYMafEpyMuC3,html-keyboard-response,159,648979,0.0-43.0-5.0-1.0-1.0-3.0,,,,,,,,,,,,,,,5f69c62d0bda08020d07c27e,13:56:35,06/03/2024
968.0,,,ospan,symmetry,te1Hnd8BjrO9F8w7sYMafEpyMuC3,symmetry-judgement-task,160,651825,0.0-43.0-5.0-1.0-1.0-4.0,,,,,,,,,,1.0,1.0,,,,5f69c62d0bda08020d07c27e,13:56:35,06/03/2024
,"<div style=""font-size: 10rem; color: #0000FF"">H</div>",,ospan,letter,te1Hnd8BjrO9F8w7sYMafEpyMuC3,html-keyboard-response,161,652828,0.0-43.0-5.0-1.0-1.0-5.0,,,,,,,,,,,,,,,5f69c62d0bda08020d07c27e,13:56:35,06/03/2024
781.0,,,ospan,symmetry,te1Hnd8BjrO9F8w7sYMafEpyMuC3,symmetry-judgement-task,162,655492,0.0-43.0-5.0-1.0-1.0-6.0,,,,,,,,,,1.0,1.0,,,,5f69c62d0bda08020d07c27e,13:56:35,06/03/2024
,"<div style=""font-size: 10rem; color: #0000FF"">K</div>",,ospan,letter,te1Hnd8BjrO9F8w7sYMafEpyMuC3,html-keyboard-response,163,656495,0.0-43.0-5.0-1.0-1.0-7.0,,,,,,,,,,,,,,,5f69c62d0bda08020d07c27e,13:56:35,06/03/2024
1674.0,,,ospan,symmetry,te1Hnd8BjrO9F8w7sYMafEpyMuC3,symmetry-judgement-task,164,660058,0.0-43.0-5.0-1.0-1.0-8.0,,,,,,,,,,1.0,1.0,,,,5f69c62d0bda08020d07c27e,13:56:35,06/03/2024
,"<div style=""font-size: 10rem; color: #0000FF"">G</div>",,ospan,letter,te1Hnd8BjrO9F8w7sYMafEpyMuC3,html-keyboard-response,165,661062,0.0-43.0-5.0-1.0-1.0-9.0,,,,,,,,,,,,,,,5f69c62d0bda08020d07c27e,13:56:35,06/03/2024
1428.0,,,ospan,symmetry,te1Hnd8BjrO9F8w7sYMafEpyMuC3,symmetry-judgement-task,166,664375,0.0-43.0-5.0-1.0-1.0-10.0,,,,,,,,,,1.0,1.0,,,,5f69c62d0bda08020d07c27e,13:56:35,06/03/2024
,"<div style=""font-size: 10rem; color: #0000FF"">R</div>",,ospan,letter,te1Hnd8BjrO9F8w7sYMafEpyMuC3,html-keyboard-response,167,665378,0.0-43.0-5.0-1.0-1.0-11.0,,,,,,,,,,,,,,,5f69c62d0bda08020d07c27e,13:56:35,06/03/2024
1785.0,,,ospan,symmetry,te1Hnd8BjrO9F8w7sYMafEpyMuC3,symmetry-judgement-task,168,669041,0.0-43.0-5.0-1.0-1.0-12.0,,,,,,,,,,1.0,1.0,,,,5f69c62d0bda08020d07c27e,13:56:35,06/03/2024
,"<div style=""font-size: 10rem; color: #0000FF"">N</div>",,ospan,letter,te1Hnd8BjrO9F8w7sYMafEpyMuC3,html-keyboard-response,169,670043,0.0-43.0-5.0-1.0-1.0-13.0,,,,,,,,,,,,,,,5f69c62d0bda08020d07c27e,13:56:35,06/03/2024
6202.800000011921,"<div class = numbox><p style=""font-size: 2.4rem"">Please recall the letters you saw to the best of your ability. If you do not remember a particular letter, use the SKIP button.<br><b>(When you are ready to lock in your answer, press ENTER)</b></p><button id = button_1 class = ""square num-button"" onclick = ""recordClick(this)""><div class = content><div class = numbers>C</div></div></button><button id = button_2 class = ""square num-button"" onclick = ""recordClick(this)""><div class = content><div class = numbers>G</div></div></button><button id = button_3 class = ""square num-button"" onclick = ""recordClick(this)""><div class = content><div class = numbers>H</div></div></button><button id = button_4 class = ""square num-button"" onclick = ""recordClick(this)""><div class = content><div class = numbers>J</div></div></button><button id = button_5 class = ""square num-button"" onclick = ""recordClick(this)""><div class = content><div class = numbers>K</div></div></button><button id = button_6 class = ""square num-button"" onclick = ""recordClick(this)""><div class = content><div class = numbers>L</div></div></button><button id = button_7 class = ""square num-button"" onclick = ""recordClick(this)""><div class = content><div class = numbers>N</div></div></button><button id = button_8 class = ""square num-button"" onclick = ""recordClick(this)""><div class = content><div class = numbers>P</div></div></button><button id = button_9 class = ""square num-button"" onclick = ""recordClick(this)""><div class = content><div class = numbers>Q</div></div></button><button id = button_10 class = ""square num-button"" onclick = ""recordClick(this)""><div class = content><div class = numbers>R</div></div></button><button id = button_11 class = ""square num-button"" onclick = ""recordClick(this)""><div class = content><div class = numbers>S</div></div></button><button id = button_12 class = ""square num-button"" onclick = ""recordClick(this)""><div class = content><div class = numbers>Y</div></div></button><button class = clear_button id = ""ClearButton"" onclick = ""clearResponse()"">BACKSPACE</button><button class = blank_button id = ""BlankButton"" onclick = ""blankResponse()"">SKIP</button><p style=""font-size: 2.4rem""><u><b>Current Answer:</b></u></p><br><br><div id=echoed_txt style=""font-size: 5rem; color:blue;""><b></b></div></div>",enter,ospan,retrieval,te1Hnd8BjrO9F8w7sYMafEpyMuC3,html-keyboard-response,170,676999,0.0-43.0-5.0-1.0-2.0,28,22,15,7.0,"[""Y"",""H"",""K"",""C"",""G""]","[""Y"",""C"",""H"",""K"",""G"",""R"",""N""]",0.0,2.0,,,,,,,5f69c62d0bda08020d07c27e,13:56:35,06/03/2024
686.5,[''],0,ospan,feedback,te1Hnd8BjrO9F8w7sYMafEpyMuC3,html-button-response,171,678190,0.0-43.0-5.0-1.0-3.0,,,,,,,,,,,,100.0,0.0,,5f69c62d0bda08020d07c27e,13:56:35,06/03/2024
,"<p style=""font-size:75px;"">...</p>",,ospan,iti,te1Hnd8BjrO9F8w7sYMafEpyMuC3,html-keyboard-response,172,679195,0.0-43.0-6.0-0.0-0.0,,,,,,,,,,,,,,,5f69c62d0bda08020d07c27e,13:56:35,06/03/2024
993.0,,,ospan,symmetry,te1Hnd8BjrO9F8w7sYMafEpyMuC3,symmetry-judgement-task,173,681325,0.0-43.0-6.0-0.0-1.0-0.0,,,,,,,,,,1.0,1.0,,,,5f69c62d0bda08020d07c27e,13:56:35,06/03/2024
,"<div style=""font-size: 10rem; color: #0000FF"">P</div>",,ospan,letter,te1Hnd8BjrO9F8w7sYMafEpyMuC3,html-keyboard-response,174,682327,0.0-43.0-6.0-0.0-1.0-1.0,,,,,,,,,,,,,,,5f69c62d0bda08020d07c27e,13:56:35,06/03/2024
911.0,,,ospan,symmetry,te1Hnd8BjrO9F8w7sYMafEpyMuC3,symmetry-judgement-task,175,685126,0.0-43.0-6.0-0.0-1.0-2.0,,,,,,,,,,1.0,1.0,,,,5f69c62d0bda08020d07c27e,13:56:35,06/03/2024
,"<div style=""font-size: 10rem; color: #0000FF"">L</div>",,ospan,letter,te1Hnd8BjrO9F8w7sYMafEpyMuC3,html-keyboard-response,176,686129,0.0-43.0-6.0-0.0-1.0-3.0,,,,,,,,,,,,,,,5f69c62d0bda08020d07c27e,13:56:35,06/03/2024
1086.0,,,ospan,symmetry,te1Hnd8BjrO9F8w7sYMafEpyMuC3,symmetry-judgement-task,177,689091,0.0-43.0-6.0-0.0-1.0-4.0,,,,,,,,,,1.0,1.0,,,,5f69c62d0bda08020d07c27e,13:56:35,06/03/2024
,"<div style=""font-size: 10rem; color: #0000FF"">Q</div>",,ospan,letter,te1Hnd8BjrO9F8w7sYMafEpyMuC3,html-keyboard-response,178,690094,0.0-43.0-6.0-0.0-1.0-5.0,,,,,,,,,,,,,,,5f69c62d0bda08020d07c27e,13:56:35,06/03/2024
1314.0,,,ospan,symmetry,te1Hnd8BjrO9F8w7sYMafEpyMuC3,symmetry-judgement-task,179,693291,0.0-43.0-6.0-0.0-1.0-6.0,,,,,,,,,,1.0,1.0,,,,5f69c62d0bda08020d07c27e,13:56:35,06/03/2024
,"<div style=""font-size: 10rem; color: #0000FF"">C</div>",,ospan,letter,te1Hnd8BjrO9F8w7sYMafEpyMuC3,html-keyboard-response,180,694294,0.0-43.0-6.0-0.0-1.0-7.0,,,,,,,,,,,,,,,5f69c62d0bda08020d07c27e,13:56:35,06/03/2024
854.0,,,ospan,symmetry,te1Hnd8BjrO9F8w7sYMafEpyMuC3,symmetry-judgement-task,181,697041,0.0-43.0-6.0-0.0-1.0-8.0,,,,,,,,,,1.0,1.0,,,,5f69c62d0bda08020d07c27e,13:56:35,06/03/2024
,"<div style=""font-size: 10rem; color: #0000FF"">K</div>",,ospan,letter,te1Hnd8BjrO9F8w7sYMafEpyMuC3,html-keyboard-response,182,698044,0.0-43.0-6.0-0.0-1.0-9.0,,,,,,,,,,,,,,,5f69c62d0bda08020d07c27e,13:56:35,06/03/2024
6644.300000011921,"<div class = numbox><p style=""font-size: 2.4rem"">Please recall the letters you saw to the best of your ability. If you do not remember a particular letter, use the SKIP button.<br><b>(When you are ready to lock in your answer, press ENTER)</b></p><button id = button_1 class = ""square num-button"" onclick = ""recordClick(this)""><div class = content><div class = numbers>C</div></div></button><button id = button_2 class = ""square num-button"" onclick = ""recordClick(this)""><div class = content><div class = numbers>G</div></div></button><button id = button_3 class = ""square num-button"" onclick = ""recordClick(this)""><div class = content><div class = numbers>H</div></div></button><button id = button_4 class = ""square num-button"" onclick = ""recordClick(this)""><div class = content><div class = numbers>J</div></div></button><button id = button_5 class = ""square num-button"" onclick = ""recordClick(this)""><div class = content><div class = numbers>K</div></div></button><button id = button_6 class = ""square num-button"" onclick = ""recordClick(this)""><div class = content><div class = numbers>L</div></div></button><button id = button_7 class = ""square num-button"" onclick = ""recordClick(this)""><div class = content><div class = numbers>N</div></div></button><button id = button_8 class = ""square num-button"" onclick = ""recordClick(this)""><div class = content><div class = numbers>P</div></div></button><button id = button_9 class = ""square num-button"" onclick = ""recordClick(this)""><div class = content><div class = numbers>Q</div></div></button><button id = button_10 class = ""square num-button"" onclick = ""recordClick(this)""><div class = content><div class = numbers>R</div></div></button><button id = button_11 class = ""square num-button"" onclick = ""recordClick(this)""><div class = content><div class = numbers>S</div></div></button><button id = button_12 class = ""square num-button"" onclick = ""recordClick(this)""><div class = content><div class = numbers>Y</div></div></button><button class = clear_button id = ""ClearButton"" onclick = ""clearResponse()"">BACKSPACE</button><button class = blank_button id = ""BlankButton"" onclick = ""blankResponse()"">SKIP</button><p style=""font-size: 2.4rem""><u><b>Current Answer:</b></u></p><br><br><div id=echoed_txt style=""font-size: 5rem; color:blue;""><b></b></div></div>",enter,ospan,retrieval,te1Hnd8BjrO9F8w7sYMafEpyMuC3,html-keyboard-response,183,705441,0.0-43.0-6.0-0.0-2.0,33,26,15,5.0,"[""P"",""L"",""Q"",""C"",""G""]","[""P"",""L"",""Q"",""C"",""K""]",0.0,4.0,,,,,,,5f69c62d0bda08020d07c27e,13:56:35,06/03/2024
3761.5,[''],0,ospan,feedback,te1Hnd8BjrO9F8w7sYMafEpyMuC3,html-button-response,184,709706,0.0-43.0-6.0-0.0-3.0,,,,,,,,,,,,100.0,0.0,,5f69c62d0bda08020d07c27e,13:56:35,06/03/2024
,"<p style=""font-size:75px;"">...</p>",,ospan,iti,te1Hnd8BjrO9F8w7sYMafEpyMuC3,html-keyboard-response,185,710710,0.0-43.0-6.0-1.0-0.0,,,,,,,,,,,,,,,5f69c62d0bda08020d07c27e,13:56:35,06/03/2024
1303.0,,,ospan,symmetry,te1Hnd8BjrO9F8w7sYMafEpyMuC3,symmetry-judgement-task,186,713140,0.0-43.0-6.0-1.0-1.0-0.0,,,,,,,,,,1.0,1.0,,,,5f69c62d0bda08020d07c27e,13:56:35,06/03/2024
,"<div style=""font-size: 10rem; color: #0000FF"">S</div>",,ospan,letter,te1Hnd8BjrO9F8w7sYMafEpyMuC3,html-keyboard-response,187,714143,0.0-43.0-6.0-1.0-1.0-1.0,,,,,,,,,,,,,,,5f69c62d0bda08020d07c27e,13:56:35,06/03/2024
2156.0,,,ospan,symmetry,te1Hnd8BjrO9F8w7sYMafEpyMuC3,symmetry-judgement-task,188,718192,0.0-43.0-6.0-1.0-1.0-2.0,,,,,,,,,,1.0,1.0,,,,5f69c62d0bda08020d07c27e,13:56:35,06/03/2024
,"<div style=""font-size: 10rem; color: #0000FF"">K</div>",,ospan,letter,te1Hnd8BjrO9F8w7sYMafEpyMuC3,html-keyboard-response,189,719196,0.0-43.0-6.0-1.0-1.0-3.0,,,,,,,,,,,,,,,5f69c62d0bda08020d07c27e,13:56:35,06/03/2024
2005.0,,,ospan,symmetry,te1Hnd8BjrO9F8w7sYMafEpyMuC3,symmetry-judgement-task,190,723091,0.0-43.0-6.0-1.0-1.0-4.0,,,,,,,,,,1.0,1.0,,,,5f69c62d0bda08020d07c27e,13:56:35,06/03/2024
,"<div style=""font-size: 10rem; color: #0000FF"">P</div>",,ospan,letter,te1Hnd8BjrO9F8w7sYMafEpyMuC3,html-keyboard-response,191,724094,0.0-43.0-6.0-1.0-1.0-5.0,,,,,,,,,,,,,,,5f69c62d0bda08020d07c27e,13:56:35,06/03/2024
2033.0,,,ospan,symmetry,te1Hnd8BjrO9F8w7sYMafEpyMuC3,symmetry-judgement-task,192,728009,0.0-43.0-6.0-1.0-1.0-6.0,,,,,,,,,,1.0,1.0,,,,5f69c62d0bda08020d07c27e,13:56:35,06/03/2024
,"<div style=""font-size: 10rem; color: #0000FF"">Y</div>",,ospan,letter,te1Hnd8BjrO9F8w7sYMafEpyMuC3,html-keyboard-response,193,729012,0.0-43.0-6.0-1.0-1.0-7.0,,,,,,,,,,,,,,,5f69c62d0bda08020d07c27e,13:56:35,06/03/2024
1581.0,,,ospan,symmetry,te1Hnd8BjrO9F8w7sYMafEpyMuC3,symmetry-judgement-task,194,732475,0.0-43.0-6.0-1.0-1.0-8.0,,,,,,,,,,1.0,1.0,,,,5f69c62d0bda08020d07c27e,13:56:35,06/03/2024
,"<div style=""font-size: 10rem; color: #0000FF"">N</div>",,ospan,letter,te1Hnd8BjrO9F8w7sYMafEpyMuC3,html-keyboard-response,195,733479,0.0-43.0-6.0-1.0-1.0-9.0,,,,,,,,,,,,,,,5f69c62d0bda08020d07c27e,13:56:35,06/03/2024
1111.0,,,ospan,symmetry,te1Hnd8BjrO9F8w7sYMafEpyMuC3,symmetry-judgement-task,196,736475,0.0-43.0-6.0-1.0-1.0-10.0,,,,,,,,,,1.0,1.0,,,,5f69c62d0bda08020d07c27e,13:56:35,06/03/2024
,"<div style=""font-size: 10rem; color: #0000FF"">Q</div>",,ospan,letter,te1Hnd8BjrO9F8w7sYMafEpyMuC3,html-keyboard-response,197,737479,0.0-43.0-6.0-1.0-1.0-11.0,,,,,,,,,,,,,,,5f69c62d0bda08020d07c27e,13:56:35,06/03/2024
1306.0,,,ospan,symmetry,te1Hnd8BjrO9F8w7sYMafEpyMuC3,symmetry-judgement-task,198,740658,0.0-43.0-6.0-1.0-1.0-12.0,,,,,,,,,,1.0,1.0,,,,5f69c62d0bda08020d07c27e,13:56:35,06/03/2024
,"<div style=""font-size: 10rem; color: #0000FF"">L</div>",,ospan,letter,te1Hnd8BjrO9F8w7sYMafEpyMuC3,html-keyboard-response,199,741661,0.0-43.0-6.0-1.0-1.0-13.0,,,,,,,,,,,,,,,5f69c62d0bda08020d07c27e,13:56:35,06/03/2024
3023.0,,,ospan,symmetry,te1Hnd8BjrO9F8w7sYMafEpyMuC3,symmetry-judgement-task,200,746572,0.0-43.0-6.0-1.0-1.0-14.0,,,,,,,,,,1.0,1.0,,,,5f69c62d0bda08020d07c27e,13:56:35,06/03/2024
,"<div style=""font-size: 10rem; color: #0000FF"">C</div>",,ospan,letter,te1Hnd8BjrO9F8w7sYMafEpyMuC3,html-keyboard-response,201,747575,0.0-43.0-6.0-1.0-1.0-15.0,,,,,,,,,,,,,,,5f69c62d0bda08020d07c27e,13:56:35,06/03/2024
7511.300000011921,"<div class = numbox><p style=""font-size: 2.4rem"">Please recall the letters you saw to the best of your ability. If you do not remember a particular letter, use the SKIP button.<br><b>(When you are ready to lock in your answer, press ENTER)</b></p><button id = button_1 class = ""square num-button"" onclick = ""recordClick(this)""><div class = content><div class = numbers>C</div></div></button><button id = button_2 class = ""square num-button"" onclick = ""recordClick(this)""><div class = content><div class = numbers>G</div></div></button><button id = button_3 class = ""square num-button"" onclick = ""recordClick(this)""><div class = content><div class = numbers>H</div></div></button><button id = button_4 class = ""square num-button"" onclick = ""recordClick(this)""><div class = content><div class = numbers>J</div></div></button><button id = button_5 class = ""square num-button"" onclick = ""recordClick(this)""><div class = content><div class = numbers>K</div></div></button><button id = button_6 class = ""square num-button"" onclick = ""recordClick(this)""><div class = content><div class = numbers>L</div></div></button><button id = button_7 class = ""square num-button"" onclick = ""recordClick(this)""><div class = content><div class = numbers>N</div></div></button><button id = button_8 class = ""square num-button"" onclick = ""recordClick(this)""><div class = content><div class = numbers>P</div></div></button><button id = button_9 class = ""square num-button"" onclick = ""recordClick(this)""><div class = content><div class = numbers>Q</div></div></button><button id = button_10 class = ""square num-button"" onclick = ""recordClick(this)""><div class = content><div class = numbers>R</div></div></button><button id = button_11 class = ""square num-button"" onclick = ""recordClick(this)""><div class = content><div class = numbers>S</div></div></button><button id = button_12 class = ""square num-button"" onclick = ""recordClick(this)""><div class = content><div class = numbers>Y</div></div></button><button class = clear_button id = ""ClearButton"" onclick = ""clearResponse()"">BACKSPACE</button><button class = blank_button id = ""BlankButton"" onclick = ""blankResponse()"">SKIP</button><p style=""font-size: 2.4rem""><u><b>Current Answer:</b></u></p><br><br><div id=echoed_txt style=""font-size: 5rem; color:blue;""><b></b></div></div>",enter,ospan,retrieval,te1Hnd8BjrO9F8w7sYMafEpyMuC3,html-keyboard-response,202,755840,0.0-43.0-6.0-1.0-2.0,41,26,15,8.0,"[""_"",""L"",""C"",""Q""]","[""S"",""K"",""P"",""Y"",""N"",""Q"",""L"",""C""]",0.0,0.0,,,,,,,5f69c62d0bda08020d07c27e,13:56:35,06/03/2024
1412.7000000178814,[''],0,ospan,feedback,te1Hnd8BjrO9F8w7sYMafEpyMuC3,html-button-response,203,757756,0.0-43.0-6.0-1.0-3.0,,,,,,,,,,,,100.0,0.0,,5f69c62d0bda08020d07c27e,13:56:35,06/03/2024
7896.4000000059605,,{'Q0': 'it was just quite hard'},ospan,survey_ospan,te1Hnd8BjrO9F8w7sYMafEpyMuC3,lmdlab-survey-text,204,766408,0.0-43.0-7.0,,,,,,,,,,,,,,te1Hnd8BjrO9F8w7sYMafEpyMuC3,5f69c62d0bda08020d07c27e,13:56:35,06/03/2024
1093.0999999940395,<p><p style='font-size: 3rem'>Great work!<br><br>This completes the symmetry and memory task.</p><br><br><br>,0,ospan,finish,te1Hnd8BjrO9F8w7sYMafEpyMuC3,html-button-response,205,767505,0.0-43.0-8.0,41,26,15,,,,,,,,,100.0,,,5f69c62d0bda08020d07c27e,13:56:35,06/03/2024
