rt,stimulus,response,exp_name,exp_stage,subjectID,trial_type,trial_index,time_elapsed,internal_node_id,ospan_shown,ospan_total,ospan_abs,length,resp_actual,resp_correct,full_correct,num_correct,feedback,accuracy,correct,math_acc,math_warning,databaseID,prolificID,start_time,date
1840.699999988079,<div class = 'left_align' style='font-size: 3.25rem; line-height: 1.3;'><p class = 'center_align'><b>Welcome to the Symmetry and Memory Task</b><br><br><br><br></p>Press 'continue' to show the instructions.<br><br><br><br></div>,0,ospan,instruct,gxWqRPQpPVS18lDQvGs9QSaNDyO2,html-button-response,54,488239,0.0-46.0-0.0-0.0-0.0,,,,,,,,,,,,,,,64333e37b0fca53775bad01a,19:53:00,03/04/2024
10475.5,"<div class = 'left_align' style='font-size: 3.25rem; line-height: 1.3;'><p class = 'center_align'><b>Symmetry and Memory Task</b><br><br></p>In this task, you will try to memorize letters you see on the screen<br>while you also view black and white grid pictures.<br><br>In the next few minutes, you will have some practice to get you familiar<br>with how the task works.<br><br>It may be difficult sometimes, but please do not worry about making mistakes!<br><br>We will begin by practicing the letter part of the task.<br><br><br><br></div>",0,ospan,instruct,gxWqRPQpPVS18lDQvGs9QSaNDyO2,html-button-response,55,498971,0.0-46.0-0.0-0.0-1.0,,,,,,,,,,,,,,,64333e37b0fca53775bad01a,19:53:00,03/04/2024
15323.199999988079,"<div class = 'left_align' style='font-size: 3.25rem; line-height: 1.3;'>For this practice part, letters will appear on the screen one at a time.<br><br>Try to remember each letter in the order presented.<br><br>After some letters have been shown, you will see a response screen. Your<br>goal is to report the letters you saw <b>in order</b>. If you do not remember<br>a particular letter, you will have the option to leave it blank.<br><br><br><br></div>",0,ospan,instruct,gxWqRPQpPVS18lDQvGs9QSaNDyO2,html-button-response,56,514549,0.0-46.0-0.0-0.0-2.0,,,,,,,,,,,,,,,64333e37b0fca53775bad01a,19:53:00,03/04/2024
2593.800000011921,"<div class = 'left_align' style='font-size: 3.25rem; line-height: 1.3;'>Remember, it is very important to get the letters in the same<br>order as you see them.<br><br>When you are ready, you may begin the letter practice.</div><br><br><br><br>",0,ospan,instruct,gxWqRPQpPVS18lDQvGs9QSaNDyO2,html-button-response,57,517397,0.0-46.0-0.0-0.0-3.0,,,,,,,,,,,,,,,64333e37b0fca53775bad01a,19:53:00,03/04/2024
,"<p style=""font-size:75px;"">...</p>",,ospan,iti,gxWqRPQpPVS18lDQvGs9QSaNDyO2,html-keyboard-response,58,518661,0.0-46.0-0.0-1.0-0.0,,,,,,,,,,,,,,,64333e37b0fca53775bad01a,19:53:00,03/04/2024
,"<div style=""font-size: 10rem; color: #0000FF"">Q</div>",,ospan,letter,gxWqRPQpPVS18lDQvGs9QSaNDyO2,html-keyboard-response,59,519672,0.0-46.0-0.0-1.0-1.0,,,,,,,,,,,,,,,64333e37b0fca53775bad01a,19:53:00,03/04/2024
,"<div style=""font-size: 10rem; color: #0000FF"">S</div>",,ospan,letter,gxWqRPQpPVS18lDQvGs9QSaNDyO2,html-keyboard-response,60,521441,0.0-46.0-0.0-1.0-2.0,,,,,,,,,,,,,,,64333e37b0fca53775bad01a,19:53:00,03/04/2024
9448.699999988079,"<div class = numbox><p style=""font-size: 2.4rem"">Please recall the letters you saw to the best of your ability. If you do not remember a particular letter, use the SKIP button.<br><b>(When you are ready to lock in your answer, press ENTER)</b></p><button id = button_1 class = ""square num-button"" onclick = ""recordClick(this)""><div class = content><div class = numbers>C</div></div></button><button id = button_2 class = ""square num-button"" onclick = ""recordClick(this)""><div class = content><div class = numbers>G</div></div></button><button id = button_3 class = ""square num-button"" onclick = ""recordClick(this)""><div class = content><div class = numbers>H</div></div></button><button id = button_4 class = ""square num-button"" onclick = ""recordClick(this)""><div class = content><div class = numbers>J</div></div></button><button id = button_5 class = ""square num-button"" onclick = ""recordClick(this)""><div class = content><div class = numbers>K</div></div></button><button id = button_6 class = ""square num-button"" onclick = ""recordClick(this)""><div class = content><div class = numbers>L</div></div></button><button id = button_7 class = ""square num-button"" onclick = ""recordClick(this)""><div class = content><div class = numbers>N</div></div></button><button id = button_8 class = ""square num-button"" onclick = ""recordClick(this)""><div class = content><div class = numbers>P</div></div></button><button id = button_9 class = ""square num-button"" onclick = ""recordClick(this)""><div class = content><div class = numbers>Q</div></div></button><button id = button_10 class = ""square num-button"" onclick = ""recordClick(this)""><div class = content><div class = numbers>R</div></div></button><button id = button_11 class = ""square num-button"" onclick = ""recordClick(this)""><div class = content><div class = numbers>S</div></div></button><button id = button_12 class = ""square num-button"" onclick = ""recordClick(this)""><div class = content><div class = numbers>Y</div></div></button><button class = clear_button id = ""ClearButton"" onclick = ""clearResponse()"">BACKSPACE</button><button class = blank_button id = ""BlankButton"" onclick = ""blankResponse()"">SKIP</button><p style=""font-size: 2.4rem""><u><b>Current Answer:</b></u></p><br><br><div id=echoed_txt style=""font-size: 5rem; color:blue;""><b></b></div></div>",enter,ospan,retrieval,gxWqRPQpPVS18lDQvGs9QSaNDyO2,html-keyboard-response,61,531652,0.0-46.0-0.0-1.0-3.0,NA,NA,NA,2.0,"[""Q"",""S""]","[""Q"",""S""]",1.0,2.0,"['<font color=""green"">Q</font>', '<font color=""green"">S</font>']",,,,,,64333e37b0fca53775bad01a,19:53:00,03/04/2024
1107.800000011921,"['<p style=""font-size:44px"">Letters:<br><br><br><font color=""green"">Q</font> <font color=""green"">S</font></p><br><br>']",0,ospan,practice_feedback,gxWqRPQpPVS18lDQvGs9QSaNDyO2,html-button-response,62,533268,0.0-46.0-0.0-1.0-4.0,,,,,,,,,,,,,,,64333e37b0fca53775bad01a,19:53:00,03/04/2024
,"<p style=""font-size:75px;"">...</p>",,ospan,iti,gxWqRPQpPVS18lDQvGs9QSaNDyO2,html-keyboard-response,63,534283,0.0-46.0-0.0-2.0-0.0,,,,,,,,,,,,,,,64333e37b0fca53775bad01a,19:53:00,03/04/2024
,"<div style=""font-size: 10rem; color: #0000FF"">C</div>",,ospan,letter,gxWqRPQpPVS18lDQvGs9QSaNDyO2,html-keyboard-response,64,535291,0.0-46.0-0.0-2.0-1.0,,,,,,,,,,,,,,,64333e37b0fca53775bad01a,19:53:00,03/04/2024
,"<div style=""font-size: 10rem; color: #0000FF"">N</div>",,ospan,letter,gxWqRPQpPVS18lDQvGs9QSaNDyO2,html-keyboard-response,65,537061,0.0-46.0-0.0-2.0-2.0,,,,,,,,,,,,,,,64333e37b0fca53775bad01a,19:53:00,03/04/2024
,"<div style=""font-size: 10rem; color: #0000FF"">Q</div>",,ospan,letter,gxWqRPQpPVS18lDQvGs9QSaNDyO2,html-keyboard-response,66,538840,0.0-46.0-0.0-2.0-3.0,,,,,,,,,,,,,,,64333e37b0fca53775bad01a,19:53:00,03/04/2024
5560.800000011921,"<div class = numbox><p style=""font-size: 2.4rem"">Please recall the letters you saw to the best of your ability. If you do not remember a particular letter, use the SKIP button.<br><b>(When you are ready to lock in your answer, press ENTER)</b></p><button id = button_1 class = ""square num-button"" onclick = ""recordClick(this)""><div class = content><div class = numbers>C</div></div></button><button id = button_2 class = ""square num-button"" onclick = ""recordClick(this)""><div class = content><div class = numbers>G</div></div></button><button id = button_3 class = ""square num-button"" onclick = ""recordClick(this)""><div class = content><div class = numbers>H</div></div></button><button id = button_4 class = ""square num-button"" onclick = ""recordClick(this)""><div class = content><div class = numbers>J</div></div></button><button id = button_5 class = ""square num-button"" onclick = ""recordClick(this)""><div class = content><div class = numbers>K</div></div></button><button id = button_6 class = ""square num-button"" onclick = ""recordClick(this)""><div class = content><div class = numbers>L</div></div></button><button id = button_7 class = ""square num-button"" onclick = ""recordClick(this)""><div class = content><div class = numbers>N</div></div></button><button id = button_8 class = ""square num-button"" onclick = ""recordClick(this)""><div class = content><div class = numbers>P</div></div></button><button id = button_9 class = ""square num-button"" onclick = ""recordClick(this)""><div class = content><div class = numbers>Q</div></div></button><button id = button_10 class = ""square num-button"" onclick = ""recordClick(this)""><div class = content><div class = numbers>R</div></div></button><button id = button_11 class = ""square num-button"" onclick = ""recordClick(this)""><div class = content><div class = numbers>S</div></div></button><button id = button_12 class = ""square num-button"" onclick = ""recordClick(this)""><div class = content><div class = numbers>Y</div></div></button><button class = clear_button id = ""ClearButton"" onclick = ""clearResponse()"">BACKSPACE</button><button class = blank_button id = ""BlankButton"" onclick = ""blankResponse()"">SKIP</button><p style=""font-size: 2.4rem""><u><b>Current Answer:</b></u></p><br><br><div id=echoed_txt style=""font-size: 5rem; color:blue;""><b></b></div></div>",enter,ospan,retrieval,gxWqRPQpPVS18lDQvGs9QSaNDyO2,html-keyboard-response,67,545153,0.0-46.0-0.0-2.0-4.0,NA,NA,NA,3.0,"[""C"",""N"",""Q""]","[""C"",""N"",""Q""]",1.0,3.0,"['<font color=""green"">C</font>', '<font color=""green"">N</font>', '<font color=""green"">Q</font>']",,,,,,64333e37b0fca53775bad01a,19:53:00,03/04/2024
1065.5,"['<p style=""font-size:44px"">Letters:<br><br><br><font color=""green"">C</font> <font color=""green"">N</font> <font color=""green"">Q</font></p><br><br>']",0,ospan,practice_feedback,gxWqRPQpPVS18lDQvGs9QSaNDyO2,html-button-response,68,546723,0.0-46.0-0.0-2.0-5.0,,,,,,,,,,,,,,,64333e37b0fca53775bad01a,19:53:00,03/04/2024
13111.0,"<div class = 'left_align' style='font-size: 3.25rem; line-height: 1.3;'>Now you will practice doing the <b>symmetry judgment part</b> of the experiment.<br><br>A black and white grid picture will appear on the screen and you have to judge if it is <br>symmetrical or asymetrical.<br><br>A picture is 'mirror' symmetrical if its left half is identical to the right half when flipped.<br>Here are examples of a symmetrical and an asymetrical picture:<br><br><center><img src='Stimuli/img/symm_instructions_extra.png' style='height:420px; width:900'></img></center><br>To judge symmetry, imagine you were to fold each picture down the middle, like a book –<br>would the left half match the right half when folded onto each other?<br><br></div><br>",0,ospan,instruct,gxWqRPQpPVS18lDQvGs9QSaNDyO2,html-button-response,69,559835,0.0-46.0-1.0-0.0-0.0,,,,,,,,,,,,,,,64333e37b0fca53775bad01a,19:53:00,03/04/2024
3280.699999988079,"<div class = 'left_align' style='font-size: 3.25rem; line-height: 1.3;'>When you have viewed the picture and determined whether it is symmetrical or not,<br>you can <b>click the Yes or No button</b> below to answer.<br><br>If you take longer than 15 seconds, it will continue automatically<br>and record the answer as an error.</div><br>",0,ospan,instruct,gxWqRPQpPVS18lDQvGs9QSaNDyO2,html-button-response,70,563370,0.0-46.0-1.0-0.0-1.0,,,,,,,,,,,,,,,64333e37b0fca53775bad01a,19:53:00,03/04/2024
2731.0,"<div class = 'left_align' style='font-size: 3.25rem; line-height: 1.3;'>It is <b>very</b> important that you make the symmetry judgment correctly.<br><br>It is also important that you try and judge the picture as quickly as you can.<br><br>When you are ready, click on the button below to try some practice problems.</div><br><br><br><br>",0,ospan,instruct,gxWqRPQpPVS18lDQvGs9QSaNDyO2,html-button-response,71,566353,0.0-46.0-1.0-0.0-2.0,,,,,,,,,,,,,,,64333e37b0fca53775bad01a,19:53:00,03/04/2024
2147.0,,,ospan,symmetry,gxWqRPQpPVS18lDQvGs9QSaNDyO2,symmetry-judgement-task,72,569279,0.0-46.0-1.0-1.0-0.0,,,,,,,,,,1.0,1.0,,,,64333e37b0fca53775bad01a,19:53:00,03/04/2024
,"<p style=""color:green; font-size: 35px"">Correct</p>",,ospan,feedback,gxWqRPQpPVS18lDQvGs9QSaNDyO2,html-keyboard-response,73,570038,0.0-46.0-1.0-1.0-1.0,,,,,,,,,,,,,,,64333e37b0fca53775bad01a,19:53:00,03/04/2024
1228.0,,,ospan,symmetry,gxWqRPQpPVS18lDQvGs9QSaNDyO2,symmetry-judgement-task,74,573896,0.0-46.0-1.0-1.0-2.0,,,,,,,,,,1.0,1.0,,,,64333e37b0fca53775bad01a,19:53:00,03/04/2024
,"<p style=""color:green; font-size: 35px"">Correct</p>",,ospan,feedback,gxWqRPQpPVS18lDQvGs9QSaNDyO2,html-keyboard-response,75,574656,0.0-46.0-1.0-1.0-3.0,,,,,,,,,,,,,,,64333e37b0fca53775bad01a,19:53:00,03/04/2024
2823.0,,,ospan,symmetry,gxWqRPQpPVS18lDQvGs9QSaNDyO2,symmetry-judgement-task,76,580118,0.0-46.0-1.0-1.0-4.0,,,,,,,,,,1.0,1.0,,,,64333e37b0fca53775bad01a,19:53:00,03/04/2024
,"<p style=""color:green; font-size: 35px"">Correct</p>",,ospan,feedback,gxWqRPQpPVS18lDQvGs9QSaNDyO2,html-keyboard-response,77,580881,0.0-46.0-1.0-1.0-5.0,,,,,,,,,,,,,,,64333e37b0fca53775bad01a,19:53:00,03/04/2024
1152.2999999523163,"<p style=""font-size: 3rem;"">You responded correctly on 3 of 3 symmetry judgments. Good job!</p><br><br>",0,ospan,practice,gxWqRPQpPVS18lDQvGs9QSaNDyO2,html-button-response,78,584048,0.0-46.0-1.0-2.0,,,,,,,,,,,,,,,64333e37b0fca53775bad01a,19:53:00,03/04/2024
5364.800000011921,"<div class = 'left_align' style='font-size: 3.25rem; line-height: 1.3;'>Now you will practice doing both parts of the experiment at the same time.<br><br>In the next practice set, you will be given one grid picture to judge.<br>Then letter will appear on the screen. Try to remember the letter.<br><br>It is <b>very important</b> to make the symmetry judgment as quickly and accurately as possible.<br><br>Just as before, once you have make the symmetry judgment, you can click Yes or No.<br><b>Note that you will no longer see Correct or Incorrect feedback.</div><br><br><br><br>",0,ospan,instruct,gxWqRPQpPVS18lDQvGs9QSaNDyO2,html-button-response,79,589673,0.0-46.0-2.0-0.0-0.0,,,,,,,,,,,,,,,64333e37b0fca53775bad01a,19:53:00,03/04/2024
5783.800000011921,"<div class = 'left_align' style='font-size: 3.25rem; line-height: 1.3;'>After the letter goes away, another grid picture will appear, and then<br>another letter.<br><br>At the end of each set of letters and grids, you will recall the letters to the best<br>of your ability. Remember, try your best to get the letters in the correct order.<br><br>It is important to <b>quickly</b> and <b>accurately</b> make the symmetry judgments.</div><br><br><br><br>",0,ospan,instruct,gxWqRPQpPVS18lDQvGs9QSaNDyO2,html-button-response,80,595719,0.0-46.0-2.0-0.0-1.0,,,,,,,,,,,,,,,64333e37b0fca53775bad01a,19:53:00,03/04/2024
4063.599999964237,"<div class = 'left_align' style='font-size: 3.25rem; line-height: 1.3;'>On the feedback screen, if you are not doing well at the symmetry judgments,<br>you will also see a warning in the middle. This indicates your percent <br>correct for the grid pictures for the entire experiment.<br><br>It is <b>very</b> important for you to keep accuracy at least at 85%: <u>We can only use<br>data where the participant was at least 85% accurate on the judgments.</u> Therefore,<br> please try your best to perform well on the symmetry judgments, <b>at the same time</b><br>doing your best to recall as many letters as possible.<br><br>Click the button to try some practice problems.</div><br><br><br><br>",0,ospan,instruct,gxWqRPQpPVS18lDQvGs9QSaNDyO2,html-button-response,81,600044,0.0-46.0-2.0-0.0-2.0,,,,,,,,,,,,,,,64333e37b0fca53775bad01a,19:53:00,03/04/2024
,"<p style=""font-size:75px;"">...</p>",,ospan,iti,gxWqRPQpPVS18lDQvGs9QSaNDyO2,html-keyboard-response,82,601308,0.0-46.0-2.0-1.0-0.0,,,,,,,,,,,,,,,64333e37b0fca53775bad01a,19:53:00,03/04/2024
1735.0,,,ospan,symmetry,gxWqRPQpPVS18lDQvGs9QSaNDyO2,symmetry-judgement-task,83,604174,0.0-46.0-2.0-1.0-1.0-0.0,,,,,,,,,,1.0,1.0,,,,64333e37b0fca53775bad01a,19:53:00,03/04/2024
,"<div style=""font-size: 10rem; color: #0000FF"">N</div>",,ospan,letter,gxWqRPQpPVS18lDQvGs9QSaNDyO2,html-keyboard-response,84,605183,0.0-46.0-2.0-1.0-1.0-1.0,,,,,,,,,,,,,,,64333e37b0fca53775bad01a,19:53:00,03/04/2024
1400.0,,,ospan,symmetry,gxWqRPQpPVS18lDQvGs9QSaNDyO2,symmetry-judgement-task,85,608450,0.0-46.0-2.0-1.0-1.0-2.0,,,,,,,,,,1.0,1.0,,,,64333e37b0fca53775bad01a,19:53:00,03/04/2024
,"<div style=""font-size: 10rem; color: #0000FF"">P</div>",,ospan,letter,gxWqRPQpPVS18lDQvGs9QSaNDyO2,html-keyboard-response,86,609459,0.0-46.0-2.0-1.0-1.0-3.0,,,,,,,,,,,,,,,64333e37b0fca53775bad01a,19:53:00,03/04/2024
1627.0,,,ospan,symmetry,gxWqRPQpPVS18lDQvGs9QSaNDyO2,symmetry-judgement-task,87,612973,0.0-46.0-2.0-1.0-1.0-4.0,,,,,,,,,,1.0,1.0,,,,64333e37b0fca53775bad01a,19:53:00,03/04/2024
,"<div style=""font-size: 10rem; color: #0000FF"">Q</div>",,ospan,letter,gxWqRPQpPVS18lDQvGs9QSaNDyO2,html-keyboard-response,88,613978,0.0-46.0-2.0-1.0-1.0-5.0,,,,,,,,,,,,,,,64333e37b0fca53775bad01a,19:53:00,03/04/2024
3530.899999976158,"<div class = numbox><p style=""font-size: 2.4rem"">Please recall the letters you saw to the best of your ability. If you do not remember a particular letter, use the SKIP button.<br><b>(When you are ready to lock in your answer, press ENTER)</b></p><button id = button_1 class = ""square num-button"" onclick = ""recordClick(this)""><div class = content><div class = numbers>C</div></div></button><button id = button_2 class = ""square num-button"" onclick = ""recordClick(this)""><div class = content><div class = numbers>G</div></div></button><button id = button_3 class = ""square num-button"" onclick = ""recordClick(this)""><div class = content><div class = numbers>H</div></div></button><button id = button_4 class = ""square num-button"" onclick = ""recordClick(this)""><div class = content><div class = numbers>J</div></div></button><button id = button_5 class = ""square num-button"" onclick = ""recordClick(this)""><div class = content><div class = numbers>K</div></div></button><button id = button_6 class = ""square num-button"" onclick = ""recordClick(this)""><div class = content><div class = numbers>L</div></div></button><button id = button_7 class = ""square num-button"" onclick = ""recordClick(this)""><div class = content><div class = numbers>N</div></div></button><button id = button_8 class = ""square num-button"" onclick = ""recordClick(this)""><div class = content><div class = numbers>P</div></div></button><button id = button_9 class = ""square num-button"" onclick = ""recordClick(this)""><div class = content><div class = numbers>Q</div></div></button><button id = button_10 class = ""square num-button"" onclick = ""recordClick(this)""><div class = content><div class = numbers>R</div></div></button><button id = button_11 class = ""square num-button"" onclick = ""recordClick(this)""><div class = content><div class = numbers>S</div></div></button><button id = button_12 class = ""square num-button"" onclick = ""recordClick(this)""><div class = content><div class = numbers>Y</div></div></button><button class = clear_button id = ""ClearButton"" onclick = ""clearResponse()"">BACKSPACE</button><button class = blank_button id = ""BlankButton"" onclick = ""blankResponse()"">SKIP</button><p style=""font-size: 2.4rem""><u><b>Current Answer:</b></u></p><br><br><div id=echoed_txt style=""font-size: 5rem; color:blue;""><b></b></div></div>",enter,ospan,retrieval,gxWqRPQpPVS18lDQvGs9QSaNDyO2,html-keyboard-response,89,618273,0.0-46.0-2.0-1.0-2.0-0.0,NA,NA,NA,3.0,"[""N"",""P"",""Q""]","[""N"",""P"",""Q""]",1.0,3.0,"['<font color=""green"">N</font>', '<font color=""green"">P</font>', '<font color=""green"">Q</font>']",,,,,,64333e37b0fca53775bad01a,19:53:00,03/04/2024
955.4000000357628,"['<p style=""font-size:44px"">Letters:<br><br><br><font color=""green"">N</font> <font color=""green"">P</font> <font color=""green"">Q</font></p><br><br><p style=""font-size:30px"">Symmetry:<br><br><font color=""green"">100%</font></p><br><br>']",0,ospan,practice_feedback,gxWqRPQpPVS18lDQvGs9QSaNDyO2,html-button-response,90,619732,0.0-46.0-2.0-1.0-2.0-1.0,,,,,,,,,,,,,,,64333e37b0fca53775bad01a,19:53:00,03/04/2024
,"<p style=""font-size:75px;"">...</p>",,ospan,iti,gxWqRPQpPVS18lDQvGs9QSaNDyO2,html-keyboard-response,91,620739,0.0-46.0-2.0-2.0-0.0,,,,,,,,,,,,,,,64333e37b0fca53775bad01a,19:53:00,03/04/2024
1823.0,,,ospan,symmetry,gxWqRPQpPVS18lDQvGs9QSaNDyO2,symmetry-judgement-task,92,623688,0.0-46.0-2.0-2.0-1.0-0.0,,,,,,,,,,1.0,1.0,,,,64333e37b0fca53775bad01a,19:53:00,03/04/2024
,"<div style=""font-size: 10rem; color: #0000FF"">J</div>",,ospan,letter,gxWqRPQpPVS18lDQvGs9QSaNDyO2,html-keyboard-response,93,624693,0.0-46.0-2.0-2.0-1.0-1.0,,,,,,,,,,,,,,,64333e37b0fca53775bad01a,19:53:00,03/04/2024
1128.0,,,ospan,symmetry,gxWqRPQpPVS18lDQvGs9QSaNDyO2,symmetry-judgement-task,94,627700,0.0-46.0-2.0-2.0-1.0-2.0,,,,,,,,,,1.0,1.0,,,,64333e37b0fca53775bad01a,19:53:00,03/04/2024
,"<div style=""font-size: 10rem; color: #0000FF"">Y</div>",,ospan,letter,gxWqRPQpPVS18lDQvGs9QSaNDyO2,html-keyboard-response,95,628710,0.0-46.0-2.0-2.0-1.0-3.0,,,,,,,,,,,,,,,64333e37b0fca53775bad01a,19:53:00,03/04/2024
1210.0,,,ospan,symmetry,gxWqRPQpPVS18lDQvGs9QSaNDyO2,symmetry-judgement-task,96,631791,0.0-46.0-2.0-2.0-1.0-4.0,,,,,,,,,,1.0,1.0,,,,64333e37b0fca53775bad01a,19:53:00,03/04/2024
,"<div style=""font-size: 10rem; color: #0000FF"">C</div>",,ospan,letter,gxWqRPQpPVS18lDQvGs9QSaNDyO2,html-keyboard-response,97,632797,0.0-46.0-2.0-2.0-1.0-5.0,,,,,,,,,,,,,,,64333e37b0fca53775bad01a,19:53:00,03/04/2024
3513.5,"<div class = numbox><p style=""font-size: 2.4rem"">Please recall the letters you saw to the best of your ability. If you do not remember a particular letter, use the SKIP button.<br><b>(When you are ready to lock in your answer, press ENTER)</b></p><button id = button_1 class = ""square num-button"" onclick = ""recordClick(this)""><div class = content><div class = numbers>C</div></div></button><button id = button_2 class = ""square num-button"" onclick = ""recordClick(this)""><div class = content><div class = numbers>G</div></div></button><button id = button_3 class = ""square num-button"" onclick = ""recordClick(this)""><div class = content><div class = numbers>H</div></div></button><button id = button_4 class = ""square num-button"" onclick = ""recordClick(this)""><div class = content><div class = numbers>J</div></div></button><button id = button_5 class = ""square num-button"" onclick = ""recordClick(this)""><div class = content><div class = numbers>K</div></div></button><button id = button_6 class = ""square num-button"" onclick = ""recordClick(this)""><div class = content><div class = numbers>L</div></div></button><button id = button_7 class = ""square num-button"" onclick = ""recordClick(this)""><div class = content><div class = numbers>N</div></div></button><button id = button_8 class = ""square num-button"" onclick = ""recordClick(this)""><div class = content><div class = numbers>P</div></div></button><button id = button_9 class = ""square num-button"" onclick = ""recordClick(this)""><div class = content><div class = numbers>Q</div></div></button><button id = button_10 class = ""square num-button"" onclick = ""recordClick(this)""><div class = content><div class = numbers>R</div></div></button><button id = button_11 class = ""square num-button"" onclick = ""recordClick(this)""><div class = content><div class = numbers>S</div></div></button><button id = button_12 class = ""square num-button"" onclick = ""recordClick(this)""><div class = content><div class = numbers>Y</div></div></button><button class = clear_button id = ""ClearButton"" onclick = ""clearResponse()"">BACKSPACE</button><button class = blank_button id = ""BlankButton"" onclick = ""blankResponse()"">SKIP</button><p style=""font-size: 2.4rem""><u><b>Current Answer:</b></u></p><br><br><div id=echoed_txt style=""font-size: 5rem; color:blue;""><b></b></div></div>",enter,ospan,retrieval,gxWqRPQpPVS18lDQvGs9QSaNDyO2,html-keyboard-response,98,637072,0.0-46.0-2.0-2.0-2.0-0.0,NA,NA,NA,3.0,"[""J"",""Y"",""C""]","[""J"",""Y"",""C""]",1.0,3.0,"['<font color=""green"">J</font>', '<font color=""green"">Y</font>', '<font color=""green"">C</font>']",,,,,,64333e37b0fca53775bad01a,19:53:00,03/04/2024
1039.6000000238419,"['<p style=""font-size:44px"">Letters:<br><br><br><font color=""green"">J</font> <font color=""green"">Y</font> <font color=""green"">C</font></p><br><br><p style=""font-size:30px"">Symmetry:<br><br><font color=""green"">100%</font></p><br><br>']",0,ospan,practice_feedback,gxWqRPQpPVS18lDQvGs9QSaNDyO2,html-button-response,99,638622,0.0-46.0-2.0-2.0-2.0-1.0,,,,,,,,,,,,,,,64333e37b0fca53775bad01a,19:53:00,03/04/2024
26242.899999976158,"<div class = 'left_align' style='font-size: 3rem; line-height: 1.3;'><b>Great work! That is the end of practice.</b><br><br>The real trials will look just like the practice trials you just completed.<br><br><u>Here, you will not see feedback</u>. First, you will see an grid picture to judge,<br>then a letter to remember. When the recall screen appears, report the letters in the<br>order presented. If you forget a letter, remember to use the <b>blank</b> button to move to the<br>next letter. Some of the sets will have more symmetry grids and letters than others.<br><br>It is important that you do your best on both the symmetry judgments and the letter recall<br>parts of the experiment. For for the symmetry judgments, try to work as <b>quickly</b> and <br>as <b>accurately</b> as possible. Remember to keep your symmetry accuracy at 85% or above.<br><br><b>For the letters, do NOT use any external aid (e.g., writing on paper, electronic device).</b><br><br>It is <u>very important</u> to our experiment to have a <b>true</b> view of your real performance.<br><br>Do not worry if you miss some when it gets hard! This task is meant to be very challenging!<br><br>Click the button to begin.</div><br><br><br><br>",0,ospan,starting_real_here,gxWqRPQpPVS18lDQvGs9QSaNDyO2,html-button-response,100,664866,0.0-46.0-2.0-3.0,,,,,,,,,,,,,,,64333e37b0fca53775bad01a,19:53:00,03/04/2024
,"<p style=""font-size:75px;"">...</p>",,ospan,iti,gxWqRPQpPVS18lDQvGs9QSaNDyO2,html-keyboard-response,101,666135,0.0-46.0-3.0-0.0-0.0,,,,,,,,,,,,,,,64333e37b0fca53775bad01a,19:53:00,03/04/2024
1497.0,,,ospan,symmetry,gxWqRPQpPVS18lDQvGs9QSaNDyO2,symmetry-judgement-task,102,668677,0.0-46.0-3.0-0.0-1.0-0.0,,,,,,,,,,1.0,1.0,,,,64333e37b0fca53775bad01a,19:53:00,03/04/2024
,"<div style=""font-size: 10rem; color: #0000FF"">J</div>",,ospan,letter,gxWqRPQpPVS18lDQvGs9QSaNDyO2,html-keyboard-response,103,669678,0.0-46.0-3.0-0.0-1.0-1.0,,,,,,,,,,,,,,,64333e37b0fca53775bad01a,19:53:00,03/04/2024
1811.0,,,ospan,symmetry,gxWqRPQpPVS18lDQvGs9QSaNDyO2,symmetry-judgement-task,104,673360,0.0-46.0-3.0-0.0-1.0-2.0,,,,,,,,,,1.0,1.0,,,,64333e37b0fca53775bad01a,19:53:00,03/04/2024
,"<div style=""font-size: 10rem; color: #0000FF"">N</div>",,ospan,letter,gxWqRPQpPVS18lDQvGs9QSaNDyO2,html-keyboard-response,105,674369,0.0-46.0-3.0-0.0-1.0-3.0,,,,,,,,,,,,,,,64333e37b0fca53775bad01a,19:53:00,03/04/2024
1587.0,,,ospan,symmetry,gxWqRPQpPVS18lDQvGs9QSaNDyO2,symmetry-judgement-task,106,677828,0.0-46.0-3.0-0.0-1.0-4.0,,,,,,,,,,1.0,1.0,,,,64333e37b0fca53775bad01a,19:53:00,03/04/2024
,"<div style=""font-size: 10rem; color: #0000FF"">C</div>",,ospan,letter,gxWqRPQpPVS18lDQvGs9QSaNDyO2,html-keyboard-response,107,678835,0.0-46.0-3.0-0.0-1.0-5.0,,,,,,,,,,,,,,,64333e37b0fca53775bad01a,19:53:00,03/04/2024
3439.599999964237,"<div class = numbox><p style=""font-size: 2.4rem"">Please recall the letters you saw to the best of your ability. If you do not remember a particular letter, use the SKIP button.<br><b>(When you are ready to lock in your answer, press ENTER)</b></p><button id = button_1 class = ""square num-button"" onclick = ""recordClick(this)""><div class = content><div class = numbers>C</div></div></button><button id = button_2 class = ""square num-button"" onclick = ""recordClick(this)""><div class = content><div class = numbers>G</div></div></button><button id = button_3 class = ""square num-button"" onclick = ""recordClick(this)""><div class = content><div class = numbers>H</div></div></button><button id = button_4 class = ""square num-button"" onclick = ""recordClick(this)""><div class = content><div class = numbers>J</div></div></button><button id = button_5 class = ""square num-button"" onclick = ""recordClick(this)""><div class = content><div class = numbers>K</div></div></button><button id = button_6 class = ""square num-button"" onclick = ""recordClick(this)""><div class = content><div class = numbers>L</div></div></button><button id = button_7 class = ""square num-button"" onclick = ""recordClick(this)""><div class = content><div class = numbers>N</div></div></button><button id = button_8 class = ""square num-button"" onclick = ""recordClick(this)""><div class = content><div class = numbers>P</div></div></button><button id = button_9 class = ""square num-button"" onclick = ""recordClick(this)""><div class = content><div class = numbers>Q</div></div></button><button id = button_10 class = ""square num-button"" onclick = ""recordClick(this)""><div class = content><div class = numbers>R</div></div></button><button id = button_11 class = ""square num-button"" onclick = ""recordClick(this)""><div class = content><div class = numbers>S</div></div></button><button id = button_12 class = ""square num-button"" onclick = ""recordClick(this)""><div class = content><div class = numbers>Y</div></div></button><button class = clear_button id = ""ClearButton"" onclick = ""clearResponse()"">BACKSPACE</button><button class = blank_button id = ""BlankButton"" onclick = ""blankResponse()"">SKIP</button><p style=""font-size: 2.4rem""><u><b>Current Answer:</b></u></p><br><br><div id=echoed_txt style=""font-size: 5rem; color:blue;""><b></b></div></div>",enter,ospan,retrieval,gxWqRPQpPVS18lDQvGs9QSaNDyO2,html-keyboard-response,108,683029,0.0-46.0-3.0-0.0-2.0,3,3,3,3.0,"[""J"",""N"",""C""]","[""J"",""N"",""C""]",1.0,3.0,,,,,,,64333e37b0fca53775bad01a,19:53:00,03/04/2024
925.6000000238419,[''],0,ospan,feedback,gxWqRPQpPVS18lDQvGs9QSaNDyO2,html-button-response,109,684465,0.0-46.0-3.0-0.0-3.0,,,,,,,,,,,,100.0,0.0,,64333e37b0fca53775bad01a,19:53:00,03/04/2024
,"<p style=""font-size:75px;"">...</p>",,ospan,iti,gxWqRPQpPVS18lDQvGs9QSaNDyO2,html-keyboard-response,110,685472,0.0-46.0-4.0-0.0-0.0,,,,,,,,,,,,,,,64333e37b0fca53775bad01a,19:53:00,03/04/2024
2686.0,,,ospan,symmetry,gxWqRPQpPVS18lDQvGs9QSaNDyO2,symmetry-judgement-task,111,689187,0.0-46.0-4.0-0.0-1.0-0.0,,,,,,,,,,1.0,1.0,,,,64333e37b0fca53775bad01a,19:53:00,03/04/2024
,"<div style=""font-size: 10rem; color: #0000FF"">H</div>",,ospan,letter,gxWqRPQpPVS18lDQvGs9QSaNDyO2,html-keyboard-response,112,690195,0.0-46.0-4.0-0.0-1.0-1.0,,,,,,,,,,,,,,,64333e37b0fca53775bad01a,19:53:00,03/04/2024
3354.0,,,ospan,symmetry,gxWqRPQpPVS18lDQvGs9QSaNDyO2,symmetry-judgement-task,113,695420,0.0-46.0-4.0-0.0-1.0-2.0,,,,,,,,,,1.0,1.0,,,,64333e37b0fca53775bad01a,19:53:00,03/04/2024
,"<div style=""font-size: 10rem; color: #0000FF"">K</div>",,ospan,letter,gxWqRPQpPVS18lDQvGs9QSaNDyO2,html-keyboard-response,114,696428,0.0-46.0-4.0-0.0-1.0-3.0,,,,,,,,,,,,,,,64333e37b0fca53775bad01a,19:53:00,03/04/2024
2307.0,,,ospan,symmetry,gxWqRPQpPVS18lDQvGs9QSaNDyO2,symmetry-judgement-task,115,700608,0.0-46.0-4.0-0.0-1.0-4.0,,,,,,,,,,1.0,1.0,,,,64333e37b0fca53775bad01a,19:53:00,03/04/2024
,"<div style=""font-size: 10rem; color: #0000FF"">G</div>",,ospan,letter,gxWqRPQpPVS18lDQvGs9QSaNDyO2,html-keyboard-response,116,701615,0.0-46.0-4.0-0.0-1.0-5.0,,,,,,,,,,,,,,,64333e37b0fca53775bad01a,19:53:00,03/04/2024
2364.0,,,ospan,symmetry,gxWqRPQpPVS18lDQvGs9QSaNDyO2,symmetry-judgement-task,117,705851,0.0-46.0-4.0-0.0-1.0-6.0,,,,,,,,,,1.0,1.0,,,,64333e37b0fca53775bad01a,19:53:00,03/04/2024
,"<div style=""font-size: 10rem; color: #0000FF"">N</div>",,ospan,letter,gxWqRPQpPVS18lDQvGs9QSaNDyO2,html-keyboard-response,118,706859,0.0-46.0-4.0-0.0-1.0-7.0,,,,,,,,,,,,,,,64333e37b0fca53775bad01a,19:53:00,03/04/2024
4264.599999964237,"<div class = numbox><p style=""font-size: 2.4rem"">Please recall the letters you saw to the best of your ability. If you do not remember a particular letter, use the SKIP button.<br><b>(When you are ready to lock in your answer, press ENTER)</b></p><button id = button_1 class = ""square num-button"" onclick = ""recordClick(this)""><div class = content><div class = numbers>C</div></div></button><button id = button_2 class = ""square num-button"" onclick = ""recordClick(this)""><div class = content><div class = numbers>G</div></div></button><button id = button_3 class = ""square num-button"" onclick = ""recordClick(this)""><div class = content><div class = numbers>H</div></div></button><button id = button_4 class = ""square num-button"" onclick = ""recordClick(this)""><div class = content><div class = numbers>J</div></div></button><button id = button_5 class = ""square num-button"" onclick = ""recordClick(this)""><div class = content><div class = numbers>K</div></div></button><button id = button_6 class = ""square num-button"" onclick = ""recordClick(this)""><div class = content><div class = numbers>L</div></div></button><button id = button_7 class = ""square num-button"" onclick = ""recordClick(this)""><div class = content><div class = numbers>N</div></div></button><button id = button_8 class = ""square num-button"" onclick = ""recordClick(this)""><div class = content><div class = numbers>P</div></div></button><button id = button_9 class = ""square num-button"" onclick = ""recordClick(this)""><div class = content><div class = numbers>Q</div></div></button><button id = button_10 class = ""square num-button"" onclick = ""recordClick(this)""><div class = content><div class = numbers>R</div></div></button><button id = button_11 class = ""square num-button"" onclick = ""recordClick(this)""><div class = content><div class = numbers>S</div></div></button><button id = button_12 class = ""square num-button"" onclick = ""recordClick(this)""><div class = content><div class = numbers>Y</div></div></button><button class = clear_button id = ""ClearButton"" onclick = ""clearResponse()"">BACKSPACE</button><button class = blank_button id = ""BlankButton"" onclick = ""blankResponse()"">SKIP</button><p style=""font-size: 2.4rem""><u><b>Current Answer:</b></u></p><br><br><div id=echoed_txt style=""font-size: 5rem; color:blue;""><b></b></div></div>",enter,ospan,retrieval,gxWqRPQpPVS18lDQvGs9QSaNDyO2,html-keyboard-response,119,711884,0.0-46.0-4.0-0.0-2.0,7,6,3,4.0,"[""J"",""K"",""G"",""N""]","[""H"",""K"",""G"",""N""]",0.0,3.0,,,,,,,64333e37b0fca53775bad01a,19:53:00,03/04/2024
851.1000000238419,[''],0,ospan,feedback,gxWqRPQpPVS18lDQvGs9QSaNDyO2,html-button-response,120,713244,0.0-46.0-4.0-0.0-3.0,,,,,,,,,,,,100.0,0.0,,64333e37b0fca53775bad01a,19:53:00,03/04/2024
,"<p style=""font-size:75px;"">...</p>",,ospan,iti,gxWqRPQpPVS18lDQvGs9QSaNDyO2,html-keyboard-response,121,714248,0.0-46.0-4.0-1.0-0.0,,,,,,,,,,,,,,,64333e37b0fca53775bad01a,19:53:00,03/04/2024
1528.0,,,ospan,symmetry,gxWqRPQpPVS18lDQvGs9QSaNDyO2,symmetry-judgement-task,122,716921,0.0-46.0-4.0-1.0-1.0-0.0,,,,,,,,,,1.0,1.0,,,,64333e37b0fca53775bad01a,19:53:00,03/04/2024
,"<div style=""font-size: 10rem; color: #0000FF"">L</div>",,ospan,letter,gxWqRPQpPVS18lDQvGs9QSaNDyO2,html-keyboard-response,123,717926,0.0-46.0-4.0-1.0-1.0-1.0,,,,,,,,,,,,,,,64333e37b0fca53775bad01a,19:53:00,03/04/2024
2599.0,,,ospan,symmetry,gxWqRPQpPVS18lDQvGs9QSaNDyO2,symmetry-judgement-task,124,722409,0.0-46.0-4.0-1.0-1.0-2.0,,,,,,,,,,1.0,1.0,,,,64333e37b0fca53775bad01a,19:53:00,03/04/2024
,"<div style=""font-size: 10rem; color: #0000FF"">Y</div>",,ospan,letter,gxWqRPQpPVS18lDQvGs9QSaNDyO2,html-keyboard-response,125,723416,0.0-46.0-4.0-1.0-1.0-3.0,,,,,,,,,,,,,,,64333e37b0fca53775bad01a,19:53:00,03/04/2024
3796.0,,,ospan,symmetry,gxWqRPQpPVS18lDQvGs9QSaNDyO2,symmetry-judgement-task,126,729075,0.0-46.0-4.0-1.0-1.0-4.0,,,,,,,,,,1.0,1.0,,,,64333e37b0fca53775bad01a,19:53:00,03/04/2024
,"<div style=""font-size: 10rem; color: #0000FF"">G</div>",,ospan,letter,gxWqRPQpPVS18lDQvGs9QSaNDyO2,html-keyboard-response,127,730082,0.0-46.0-4.0-1.0-1.0-5.0,,,,,,,,,,,,,,,64333e37b0fca53775bad01a,19:53:00,03/04/2024
1511.0,,,ospan,symmetry,gxWqRPQpPVS18lDQvGs9QSaNDyO2,symmetry-judgement-task,128,733465,0.0-46.0-4.0-1.0-1.0-6.0,,,,,,,,,,1.0,1.0,,,,64333e37b0fca53775bad01a,19:53:00,03/04/2024
,"<div style=""font-size: 10rem; color: #0000FF"">J</div>",,ospan,letter,gxWqRPQpPVS18lDQvGs9QSaNDyO2,html-keyboard-response,129,734472,0.0-46.0-4.0-1.0-1.0-7.0,,,,,,,,,,,,,,,64333e37b0fca53775bad01a,19:53:00,03/04/2024
1166.0,,,ospan,symmetry,gxWqRPQpPVS18lDQvGs9QSaNDyO2,symmetry-judgement-task,130,737504,0.0-46.0-4.0-1.0-1.0-8.0,,,,,,,,,,1.0,1.0,,,,64333e37b0fca53775bad01a,19:53:00,03/04/2024
,"<div style=""font-size: 10rem; color: #0000FF"">R</div>",,ospan,letter,gxWqRPQpPVS18lDQvGs9QSaNDyO2,html-keyboard-response,131,738515,0.0-46.0-4.0-1.0-1.0-9.0,,,,,,,,,,,,,,,64333e37b0fca53775bad01a,19:53:00,03/04/2024
11696.5,"<div class = numbox><p style=""font-size: 2.4rem"">Please recall the letters you saw to the best of your ability. If you do not remember a particular letter, use the SKIP button.<br><b>(When you are ready to lock in your answer, press ENTER)</b></p><button id = button_1 class = ""square num-button"" onclick = ""recordClick(this)""><div class = content><div class = numbers>C</div></div></button><button id = button_2 class = ""square num-button"" onclick = ""recordClick(this)""><div class = content><div class = numbers>G</div></div></button><button id = button_3 class = ""square num-button"" onclick = ""recordClick(this)""><div class = content><div class = numbers>H</div></div></button><button id = button_4 class = ""square num-button"" onclick = ""recordClick(this)""><div class = content><div class = numbers>J</div></div></button><button id = button_5 class = ""square num-button"" onclick = ""recordClick(this)""><div class = content><div class = numbers>K</div></div></button><button id = button_6 class = ""square num-button"" onclick = ""recordClick(this)""><div class = content><div class = numbers>L</div></div></button><button id = button_7 class = ""square num-button"" onclick = ""recordClick(this)""><div class = content><div class = numbers>N</div></div></button><button id = button_8 class = ""square num-button"" onclick = ""recordClick(this)""><div class = content><div class = numbers>P</div></div></button><button id = button_9 class = ""square num-button"" onclick = ""recordClick(this)""><div class = content><div class = numbers>Q</div></div></button><button id = button_10 class = ""square num-button"" onclick = ""recordClick(this)""><div class = content><div class = numbers>R</div></div></button><button id = button_11 class = ""square num-button"" onclick = ""recordClick(this)""><div class = content><div class = numbers>S</div></div></button><button id = button_12 class = ""square num-button"" onclick = ""recordClick(this)""><div class = content><div class = numbers>Y</div></div></button><button class = clear_button id = ""ClearButton"" onclick = ""clearResponse()"">BACKSPACE</button><button class = blank_button id = ""BlankButton"" onclick = ""blankResponse()"">SKIP</button><p style=""font-size: 2.4rem""><u><b>Current Answer:</b></u></p><br><br><div id=echoed_txt style=""font-size: 5rem; color:blue;""><b></b></div></div>",enter,ospan,retrieval,gxWqRPQpPVS18lDQvGs9QSaNDyO2,html-keyboard-response,132,750972,0.0-46.0-4.0-1.0-2.0,12,6,3,5.0,"[""J"",""L"",""Y"",""G"",""N""]","[""L"",""Y"",""G"",""J"",""R""]",0.0,0.0,,,,,,,64333e37b0fca53775bad01a,19:53:00,03/04/2024
750.5999999642372,[''],0,ospan,feedback,gxWqRPQpPVS18lDQvGs9QSaNDyO2,html-button-response,133,752238,0.0-46.0-4.0-1.0-3.0,,,,,,,,,,,,100.0,0.0,,64333e37b0fca53775bad01a,19:53:00,03/04/2024
,"<p style=""font-size:75px;"">...</p>",,ospan,iti,gxWqRPQpPVS18lDQvGs9QSaNDyO2,html-keyboard-response,134,753242,0.0-46.0-4.0-2.0-0.0,,,,,,,,,,,,,,,64333e37b0fca53775bad01a,19:53:00,03/04/2024
1887.0,,,ospan,symmetry,gxWqRPQpPVS18lDQvGs9QSaNDyO2,symmetry-judgement-task,135,756265,0.0-46.0-4.0-2.0-1.0-0.0,,,,,,,,,,1.0,1.0,,,,64333e37b0fca53775bad01a,19:53:00,03/04/2024
,"<div style=""font-size: 10rem; color: #0000FF"">Q</div>",,ospan,letter,gxWqRPQpPVS18lDQvGs9QSaNDyO2,html-keyboard-response,136,757276,0.0-46.0-4.0-2.0-1.0-1.0,,,,,,,,,,,,,,,64333e37b0fca53775bad01a,19:53:00,03/04/2024
1999.0,,,ospan,symmetry,gxWqRPQpPVS18lDQvGs9QSaNDyO2,symmetry-judgement-task,137,761139,0.0-46.0-4.0-2.0-1.0-2.0,,,,,,,,,,1.0,1.0,,,,64333e37b0fca53775bad01a,19:53:00,03/04/2024
,"<div style=""font-size: 10rem; color: #0000FF"">R</div>",,ospan,letter,gxWqRPQpPVS18lDQvGs9QSaNDyO2,html-keyboard-response,138,762149,0.0-46.0-4.0-2.0-1.0-3.0,,,,,,,,,,,,,,,64333e37b0fca53775bad01a,19:53:00,03/04/2024
1349.0,,,ospan,symmetry,gxWqRPQpPVS18lDQvGs9QSaNDyO2,symmetry-judgement-task,139,765378,0.0-46.0-4.0-2.0-1.0-4.0,,,,,,,,,,1.0,1.0,,,,64333e37b0fca53775bad01a,19:53:00,03/04/2024
,"<div style=""font-size: 10rem; color: #0000FF"">S</div>",,ospan,letter,gxWqRPQpPVS18lDQvGs9QSaNDyO2,html-keyboard-response,140,766388,0.0-46.0-4.0-2.0-1.0-5.0,,,,,,,,,,,,,,,64333e37b0fca53775bad01a,19:53:00,03/04/2024
4095.0,"<div class = numbox><p style=""font-size: 2.4rem"">Please recall the letters you saw to the best of your ability. If you do not remember a particular letter, use the SKIP button.<br><b>(When you are ready to lock in your answer, press ENTER)</b></p><button id = button_1 class = ""square num-button"" onclick = ""recordClick(this)""><div class = content><div class = numbers>C</div></div></button><button id = button_2 class = ""square num-button"" onclick = ""recordClick(this)""><div class = content><div class = numbers>G</div></div></button><button id = button_3 class = ""square num-button"" onclick = ""recordClick(this)""><div class = content><div class = numbers>H</div></div></button><button id = button_4 class = ""square num-button"" onclick = ""recordClick(this)""><div class = content><div class = numbers>J</div></div></button><button id = button_5 class = ""square num-button"" onclick = ""recordClick(this)""><div class = content><div class = numbers>K</div></div></button><button id = button_6 class = ""square num-button"" onclick = ""recordClick(this)""><div class = content><div class = numbers>L</div></div></button><button id = button_7 class = ""square num-button"" onclick = ""recordClick(this)""><div class = content><div class = numbers>N</div></div></button><button id = button_8 class = ""square num-button"" onclick = ""recordClick(this)""><div class = content><div class = numbers>P</div></div></button><button id = button_9 class = ""square num-button"" onclick = ""recordClick(this)""><div class = content><div class = numbers>Q</div></div></button><button id = button_10 class = ""square num-button"" onclick = ""recordClick(this)""><div class = content><div class = numbers>R</div></div></button><button id = button_11 class = ""square num-button"" onclick = ""recordClick(this)""><div class = content><div class = numbers>S</div></div></button><button id = button_12 class = ""square num-button"" onclick = ""recordClick(this)""><div class = content><div class = numbers>Y</div></div></button><button class = clear_button id = ""ClearButton"" onclick = ""clearResponse()"">BACKSPACE</button><button class = blank_button id = ""BlankButton"" onclick = ""blankResponse()"">SKIP</button><p style=""font-size: 2.4rem""><u><b>Current Answer:</b></u></p><br><br><div id=echoed_txt style=""font-size: 5rem; color:blue;""><b></b></div></div>",enter,ospan,retrieval,gxWqRPQpPVS18lDQvGs9QSaNDyO2,html-keyboard-response,141,771241,0.0-46.0-4.0-2.0-2.0,15,9,6,3.0,"[""Q"",""R"",""S""]","[""Q"",""R"",""S""]",1.0,3.0,,,,,,,64333e37b0fca53775bad01a,19:53:00,03/04/2024
1031.0999999642372,[''],0,ospan,feedback,gxWqRPQpPVS18lDQvGs9QSaNDyO2,html-button-response,142,772776,0.0-46.0-4.0-2.0-3.0,,,,,,,,,,,,100.0,0.0,,64333e37b0fca53775bad01a,19:53:00,03/04/2024
,"<p style=""font-size:75px;"">...</p>",,ospan,iti,gxWqRPQpPVS18lDQvGs9QSaNDyO2,html-keyboard-response,143,773780,0.0-46.0-5.0-0.0-0.0,,,,,,,,,,,,,,,64333e37b0fca53775bad01a,19:53:00,03/04/2024
2005.0,,,ospan,symmetry,gxWqRPQpPVS18lDQvGs9QSaNDyO2,symmetry-judgement-task,144,776897,0.0-46.0-5.0-0.0-1.0-0.0,,,,,,,,,,1.0,1.0,,,,64333e37b0fca53775bad01a,19:53:00,03/04/2024
,"<div style=""font-size: 10rem; color: #0000FF"">H</div>",,ospan,letter,gxWqRPQpPVS18lDQvGs9QSaNDyO2,html-keyboard-response,145,777904,0.0-46.0-5.0-0.0-1.0-1.0,,,,,,,,,,,,,,,64333e37b0fca53775bad01a,19:53:00,03/04/2024
1656.0,,,ospan,symmetry,gxWqRPQpPVS18lDQvGs9QSaNDyO2,symmetry-judgement-task,146,781430,0.0-46.0-5.0-0.0-1.0-2.0,,,,,,,,,,1.0,1.0,,,,64333e37b0fca53775bad01a,19:53:00,03/04/2024
,"<div style=""font-size: 10rem; color: #0000FF"">R</div>",,ospan,letter,gxWqRPQpPVS18lDQvGs9QSaNDyO2,html-keyboard-response,147,782439,0.0-46.0-5.0-0.0-1.0-3.0,,,,,,,,,,,,,,,64333e37b0fca53775bad01a,19:53:00,03/04/2024
985.0,,,ospan,symmetry,gxWqRPQpPVS18lDQvGs9QSaNDyO2,symmetry-judgement-task,148,785296,0.0-46.0-5.0-0.0-1.0-4.0,,,,,,,,,,1.0,1.0,,,,64333e37b0fca53775bad01a,19:53:00,03/04/2024
,"<div style=""font-size: 10rem; color: #0000FF"">N</div>",,ospan,letter,gxWqRPQpPVS18lDQvGs9QSaNDyO2,html-keyboard-response,149,786299,0.0-46.0-5.0-0.0-1.0-5.0,,,,,,,,,,,,,,,64333e37b0fca53775bad01a,19:53:00,03/04/2024
1254.0,,,ospan,symmetry,gxWqRPQpPVS18lDQvGs9QSaNDyO2,symmetry-judgement-task,150,789335,0.0-46.0-5.0-0.0-1.0-6.0,,,,,,,,,,1.0,1.0,,,,64333e37b0fca53775bad01a,19:53:00,03/04/2024
,"<div style=""font-size: 10rem; color: #0000FF"">K</div>",,ospan,letter,gxWqRPQpPVS18lDQvGs9QSaNDyO2,html-keyboard-response,151,790340,0.0-46.0-5.0-0.0-1.0-7.0,,,,,,,,,,,,,,,64333e37b0fca53775bad01a,19:53:00,03/04/2024
3600.0,,,ospan,symmetry,gxWqRPQpPVS18lDQvGs9QSaNDyO2,symmetry-judgement-task,152,795831,0.0-46.0-5.0-0.0-1.0-8.0,,,,,,,,,,1.0,1.0,,,,64333e37b0fca53775bad01a,19:53:00,03/04/2024
,"<div style=""font-size: 10rem; color: #0000FF"">Q</div>",,ospan,letter,gxWqRPQpPVS18lDQvGs9QSaNDyO2,html-keyboard-response,153,796838,0.0-46.0-5.0-0.0-1.0-9.0,,,,,,,,,,,,,,,64333e37b0fca53775bad01a,19:53:00,03/04/2024
1147.0,,,ospan,symmetry,gxWqRPQpPVS18lDQvGs9QSaNDyO2,symmetry-judgement-task,154,799863,0.0-46.0-5.0-0.0-1.0-10.0,,,,,,,,,,1.0,1.0,,,,64333e37b0fca53775bad01a,19:53:00,03/04/2024
,"<div style=""font-size: 10rem; color: #0000FF"">G</div>",,ospan,letter,gxWqRPQpPVS18lDQvGs9QSaNDyO2,html-keyboard-response,155,800866,0.0-46.0-5.0-0.0-1.0-11.0,,,,,,,,,,,,,,,64333e37b0fca53775bad01a,19:53:00,03/04/2024
16549.399999976158,"<div class = numbox><p style=""font-size: 2.4rem"">Please recall the letters you saw to the best of your ability. If you do not remember a particular letter, use the SKIP button.<br><b>(When you are ready to lock in your answer, press ENTER)</b></p><button id = button_1 class = ""square num-button"" onclick = ""recordClick(this)""><div class = content><div class = numbers>C</div></div></button><button id = button_2 class = ""square num-button"" onclick = ""recordClick(this)""><div class = content><div class = numbers>G</div></div></button><button id = button_3 class = ""square num-button"" onclick = ""recordClick(this)""><div class = content><div class = numbers>H</div></div></button><button id = button_4 class = ""square num-button"" onclick = ""recordClick(this)""><div class = content><div class = numbers>J</div></div></button><button id = button_5 class = ""square num-button"" onclick = ""recordClick(this)""><div class = content><div class = numbers>K</div></div></button><button id = button_6 class = ""square num-button"" onclick = ""recordClick(this)""><div class = content><div class = numbers>L</div></div></button><button id = button_7 class = ""square num-button"" onclick = ""recordClick(this)""><div class = content><div class = numbers>N</div></div></button><button id = button_8 class = ""square num-button"" onclick = ""recordClick(this)""><div class = content><div class = numbers>P</div></div></button><button id = button_9 class = ""square num-button"" onclick = ""recordClick(this)""><div class = content><div class = numbers>Q</div></div></button><button id = button_10 class = ""square num-button"" onclick = ""recordClick(this)""><div class = content><div class = numbers>R</div></div></button><button id = button_11 class = ""square num-button"" onclick = ""recordClick(this)""><div class = content><div class = numbers>S</div></div></button><button id = button_12 class = ""square num-button"" onclick = ""recordClick(this)""><div class = content><div class = numbers>Y</div></div></button><button class = clear_button id = ""ClearButton"" onclick = ""clearResponse()"">BACKSPACE</button><button class = blank_button id = ""BlankButton"" onclick = ""blankResponse()"">SKIP</button><p style=""font-size: 2.4rem""><u><b>Current Answer:</b></u></p><br><br><div id=echoed_txt style=""font-size: 5rem; color:blue;""><b></b></div></div>",enter,ospan,retrieval,gxWqRPQpPVS18lDQvGs9QSaNDyO2,html-keyboard-response,156,818176,0.0-46.0-5.0-0.0-2.0,21,15,12,6.0,"[""H"",""R"",""N"",""K"",""Q"",""G""]","[""H"",""R"",""N"",""K"",""Q"",""G""]",1.0,6.0,,,,,,,64333e37b0fca53775bad01a,19:53:00,03/04/2024
1098.1000000238419,[''],0,ospan,feedback,gxWqRPQpPVS18lDQvGs9QSaNDyO2,html-button-response,157,819777,0.0-46.0-5.0-0.0-3.0,,,,,,,,,,,,100.0,0.0,,64333e37b0fca53775bad01a,19:53:00,03/04/2024
,"<p style=""font-size:75px;"">...</p>",,ospan,iti,gxWqRPQpPVS18lDQvGs9QSaNDyO2,html-keyboard-response,158,820788,0.0-46.0-5.0-1.0-0.0,,,,,,,,,,,,,,,64333e37b0fca53775bad01a,19:53:00,03/04/2024
1628.0,,,ospan,symmetry,gxWqRPQpPVS18lDQvGs9QSaNDyO2,symmetry-judgement-task,159,823549,0.0-46.0-5.0-1.0-1.0-0.0,,,,,,,,,,1.0,1.0,,,,64333e37b0fca53775bad01a,19:53:00,03/04/2024
,"<div style=""font-size: 10rem; color: #0000FF"">K</div>",,ospan,letter,gxWqRPQpPVS18lDQvGs9QSaNDyO2,html-keyboard-response,160,824561,0.0-46.0-5.0-1.0-1.0-1.0,,,,,,,,,,,,,,,64333e37b0fca53775bad01a,19:53:00,03/04/2024
2900.0,,,ospan,symmetry,gxWqRPQpPVS18lDQvGs9QSaNDyO2,symmetry-judgement-task,161,829339,0.0-46.0-5.0-1.0-1.0-2.0,,,,,,,,,,1.0,1.0,,,,64333e37b0fca53775bad01a,19:53:00,03/04/2024
,"<div style=""font-size: 10rem; color: #0000FF"">N</div>",,ospan,letter,gxWqRPQpPVS18lDQvGs9QSaNDyO2,html-keyboard-response,162,830345,0.0-46.0-5.0-1.0-1.0-3.0,,,,,,,,,,,,,,,64333e37b0fca53775bad01a,19:53:00,03/04/2024
1635.0,,,ospan,symmetry,gxWqRPQpPVS18lDQvGs9QSaNDyO2,symmetry-judgement-task,163,833861,0.0-46.0-5.0-1.0-1.0-4.0,,,,,,,,,,1.0,1.0,,,,64333e37b0fca53775bad01a,19:53:00,03/04/2024
,"<div style=""font-size: 10rem; color: #0000FF"">P</div>",,ospan,letter,gxWqRPQpPVS18lDQvGs9QSaNDyO2,html-keyboard-response,164,834862,0.0-46.0-5.0-1.0-1.0-5.0,,,,,,,,,,,,,,,64333e37b0fca53775bad01a,19:53:00,03/04/2024
986.0,,,ospan,symmetry,gxWqRPQpPVS18lDQvGs9QSaNDyO2,symmetry-judgement-task,165,837717,0.0-46.0-5.0-1.0-1.0-6.0,,,,,,,,,,1.0,1.0,,,,64333e37b0fca53775bad01a,19:53:00,03/04/2024
,"<div style=""font-size: 10rem; color: #0000FF"">J</div>",,ospan,letter,gxWqRPQpPVS18lDQvGs9QSaNDyO2,html-keyboard-response,166,838727,0.0-46.0-5.0-1.0-1.0-7.0,,,,,,,,,,,,,,,64333e37b0fca53775bad01a,19:53:00,03/04/2024
1276.0,,,ospan,symmetry,gxWqRPQpPVS18lDQvGs9QSaNDyO2,symmetry-judgement-task,167,841876,0.0-46.0-5.0-1.0-1.0-8.0,,,,,,,,,,1.0,1.0,,,,64333e37b0fca53775bad01a,19:53:00,03/04/2024
,"<div style=""font-size: 10rem; color: #0000FF"">R</div>",,ospan,letter,gxWqRPQpPVS18lDQvGs9QSaNDyO2,html-keyboard-response,168,842882,0.0-46.0-5.0-1.0-1.0-9.0,,,,,,,,,,,,,,,64333e37b0fca53775bad01a,19:53:00,03/04/2024
932.0,,,ospan,symmetry,gxWqRPQpPVS18lDQvGs9QSaNDyO2,symmetry-judgement-task,169,845688,0.0-46.0-5.0-1.0-1.0-10.0,,,,,,,,,,1.0,1.0,,,,64333e37b0fca53775bad01a,19:53:00,03/04/2024
,"<div style=""font-size: 10rem; color: #0000FF"">Q</div>",,ospan,letter,gxWqRPQpPVS18lDQvGs9QSaNDyO2,html-keyboard-response,170,846689,0.0-46.0-5.0-1.0-1.0-11.0,,,,,,,,,,,,,,,64333e37b0fca53775bad01a,19:53:00,03/04/2024
849.0,,,ospan,symmetry,gxWqRPQpPVS18lDQvGs9QSaNDyO2,symmetry-judgement-task,171,849418,0.0-46.0-5.0-1.0-1.0-12.0,,,,,,,,,,1.0,1.0,,,,64333e37b0fca53775bad01a,19:53:00,03/04/2024
,"<div style=""font-size: 10rem; color: #0000FF"">Y</div>",,ospan,letter,gxWqRPQpPVS18lDQvGs9QSaNDyO2,html-keyboard-response,172,850421,0.0-46.0-5.0-1.0-1.0-13.0,,,,,,,,,,,,,,,64333e37b0fca53775bad01a,19:53:00,03/04/2024
11643.899999976158,"<div class = numbox><p style=""font-size: 2.4rem"">Please recall the letters you saw to the best of your ability. If you do not remember a particular letter, use the SKIP button.<br><b>(When you are ready to lock in your answer, press ENTER)</b></p><button id = button_1 class = ""square num-button"" onclick = ""recordClick(this)""><div class = content><div class = numbers>C</div></div></button><button id = button_2 class = ""square num-button"" onclick = ""recordClick(this)""><div class = content><div class = numbers>G</div></div></button><button id = button_3 class = ""square num-button"" onclick = ""recordClick(this)""><div class = content><div class = numbers>H</div></div></button><button id = button_4 class = ""square num-button"" onclick = ""recordClick(this)""><div class = content><div class = numbers>J</div></div></button><button id = button_5 class = ""square num-button"" onclick = ""recordClick(this)""><div class = content><div class = numbers>K</div></div></button><button id = button_6 class = ""square num-button"" onclick = ""recordClick(this)""><div class = content><div class = numbers>L</div></div></button><button id = button_7 class = ""square num-button"" onclick = ""recordClick(this)""><div class = content><div class = numbers>N</div></div></button><button id = button_8 class = ""square num-button"" onclick = ""recordClick(this)""><div class = content><div class = numbers>P</div></div></button><button id = button_9 class = ""square num-button"" onclick = ""recordClick(this)""><div class = content><div class = numbers>Q</div></div></button><button id = button_10 class = ""square num-button"" onclick = ""recordClick(this)""><div class = content><div class = numbers>R</div></div></button><button id = button_11 class = ""square num-button"" onclick = ""recordClick(this)""><div class = content><div class = numbers>S</div></div></button><button id = button_12 class = ""square num-button"" onclick = ""recordClick(this)""><div class = content><div class = numbers>Y</div></div></button><button class = clear_button id = ""ClearButton"" onclick = ""clearResponse()"">BACKSPACE</button><button class = blank_button id = ""BlankButton"" onclick = ""blankResponse()"">SKIP</button><p style=""font-size: 2.4rem""><u><b>Current Answer:</b></u></p><br><br><div id=echoed_txt style=""font-size: 5rem; color:blue;""><b></b></div></div>",enter,ospan,retrieval,gxWqRPQpPVS18lDQvGs9QSaNDyO2,html-keyboard-response,173,862829,0.0-46.0-5.0-1.0-2.0,28,15,12,7.0,"[""H"",""R"",""N"",""P"",""Q"",""K"",""S""]","[""K"",""N"",""P"",""J"",""R"",""Q"",""Y""]",0.0,0.0,,,,,,,64333e37b0fca53775bad01a,19:53:00,03/04/2024
1029.199999988079,[''],0,ospan,feedback,gxWqRPQpPVS18lDQvGs9QSaNDyO2,html-button-response,174,864362,0.0-46.0-5.0-1.0-3.0,,,,,,,,,,,,100.0,0.0,,64333e37b0fca53775bad01a,19:53:00,03/04/2024
,"<p style=""font-size:75px;"">...</p>",,ospan,iti,gxWqRPQpPVS18lDQvGs9QSaNDyO2,html-keyboard-response,175,865377,0.0-46.0-6.0-0.0-0.0,,,,,,,,,,,,,,,64333e37b0fca53775bad01a,19:53:00,03/04/2024
2273.0,,,ospan,symmetry,gxWqRPQpPVS18lDQvGs9QSaNDyO2,symmetry-judgement-task,176,868689,0.0-46.0-6.0-0.0-1.0-0.0,,,,,,,,,,1.0,1.0,,,,64333e37b0fca53775bad01a,19:53:00,03/04/2024
,"<div style=""font-size: 10rem; color: #0000FF"">G</div>",,ospan,letter,gxWqRPQpPVS18lDQvGs9QSaNDyO2,html-keyboard-response,177,869693,0.0-46.0-6.0-0.0-1.0-1.0,,,,,,,,,,,,,,,64333e37b0fca53775bad01a,19:53:00,03/04/2024
1189.0,,,ospan,symmetry,gxWqRPQpPVS18lDQvGs9QSaNDyO2,symmetry-judgement-task,178,872756,0.0-46.0-6.0-0.0-1.0-2.0,,,,,,,,,,1.0,1.0,,,,64333e37b0fca53775bad01a,19:53:00,03/04/2024
,"<div style=""font-size: 10rem; color: #0000FF"">L</div>",,ospan,letter,gxWqRPQpPVS18lDQvGs9QSaNDyO2,html-keyboard-response,179,873770,0.0-46.0-6.0-0.0-1.0-3.0,,,,,,,,,,,,,,,64333e37b0fca53775bad01a,19:53:00,03/04/2024
1231.0,,,ospan,symmetry,gxWqRPQpPVS18lDQvGs9QSaNDyO2,symmetry-judgement-task,180,876957,0.0-46.0-6.0-0.0-1.0-4.0,,,,,,,,,,1.0,1.0,,,,64333e37b0fca53775bad01a,19:53:00,03/04/2024
,"<div style=""font-size: 10rem; color: #0000FF"">N</div>",,ospan,letter,gxWqRPQpPVS18lDQvGs9QSaNDyO2,html-keyboard-response,181,877960,0.0-46.0-6.0-0.0-1.0-5.0,,,,,,,,,,,,,,,64333e37b0fca53775bad01a,19:53:00,03/04/2024
1011.0,,,ospan,symmetry,gxWqRPQpPVS18lDQvGs9QSaNDyO2,symmetry-judgement-task,182,880844,0.0-46.0-6.0-0.0-1.0-6.0,,,,,,,,,,1.0,1.0,,,,64333e37b0fca53775bad01a,19:53:00,03/04/2024
,"<div style=""font-size: 10rem; color: #0000FF"">Y</div>",,ospan,letter,gxWqRPQpPVS18lDQvGs9QSaNDyO2,html-keyboard-response,183,881849,0.0-46.0-6.0-0.0-1.0-7.0,,,,,,,,,,,,,,,64333e37b0fca53775bad01a,19:53:00,03/04/2024
929.0,,,ospan,symmetry,gxWqRPQpPVS18lDQvGs9QSaNDyO2,symmetry-judgement-task,184,884662,0.0-46.0-6.0-0.0-1.0-8.0,,,,,,,,,,1.0,1.0,,,,64333e37b0fca53775bad01a,19:53:00,03/04/2024
,"<div style=""font-size: 10rem; color: #0000FF"">K</div>",,ospan,letter,gxWqRPQpPVS18lDQvGs9QSaNDyO2,html-keyboard-response,185,885665,0.0-46.0-6.0-0.0-1.0-9.0,,,,,,,,,,,,,,,64333e37b0fca53775bad01a,19:53:00,03/04/2024
7698.199999988079,"<div class = numbox><p style=""font-size: 2.4rem"">Please recall the letters you saw to the best of your ability. If you do not remember a particular letter, use the SKIP button.<br><b>(When you are ready to lock in your answer, press ENTER)</b></p><button id = button_1 class = ""square num-button"" onclick = ""recordClick(this)""><div class = content><div class = numbers>C</div></div></button><button id = button_2 class = ""square num-button"" onclick = ""recordClick(this)""><div class = content><div class = numbers>G</div></div></button><button id = button_3 class = ""square num-button"" onclick = ""recordClick(this)""><div class = content><div class = numbers>H</div></div></button><button id = button_4 class = ""square num-button"" onclick = ""recordClick(this)""><div class = content><div class = numbers>J</div></div></button><button id = button_5 class = ""square num-button"" onclick = ""recordClick(this)""><div class = content><div class = numbers>K</div></div></button><button id = button_6 class = ""square num-button"" onclick = ""recordClick(this)""><div class = content><div class = numbers>L</div></div></button><button id = button_7 class = ""square num-button"" onclick = ""recordClick(this)""><div class = content><div class = numbers>N</div></div></button><button id = button_8 class = ""square num-button"" onclick = ""recordClick(this)""><div class = content><div class = numbers>P</div></div></button><button id = button_9 class = ""square num-button"" onclick = ""recordClick(this)""><div class = content><div class = numbers>Q</div></div></button><button id = button_10 class = ""square num-button"" onclick = ""recordClick(this)""><div class = content><div class = numbers>R</div></div></button><button id = button_11 class = ""square num-button"" onclick = ""recordClick(this)""><div class = content><div class = numbers>S</div></div></button><button id = button_12 class = ""square num-button"" onclick = ""recordClick(this)""><div class = content><div class = numbers>Y</div></div></button><button class = clear_button id = ""ClearButton"" onclick = ""clearResponse()"">BACKSPACE</button><button class = blank_button id = ""BlankButton"" onclick = ""blankResponse()"">SKIP</button><p style=""font-size: 2.4rem""><u><b>Current Answer:</b></u></p><br><br><div id=echoed_txt style=""font-size: 5rem; color:blue;""><b></b></div></div>",enter,ospan,retrieval,gxWqRPQpPVS18lDQvGs9QSaNDyO2,html-keyboard-response,186,894121,0.0-46.0-6.0-0.0-2.0,33,20,17,5.0,"[""G"",""L"",""N"",""Y"",""K""]","[""G"",""L"",""N"",""Y"",""K""]",1.0,5.0,,,,,,,64333e37b0fca53775bad01a,19:53:00,03/04/2024
1020.3999999761581,[''],0,ospan,feedback,gxWqRPQpPVS18lDQvGs9QSaNDyO2,html-button-response,187,895658,0.0-46.0-6.0-0.0-3.0,,,,,,,,,,,,100.0,0.0,,64333e37b0fca53775bad01a,19:53:00,03/04/2024
,"<p style=""font-size:75px;"">...</p>",,ospan,iti,gxWqRPQpPVS18lDQvGs9QSaNDyO2,html-keyboard-response,188,896674,0.0-46.0-6.0-1.0-0.0,,,,,,,,,,,,,,,64333e37b0fca53775bad01a,19:53:00,03/04/2024
1513.0,,,ospan,symmetry,gxWqRPQpPVS18lDQvGs9QSaNDyO2,symmetry-judgement-task,189,899309,0.0-46.0-6.0-1.0-1.0-0.0,,,,,,,,,,1.0,1.0,,,,64333e37b0fca53775bad01a,19:53:00,03/04/2024
,"<div style=""font-size: 10rem; color: #0000FF"">J</div>",,ospan,letter,gxWqRPQpPVS18lDQvGs9QSaNDyO2,html-keyboard-response,190,900314,0.0-46.0-6.0-1.0-1.0-1.0,,,,,,,,,,,,,,,64333e37b0fca53775bad01a,19:53:00,03/04/2024
1332.0,,,ospan,symmetry,gxWqRPQpPVS18lDQvGs9QSaNDyO2,symmetry-judgement-task,191,903524,0.0-46.0-6.0-1.0-1.0-2.0,,,,,,,,,,1.0,1.0,,,,64333e37b0fca53775bad01a,19:53:00,03/04/2024
,"<div style=""font-size: 10rem; color: #0000FF"">S</div>",,ospan,letter,gxWqRPQpPVS18lDQvGs9QSaNDyO2,html-keyboard-response,192,904532,0.0-46.0-6.0-1.0-1.0-3.0,,,,,,,,,,,,,,,64333e37b0fca53775bad01a,19:53:00,03/04/2024
1068.0,,,ospan,symmetry,gxWqRPQpPVS18lDQvGs9QSaNDyO2,symmetry-judgement-task,193,907475,0.0-46.0-6.0-1.0-1.0-4.0,,,,,,,,,,1.0,1.0,,,,64333e37b0fca53775bad01a,19:53:00,03/04/2024
,"<div style=""font-size: 10rem; color: #0000FF"">K</div>",,ospan,letter,gxWqRPQpPVS18lDQvGs9QSaNDyO2,html-keyboard-response,194,908482,0.0-46.0-6.0-1.0-1.0-5.0,,,,,,,,,,,,,,,64333e37b0fca53775bad01a,19:53:00,03/04/2024
969.0,,,ospan,symmetry,gxWqRPQpPVS18lDQvGs9QSaNDyO2,symmetry-judgement-task,195,911336,0.0-46.0-6.0-1.0-1.0-6.0,,,,,,,,,,1.0,1.0,,,,64333e37b0fca53775bad01a,19:53:00,03/04/2024
,"<div style=""font-size: 10rem; color: #0000FF"">L</div>",,ospan,letter,gxWqRPQpPVS18lDQvGs9QSaNDyO2,html-keyboard-response,196,912346,0.0-46.0-6.0-1.0-1.0-7.0,,,,,,,,,,,,,,,64333e37b0fca53775bad01a,19:53:00,03/04/2024
881.0,,,ospan,symmetry,gxWqRPQpPVS18lDQvGs9QSaNDyO2,symmetry-judgement-task,197,915108,0.0-46.0-6.0-1.0-1.0-8.0,,,,,,,,,,1.0,1.0,,,,64333e37b0fca53775bad01a,19:53:00,03/04/2024
,"<div style=""font-size: 10rem; color: #0000FF"">Q</div>",,ospan,letter,gxWqRPQpPVS18lDQvGs9QSaNDyO2,html-keyboard-response,198,916118,0.0-46.0-6.0-1.0-1.0-9.0,,,,,,,,,,,,,,,64333e37b0fca53775bad01a,19:53:00,03/04/2024
1086.0,,,ospan,symmetry,gxWqRPQpPVS18lDQvGs9QSaNDyO2,symmetry-judgement-task,199,919066,0.0-46.0-6.0-1.0-1.0-10.0,,,,,,,,,,1.0,1.0,,,,64333e37b0fca53775bad01a,19:53:00,03/04/2024
,"<div style=""font-size: 10rem; color: #0000FF"">N</div>",,ospan,letter,gxWqRPQpPVS18lDQvGs9QSaNDyO2,html-keyboard-response,200,920073,0.0-46.0-6.0-1.0-1.0-11.0,,,,,,,,,,,,,,,64333e37b0fca53775bad01a,19:53:00,03/04/2024
905.0,,,ospan,symmetry,gxWqRPQpPVS18lDQvGs9QSaNDyO2,symmetry-judgement-task,201,922842,0.0-46.0-6.0-1.0-1.0-12.0,,,,,,,,,,1.0,1.0,,,,64333e37b0fca53775bad01a,19:53:00,03/04/2024
,"<div style=""font-size: 10rem; color: #0000FF"">P</div>",,ospan,letter,gxWqRPQpPVS18lDQvGs9QSaNDyO2,html-keyboard-response,202,923852,0.0-46.0-6.0-1.0-1.0-13.0,,,,,,,,,,,,,,,64333e37b0fca53775bad01a,19:53:00,03/04/2024
1258.0,,,ospan,symmetry,gxWqRPQpPVS18lDQvGs9QSaNDyO2,symmetry-judgement-task,203,926989,0.0-46.0-6.0-1.0-1.0-14.0,,,,,,,,,,1.0,1.0,,,,64333e37b0fca53775bad01a,19:53:00,03/04/2024
,"<div style=""font-size: 10rem; color: #0000FF"">G</div>",,ospan,letter,gxWqRPQpPVS18lDQvGs9QSaNDyO2,html-keyboard-response,204,927997,0.0-46.0-6.0-1.0-1.0-15.0,,,,,,,,,,,,,,,64333e37b0fca53775bad01a,19:53:00,03/04/2024
8885.300000011921,"<div class = numbox><p style=""font-size: 2.4rem"">Please recall the letters you saw to the best of your ability. If you do not remember a particular letter, use the SKIP button.<br><b>(When you are ready to lock in your answer, press ENTER)</b></p><button id = button_1 class = ""square num-button"" onclick = ""recordClick(this)""><div class = content><div class = numbers>C</div></div></button><button id = button_2 class = ""square num-button"" onclick = ""recordClick(this)""><div class = content><div class = numbers>G</div></div></button><button id = button_3 class = ""square num-button"" onclick = ""recordClick(this)""><div class = content><div class = numbers>H</div></div></button><button id = button_4 class = ""square num-button"" onclick = ""recordClick(this)""><div class = content><div class = numbers>J</div></div></button><button id = button_5 class = ""square num-button"" onclick = ""recordClick(this)""><div class = content><div class = numbers>K</div></div></button><button id = button_6 class = ""square num-button"" onclick = ""recordClick(this)""><div class = content><div class = numbers>L</div></div></button><button id = button_7 class = ""square num-button"" onclick = ""recordClick(this)""><div class = content><div class = numbers>N</div></div></button><button id = button_8 class = ""square num-button"" onclick = ""recordClick(this)""><div class = content><div class = numbers>P</div></div></button><button id = button_9 class = ""square num-button"" onclick = ""recordClick(this)""><div class = content><div class = numbers>Q</div></div></button><button id = button_10 class = ""square num-button"" onclick = ""recordClick(this)""><div class = content><div class = numbers>R</div></div></button><button id = button_11 class = ""square num-button"" onclick = ""recordClick(this)""><div class = content><div class = numbers>S</div></div></button><button id = button_12 class = ""square num-button"" onclick = ""recordClick(this)""><div class = content><div class = numbers>Y</div></div></button><button class = clear_button id = ""ClearButton"" onclick = ""clearResponse()"">BACKSPACE</button><button class = blank_button id = ""BlankButton"" onclick = ""blankResponse()"">SKIP</button><p style=""font-size: 2.4rem""><u><b>Current Answer:</b></u></p><br><br><div id=echoed_txt style=""font-size: 5rem; color:blue;""><b></b></div></div>",enter,ospan,retrieval,gxWqRPQpPVS18lDQvGs9QSaNDyO2,html-keyboard-response,205,937641,0.0-46.0-6.0-1.0-2.0,41,22,17,8.0,"[""J"",""L"",""S"",""K"",""N"",""Q"",""P""]","[""J"",""S"",""K"",""L"",""Q"",""N"",""P"",""G""]",0.0,2.0,,,,,,,64333e37b0fca53775bad01a,19:53:00,03/04/2024
847.1000000238419,[''],0,ospan,feedback,gxWqRPQpPVS18lDQvGs9QSaNDyO2,html-button-response,206,939001,0.0-46.0-6.0-1.0-3.0,,,,,,,,,,,,100.0,0.0,,64333e37b0fca53775bad01a,19:53:00,03/04/2024
57494.799999952316,,"{'Q0': 'The task was laid out clearly. Apart from having to remember letters without vowels inbetween making it slightly overwhelming, it was fine.'}",ospan,survey_ospan,gxWqRPQpPVS18lDQvGs9QSaNDyO2,lmdlab-survey-text,207,997253,0.0-46.0-7.0,,,,,,,,,,,,,,gxWqRPQpPVS18lDQvGs9QSaNDyO2,64333e37b0fca53775bad01a,19:53:00,03/04/2024
1405.699999988079,<p><p style='font-size: 3rem'>Great work!<br><br>This completes the symmetry and memory task.</p><br><br><br>,0,ospan,finish,gxWqRPQpPVS18lDQvGs9QSaNDyO2,html-button-response,208,998662,0.0-46.0-8.0,41,22,17,,,,,,,,,100.0,,,64333e37b0fca53775bad01a,19:53:00,03/04/2024
