rt,stimulus,response,exp_name,exp_stage,subjectID,trial_type,trial_index,time_elapsed,internal_node_id,ospan_shown,ospan_total,ospan_abs,length,resp_actual,resp_correct,full_correct,num_correct,feedback,accuracy,correct,math_acc,math_warning,databaseID,prolificID,start_time,date
1763.3000000715256,<div class = 'left_align' style='font-size: 3.25rem; line-height: 1.3;'><p class = 'center_align'><b>Welcome to the Symmetry and Memory Task</b><br><br><br><br></p>Press 'continue' to show the instructions.<br><br><br><br></div>,0,ospan,instruct,kvJCOI7QKxdUto7M9yMs4keWWYd2,html-button-response,51,427230,0.0-43.0-0.0-0.0-0.0,,,,,,,,,,,,,,,60ec1dd7eaa54649ce2bdd3f,13:52:07,05/03/2024
14276.0,"<div class = 'left_align' style='font-size: 3.25rem; line-height: 1.3;'><p class = 'center_align'><b>Symmetry and Memory Task</b><br><br></p>In this task, you will try to memorize letters you see on the screen<br>while you also view black and white grid pictures.<br><br>In the next few minutes, you will have some practice to get you familiar<br>with how the task works.<br><br>It may be difficult sometimes, but please do not worry about making mistakes!<br><br>We will begin by practicing the letter part of the task.<br><br><br><br></div>",0,ospan,instruct,kvJCOI7QKxdUto7M9yMs4keWWYd2,html-button-response,52,441774,0.0-43.0-0.0-0.0-1.0,,,,,,,,,,,,,,,60ec1dd7eaa54649ce2bdd3f,13:52:07,05/03/2024
6265.5,"<div class = 'left_align' style='font-size: 3.25rem; line-height: 1.3;'>For this practice part, letters will appear on the screen one at a time.<br><br>Try to remember each letter in the order presented.<br><br>After some letters have been shown, you will see a response screen. Your<br>goal is to report the letters you saw <b>in order</b>. If you do not remember<br>a particular letter, you will have the option to leave it blank.<br><br><br><br></div>",0,ospan,instruct,kvJCOI7QKxdUto7M9yMs4keWWYd2,html-button-response,53,448295,0.0-43.0-0.0-0.0-2.0,,,,,,,,,,,,,,,60ec1dd7eaa54649ce2bdd3f,13:52:07,05/03/2024
2561.2999999523163,"<div class = 'left_align' style='font-size: 3.25rem; line-height: 1.3;'>Remember, it is very important to get the letters in the same<br>order as you see them.<br><br>When you are ready, you may begin the letter practice.</div><br><br><br><br>",0,ospan,instruct,kvJCOI7QKxdUto7M9yMs4keWWYd2,html-button-response,54,451117,0.0-43.0-0.0-0.0-3.0,,,,,,,,,,,,,,,60ec1dd7eaa54649ce2bdd3f,13:52:07,05/03/2024
,"<p style=""font-size:75px;"">...</p>",,ospan,iti,kvJCOI7QKxdUto7M9yMs4keWWYd2,html-keyboard-response,55,452390,0.0-43.0-0.0-1.0-0.0,,,,,,,,,,,,,,,60ec1dd7eaa54649ce2bdd3f,13:52:07,05/03/2024
,"<div style=""font-size: 10rem; color: #0000FF"">N</div>",,ospan,letter,kvJCOI7QKxdUto7M9yMs4keWWYd2,html-keyboard-response,56,453399,0.0-43.0-0.0-1.0-1.0,,,,,,,,,,,,,,,60ec1dd7eaa54649ce2bdd3f,13:52:07,05/03/2024
,"<div style=""font-size: 10rem; color: #0000FF"">L</div>",,ospan,letter,kvJCOI7QKxdUto7M9yMs4keWWYd2,html-keyboard-response,57,455177,0.0-43.0-0.0-1.0-2.0,,,,,,,,,,,,,,,60ec1dd7eaa54649ce2bdd3f,13:52:07,05/03/2024
6995.5,"<div class = numbox><p style=""font-size: 2.4rem"">Please recall the letters you saw to the best of your ability. If you do not remember a particular letter, use the SKIP button.<br><b>(When you are ready to lock in your answer, press ENTER)</b></p><button id = button_1 class = ""square num-button"" onclick = ""recordClick(this)""><div class = content><div class = numbers>C</div></div></button><button id = button_2 class = ""square num-button"" onclick = ""recordClick(this)""><div class = content><div class = numbers>G</div></div></button><button id = button_3 class = ""square num-button"" onclick = ""recordClick(this)""><div class = content><div class = numbers>H</div></div></button><button id = button_4 class = ""square num-button"" onclick = ""recordClick(this)""><div class = content><div class = numbers>J</div></div></button><button id = button_5 class = ""square num-button"" onclick = ""recordClick(this)""><div class = content><div class = numbers>K</div></div></button><button id = button_6 class = ""square num-button"" onclick = ""recordClick(this)""><div class = content><div class = numbers>L</div></div></button><button id = button_7 class = ""square num-button"" onclick = ""recordClick(this)""><div class = content><div class = numbers>N</div></div></button><button id = button_8 class = ""square num-button"" onclick = ""recordClick(this)""><div class = content><div class = numbers>P</div></div></button><button id = button_9 class = ""square num-button"" onclick = ""recordClick(this)""><div class = content><div class = numbers>Q</div></div></button><button id = button_10 class = ""square num-button"" onclick = ""recordClick(this)""><div class = content><div class = numbers>R</div></div></button><button id = button_11 class = ""square num-button"" onclick = ""recordClick(this)""><div class = content><div class = numbers>S</div></div></button><button id = button_12 class = ""square num-button"" onclick = ""recordClick(this)""><div class = content><div class = numbers>Y</div></div></button><button class = clear_button id = ""ClearButton"" onclick = ""clearResponse()"">BACKSPACE</button><button class = blank_button id = ""BlankButton"" onclick = ""blankResponse()"">SKIP</button><p style=""font-size: 2.4rem""><u><b>Current Answer:</b></u></p><br><br><div id=echoed_txt style=""font-size: 5rem; color:blue;""><b></b></div></div>",enter,ospan,retrieval,kvJCOI7QKxdUto7M9yMs4keWWYd2,html-keyboard-response,58,462939,0.0-43.0-0.0-1.0-3.0,NA,NA,NA,2.0,"[""N"",""L""]","[""N"",""L""]",1.0,2.0,"['<font color=""green"">N</font>', '<font color=""green"">L</font>']",,,,,,60ec1dd7eaa54649ce2bdd3f,13:52:07,05/03/2024
1346.1999999284744,"['<p style=""font-size:44px"">Letters:<br><br><br><font color=""green"">N</font> <font color=""green"">L</font></p><br><br>']",0,ospan,practice_feedback,kvJCOI7QKxdUto7M9yMs4keWWYd2,html-button-response,59,464805,0.0-43.0-0.0-1.0-4.0,,,,,,,,,,,,,,,60ec1dd7eaa54649ce2bdd3f,13:52:07,05/03/2024
,"<p style=""font-size:75px;"">...</p>",,ospan,iti,kvJCOI7QKxdUto7M9yMs4keWWYd2,html-keyboard-response,60,465816,0.0-43.0-0.0-2.0-0.0,,,,,,,,,,,,,,,60ec1dd7eaa54649ce2bdd3f,13:52:07,05/03/2024
,"<div style=""font-size: 10rem; color: #0000FF"">L</div>",,ospan,letter,kvJCOI7QKxdUto7M9yMs4keWWYd2,html-keyboard-response,61,466834,0.0-43.0-0.0-2.0-1.0,,,,,,,,,,,,,,,60ec1dd7eaa54649ce2bdd3f,13:52:07,05/03/2024
,"<div style=""font-size: 10rem; color: #0000FF"">H</div>",,ospan,letter,kvJCOI7QKxdUto7M9yMs4keWWYd2,html-keyboard-response,62,468605,0.0-43.0-0.0-2.0-2.0,,,,,,,,,,,,,,,60ec1dd7eaa54649ce2bdd3f,13:52:07,05/03/2024
,"<div style=""font-size: 10rem; color: #0000FF"">C</div>",,ospan,letter,kvJCOI7QKxdUto7M9yMs4keWWYd2,html-keyboard-response,63,470376,0.0-43.0-0.0-2.0-3.0,,,,,,,,,,,,,,,60ec1dd7eaa54649ce2bdd3f,13:52:07,05/03/2024
3913.399999976158,"<div class = numbox><p style=""font-size: 2.4rem"">Please recall the letters you saw to the best of your ability. If you do not remember a particular letter, use the SKIP button.<br><b>(When you are ready to lock in your answer, press ENTER)</b></p><button id = button_1 class = ""square num-button"" onclick = ""recordClick(this)""><div class = content><div class = numbers>C</div></div></button><button id = button_2 class = ""square num-button"" onclick = ""recordClick(this)""><div class = content><div class = numbers>G</div></div></button><button id = button_3 class = ""square num-button"" onclick = ""recordClick(this)""><div class = content><div class = numbers>H</div></div></button><button id = button_4 class = ""square num-button"" onclick = ""recordClick(this)""><div class = content><div class = numbers>J</div></div></button><button id = button_5 class = ""square num-button"" onclick = ""recordClick(this)""><div class = content><div class = numbers>K</div></div></button><button id = button_6 class = ""square num-button"" onclick = ""recordClick(this)""><div class = content><div class = numbers>L</div></div></button><button id = button_7 class = ""square num-button"" onclick = ""recordClick(this)""><div class = content><div class = numbers>N</div></div></button><button id = button_8 class = ""square num-button"" onclick = ""recordClick(this)""><div class = content><div class = numbers>P</div></div></button><button id = button_9 class = ""square num-button"" onclick = ""recordClick(this)""><div class = content><div class = numbers>Q</div></div></button><button id = button_10 class = ""square num-button"" onclick = ""recordClick(this)""><div class = content><div class = numbers>R</div></div></button><button id = button_11 class = ""square num-button"" onclick = ""recordClick(this)""><div class = content><div class = numbers>S</div></div></button><button id = button_12 class = ""square num-button"" onclick = ""recordClick(this)""><div class = content><div class = numbers>Y</div></div></button><button class = clear_button id = ""ClearButton"" onclick = ""clearResponse()"">BACKSPACE</button><button class = blank_button id = ""BlankButton"" onclick = ""blankResponse()"">SKIP</button><p style=""font-size: 2.4rem""><u><b>Current Answer:</b></u></p><br><br><div id=echoed_txt style=""font-size: 5rem; color:blue;""><b></b></div></div>",enter,ospan,retrieval,kvJCOI7QKxdUto7M9yMs4keWWYd2,html-keyboard-response,64,475051,0.0-43.0-0.0-2.0-4.0,NA,NA,NA,3.0,"[""L"",""H"",""C""]","[""L"",""H"",""C""]",1.0,3.0,"['<font color=""green"">L</font>', '<font color=""green"">H</font>', '<font color=""green"">C</font>']",,,,,,60ec1dd7eaa54649ce2bdd3f,13:52:07,05/03/2024
1393.0,"['<p style=""font-size:44px"">Letters:<br><br><br><font color=""green"">L</font> <font color=""green"">H</font> <font color=""green"">C</font></p><br><br>']",0,ospan,practice_feedback,kvJCOI7QKxdUto7M9yMs4keWWYd2,html-button-response,65,476951,0.0-43.0-0.0-2.0-5.0,,,,,,,,,,,,,,,60ec1dd7eaa54649ce2bdd3f,13:52:07,05/03/2024
14685.200000047684,"<div class = 'left_align' style='font-size: 3.25rem; line-height: 1.3;'>Now you will practice doing the <b>symmetry judgment part</b> of the experiment.<br><br>A black and white grid picture will appear on the screen and you have to judge if it is <br>symmetrical or asymetrical.<br><br>A picture is 'mirror' symmetrical if its left half is identical to the right half when flipped.<br>Here are examples of a symmetrical and an asymetrical picture:<br><br><center><img src='Stimuli/img/symm_instructions_extra.png' style='height:420px; width:900'></img></center><br>To judge symmetry, imagine you were to fold each picture down the middle, like a book –<br>would the left half match the right half when folded onto each other?<br><br></div><br>",0,ospan,instruct,kvJCOI7QKxdUto7M9yMs4keWWYd2,html-button-response,66,491639,0.0-43.0-1.0-0.0-0.0,,,,,,,,,,,,,,,60ec1dd7eaa54649ce2bdd3f,13:52:07,05/03/2024
5053.0,"<div class = 'left_align' style='font-size: 3.25rem; line-height: 1.3;'>When you have viewed the picture and determined whether it is symmetrical or not,<br>you can <b>click the Yes or No button</b> below to answer.<br><br>If you take longer than 15 seconds, it will continue automatically<br>and record the answer as an error.</div><br>",0,ospan,instruct,kvJCOI7QKxdUto7M9yMs4keWWYd2,html-button-response,67,496961,0.0-43.0-1.0-0.0-1.0,,,,,,,,,,,,,,,60ec1dd7eaa54649ce2bdd3f,13:52:07,05/03/2024
4001.600000023842,"<div class = 'left_align' style='font-size: 3.25rem; line-height: 1.3;'>It is <b>very</b> important that you make the symmetry judgment correctly.<br><br>It is also important that you try and judge the picture as quickly as you can.<br><br>When you are ready, click on the button below to try some practice problems.</div><br><br><br><br>",0,ospan,instruct,kvJCOI7QKxdUto7M9yMs4keWWYd2,html-button-response,68,501225,0.0-43.0-1.0-0.0-2.0,,,,,,,,,,,,,,,60ec1dd7eaa54649ce2bdd3f,13:52:07,05/03/2024
2534.0,,,ospan,symmetry,kvJCOI7QKxdUto7M9yMs4keWWYd2,symmetry-judgement-task,69,504613,0.0-43.0-1.0-1.0-0.0,,,,,,,,,,1.0,1.0,,,,60ec1dd7eaa54649ce2bdd3f,13:52:07,05/03/2024
,"<p style=""color:green; font-size: 35px"">Correct</p>",,ospan,feedback,kvJCOI7QKxdUto7M9yMs4keWWYd2,html-keyboard-response,70,505373,0.0-43.0-1.0-1.0-1.0,,,,,,,,,,,,,,,60ec1dd7eaa54649ce2bdd3f,13:52:07,05/03/2024
1586.0,,,ospan,symmetry,kvJCOI7QKxdUto7M9yMs4keWWYd2,symmetry-judgement-task,71,509733,0.0-43.0-1.0-1.0-2.0,,,,,,,,,,1.0,1.0,,,,60ec1dd7eaa54649ce2bdd3f,13:52:07,05/03/2024
,"<p style=""color:green; font-size: 35px"">Correct</p>",,ospan,feedback,kvJCOI7QKxdUto7M9yMs4keWWYd2,html-keyboard-response,72,510501,0.0-43.0-1.0-1.0-3.0,,,,,,,,,,,,,,,60ec1dd7eaa54649ce2bdd3f,13:52:07,05/03/2024
2945.0,,,ospan,symmetry,kvJCOI7QKxdUto7M9yMs4keWWYd2,symmetry-judgement-task,73,516015,0.0-43.0-1.0-1.0-4.0,,,,,,,,,,1.0,1.0,,,,60ec1dd7eaa54649ce2bdd3f,13:52:07,05/03/2024
,"<p style=""color:green; font-size: 35px"">Correct</p>",,ospan,feedback,kvJCOI7QKxdUto7M9yMs4keWWYd2,html-keyboard-response,74,516779,0.0-43.0-1.0-1.0-5.0,,,,,,,,,,,,,,,60ec1dd7eaa54649ce2bdd3f,13:52:07,05/03/2024
2650.100000023842,"<p style=""font-size: 3rem;"">You responded correctly on 3 of 3 symmetry judgments. Good job!</p><br><br>",0,ospan,practice,kvJCOI7QKxdUto7M9yMs4keWWYd2,html-button-response,75,521433,0.0-43.0-1.0-2.0,,,,,,,,,,,,,,,60ec1dd7eaa54649ce2bdd3f,13:52:07,05/03/2024
10426.099999904633,"<div class = 'left_align' style='font-size: 3.25rem; line-height: 1.3;'>Now you will practice doing both parts of the experiment at the same time.<br><br>In the next practice set, you will be given one grid picture to judge.<br>Then letter will appear on the screen. Try to remember the letter.<br><br>It is <b>very important</b> to make the symmetry judgment as quickly and accurately as possible.<br><br>Just as before, once you have make the symmetry judgment, you can click Yes or No.<br><b>Note that you will no longer see Correct or Incorrect feedback.</div><br><br><br><br>",0,ospan,instruct,kvJCOI7QKxdUto7M9yMs4keWWYd2,html-button-response,76,532122,0.0-43.0-2.0-0.0-0.0,,,,,,,,,,,,,,,60ec1dd7eaa54649ce2bdd3f,13:52:07,05/03/2024
4483.400000095367,"<div class = 'left_align' style='font-size: 3.25rem; line-height: 1.3;'>After the letter goes away, another grid picture will appear, and then<br>another letter.<br><br>At the end of each set of letters and grids, you will recall the letters to the best<br>of your ability. Remember, try your best to get the letters in the correct order.<br><br>It is important to <b>quickly</b> and <b>accurately</b> make the symmetry judgments.</div><br><br><br><br>",0,ospan,instruct,kvJCOI7QKxdUto7M9yMs4keWWYd2,html-button-response,77,536861,0.0-43.0-2.0-0.0-1.0,,,,,,,,,,,,,,,60ec1dd7eaa54649ce2bdd3f,13:52:07,05/03/2024
5938.699999928474,"<div class = 'left_align' style='font-size: 3.25rem; line-height: 1.3;'>On the feedback screen, if you are not doing well at the symmetry judgments,<br>you will also see a warning in the middle. This indicates your percent <br>correct for the grid pictures for the entire experiment.<br><br>It is <b>very</b> important for you to keep accuracy at least at 85%: <u>We can only use<br>data where the participant was at least 85% accurate on the judgments.</u> Therefore,<br> please try your best to perform well on the symmetry judgments, <b>at the same time</b><br>doing your best to recall as many letters as possible.<br><br>Click the button to try some practice problems.</div><br><br><br><br>",0,ospan,instruct,kvJCOI7QKxdUto7M9yMs4keWWYd2,html-button-response,78,543064,0.0-43.0-2.0-0.0-2.0,,,,,,,,,,,,,,,60ec1dd7eaa54649ce2bdd3f,13:52:07,05/03/2024
,"<p style=""font-size:75px;"">...</p>",,ospan,iti,kvJCOI7QKxdUto7M9yMs4keWWYd2,html-keyboard-response,79,544345,0.0-43.0-2.0-1.0-0.0,,,,,,,,,,,,,,,60ec1dd7eaa54649ce2bdd3f,13:52:07,05/03/2024
1667.0,,,ospan,symmetry,kvJCOI7QKxdUto7M9yMs4keWWYd2,symmetry-judgement-task,80,547086,0.0-43.0-2.0-1.0-1.0-0.0,,,,,,,,,,1.0,1.0,,,,60ec1dd7eaa54649ce2bdd3f,13:52:07,05/03/2024
,"<div style=""font-size: 10rem; color: #0000FF"">J</div>",,ospan,letter,kvJCOI7QKxdUto7M9yMs4keWWYd2,html-keyboard-response,81,548106,0.0-43.0-2.0-1.0-1.0-1.0,,,,,,,,,,,,,,,60ec1dd7eaa54649ce2bdd3f,13:52:07,05/03/2024
1521.0,,,ospan,symmetry,kvJCOI7QKxdUto7M9yMs4keWWYd2,symmetry-judgement-task,82,551622,0.0-43.0-2.0-1.0-1.0-2.0,,,,,,,,,,1.0,1.0,,,,60ec1dd7eaa54649ce2bdd3f,13:52:07,05/03/2024
,"<div style=""font-size: 10rem; color: #0000FF"">R</div>",,ospan,letter,kvJCOI7QKxdUto7M9yMs4keWWYd2,html-keyboard-response,83,552640,0.0-43.0-2.0-1.0-1.0-3.0,,,,,,,,,,,,,,,60ec1dd7eaa54649ce2bdd3f,13:52:07,05/03/2024
2044.0,,,ospan,symmetry,kvJCOI7QKxdUto7M9yMs4keWWYd2,symmetry-judgement-task,84,556700,0.0-43.0-2.0-1.0-1.0-4.0,,,,,,,,,,1.0,1.0,,,,60ec1dd7eaa54649ce2bdd3f,13:52:07,05/03/2024
,"<div style=""font-size: 10rem; color: #0000FF"">P</div>",,ospan,letter,kvJCOI7QKxdUto7M9yMs4keWWYd2,html-keyboard-response,85,557718,0.0-43.0-2.0-1.0-1.0-5.0,,,,,,,,,,,,,,,60ec1dd7eaa54649ce2bdd3f,13:52:07,05/03/2024
4883.700000047684,"<div class = numbox><p style=""font-size: 2.4rem"">Please recall the letters you saw to the best of your ability. If you do not remember a particular letter, use the SKIP button.<br><b>(When you are ready to lock in your answer, press ENTER)</b></p><button id = button_1 class = ""square num-button"" onclick = ""recordClick(this)""><div class = content><div class = numbers>C</div></div></button><button id = button_2 class = ""square num-button"" onclick = ""recordClick(this)""><div class = content><div class = numbers>G</div></div></button><button id = button_3 class = ""square num-button"" onclick = ""recordClick(this)""><div class = content><div class = numbers>H</div></div></button><button id = button_4 class = ""square num-button"" onclick = ""recordClick(this)""><div class = content><div class = numbers>J</div></div></button><button id = button_5 class = ""square num-button"" onclick = ""recordClick(this)""><div class = content><div class = numbers>K</div></div></button><button id = button_6 class = ""square num-button"" onclick = ""recordClick(this)""><div class = content><div class = numbers>L</div></div></button><button id = button_7 class = ""square num-button"" onclick = ""recordClick(this)""><div class = content><div class = numbers>N</div></div></button><button id = button_8 class = ""square num-button"" onclick = ""recordClick(this)""><div class = content><div class = numbers>P</div></div></button><button id = button_9 class = ""square num-button"" onclick = ""recordClick(this)""><div class = content><div class = numbers>Q</div></div></button><button id = button_10 class = ""square num-button"" onclick = ""recordClick(this)""><div class = content><div class = numbers>R</div></div></button><button id = button_11 class = ""square num-button"" onclick = ""recordClick(this)""><div class = content><div class = numbers>S</div></div></button><button id = button_12 class = ""square num-button"" onclick = ""recordClick(this)""><div class = content><div class = numbers>Y</div></div></button><button class = clear_button id = ""ClearButton"" onclick = ""clearResponse()"">BACKSPACE</button><button class = blank_button id = ""BlankButton"" onclick = ""blankResponse()"">SKIP</button><p style=""font-size: 2.4rem""><u><b>Current Answer:</b></u></p><br><br><div id=echoed_txt style=""font-size: 5rem; color:blue;""><b></b></div></div>",enter,ospan,retrieval,kvJCOI7QKxdUto7M9yMs4keWWYd2,html-keyboard-response,86,563364,0.0-43.0-2.0-1.0-2.0-0.0,NA,NA,NA,3.0,"[""J"",""R"",""P""]","[""J"",""R"",""P""]",1.0,3.0,"['<font color=""green"">J</font>', '<font color=""green"">R</font>', '<font color=""green"">P</font>']",,,,,,60ec1dd7eaa54649ce2bdd3f,13:52:07,05/03/2024
1564.8999999761581,"['<p style=""font-size:44px"">Letters:<br><br><br><font color=""green"">J</font> <font color=""green"">R</font> <font color=""green"">P</font></p><br><br><p style=""font-size:30px"">Symmetry:<br><br><font color=""green"">100%</font></p><br><br>']",0,ospan,practice_feedback,kvJCOI7QKxdUto7M9yMs4keWWYd2,html-button-response,87,565439,0.0-43.0-2.0-1.0-2.0-1.0,,,,,,,,,,,,,,,60ec1dd7eaa54649ce2bdd3f,13:52:07,05/03/2024
,"<p style=""font-size:75px;"">...</p>",,ospan,iti,kvJCOI7QKxdUto7M9yMs4keWWYd2,html-keyboard-response,88,566453,0.0-43.0-2.0-2.0-0.0,,,,,,,,,,,,,,,60ec1dd7eaa54649ce2bdd3f,13:52:07,05/03/2024
1793.0,,,ospan,symmetry,kvJCOI7QKxdUto7M9yMs4keWWYd2,symmetry-judgement-task,89,569483,0.0-43.0-2.0-2.0-1.0-0.0,,,,,,,,,,1.0,1.0,,,,60ec1dd7eaa54649ce2bdd3f,13:52:07,05/03/2024
,"<div style=""font-size: 10rem; color: #0000FF"">K</div>",,ospan,letter,kvJCOI7QKxdUto7M9yMs4keWWYd2,html-keyboard-response,90,570500,0.0-43.0-2.0-2.0-1.0-1.0,,,,,,,,,,,,,,,60ec1dd7eaa54649ce2bdd3f,13:52:07,05/03/2024
1764.0,,,ospan,symmetry,kvJCOI7QKxdUto7M9yMs4keWWYd2,symmetry-judgement-task,91,574240,0.0-43.0-2.0-2.0-1.0-2.0,,,,,,,,,,1.0,1.0,,,,60ec1dd7eaa54649ce2bdd3f,13:52:07,05/03/2024
,"<div style=""font-size: 10rem; color: #0000FF"">P</div>",,ospan,letter,kvJCOI7QKxdUto7M9yMs4keWWYd2,html-keyboard-response,92,575249,0.0-43.0-2.0-2.0-1.0-3.0,,,,,,,,,,,,,,,60ec1dd7eaa54649ce2bdd3f,13:52:07,05/03/2024
1940.0,,,ospan,symmetry,kvJCOI7QKxdUto7M9yMs4keWWYd2,symmetry-judgement-task,93,579213,0.0-43.0-2.0-2.0-1.0-4.0,,,,,,,,,,1.0,1.0,,,,60ec1dd7eaa54649ce2bdd3f,13:52:07,05/03/2024
,"<div style=""font-size: 10rem; color: #0000FF"">G</div>",,ospan,letter,kvJCOI7QKxdUto7M9yMs4keWWYd2,html-keyboard-response,94,580222,0.0-43.0-2.0-2.0-1.0-5.0,,,,,,,,,,,,,,,60ec1dd7eaa54649ce2bdd3f,13:52:07,05/03/2024
5453.899999976158,"<div class = numbox><p style=""font-size: 2.4rem"">Please recall the letters you saw to the best of your ability. If you do not remember a particular letter, use the SKIP button.<br><b>(When you are ready to lock in your answer, press ENTER)</b></p><button id = button_1 class = ""square num-button"" onclick = ""recordClick(this)""><div class = content><div class = numbers>C</div></div></button><button id = button_2 class = ""square num-button"" onclick = ""recordClick(this)""><div class = content><div class = numbers>G</div></div></button><button id = button_3 class = ""square num-button"" onclick = ""recordClick(this)""><div class = content><div class = numbers>H</div></div></button><button id = button_4 class = ""square num-button"" onclick = ""recordClick(this)""><div class = content><div class = numbers>J</div></div></button><button id = button_5 class = ""square num-button"" onclick = ""recordClick(this)""><div class = content><div class = numbers>K</div></div></button><button id = button_6 class = ""square num-button"" onclick = ""recordClick(this)""><div class = content><div class = numbers>L</div></div></button><button id = button_7 class = ""square num-button"" onclick = ""recordClick(this)""><div class = content><div class = numbers>N</div></div></button><button id = button_8 class = ""square num-button"" onclick = ""recordClick(this)""><div class = content><div class = numbers>P</div></div></button><button id = button_9 class = ""square num-button"" onclick = ""recordClick(this)""><div class = content><div class = numbers>Q</div></div></button><button id = button_10 class = ""square num-button"" onclick = ""recordClick(this)""><div class = content><div class = numbers>R</div></div></button><button id = button_11 class = ""square num-button"" onclick = ""recordClick(this)""><div class = content><div class = numbers>S</div></div></button><button id = button_12 class = ""square num-button"" onclick = ""recordClick(this)""><div class = content><div class = numbers>Y</div></div></button><button class = clear_button id = ""ClearButton"" onclick = ""clearResponse()"">BACKSPACE</button><button class = blank_button id = ""BlankButton"" onclick = ""blankResponse()"">SKIP</button><p style=""font-size: 2.4rem""><u><b>Current Answer:</b></u></p><br><br><div id=echoed_txt style=""font-size: 5rem; color:blue;""><b></b></div></div>",enter,ospan,retrieval,kvJCOI7QKxdUto7M9yMs4keWWYd2,html-keyboard-response,95,586442,0.0-43.0-2.0-2.0-2.0-0.0,NA,NA,NA,3.0,"[""K"",""P"",""G""]","[""K"",""P"",""G""]",1.0,3.0,"['<font color=""green"">K</font>', '<font color=""green"">P</font>', '<font color=""green"">G</font>']",,,,,,60ec1dd7eaa54649ce2bdd3f,13:52:07,05/03/2024
1391.0,"['<p style=""font-size:44px"">Letters:<br><br><br><font color=""green"">K</font> <font color=""green"">P</font> <font color=""green"">G</font></p><br><br><p style=""font-size:30px"">Symmetry:<br><br><font color=""green"">100%</font></p><br><br>']",0,ospan,practice_feedback,kvJCOI7QKxdUto7M9yMs4keWWYd2,html-button-response,96,588348,0.0-43.0-2.0-2.0-2.0-1.0,,,,,,,,,,,,,,,60ec1dd7eaa54649ce2bdd3f,13:52:07,05/03/2024
20729.0,"<div class = 'left_align' style='font-size: 3rem; line-height: 1.3;'><b>Great work! That is the end of practice.</b><br><br>The real trials will look just like the practice trials you just completed.<br><br><u>Here, you will not see feedback</u>. First, you will see an grid picture to judge,<br>then a letter to remember. When the recall screen appears, report the letters in the<br>order presented. If you forget a letter, remember to use the <b>blank</b> button to move to the<br>next letter. Some of the sets will have more symmetry grids and letters than others.<br><br>It is important that you do your best on both the symmetry judgments and the letter recall<br>parts of the experiment. For for the symmetry judgments, try to work as <b>quickly</b> and <br>as <b>accurately</b> as possible. Remember to keep your symmetry accuracy at 85% or above.<br><br><b>For the letters, do NOT use any external aid (e.g., writing on paper, electronic device).</b><br><br>It is <u>very important</u> to our experiment to have a <b>true</b> view of your real performance.<br><br>Do not worry if you miss some when it gets hard! This task is meant to be very challenging!<br><br>Click the button to begin.</div><br><br><br><br>",0,ospan,starting_real_here,kvJCOI7QKxdUto7M9yMs4keWWYd2,html-button-response,97,609081,0.0-43.0-2.0-3.0,,,,,,,,,,,,,,,60ec1dd7eaa54649ce2bdd3f,13:52:07,05/03/2024
,"<p style=""font-size:75px;"">...</p>",,ospan,iti,kvJCOI7QKxdUto7M9yMs4keWWYd2,html-keyboard-response,98,610355,0.0-43.0-3.0-0.0-0.0,,,,,,,,,,,,,,,60ec1dd7eaa54649ce2bdd3f,13:52:07,05/03/2024
1657.0,,,ospan,symmetry,kvJCOI7QKxdUto7M9yMs4keWWYd2,symmetry-judgement-task,99,613262,0.0-43.0-3.0-0.0-1.0-0.0,,,,,,,,,,1.0,1.0,,,,60ec1dd7eaa54649ce2bdd3f,13:52:07,05/03/2024
,"<div style=""font-size: 10rem; color: #0000FF"">J</div>",,ospan,letter,kvJCOI7QKxdUto7M9yMs4keWWYd2,html-keyboard-response,100,614273,0.0-43.0-3.0-0.0-1.0-1.0,,,,,,,,,,,,,,,60ec1dd7eaa54649ce2bdd3f,13:52:07,05/03/2024
1563.0,,,ospan,symmetry,kvJCOI7QKxdUto7M9yMs4keWWYd2,symmetry-judgement-task,101,617824,0.0-43.0-3.0-0.0-1.0-2.0,,,,,,,,,,1.0,1.0,,,,60ec1dd7eaa54649ce2bdd3f,13:52:07,05/03/2024
,"<div style=""font-size: 10rem; color: #0000FF"">R</div>",,ospan,letter,kvJCOI7QKxdUto7M9yMs4keWWYd2,html-keyboard-response,102,618844,0.0-43.0-3.0-0.0-1.0-3.0,,,,,,,,,,,,,,,60ec1dd7eaa54649ce2bdd3f,13:52:07,05/03/2024
2393.0,,,ospan,symmetry,kvJCOI7QKxdUto7M9yMs4keWWYd2,symmetry-judgement-task,103,623268,0.0-43.0-3.0-0.0-1.0-4.0,,,,,,,,,,1.0,1.0,,,,60ec1dd7eaa54649ce2bdd3f,13:52:07,05/03/2024
,"<div style=""font-size: 10rem; color: #0000FF"">Q</div>",,ospan,letter,kvJCOI7QKxdUto7M9yMs4keWWYd2,html-keyboard-response,104,624282,0.0-43.0-3.0-0.0-1.0-5.0,,,,,,,,,,,,,,,60ec1dd7eaa54649ce2bdd3f,13:52:07,05/03/2024
3459.9000000953674,"<div class = numbox><p style=""font-size: 2.4rem"">Please recall the letters you saw to the best of your ability. If you do not remember a particular letter, use the SKIP button.<br><b>(When you are ready to lock in your answer, press ENTER)</b></p><button id = button_1 class = ""square num-button"" onclick = ""recordClick(this)""><div class = content><div class = numbers>C</div></div></button><button id = button_2 class = ""square num-button"" onclick = ""recordClick(this)""><div class = content><div class = numbers>G</div></div></button><button id = button_3 class = ""square num-button"" onclick = ""recordClick(this)""><div class = content><div class = numbers>H</div></div></button><button id = button_4 class = ""square num-button"" onclick = ""recordClick(this)""><div class = content><div class = numbers>J</div></div></button><button id = button_5 class = ""square num-button"" onclick = ""recordClick(this)""><div class = content><div class = numbers>K</div></div></button><button id = button_6 class = ""square num-button"" onclick = ""recordClick(this)""><div class = content><div class = numbers>L</div></div></button><button id = button_7 class = ""square num-button"" onclick = ""recordClick(this)""><div class = content><div class = numbers>N</div></div></button><button id = button_8 class = ""square num-button"" onclick = ""recordClick(this)""><div class = content><div class = numbers>P</div></div></button><button id = button_9 class = ""square num-button"" onclick = ""recordClick(this)""><div class = content><div class = numbers>Q</div></div></button><button id = button_10 class = ""square num-button"" onclick = ""recordClick(this)""><div class = content><div class = numbers>R</div></div></button><button id = button_11 class = ""square num-button"" onclick = ""recordClick(this)""><div class = content><div class = numbers>S</div></div></button><button id = button_12 class = ""square num-button"" onclick = ""recordClick(this)""><div class = content><div class = numbers>Y</div></div></button><button class = clear_button id = ""ClearButton"" onclick = ""clearResponse()"">BACKSPACE</button><button class = blank_button id = ""BlankButton"" onclick = ""blankResponse()"">SKIP</button><p style=""font-size: 2.4rem""><u><b>Current Answer:</b></u></p><br><br><div id=echoed_txt style=""font-size: 5rem; color:blue;""><b></b></div></div>",enter,ospan,retrieval,kvJCOI7QKxdUto7M9yMs4keWWYd2,html-keyboard-response,105,628496,0.0-43.0-3.0-0.0-2.0,3,3,3,3.0,"[""J"",""R"",""Q""]","[""J"",""R"",""Q""]",1.0,3.0,,,,,,,60ec1dd7eaa54649ce2bdd3f,13:52:07,05/03/2024
1335.5,[''],0,ospan,feedback,kvJCOI7QKxdUto7M9yMs4keWWYd2,html-button-response,106,630347,0.0-43.0-3.0-0.0-3.0,,,,,,,,,,,,100.0,0.0,,60ec1dd7eaa54649ce2bdd3f,13:52:07,05/03/2024
,"<p style=""font-size:75px;"">...</p>",,ospan,iti,kvJCOI7QKxdUto7M9yMs4keWWYd2,html-keyboard-response,107,631354,0.0-43.0-4.0-0.0-0.0,,,,,,,,,,,,,,,60ec1dd7eaa54649ce2bdd3f,13:52:07,05/03/2024
2104.0,,,ospan,symmetry,kvJCOI7QKxdUto7M9yMs4keWWYd2,symmetry-judgement-task,108,634687,0.0-43.0-4.0-0.0-1.0-0.0,,,,,,,,,,1.0,1.0,,,,60ec1dd7eaa54649ce2bdd3f,13:52:07,05/03/2024
,"<div style=""font-size: 10rem; color: #0000FF"">C</div>",,ospan,letter,kvJCOI7QKxdUto7M9yMs4keWWYd2,html-keyboard-response,109,635707,0.0-43.0-4.0-0.0-1.0-1.0,,,,,,,,,,,,,,,60ec1dd7eaa54649ce2bdd3f,13:52:07,05/03/2024
1652.0,,,ospan,symmetry,kvJCOI7QKxdUto7M9yMs4keWWYd2,symmetry-judgement-task,110,639347,0.0-43.0-4.0-0.0-1.0-2.0,,,,,,,,,,1.0,1.0,,,,60ec1dd7eaa54649ce2bdd3f,13:52:07,05/03/2024
,"<div style=""font-size: 10rem; color: #0000FF"">Y</div>",,ospan,letter,kvJCOI7QKxdUto7M9yMs4keWWYd2,html-keyboard-response,111,640363,0.0-43.0-4.0-0.0-1.0-3.0,,,,,,,,,,,,,,,60ec1dd7eaa54649ce2bdd3f,13:52:07,05/03/2024
2375.0,,,ospan,symmetry,kvJCOI7QKxdUto7M9yMs4keWWYd2,symmetry-judgement-task,112,644757,0.0-43.0-4.0-0.0-1.0-4.0,,,,,,,,,,1.0,1.0,,,,60ec1dd7eaa54649ce2bdd3f,13:52:07,05/03/2024
,"<div style=""font-size: 10rem; color: #0000FF"">N</div>",,ospan,letter,kvJCOI7QKxdUto7M9yMs4keWWYd2,html-keyboard-response,113,645769,0.0-43.0-4.0-0.0-1.0-5.0,,,,,,,,,,,,,,,60ec1dd7eaa54649ce2bdd3f,13:52:07,05/03/2024
2684.0,,,ospan,symmetry,kvJCOI7QKxdUto7M9yMs4keWWYd2,symmetry-judgement-task,114,650465,0.0-43.0-4.0-0.0-1.0-6.0,,,,,,,,,,1.0,1.0,,,,60ec1dd7eaa54649ce2bdd3f,13:52:07,05/03/2024
,"<div style=""font-size: 10rem; color: #0000FF"">R</div>",,ospan,letter,kvJCOI7QKxdUto7M9yMs4keWWYd2,html-keyboard-response,115,651476,0.0-43.0-4.0-0.0-1.0-7.0,,,,,,,,,,,,,,,60ec1dd7eaa54649ce2bdd3f,13:52:07,05/03/2024
9008.399999976158,"<div class = numbox><p style=""font-size: 2.4rem"">Please recall the letters you saw to the best of your ability. If you do not remember a particular letter, use the SKIP button.<br><b>(When you are ready to lock in your answer, press ENTER)</b></p><button id = button_1 class = ""square num-button"" onclick = ""recordClick(this)""><div class = content><div class = numbers>C</div></div></button><button id = button_2 class = ""square num-button"" onclick = ""recordClick(this)""><div class = content><div class = numbers>G</div></div></button><button id = button_3 class = ""square num-button"" onclick = ""recordClick(this)""><div class = content><div class = numbers>H</div></div></button><button id = button_4 class = ""square num-button"" onclick = ""recordClick(this)""><div class = content><div class = numbers>J</div></div></button><button id = button_5 class = ""square num-button"" onclick = ""recordClick(this)""><div class = content><div class = numbers>K</div></div></button><button id = button_6 class = ""square num-button"" onclick = ""recordClick(this)""><div class = content><div class = numbers>L</div></div></button><button id = button_7 class = ""square num-button"" onclick = ""recordClick(this)""><div class = content><div class = numbers>N</div></div></button><button id = button_8 class = ""square num-button"" onclick = ""recordClick(this)""><div class = content><div class = numbers>P</div></div></button><button id = button_9 class = ""square num-button"" onclick = ""recordClick(this)""><div class = content><div class = numbers>Q</div></div></button><button id = button_10 class = ""square num-button"" onclick = ""recordClick(this)""><div class = content><div class = numbers>R</div></div></button><button id = button_11 class = ""square num-button"" onclick = ""recordClick(this)""><div class = content><div class = numbers>S</div></div></button><button id = button_12 class = ""square num-button"" onclick = ""recordClick(this)""><div class = content><div class = numbers>Y</div></div></button><button class = clear_button id = ""ClearButton"" onclick = ""clearResponse()"">BACKSPACE</button><button class = blank_button id = ""BlankButton"" onclick = ""blankResponse()"">SKIP</button><p style=""font-size: 2.4rem""><u><b>Current Answer:</b></u></p><br><br><div id=echoed_txt style=""font-size: 5rem; color:blue;""><b></b></div></div>",enter,ospan,retrieval,kvJCOI7QKxdUto7M9yMs4keWWYd2,html-keyboard-response,116,661247,0.0-43.0-4.0-0.0-2.0,7,7,7,4.0,"[""C"",""Y"",""N"",""R""]","[""C"",""Y"",""N"",""R""]",1.0,4.0,,,,,,,60ec1dd7eaa54649ce2bdd3f,13:52:07,05/03/2024
1514.8000000715256,[''],0,ospan,feedback,kvJCOI7QKxdUto7M9yMs4keWWYd2,html-button-response,117,663271,0.0-43.0-4.0-0.0-3.0,,,,,,,,,,,,100.0,0.0,,60ec1dd7eaa54649ce2bdd3f,13:52:07,05/03/2024
,"<p style=""font-size:75px;"">...</p>",,ospan,iti,kvJCOI7QKxdUto7M9yMs4keWWYd2,html-keyboard-response,118,664283,0.0-43.0-4.0-1.0-0.0,,,,,,,,,,,,,,,60ec1dd7eaa54649ce2bdd3f,13:52:07,05/03/2024
2388.0,,,ospan,symmetry,kvJCOI7QKxdUto7M9yMs4keWWYd2,symmetry-judgement-task,119,667763,0.0-43.0-4.0-1.0-1.0-0.0,,,,,,,,,,1.0,1.0,,,,60ec1dd7eaa54649ce2bdd3f,13:52:07,05/03/2024
,"<div style=""font-size: 10rem; color: #0000FF"">Y</div>",,ospan,letter,kvJCOI7QKxdUto7M9yMs4keWWYd2,html-keyboard-response,120,668773,0.0-43.0-4.0-1.0-1.0-1.0,,,,,,,,,,,,,,,60ec1dd7eaa54649ce2bdd3f,13:52:07,05/03/2024
2335.0,,,ospan,symmetry,kvJCOI7QKxdUto7M9yMs4keWWYd2,symmetry-judgement-task,121,673127,0.0-43.0-4.0-1.0-1.0-2.0,,,,,,,,,,1.0,1.0,,,,60ec1dd7eaa54649ce2bdd3f,13:52:07,05/03/2024
,"<div style=""font-size: 10rem; color: #0000FF"">H</div>",,ospan,letter,kvJCOI7QKxdUto7M9yMs4keWWYd2,html-keyboard-response,122,674145,0.0-43.0-4.0-1.0-1.0-3.0,,,,,,,,,,,,,,,60ec1dd7eaa54649ce2bdd3f,13:52:07,05/03/2024
1648.0,,,ospan,symmetry,kvJCOI7QKxdUto7M9yMs4keWWYd2,symmetry-judgement-task,123,677770,0.0-43.0-4.0-1.0-1.0-4.0,,,,,,,,,,1.0,1.0,,,,60ec1dd7eaa54649ce2bdd3f,13:52:07,05/03/2024
,"<div style=""font-size: 10rem; color: #0000FF"">S</div>",,ospan,letter,kvJCOI7QKxdUto7M9yMs4keWWYd2,html-keyboard-response,124,678784,0.0-43.0-4.0-1.0-1.0-5.0,,,,,,,,,,,,,,,60ec1dd7eaa54649ce2bdd3f,13:52:07,05/03/2024
2444.0,,,ospan,symmetry,kvJCOI7QKxdUto7M9yMs4keWWYd2,symmetry-judgement-task,125,683233,0.0-43.0-4.0-1.0-1.0-6.0,,,,,,,,,,1.0,1.0,,,,60ec1dd7eaa54649ce2bdd3f,13:52:07,05/03/2024
,"<div style=""font-size: 10rem; color: #0000FF"">Q</div>",,ospan,letter,kvJCOI7QKxdUto7M9yMs4keWWYd2,html-keyboard-response,126,684246,0.0-43.0-4.0-1.0-1.0-7.0,,,,,,,,,,,,,,,60ec1dd7eaa54649ce2bdd3f,13:52:07,05/03/2024
2267.0,,,ospan,symmetry,kvJCOI7QKxdUto7M9yMs4keWWYd2,symmetry-judgement-task,127,688487,0.0-43.0-4.0-1.0-1.0-8.0,,,,,,,,,,1.0,1.0,,,,60ec1dd7eaa54649ce2bdd3f,13:52:07,05/03/2024
,"<div style=""font-size: 10rem; color: #0000FF"">L</div>",,ospan,letter,kvJCOI7QKxdUto7M9yMs4keWWYd2,html-keyboard-response,128,689506,0.0-43.0-4.0-1.0-1.0-9.0,,,,,,,,,,,,,,,60ec1dd7eaa54649ce2bdd3f,13:52:07,05/03/2024
6932.0,"<div class = numbox><p style=""font-size: 2.4rem"">Please recall the letters you saw to the best of your ability. If you do not remember a particular letter, use the SKIP button.<br><b>(When you are ready to lock in your answer, press ENTER)</b></p><button id = button_1 class = ""square num-button"" onclick = ""recordClick(this)""><div class = content><div class = numbers>C</div></div></button><button id = button_2 class = ""square num-button"" onclick = ""recordClick(this)""><div class = content><div class = numbers>G</div></div></button><button id = button_3 class = ""square num-button"" onclick = ""recordClick(this)""><div class = content><div class = numbers>H</div></div></button><button id = button_4 class = ""square num-button"" onclick = ""recordClick(this)""><div class = content><div class = numbers>J</div></div></button><button id = button_5 class = ""square num-button"" onclick = ""recordClick(this)""><div class = content><div class = numbers>K</div></div></button><button id = button_6 class = ""square num-button"" onclick = ""recordClick(this)""><div class = content><div class = numbers>L</div></div></button><button id = button_7 class = ""square num-button"" onclick = ""recordClick(this)""><div class = content><div class = numbers>N</div></div></button><button id = button_8 class = ""square num-button"" onclick = ""recordClick(this)""><div class = content><div class = numbers>P</div></div></button><button id = button_9 class = ""square num-button"" onclick = ""recordClick(this)""><div class = content><div class = numbers>Q</div></div></button><button id = button_10 class = ""square num-button"" onclick = ""recordClick(this)""><div class = content><div class = numbers>R</div></div></button><button id = button_11 class = ""square num-button"" onclick = ""recordClick(this)""><div class = content><div class = numbers>S</div></div></button><button id = button_12 class = ""square num-button"" onclick = ""recordClick(this)""><div class = content><div class = numbers>Y</div></div></button><button class = clear_button id = ""ClearButton"" onclick = ""clearResponse()"">BACKSPACE</button><button class = blank_button id = ""BlankButton"" onclick = ""blankResponse()"">SKIP</button><p style=""font-size: 2.4rem""><u><b>Current Answer:</b></u></p><br><br><div id=echoed_txt style=""font-size: 5rem; color:blue;""><b></b></div></div>",enter,ospan,retrieval,kvJCOI7QKxdUto7M9yMs4keWWYd2,html-keyboard-response,129,697202,0.0-43.0-4.0-1.0-2.0,12,10,7,5.0,"[""Y"",""H"",""Q"",""S"",""L""]","[""Y"",""H"",""S"",""Q"",""L""]",0.0,3.0,,,,,,,60ec1dd7eaa54649ce2bdd3f,13:52:07,05/03/2024
1060.6999999284744,[''],0,ospan,feedback,kvJCOI7QKxdUto7M9yMs4keWWYd2,html-button-response,130,698782,0.0-43.0-4.0-1.0-3.0,,,,,,,,,,,,100.0,0.0,,60ec1dd7eaa54649ce2bdd3f,13:52:07,05/03/2024
,"<p style=""font-size:75px;"">...</p>",,ospan,iti,kvJCOI7QKxdUto7M9yMs4keWWYd2,html-keyboard-response,131,699801,0.0-43.0-4.0-2.0-0.0,,,,,,,,,,,,,,,60ec1dd7eaa54649ce2bdd3f,13:52:07,05/03/2024
2290.0,,,ospan,symmetry,kvJCOI7QKxdUto7M9yMs4keWWYd2,symmetry-judgement-task,132,703165,0.0-43.0-4.0-2.0-1.0-0.0,,,,,,,,,,1.0,1.0,,,,60ec1dd7eaa54649ce2bdd3f,13:52:07,05/03/2024
,"<div style=""font-size: 10rem; color: #0000FF"">G</div>",,ospan,letter,kvJCOI7QKxdUto7M9yMs4keWWYd2,html-keyboard-response,133,704181,0.0-43.0-4.0-2.0-1.0-1.0,,,,,,,,,,,,,,,60ec1dd7eaa54649ce2bdd3f,13:52:07,05/03/2024
1374.0,,,ospan,symmetry,kvJCOI7QKxdUto7M9yMs4keWWYd2,symmetry-judgement-task,134,707589,0.0-43.0-4.0-2.0-1.0-2.0,,,,,,,,,,1.0,1.0,,,,60ec1dd7eaa54649ce2bdd3f,13:52:07,05/03/2024
,"<div style=""font-size: 10rem; color: #0000FF"">S</div>",,ospan,letter,kvJCOI7QKxdUto7M9yMs4keWWYd2,html-keyboard-response,135,708604,0.0-43.0-4.0-2.0-1.0-3.0,,,,,,,,,,,,,,,60ec1dd7eaa54649ce2bdd3f,13:52:07,05/03/2024
1998.0,,,ospan,symmetry,kvJCOI7QKxdUto7M9yMs4keWWYd2,symmetry-judgement-task,136,712589,0.0-43.0-4.0-2.0-1.0-4.0,,,,,,,,,,1.0,1.0,,,,60ec1dd7eaa54649ce2bdd3f,13:52:07,05/03/2024
,"<div style=""font-size: 10rem; color: #0000FF"">Y</div>",,ospan,letter,kvJCOI7QKxdUto7M9yMs4keWWYd2,html-keyboard-response,137,713606,0.0-43.0-4.0-2.0-1.0-5.0,,,,,,,,,,,,,,,60ec1dd7eaa54649ce2bdd3f,13:52:07,05/03/2024
4426.700000047684,"<div class = numbox><p style=""font-size: 2.4rem"">Please recall the letters you saw to the best of your ability. If you do not remember a particular letter, use the SKIP button.<br><b>(When you are ready to lock in your answer, press ENTER)</b></p><button id = button_1 class = ""square num-button"" onclick = ""recordClick(this)""><div class = content><div class = numbers>C</div></div></button><button id = button_2 class = ""square num-button"" onclick = ""recordClick(this)""><div class = content><div class = numbers>G</div></div></button><button id = button_3 class = ""square num-button"" onclick = ""recordClick(this)""><div class = content><div class = numbers>H</div></div></button><button id = button_4 class = ""square num-button"" onclick = ""recordClick(this)""><div class = content><div class = numbers>J</div></div></button><button id = button_5 class = ""square num-button"" onclick = ""recordClick(this)""><div class = content><div class = numbers>K</div></div></button><button id = button_6 class = ""square num-button"" onclick = ""recordClick(this)""><div class = content><div class = numbers>L</div></div></button><button id = button_7 class = ""square num-button"" onclick = ""recordClick(this)""><div class = content><div class = numbers>N</div></div></button><button id = button_8 class = ""square num-button"" onclick = ""recordClick(this)""><div class = content><div class = numbers>P</div></div></button><button id = button_9 class = ""square num-button"" onclick = ""recordClick(this)""><div class = content><div class = numbers>Q</div></div></button><button id = button_10 class = ""square num-button"" onclick = ""recordClick(this)""><div class = content><div class = numbers>R</div></div></button><button id = button_11 class = ""square num-button"" onclick = ""recordClick(this)""><div class = content><div class = numbers>S</div></div></button><button id = button_12 class = ""square num-button"" onclick = ""recordClick(this)""><div class = content><div class = numbers>Y</div></div></button><button class = clear_button id = ""ClearButton"" onclick = ""clearResponse()"">BACKSPACE</button><button class = blank_button id = ""BlankButton"" onclick = ""blankResponse()"">SKIP</button><p style=""font-size: 2.4rem""><u><b>Current Answer:</b></u></p><br><br><div id=echoed_txt style=""font-size: 5rem; color:blue;""><b></b></div></div>",enter,ospan,retrieval,kvJCOI7QKxdUto7M9yMs4keWWYd2,html-keyboard-response,138,718792,0.0-43.0-4.0-2.0-2.0,15,13,10,3.0,"[""G"",""S"",""Y""]","[""G"",""S"",""Y""]",1.0,3.0,,,,,,,60ec1dd7eaa54649ce2bdd3f,13:52:07,05/03/2024
1081.5,[''],0,ospan,feedback,kvJCOI7QKxdUto7M9yMs4keWWYd2,html-button-response,139,720386,0.0-43.0-4.0-2.0-3.0,,,,,,,,,,,,100.0,0.0,,60ec1dd7eaa54649ce2bdd3f,13:52:07,05/03/2024
,"<p style=""font-size:75px;"">...</p>",,ospan,iti,kvJCOI7QKxdUto7M9yMs4keWWYd2,html-keyboard-response,140,721398,0.0-43.0-5.0-0.0-0.0,,,,,,,,,,,,,,,60ec1dd7eaa54649ce2bdd3f,13:52:07,05/03/2024
1553.0,,,ospan,symmetry,kvJCOI7QKxdUto7M9yMs4keWWYd2,symmetry-judgement-task,141,724184,0.0-43.0-5.0-0.0-1.0-0.0,,,,,,,,,,1.0,1.0,,,,60ec1dd7eaa54649ce2bdd3f,13:52:07,05/03/2024
,"<div style=""font-size: 10rem; color: #0000FF"">K</div>",,ospan,letter,kvJCOI7QKxdUto7M9yMs4keWWYd2,html-keyboard-response,142,725194,0.0-43.0-5.0-0.0-1.0-1.0,,,,,,,,,,,,,,,60ec1dd7eaa54649ce2bdd3f,13:52:07,05/03/2024
2234.0,,,ospan,symmetry,kvJCOI7QKxdUto7M9yMs4keWWYd2,symmetry-judgement-task,143,729386,0.0-43.0-5.0-0.0-1.0-2.0,,,,,,,,,,1.0,1.0,,,,60ec1dd7eaa54649ce2bdd3f,13:52:07,05/03/2024
,"<div style=""font-size: 10rem; color: #0000FF"">Q</div>",,ospan,letter,kvJCOI7QKxdUto7M9yMs4keWWYd2,html-keyboard-response,144,730398,0.0-43.0-5.0-0.0-1.0-3.0,,,,,,,,,,,,,,,60ec1dd7eaa54649ce2bdd3f,13:52:07,05/03/2024
3057.0,,,ospan,symmetry,kvJCOI7QKxdUto7M9yMs4keWWYd2,symmetry-judgement-task,145,735456,0.0-43.0-5.0-0.0-1.0-4.0,,,,,,,,,,1.0,1.0,,,,60ec1dd7eaa54649ce2bdd3f,13:52:07,05/03/2024
,"<div style=""font-size: 10rem; color: #0000FF"">C</div>",,ospan,letter,kvJCOI7QKxdUto7M9yMs4keWWYd2,html-keyboard-response,146,736465,0.0-43.0-5.0-0.0-1.0-5.0,,,,,,,,,,,,,,,60ec1dd7eaa54649ce2bdd3f,13:52:07,05/03/2024
2650.0,,,ospan,symmetry,kvJCOI7QKxdUto7M9yMs4keWWYd2,symmetry-judgement-task,147,741084,0.0-43.0-5.0-0.0-1.0-6.0,,,,,,,,,,1.0,1.0,,,,60ec1dd7eaa54649ce2bdd3f,13:52:07,05/03/2024
,"<div style=""font-size: 10rem; color: #0000FF"">H</div>",,ospan,letter,kvJCOI7QKxdUto7M9yMs4keWWYd2,html-keyboard-response,148,742102,0.0-43.0-5.0-0.0-1.0-7.0,,,,,,,,,,,,,,,60ec1dd7eaa54649ce2bdd3f,13:52:07,05/03/2024
2574.0,,,ospan,symmetry,kvJCOI7QKxdUto7M9yMs4keWWYd2,symmetry-judgement-task,149,746708,0.0-43.0-5.0-0.0-1.0-8.0,,,,,,,,,,1.0,1.0,,,,60ec1dd7eaa54649ce2bdd3f,13:52:07,05/03/2024
,"<div style=""font-size: 10rem; color: #0000FF"">L</div>",,ospan,letter,kvJCOI7QKxdUto7M9yMs4keWWYd2,html-keyboard-response,150,747756,0.0-43.0-5.0-0.0-1.0-9.0,,,,,,,,,,,,,,,60ec1dd7eaa54649ce2bdd3f,13:52:07,05/03/2024
1839.0,,,ospan,symmetry,kvJCOI7QKxdUto7M9yMs4keWWYd2,symmetry-judgement-task,151,751567,0.0-43.0-5.0-0.0-1.0-10.0,,,,,,,,,,1.0,1.0,,,,60ec1dd7eaa54649ce2bdd3f,13:52:07,05/03/2024
,"<div style=""font-size: 10rem; color: #0000FF"">Y</div>",,ospan,letter,kvJCOI7QKxdUto7M9yMs4keWWYd2,html-keyboard-response,152,752579,0.0-43.0-5.0-0.0-1.0-11.0,,,,,,,,,,,,,,,60ec1dd7eaa54649ce2bdd3f,13:52:07,05/03/2024
6410.799999952316,"<div class = numbox><p style=""font-size: 2.4rem"">Please recall the letters you saw to the best of your ability. If you do not remember a particular letter, use the SKIP button.<br><b>(When you are ready to lock in your answer, press ENTER)</b></p><button id = button_1 class = ""square num-button"" onclick = ""recordClick(this)""><div class = content><div class = numbers>C</div></div></button><button id = button_2 class = ""square num-button"" onclick = ""recordClick(this)""><div class = content><div class = numbers>G</div></div></button><button id = button_3 class = ""square num-button"" onclick = ""recordClick(this)""><div class = content><div class = numbers>H</div></div></button><button id = button_4 class = ""square num-button"" onclick = ""recordClick(this)""><div class = content><div class = numbers>J</div></div></button><button id = button_5 class = ""square num-button"" onclick = ""recordClick(this)""><div class = content><div class = numbers>K</div></div></button><button id = button_6 class = ""square num-button"" onclick = ""recordClick(this)""><div class = content><div class = numbers>L</div></div></button><button id = button_7 class = ""square num-button"" onclick = ""recordClick(this)""><div class = content><div class = numbers>N</div></div></button><button id = button_8 class = ""square num-button"" onclick = ""recordClick(this)""><div class = content><div class = numbers>P</div></div></button><button id = button_9 class = ""square num-button"" onclick = ""recordClick(this)""><div class = content><div class = numbers>Q</div></div></button><button id = button_10 class = ""square num-button"" onclick = ""recordClick(this)""><div class = content><div class = numbers>R</div></div></button><button id = button_11 class = ""square num-button"" onclick = ""recordClick(this)""><div class = content><div class = numbers>S</div></div></button><button id = button_12 class = ""square num-button"" onclick = ""recordClick(this)""><div class = content><div class = numbers>Y</div></div></button><button class = clear_button id = ""ClearButton"" onclick = ""clearResponse()"">BACKSPACE</button><button class = blank_button id = ""BlankButton"" onclick = ""blankResponse()"">SKIP</button><p style=""font-size: 2.4rem""><u><b>Current Answer:</b></u></p><br><br><div id=echoed_txt style=""font-size: 5rem; color:blue;""><b></b></div></div>",enter,ospan,retrieval,kvJCOI7QKxdUto7M9yMs4keWWYd2,html-keyboard-response,153,759754,0.0-43.0-5.0-0.0-2.0,21,18,10,6.0,"[""Y"",""Q"",""C"",""H"",""L"",""Y""]","[""K"",""Q"",""C"",""H"",""L"",""Y""]",0.0,5.0,,,,,,,60ec1dd7eaa54649ce2bdd3f,13:52:07,05/03/2024
878.5,[''],0,ospan,feedback,kvJCOI7QKxdUto7M9yMs4keWWYd2,html-button-response,154,761139,0.0-43.0-5.0-0.0-3.0,,,,,,,,,,,,100.0,0.0,,60ec1dd7eaa54649ce2bdd3f,13:52:07,05/03/2024
,"<p style=""font-size:75px;"">...</p>",,ospan,iti,kvJCOI7QKxdUto7M9yMs4keWWYd2,html-keyboard-response,155,762154,0.0-43.0-5.0-1.0-0.0,,,,,,,,,,,,,,,60ec1dd7eaa54649ce2bdd3f,13:52:07,05/03/2024
2514.0,,,ospan,symmetry,kvJCOI7QKxdUto7M9yMs4keWWYd2,symmetry-judgement-task,156,765750,0.0-43.0-5.0-1.0-1.0-0.0,,,,,,,,,,1.0,1.0,,,,60ec1dd7eaa54649ce2bdd3f,13:52:07,05/03/2024
,"<div style=""font-size: 10rem; color: #0000FF"">K</div>",,ospan,letter,kvJCOI7QKxdUto7M9yMs4keWWYd2,html-keyboard-response,157,766766,0.0-43.0-5.0-1.0-1.0-1.0,,,,,,,,,,,,,,,60ec1dd7eaa54649ce2bdd3f,13:52:07,05/03/2024
2429.0,,,ospan,symmetry,kvJCOI7QKxdUto7M9yMs4keWWYd2,symmetry-judgement-task,158,771212,0.0-43.0-5.0-1.0-1.0-2.0,,,,,,,,,,1.0,1.0,,,,60ec1dd7eaa54649ce2bdd3f,13:52:07,05/03/2024
,"<div style=""font-size: 10rem; color: #0000FF"">S</div>",,ospan,letter,kvJCOI7QKxdUto7M9yMs4keWWYd2,html-keyboard-response,159,772224,0.0-43.0-5.0-1.0-1.0-3.0,,,,,,,,,,,,,,,60ec1dd7eaa54649ce2bdd3f,13:52:07,05/03/2024
3014.0,,,ospan,symmetry,kvJCOI7QKxdUto7M9yMs4keWWYd2,symmetry-judgement-task,160,777234,0.0-43.0-5.0-1.0-1.0-4.0,,,,,,,,,,1.0,1.0,,,,60ec1dd7eaa54649ce2bdd3f,13:52:07,05/03/2024
,"<div style=""font-size: 10rem; color: #0000FF"">L</div>",,ospan,letter,kvJCOI7QKxdUto7M9yMs4keWWYd2,html-keyboard-response,161,778253,0.0-43.0-5.0-1.0-1.0-5.0,,,,,,,,,,,,,,,60ec1dd7eaa54649ce2bdd3f,13:52:07,05/03/2024
1663.0,,,ospan,symmetry,kvJCOI7QKxdUto7M9yMs4keWWYd2,symmetry-judgement-task,162,781888,0.0-43.0-5.0-1.0-1.0-6.0,,,,,,,,,,1.0,1.0,,,,60ec1dd7eaa54649ce2bdd3f,13:52:07,05/03/2024
,"<div style=""font-size: 10rem; color: #0000FF"">Y</div>",,ospan,letter,kvJCOI7QKxdUto7M9yMs4keWWYd2,html-keyboard-response,163,782897,0.0-43.0-5.0-1.0-1.0-7.0,,,,,,,,,,,,,,,60ec1dd7eaa54649ce2bdd3f,13:52:07,05/03/2024
1297.0,,,ospan,symmetry,kvJCOI7QKxdUto7M9yMs4keWWYd2,symmetry-judgement-task,164,786197,0.0-43.0-5.0-1.0-1.0-8.0,,,,,,,,,,1.0,1.0,,,,60ec1dd7eaa54649ce2bdd3f,13:52:07,05/03/2024
,"<div style=""font-size: 10rem; color: #0000FF"">Q</div>",,ospan,letter,kvJCOI7QKxdUto7M9yMs4keWWYd2,html-keyboard-response,165,787208,0.0-43.0-5.0-1.0-1.0-9.0,,,,,,,,,,,,,,,60ec1dd7eaa54649ce2bdd3f,13:52:07,05/03/2024
1733.0,,,ospan,symmetry,kvJCOI7QKxdUto7M9yMs4keWWYd2,symmetry-judgement-task,166,790903,0.0-43.0-5.0-1.0-1.0-10.0,,,,,,,,,,1.0,1.0,,,,60ec1dd7eaa54649ce2bdd3f,13:52:07,05/03/2024
,"<div style=""font-size: 10rem; color: #0000FF"">P</div>",,ospan,letter,kvJCOI7QKxdUto7M9yMs4keWWYd2,html-keyboard-response,167,791906,0.0-43.0-5.0-1.0-1.0-11.0,,,,,,,,,,,,,,,60ec1dd7eaa54649ce2bdd3f,13:52:07,05/03/2024
2914.0,,,ospan,symmetry,kvJCOI7QKxdUto7M9yMs4keWWYd2,symmetry-judgement-task,168,796899,0.0-43.0-5.0-1.0-1.0-12.0,,,,,,,,,,1.0,1.0,,,,60ec1dd7eaa54649ce2bdd3f,13:52:07,05/03/2024
,"<div style=""font-size: 10rem; color: #0000FF"">C</div>",,ospan,letter,kvJCOI7QKxdUto7M9yMs4keWWYd2,html-keyboard-response,169,797906,0.0-43.0-5.0-1.0-1.0-13.0,,,,,,,,,,,,,,,60ec1dd7eaa54649ce2bdd3f,13:52:07,05/03/2024
14126.700000047684,"<div class = numbox><p style=""font-size: 2.4rem"">Please recall the letters you saw to the best of your ability. If you do not remember a particular letter, use the SKIP button.<br><b>(When you are ready to lock in your answer, press ENTER)</b></p><button id = button_1 class = ""square num-button"" onclick = ""recordClick(this)""><div class = content><div class = numbers>C</div></div></button><button id = button_2 class = ""square num-button"" onclick = ""recordClick(this)""><div class = content><div class = numbers>G</div></div></button><button id = button_3 class = ""square num-button"" onclick = ""recordClick(this)""><div class = content><div class = numbers>H</div></div></button><button id = button_4 class = ""square num-button"" onclick = ""recordClick(this)""><div class = content><div class = numbers>J</div></div></button><button id = button_5 class = ""square num-button"" onclick = ""recordClick(this)""><div class = content><div class = numbers>K</div></div></button><button id = button_6 class = ""square num-button"" onclick = ""recordClick(this)""><div class = content><div class = numbers>L</div></div></button><button id = button_7 class = ""square num-button"" onclick = ""recordClick(this)""><div class = content><div class = numbers>N</div></div></button><button id = button_8 class = ""square num-button"" onclick = ""recordClick(this)""><div class = content><div class = numbers>P</div></div></button><button id = button_9 class = ""square num-button"" onclick = ""recordClick(this)""><div class = content><div class = numbers>Q</div></div></button><button id = button_10 class = ""square num-button"" onclick = ""recordClick(this)""><div class = content><div class = numbers>R</div></div></button><button id = button_11 class = ""square num-button"" onclick = ""recordClick(this)""><div class = content><div class = numbers>S</div></div></button><button id = button_12 class = ""square num-button"" onclick = ""recordClick(this)""><div class = content><div class = numbers>Y</div></div></button><button class = clear_button id = ""ClearButton"" onclick = ""clearResponse()"">BACKSPACE</button><button class = blank_button id = ""BlankButton"" onclick = ""blankResponse()"">SKIP</button><p style=""font-size: 2.4rem""><u><b>Current Answer:</b></u></p><br><br><div id=echoed_txt style=""font-size: 5rem; color:blue;""><b></b></div></div>",enter,ospan,retrieval,kvJCOI7QKxdUto7M9yMs4keWWYd2,html-keyboard-response,170,812800,0.0-43.0-5.0-1.0-2.0,28,24,10,7.0,"[""K"",""S"",""L"",""Y"",""Q"",""P"",""_""]","[""K"",""S"",""L"",""Y"",""Q"",""P"",""C""]",0.0,6.0,,,,,,,60ec1dd7eaa54649ce2bdd3f,13:52:07,05/03/2024
1574.2999999523163,[''],0,ospan,feedback,kvJCOI7QKxdUto7M9yMs4keWWYd2,html-button-response,171,814892,0.0-43.0-5.0-1.0-3.0,,,,,,,,,,,,100.0,0.0,,60ec1dd7eaa54649ce2bdd3f,13:52:07,05/03/2024
,"<p style=""font-size:75px;"">...</p>",,ospan,iti,kvJCOI7QKxdUto7M9yMs4keWWYd2,html-keyboard-response,172,815908,0.0-43.0-6.0-0.0-0.0,,,,,,,,,,,,,,,60ec1dd7eaa54649ce2bdd3f,13:52:07,05/03/2024
3286.0,,,ospan,symmetry,kvJCOI7QKxdUto7M9yMs4keWWYd2,symmetry-judgement-task,173,820410,0.0-43.0-6.0-0.0-1.0-0.0,,,,,,,,,,1.0,1.0,,,,60ec1dd7eaa54649ce2bdd3f,13:52:07,05/03/2024
,"<div style=""font-size: 10rem; color: #0000FF"">G</div>",,ospan,letter,kvJCOI7QKxdUto7M9yMs4keWWYd2,html-keyboard-response,174,821432,0.0-43.0-6.0-0.0-1.0-1.0,,,,,,,,,,,,,,,60ec1dd7eaa54649ce2bdd3f,13:52:07,05/03/2024
1729.0,,,ospan,symmetry,kvJCOI7QKxdUto7M9yMs4keWWYd2,symmetry-judgement-task,175,825127,0.0-43.0-6.0-0.0-1.0-2.0,,,,,,,,,,1.0,1.0,,,,60ec1dd7eaa54649ce2bdd3f,13:52:07,05/03/2024
,"<div style=""font-size: 10rem; color: #0000FF"">Q</div>",,ospan,letter,kvJCOI7QKxdUto7M9yMs4keWWYd2,html-keyboard-response,176,826133,0.0-43.0-6.0-0.0-1.0-3.0,,,,,,,,,,,,,,,60ec1dd7eaa54649ce2bdd3f,13:52:07,05/03/2024
2129.0,,,ospan,symmetry,kvJCOI7QKxdUto7M9yMs4keWWYd2,symmetry-judgement-task,177,830271,0.0-43.0-6.0-0.0-1.0-4.0,,,,,,,,,,1.0,1.0,,,,60ec1dd7eaa54649ce2bdd3f,13:52:07,05/03/2024
,"<div style=""font-size: 10rem; color: #0000FF"">J</div>",,ospan,letter,kvJCOI7QKxdUto7M9yMs4keWWYd2,html-keyboard-response,178,831281,0.0-43.0-6.0-0.0-1.0-5.0,,,,,,,,,,,,,,,60ec1dd7eaa54649ce2bdd3f,13:52:07,05/03/2024
1525.0,,,ospan,symmetry,kvJCOI7QKxdUto7M9yMs4keWWYd2,symmetry-judgement-task,179,834791,0.0-43.0-6.0-0.0-1.0-6.0,,,,,,,,,,1.0,1.0,,,,60ec1dd7eaa54649ce2bdd3f,13:52:07,05/03/2024
,"<div style=""font-size: 10rem; color: #0000FF"">H</div>",,ospan,letter,kvJCOI7QKxdUto7M9yMs4keWWYd2,html-keyboard-response,180,835807,0.0-43.0-6.0-0.0-1.0-7.0,,,,,,,,,,,,,,,60ec1dd7eaa54649ce2bdd3f,13:52:07,05/03/2024
1951.0,,,ospan,symmetry,kvJCOI7QKxdUto7M9yMs4keWWYd2,symmetry-judgement-task,181,839760,0.0-43.0-6.0-0.0-1.0-8.0,,,,,,,,,,1.0,1.0,,,,60ec1dd7eaa54649ce2bdd3f,13:52:07,05/03/2024
,"<div style=""font-size: 10rem; color: #0000FF"">N</div>",,ospan,letter,kvJCOI7QKxdUto7M9yMs4keWWYd2,html-keyboard-response,182,840772,0.0-43.0-6.0-0.0-1.0-9.0,,,,,,,,,,,,,,,60ec1dd7eaa54649ce2bdd3f,13:52:07,05/03/2024
4537.600000023842,"<div class = numbox><p style=""font-size: 2.4rem"">Please recall the letters you saw to the best of your ability. If you do not remember a particular letter, use the SKIP button.<br><b>(When you are ready to lock in your answer, press ENTER)</b></p><button id = button_1 class = ""square num-button"" onclick = ""recordClick(this)""><div class = content><div class = numbers>C</div></div></button><button id = button_2 class = ""square num-button"" onclick = ""recordClick(this)""><div class = content><div class = numbers>G</div></div></button><button id = button_3 class = ""square num-button"" onclick = ""recordClick(this)""><div class = content><div class = numbers>H</div></div></button><button id = button_4 class = ""square num-button"" onclick = ""recordClick(this)""><div class = content><div class = numbers>J</div></div></button><button id = button_5 class = ""square num-button"" onclick = ""recordClick(this)""><div class = content><div class = numbers>K</div></div></button><button id = button_6 class = ""square num-button"" onclick = ""recordClick(this)""><div class = content><div class = numbers>L</div></div></button><button id = button_7 class = ""square num-button"" onclick = ""recordClick(this)""><div class = content><div class = numbers>N</div></div></button><button id = button_8 class = ""square num-button"" onclick = ""recordClick(this)""><div class = content><div class = numbers>P</div></div></button><button id = button_9 class = ""square num-button"" onclick = ""recordClick(this)""><div class = content><div class = numbers>Q</div></div></button><button id = button_10 class = ""square num-button"" onclick = ""recordClick(this)""><div class = content><div class = numbers>R</div></div></button><button id = button_11 class = ""square num-button"" onclick = ""recordClick(this)""><div class = content><div class = numbers>S</div></div></button><button id = button_12 class = ""square num-button"" onclick = ""recordClick(this)""><div class = content><div class = numbers>Y</div></div></button><button class = clear_button id = ""ClearButton"" onclick = ""clearResponse()"">BACKSPACE</button><button class = blank_button id = ""BlankButton"" onclick = ""blankResponse()"">SKIP</button><p style=""font-size: 2.4rem""><u><b>Current Answer:</b></u></p><br><br><div id=echoed_txt style=""font-size: 5rem; color:blue;""><b></b></div></div>",enter,ospan,retrieval,kvJCOI7QKxdUto7M9yMs4keWWYd2,html-keyboard-response,183,846075,0.0-43.0-6.0-0.0-2.0,33,29,15,5.0,"[""G"",""Q"",""J"",""H"",""N""]","[""G"",""Q"",""J"",""H"",""N""]",1.0,5.0,,,,,,,60ec1dd7eaa54649ce2bdd3f,13:52:07,05/03/2024
605.3999999761581,[''],0,ospan,feedback,kvJCOI7QKxdUto7M9yMs4keWWYd2,html-button-response,184,847192,0.0-43.0-6.0-0.0-3.0,,,,,,,,,,,,100.0,0.0,,60ec1dd7eaa54649ce2bdd3f,13:52:07,05/03/2024
,"<p style=""font-size:75px;"">...</p>",,ospan,iti,kvJCOI7QKxdUto7M9yMs4keWWYd2,html-keyboard-response,185,848199,0.0-43.0-6.0-1.0-0.0,,,,,,,,,,,,,,,60ec1dd7eaa54649ce2bdd3f,13:52:07,05/03/2024
1708.0,,,ospan,symmetry,kvJCOI7QKxdUto7M9yMs4keWWYd2,symmetry-judgement-task,186,851139,0.0-43.0-6.0-1.0-1.0-0.0,,,,,,,,,,1.0,1.0,,,,60ec1dd7eaa54649ce2bdd3f,13:52:07,05/03/2024
,"<div style=""font-size: 10rem; color: #0000FF"">N</div>",,ospan,letter,kvJCOI7QKxdUto7M9yMs4keWWYd2,html-keyboard-response,187,852150,0.0-43.0-6.0-1.0-1.0-1.0,,,,,,,,,,,,,,,60ec1dd7eaa54649ce2bdd3f,13:52:07,05/03/2024
1379.0,,,ospan,symmetry,kvJCOI7QKxdUto7M9yMs4keWWYd2,symmetry-judgement-task,188,855541,0.0-43.0-6.0-1.0-1.0-2.0,,,,,,,,,,1.0,1.0,,,,60ec1dd7eaa54649ce2bdd3f,13:52:07,05/03/2024
,"<div style=""font-size: 10rem; color: #0000FF"">G</div>",,ospan,letter,kvJCOI7QKxdUto7M9yMs4keWWYd2,html-keyboard-response,189,856551,0.0-43.0-6.0-1.0-1.0-3.0,,,,,,,,,,,,,,,60ec1dd7eaa54649ce2bdd3f,13:52:07,05/03/2024
930.0,,,ospan,symmetry,kvJCOI7QKxdUto7M9yMs4keWWYd2,symmetry-judgement-task,190,859508,0.0-43.0-6.0-1.0-1.0-4.0,,,,,,,,,,1.0,1.0,,,,60ec1dd7eaa54649ce2bdd3f,13:52:07,05/03/2024
,"<div style=""font-size: 10rem; color: #0000FF"">Q</div>",,ospan,letter,kvJCOI7QKxdUto7M9yMs4keWWYd2,html-keyboard-response,191,860524,0.0-43.0-6.0-1.0-1.0-5.0,,,,,,,,,,,,,,,60ec1dd7eaa54649ce2bdd3f,13:52:07,05/03/2024
1438.0,,,ospan,symmetry,kvJCOI7QKxdUto7M9yMs4keWWYd2,symmetry-judgement-task,192,863997,0.0-43.0-6.0-1.0-1.0-6.0,,,,,,,,,,1.0,1.0,,,,60ec1dd7eaa54649ce2bdd3f,13:52:07,05/03/2024
,"<div style=""font-size: 10rem; color: #0000FF"">J</div>",,ospan,letter,kvJCOI7QKxdUto7M9yMs4keWWYd2,html-keyboard-response,193,865004,0.0-43.0-6.0-1.0-1.0-7.0,,,,,,,,,,,,,,,60ec1dd7eaa54649ce2bdd3f,13:52:07,05/03/2024
1151.0,,,ospan,symmetry,kvJCOI7QKxdUto7M9yMs4keWWYd2,symmetry-judgement-task,194,868203,0.0-43.0-6.0-1.0-1.0-8.0,,,,,,,,,,1.0,1.0,,,,60ec1dd7eaa54649ce2bdd3f,13:52:07,05/03/2024
,"<div style=""font-size: 10rem; color: #0000FF"">C</div>",,ospan,letter,kvJCOI7QKxdUto7M9yMs4keWWYd2,html-keyboard-response,195,869212,0.0-43.0-6.0-1.0-1.0-9.0,,,,,,,,,,,,,,,60ec1dd7eaa54649ce2bdd3f,13:52:07,05/03/2024
2038.0,,,ospan,symmetry,kvJCOI7QKxdUto7M9yMs4keWWYd2,symmetry-judgement-task,196,873255,0.0-43.0-6.0-1.0-1.0-10.0,,,,,,,,,,1.0,1.0,,,,60ec1dd7eaa54649ce2bdd3f,13:52:07,05/03/2024
,"<div style=""font-size: 10rem; color: #0000FF"">K</div>",,ospan,letter,kvJCOI7QKxdUto7M9yMs4keWWYd2,html-keyboard-response,197,874269,0.0-43.0-6.0-1.0-1.0-11.0,,,,,,,,,,,,,,,60ec1dd7eaa54649ce2bdd3f,13:52:07,05/03/2024
1762.0,,,ospan,symmetry,kvJCOI7QKxdUto7M9yMs4keWWYd2,symmetry-judgement-task,198,878052,0.0-43.0-6.0-1.0-1.0-12.0,,,,,,,,,,1.0,1.0,,,,60ec1dd7eaa54649ce2bdd3f,13:52:07,05/03/2024
,"<div style=""font-size: 10rem; color: #0000FF"">L</div>",,ospan,letter,kvJCOI7QKxdUto7M9yMs4keWWYd2,html-keyboard-response,199,879059,0.0-43.0-6.0-1.0-1.0-13.0,,,,,,,,,,,,,,,60ec1dd7eaa54649ce2bdd3f,13:52:07,05/03/2024
1760.0,,,ospan,symmetry,kvJCOI7QKxdUto7M9yMs4keWWYd2,symmetry-judgement-task,200,882910,0.0-43.0-6.0-1.0-1.0-14.0,,,,,,,,,,1.0,1.0,,,,60ec1dd7eaa54649ce2bdd3f,13:52:07,05/03/2024
,"<div style=""font-size: 10rem; color: #0000FF"">S</div>",,ospan,letter,kvJCOI7QKxdUto7M9yMs4keWWYd2,html-keyboard-response,201,883928,0.0-43.0-6.0-1.0-1.0-15.0,,,,,,,,,,,,,,,60ec1dd7eaa54649ce2bdd3f,13:52:07,05/03/2024
7782.299999952316,"<div class = numbox><p style=""font-size: 2.4rem"">Please recall the letters you saw to the best of your ability. If you do not remember a particular letter, use the SKIP button.<br><b>(When you are ready to lock in your answer, press ENTER)</b></p><button id = button_1 class = ""square num-button"" onclick = ""recordClick(this)""><div class = content><div class = numbers>C</div></div></button><button id = button_2 class = ""square num-button"" onclick = ""recordClick(this)""><div class = content><div class = numbers>G</div></div></button><button id = button_3 class = ""square num-button"" onclick = ""recordClick(this)""><div class = content><div class = numbers>H</div></div></button><button id = button_4 class = ""square num-button"" onclick = ""recordClick(this)""><div class = content><div class = numbers>J</div></div></button><button id = button_5 class = ""square num-button"" onclick = ""recordClick(this)""><div class = content><div class = numbers>K</div></div></button><button id = button_6 class = ""square num-button"" onclick = ""recordClick(this)""><div class = content><div class = numbers>L</div></div></button><button id = button_7 class = ""square num-button"" onclick = ""recordClick(this)""><div class = content><div class = numbers>N</div></div></button><button id = button_8 class = ""square num-button"" onclick = ""recordClick(this)""><div class = content><div class = numbers>P</div></div></button><button id = button_9 class = ""square num-button"" onclick = ""recordClick(this)""><div class = content><div class = numbers>Q</div></div></button><button id = button_10 class = ""square num-button"" onclick = ""recordClick(this)""><div class = content><div class = numbers>R</div></div></button><button id = button_11 class = ""square num-button"" onclick = ""recordClick(this)""><div class = content><div class = numbers>S</div></div></button><button id = button_12 class = ""square num-button"" onclick = ""recordClick(this)""><div class = content><div class = numbers>Y</div></div></button><button class = clear_button id = ""ClearButton"" onclick = ""clearResponse()"">BACKSPACE</button><button class = blank_button id = ""BlankButton"" onclick = ""blankResponse()"">SKIP</button><p style=""font-size: 2.4rem""><u><b>Current Answer:</b></u></p><br><br><div id=echoed_txt style=""font-size: 5rem; color:blue;""><b></b></div></div>",enter,ospan,retrieval,kvJCOI7QKxdUto7M9yMs4keWWYd2,html-keyboard-response,202,892466,0.0-43.0-6.0-1.0-2.0,41,34,15,8.0,"[""N"",""G"",""Q"",""J"",""C"",""L"",""S""]","[""N"",""G"",""Q"",""J"",""C"",""K"",""L"",""S""]",0.0,5.0,,,,,,,60ec1dd7eaa54649ce2bdd3f,13:52:07,05/03/2024
1420.9000000953674,[''],0,ospan,feedback,kvJCOI7QKxdUto7M9yMs4keWWYd2,html-button-response,203,894404,0.0-43.0-6.0-1.0-3.0,,,,,,,,,,,,100.0,0.0,,60ec1dd7eaa54649ce2bdd3f,13:52:07,05/03/2024
74951.0,,{'Q0': 'i enjoyed the symmetry task alone and the memorising letters didnt make the symmetry task harder but the gap between letters to do the symmetry task made it difficult to remember letters especially when there were a lot of letters. i enjoyed the challenge though'},ospan,survey_ospan,kvJCOI7QKxdUto7M9yMs4keWWYd2,lmdlab-survey-text,204,970123,0.0-43.0-7.0,,,,,,,,,,,,,,kvJCOI7QKxdUto7M9yMs4keWWYd2,60ec1dd7eaa54649ce2bdd3f,13:52:07,05/03/2024
2114.2000000476837,<p><p style='font-size: 3rem'>Great work!<br><br>This completes the symmetry and memory task.</p><br><br><br>,0,ospan,finish,kvJCOI7QKxdUto7M9yMs4keWWYd2,html-button-response,205,972243,0.0-43.0-8.0,41,34,15,,,,,,,,,100.0,,,60ec1dd7eaa54649ce2bdd3f,13:52:07,05/03/2024
