rt,stimulus,response,exp_name,exp_stage,subjectID,trial_type,trial_index,time_elapsed,internal_node_id,ospan_shown,ospan_total,ospan_abs,length,resp_actual,resp_correct,full_correct,num_correct,feedback,accuracy,correct,math_acc,math_warning,databaseID,prolificID,start_time,date
1433.7999999523163,<div class = 'left_align' style='font-size: 3.25rem; line-height: 1.3;'><p class = 'center_align'><b>Welcome to the Symmetry and Memory Task</b><br><br><br><br></p>Press 'continue' to show the instructions.<br><br><br><br></div>,0,ospan,instruct,9BuJvcFwZfY6XLOyFsRG6orXj913,html-button-response,54,425499,0.0-46.0-0.0-0.0-0.0,,,,,,,,,,,,,,,59d6165050f88f000161e951,10:48:58,04/04/2024
6064.0,"<div class = 'left_align' style='font-size: 3.25rem; line-height: 1.3;'><p class = 'center_align'><b>Symmetry and Memory Task</b><br><br></p>In this task, you will try to memorize letters you see on the screen<br>while you also view black and white grid pictures.<br><br>In the next few minutes, you will have some practice to get you familiar<br>with how the task works.<br><br>It may be difficult sometimes, but please do not worry about making mistakes!<br><br>We will begin by practicing the letter part of the task.<br><br><br><br></div>",0,ospan,instruct,9BuJvcFwZfY6XLOyFsRG6orXj913,html-button-response,55,431827,0.0-46.0-0.0-0.0-1.0,,,,,,,,,,,,,,,59d6165050f88f000161e951,10:48:58,04/04/2024
1335.5,"<div class = 'left_align' style='font-size: 3.25rem; line-height: 1.3;'>For this practice part, letters will appear on the screen one at a time.<br><br>Try to remember each letter in the order presented.<br><br>After some letters have been shown, you will see a response screen. Your<br>goal is to report the letters you saw <b>in order</b>. If you do not remember<br>a particular letter, you will have the option to leave it blank.<br><br><br><br></div>",0,ospan,instruct,9BuJvcFwZfY6XLOyFsRG6orXj913,html-button-response,56,433421,0.0-46.0-0.0-0.0-2.0,,,,,,,,,,,,,,,59d6165050f88f000161e951,10:48:58,04/04/2024
1838.2000000476837,"<div class = 'left_align' style='font-size: 3.25rem; line-height: 1.3;'>Remember, it is very important to get the letters in the same<br>order as you see them.<br><br>When you are ready, you may begin the letter practice.</div><br><br><br><br>",0,ospan,instruct,9BuJvcFwZfY6XLOyFsRG6orXj913,html-button-response,57,435516,0.0-46.0-0.0-0.0-3.0,,,,,,,,,,,,,,,59d6165050f88f000161e951,10:48:58,04/04/2024
,"<p style=""font-size:75px;"">...</p>",,ospan,iti,9BuJvcFwZfY6XLOyFsRG6orXj913,html-keyboard-response,58,436776,0.0-46.0-0.0-1.0-0.0,,,,,,,,,,,,,,,59d6165050f88f000161e951,10:48:58,04/04/2024
,"<div style=""font-size: 10rem; color: #0000FF"">G</div>",,ospan,letter,9BuJvcFwZfY6XLOyFsRG6orXj913,html-keyboard-response,59,437790,0.0-46.0-0.0-1.0-1.0,,,,,,,,,,,,,,,59d6165050f88f000161e951,10:48:58,04/04/2024
,"<div style=""font-size: 10rem; color: #0000FF"">K</div>",,ospan,letter,9BuJvcFwZfY6XLOyFsRG6orXj913,html-keyboard-response,60,439554,0.0-46.0-0.0-1.0-2.0,,,,,,,,,,,,,,,59d6165050f88f000161e951,10:48:58,04/04/2024
6693.700000047684,"<div class = numbox><p style=""font-size: 2.4rem"">Please recall the letters you saw to the best of your ability. If you do not remember a particular letter, use the SKIP button.<br><b>(When you are ready to lock in your answer, press ENTER)</b></p><button id = button_1 class = ""square num-button"" onclick = ""recordClick(this)""><div class = content><div class = numbers>C</div></div></button><button id = button_2 class = ""square num-button"" onclick = ""recordClick(this)""><div class = content><div class = numbers>G</div></div></button><button id = button_3 class = ""square num-button"" onclick = ""recordClick(this)""><div class = content><div class = numbers>H</div></div></button><button id = button_4 class = ""square num-button"" onclick = ""recordClick(this)""><div class = content><div class = numbers>J</div></div></button><button id = button_5 class = ""square num-button"" onclick = ""recordClick(this)""><div class = content><div class = numbers>K</div></div></button><button id = button_6 class = ""square num-button"" onclick = ""recordClick(this)""><div class = content><div class = numbers>L</div></div></button><button id = button_7 class = ""square num-button"" onclick = ""recordClick(this)""><div class = content><div class = numbers>N</div></div></button><button id = button_8 class = ""square num-button"" onclick = ""recordClick(this)""><div class = content><div class = numbers>P</div></div></button><button id = button_9 class = ""square num-button"" onclick = ""recordClick(this)""><div class = content><div class = numbers>Q</div></div></button><button id = button_10 class = ""square num-button"" onclick = ""recordClick(this)""><div class = content><div class = numbers>R</div></div></button><button id = button_11 class = ""square num-button"" onclick = ""recordClick(this)""><div class = content><div class = numbers>S</div></div></button><button id = button_12 class = ""square num-button"" onclick = ""recordClick(this)""><div class = content><div class = numbers>Y</div></div></button><button class = clear_button id = ""ClearButton"" onclick = ""clearResponse()"">BACKSPACE</button><button class = blank_button id = ""BlankButton"" onclick = ""blankResponse()"">SKIP</button><p style=""font-size: 2.4rem""><u><b>Current Answer:</b></u></p><br><br><div id=echoed_txt style=""font-size: 5rem; color:blue;""><b></b></div></div>",enter,ospan,retrieval,9BuJvcFwZfY6XLOyFsRG6orXj913,html-keyboard-response,61,447015,0.0-46.0-0.0-1.0-3.0,NA,NA,NA,2.0,"[""G"",""K""]","[""G"",""K""]",1.0,2.0,"['<font color=""green"">G</font>', '<font color=""green"">K</font>']",,,,,,59d6165050f88f000161e951,10:48:58,04/04/2024
2581.5,"['<p style=""font-size:44px"">Letters:<br><br><br><font color=""green"">G</font> <font color=""green"">K</font></p><br><br>']",0,ospan,practice_feedback,9BuJvcFwZfY6XLOyFsRG6orXj913,html-button-response,62,450101,0.0-46.0-0.0-1.0-4.0,,,,,,,,,,,,,,,59d6165050f88f000161e951,10:48:58,04/04/2024
,"<p style=""font-size:75px;"">...</p>",,ospan,iti,9BuJvcFwZfY6XLOyFsRG6orXj913,html-keyboard-response,63,451111,0.0-46.0-0.0-2.0-0.0,,,,,,,,,,,,,,,59d6165050f88f000161e951,10:48:58,04/04/2024
,"<div style=""font-size: 10rem; color: #0000FF"">R</div>",,ospan,letter,9BuJvcFwZfY6XLOyFsRG6orXj913,html-keyboard-response,64,452126,0.0-46.0-0.0-2.0-1.0,,,,,,,,,,,,,,,59d6165050f88f000161e951,10:48:58,04/04/2024
,"<div style=""font-size: 10rem; color: #0000FF"">Q</div>",,ospan,letter,9BuJvcFwZfY6XLOyFsRG6orXj913,html-keyboard-response,65,453891,0.0-46.0-0.0-2.0-2.0,,,,,,,,,,,,,,,59d6165050f88f000161e951,10:48:58,04/04/2024
,"<div style=""font-size: 10rem; color: #0000FF"">L</div>",,ospan,letter,9BuJvcFwZfY6XLOyFsRG6orXj913,html-keyboard-response,66,455654,0.0-46.0-0.0-2.0-3.0,,,,,,,,,,,,,,,59d6165050f88f000161e951,10:48:58,04/04/2024
6056.399999856949,"<div class = numbox><p style=""font-size: 2.4rem"">Please recall the letters you saw to the best of your ability. If you do not remember a particular letter, use the SKIP button.<br><b>(When you are ready to lock in your answer, press ENTER)</b></p><button id = button_1 class = ""square num-button"" onclick = ""recordClick(this)""><div class = content><div class = numbers>C</div></div></button><button id = button_2 class = ""square num-button"" onclick = ""recordClick(this)""><div class = content><div class = numbers>G</div></div></button><button id = button_3 class = ""square num-button"" onclick = ""recordClick(this)""><div class = content><div class = numbers>H</div></div></button><button id = button_4 class = ""square num-button"" onclick = ""recordClick(this)""><div class = content><div class = numbers>J</div></div></button><button id = button_5 class = ""square num-button"" onclick = ""recordClick(this)""><div class = content><div class = numbers>K</div></div></button><button id = button_6 class = ""square num-button"" onclick = ""recordClick(this)""><div class = content><div class = numbers>L</div></div></button><button id = button_7 class = ""square num-button"" onclick = ""recordClick(this)""><div class = content><div class = numbers>N</div></div></button><button id = button_8 class = ""square num-button"" onclick = ""recordClick(this)""><div class = content><div class = numbers>P</div></div></button><button id = button_9 class = ""square num-button"" onclick = ""recordClick(this)""><div class = content><div class = numbers>Q</div></div></button><button id = button_10 class = ""square num-button"" onclick = ""recordClick(this)""><div class = content><div class = numbers>R</div></div></button><button id = button_11 class = ""square num-button"" onclick = ""recordClick(this)""><div class = content><div class = numbers>S</div></div></button><button id = button_12 class = ""square num-button"" onclick = ""recordClick(this)""><div class = content><div class = numbers>Y</div></div></button><button class = clear_button id = ""ClearButton"" onclick = ""clearResponse()"">BACKSPACE</button><button class = blank_button id = ""BlankButton"" onclick = ""blankResponse()"">SKIP</button><p style=""font-size: 2.4rem""><u><b>Current Answer:</b></u></p><br><br><div id=echoed_txt style=""font-size: 5rem; color:blue;""><b></b></div></div>",enter,ospan,retrieval,9BuJvcFwZfY6XLOyFsRG6orXj913,html-keyboard-response,67,462465,0.0-46.0-0.0-2.0-4.0,NA,NA,NA,3.0,"[""R"",""Q"",""L""]","[""R"",""Q"",""L""]",1.0,3.0,"['<font color=""green"">R</font>', '<font color=""green"">Q</font>', '<font color=""green"">L</font>']",,,,,,59d6165050f88f000161e951,10:48:58,04/04/2024
3419.399999856949,"['<p style=""font-size:44px"">Letters:<br><br><br><font color=""green"">R</font> <font color=""green"">Q</font> <font color=""green"">L</font></p><br><br>']",0,ospan,practice_feedback,9BuJvcFwZfY6XLOyFsRG6orXj913,html-button-response,68,466396,0.0-46.0-0.0-2.0-5.0,,,,,,,,,,,,,,,59d6165050f88f000161e951,10:48:58,04/04/2024
8776.5,"<div class = 'left_align' style='font-size: 3.25rem; line-height: 1.3;'>Now you will practice doing the <b>symmetry judgment part</b> of the experiment.<br><br>A black and white grid picture will appear on the screen and you have to judge if it is <br>symmetrical or asymetrical.<br><br>A picture is 'mirror' symmetrical if its left half is identical to the right half when flipped.<br>Here are examples of a symmetrical and an asymetrical picture:<br><br><center><img src='Stimuli/img/symm_instructions_extra.png' style='height:420px; width:900'></img></center><br>To judge symmetry, imagine you were to fold each picture down the middle, like a book –<br>would the left half match the right half when folded onto each other?<br><br></div><br>",0,ospan,instruct,9BuJvcFwZfY6XLOyFsRG6orXj913,html-button-response,69,475175,0.0-46.0-1.0-0.0-0.0,,,,,,,,,,,,,,,59d6165050f88f000161e951,10:48:58,04/04/2024
1940.5,"<div class = 'left_align' style='font-size: 3.25rem; line-height: 1.3;'>When you have viewed the picture and determined whether it is symmetrical or not,<br>you can <b>click the Yes or No button</b> below to answer.<br><br>If you take longer than 15 seconds, it will continue automatically<br>and record the answer as an error.</div><br>",0,ospan,instruct,9BuJvcFwZfY6XLOyFsRG6orXj913,html-button-response,70,477376,0.0-46.0-1.0-0.0-1.0,,,,,,,,,,,,,,,59d6165050f88f000161e951,10:48:58,04/04/2024
1365.0,"<div class = 'left_align' style='font-size: 3.25rem; line-height: 1.3;'>It is <b>very</b> important that you make the symmetry judgment correctly.<br><br>It is also important that you try and judge the picture as quickly as you can.<br><br>When you are ready, click on the button below to try some practice problems.</div><br><br><br><br>",0,ospan,instruct,9BuJvcFwZfY6XLOyFsRG6orXj913,html-button-response,71,478999,0.0-46.0-1.0-0.0-2.0,,,,,,,,,,,,,,,59d6165050f88f000161e951,10:48:58,04/04/2024
2323.0,,,ospan,symmetry,9BuJvcFwZfY6XLOyFsRG6orXj913,symmetry-judgement-task,72,482202,0.0-46.0-1.0-1.0-0.0,,,,,,,,,,1.0,1.0,,,,59d6165050f88f000161e951,10:48:58,04/04/2024
,"<p style=""color:green; font-size: 35px"">Correct</p>",,ospan,feedback,9BuJvcFwZfY6XLOyFsRG6orXj913,html-keyboard-response,73,482960,0.0-46.0-1.0-1.0-1.0,,,,,,,,,,,,,,,59d6165050f88f000161e951,10:48:58,04/04/2024
1619.0,,,ospan,symmetry,9BuJvcFwZfY6XLOyFsRG6orXj913,symmetry-judgement-task,74,487404,0.0-46.0-1.0-1.0-2.0,,,,,,,,,,1.0,1.0,,,,59d6165050f88f000161e951,10:48:58,04/04/2024
,"<p style=""color:green; font-size: 35px"">Correct</p>",,ospan,feedback,9BuJvcFwZfY6XLOyFsRG6orXj913,html-keyboard-response,75,488157,0.0-46.0-1.0-1.0-3.0,,,,,,,,,,,,,,,59d6165050f88f000161e951,10:48:58,04/04/2024
1864.0,,,ospan,symmetry,9BuJvcFwZfY6XLOyFsRG6orXj913,symmetry-judgement-task,76,492907,0.0-46.0-1.0-1.0-4.0,,,,,,,,,,1.0,1.0,,,,59d6165050f88f000161e951,10:48:58,04/04/2024
,"<p style=""color:green; font-size: 35px"">Correct</p>",,ospan,feedback,9BuJvcFwZfY6XLOyFsRG6orXj913,html-keyboard-response,77,493665,0.0-46.0-1.0-1.0-5.0,,,,,,,,,,,,,,,59d6165050f88f000161e951,10:48:58,04/04/2024
15993.0,"<p style=""font-size: 3rem;"">You responded correctly on 3 of 3 symmetry judgments. Good job!</p><br><br>",0,ospan,practice,9BuJvcFwZfY6XLOyFsRG6orXj913,html-button-response,78,511673,0.0-46.0-1.0-2.0,,,,,,,,,,,,,,,59d6165050f88f000161e951,10:48:58,04/04/2024
4698.700000047684,"<div class = 'left_align' style='font-size: 3.25rem; line-height: 1.3;'>Now you will practice doing both parts of the experiment at the same time.<br><br>In the next practice set, you will be given one grid picture to judge.<br>Then letter will appear on the screen. Try to remember the letter.<br><br>It is <b>very important</b> to make the symmetry judgment as quickly and accurately as possible.<br><br>Just as before, once you have make the symmetry judgment, you can click Yes or No.<br><b>Note that you will no longer see Correct or Incorrect feedback.</div><br><br><br><br>",0,ospan,instruct,9BuJvcFwZfY6XLOyFsRG6orXj913,html-button-response,79,516637,0.0-46.0-2.0-0.0-0.0,,,,,,,,,,,,,,,59d6165050f88f000161e951,10:48:58,04/04/2024
1573.5999999046326,"<div class = 'left_align' style='font-size: 3.25rem; line-height: 1.3;'>After the letter goes away, another grid picture will appear, and then<br>another letter.<br><br>At the end of each set of letters and grids, you will recall the letters to the best<br>of your ability. Remember, try your best to get the letters in the correct order.<br><br>It is important to <b>quickly</b> and <b>accurately</b> make the symmetry judgments.</div><br><br><br><br>",0,ospan,instruct,9BuJvcFwZfY6XLOyFsRG6orXj913,html-button-response,80,518476,0.0-46.0-2.0-0.0-1.0,,,,,,,,,,,,,,,59d6165050f88f000161e951,10:48:58,04/04/2024
5004.799999952316,"<div class = 'left_align' style='font-size: 3.25rem; line-height: 1.3;'>On the feedback screen, if you are not doing well at the symmetry judgments,<br>you will also see a warning in the middle. This indicates your percent <br>correct for the grid pictures for the entire experiment.<br><br>It is <b>very</b> important for you to keep accuracy at least at 85%: <u>We can only use<br>data where the participant was at least 85% accurate on the judgments.</u> Therefore,<br> please try your best to perform well on the symmetry judgments, <b>at the same time</b><br>doing your best to recall as many letters as possible.<br><br>Click the button to try some practice problems.</div><br><br><br><br>",0,ospan,instruct,9BuJvcFwZfY6XLOyFsRG6orXj913,html-button-response,81,523740,0.0-46.0-2.0-0.0-2.0,,,,,,,,,,,,,,,59d6165050f88f000161e951,10:48:58,04/04/2024
,"<p style=""font-size:75px;"">...</p>",,ospan,iti,9BuJvcFwZfY6XLOyFsRG6orXj913,html-keyboard-response,82,525005,0.0-46.0-2.0-1.0-0.0,,,,,,,,,,,,,,,59d6165050f88f000161e951,10:48:58,04/04/2024
2002.0,,,ospan,symmetry,9BuJvcFwZfY6XLOyFsRG6orXj913,symmetry-judgement-task,83,528099,0.0-46.0-2.0-1.0-1.0-0.0,,,,,,,,,,1.0,1.0,,,,59d6165050f88f000161e951,10:48:58,04/04/2024
,"<div style=""font-size: 10rem; color: #0000FF"">R</div>",,ospan,letter,9BuJvcFwZfY6XLOyFsRG6orXj913,html-keyboard-response,84,529107,0.0-46.0-2.0-1.0-1.0-1.0,,,,,,,,,,,,,,,59d6165050f88f000161e951,10:48:58,04/04/2024
2310.0,,,ospan,symmetry,9BuJvcFwZfY6XLOyFsRG6orXj913,symmetry-judgement-task,85,533611,0.0-46.0-2.0-1.0-1.0-2.0,,,,,,,,,,1.0,1.0,,,,59d6165050f88f000161e951,10:48:58,04/04/2024
,"<div style=""font-size: 10rem; color: #0000FF"">L</div>",,ospan,letter,9BuJvcFwZfY6XLOyFsRG6orXj913,html-keyboard-response,86,534614,0.0-46.0-2.0-1.0-1.0-3.0,,,,,,,,,,,,,,,59d6165050f88f000161e951,10:48:58,04/04/2024
1577.0,,,ospan,symmetry,9BuJvcFwZfY6XLOyFsRG6orXj913,symmetry-judgement-task,87,538455,0.0-46.0-2.0-1.0-1.0-4.0,,,,,,,,,,1.0,1.0,,,,59d6165050f88f000161e951,10:48:58,04/04/2024
,"<div style=""font-size: 10rem; color: #0000FF"">J</div>",,ospan,letter,9BuJvcFwZfY6XLOyFsRG6orXj913,html-keyboard-response,88,539462,0.0-46.0-2.0-1.0-1.0-5.0,,,,,,,,,,,,,,,59d6165050f88f000161e951,10:48:58,04/04/2024
4951.0,"<div class = numbox><p style=""font-size: 2.4rem"">Please recall the letters you saw to the best of your ability. If you do not remember a particular letter, use the SKIP button.<br><b>(When you are ready to lock in your answer, press ENTER)</b></p><button id = button_1 class = ""square num-button"" onclick = ""recordClick(this)""><div class = content><div class = numbers>C</div></div></button><button id = button_2 class = ""square num-button"" onclick = ""recordClick(this)""><div class = content><div class = numbers>G</div></div></button><button id = button_3 class = ""square num-button"" onclick = ""recordClick(this)""><div class = content><div class = numbers>H</div></div></button><button id = button_4 class = ""square num-button"" onclick = ""recordClick(this)""><div class = content><div class = numbers>J</div></div></button><button id = button_5 class = ""square num-button"" onclick = ""recordClick(this)""><div class = content><div class = numbers>K</div></div></button><button id = button_6 class = ""square num-button"" onclick = ""recordClick(this)""><div class = content><div class = numbers>L</div></div></button><button id = button_7 class = ""square num-button"" onclick = ""recordClick(this)""><div class = content><div class = numbers>N</div></div></button><button id = button_8 class = ""square num-button"" onclick = ""recordClick(this)""><div class = content><div class = numbers>P</div></div></button><button id = button_9 class = ""square num-button"" onclick = ""recordClick(this)""><div class = content><div class = numbers>Q</div></div></button><button id = button_10 class = ""square num-button"" onclick = ""recordClick(this)""><div class = content><div class = numbers>R</div></div></button><button id = button_11 class = ""square num-button"" onclick = ""recordClick(this)""><div class = content><div class = numbers>S</div></div></button><button id = button_12 class = ""square num-button"" onclick = ""recordClick(this)""><div class = content><div class = numbers>Y</div></div></button><button class = clear_button id = ""ClearButton"" onclick = ""clearResponse()"">BACKSPACE</button><button class = blank_button id = ""BlankButton"" onclick = ""blankResponse()"">SKIP</button><p style=""font-size: 2.4rem""><u><b>Current Answer:</b></u></p><br><br><div id=echoed_txt style=""font-size: 5rem; color:blue;""><b></b></div></div>",enter,ospan,retrieval,9BuJvcFwZfY6XLOyFsRG6orXj913,html-keyboard-response,89,545173,0.0-46.0-2.0-1.0-2.0-0.0,NA,NA,NA,3.0,"[""R"",""L"",""J""]","[""R"",""L"",""J""]",1.0,3.0,"['<font color=""green"">R</font>', '<font color=""green"">L</font>', '<font color=""green"">J</font>']",,,,,,59d6165050f88f000161e951,10:48:58,04/04/2024
5940.799999952316,"['<p style=""font-size:44px"">Letters:<br><br><br><font color=""green"">R</font> <font color=""green"">L</font> <font color=""green"">J</font></p><br><br><p style=""font-size:30px"">Symmetry:<br><br><font color=""green"">100%</font></p><br><br>']",0,ospan,practice_feedback,9BuJvcFwZfY6XLOyFsRG6orXj913,html-button-response,90,551625,0.0-46.0-2.0-1.0-2.0-1.0,,,,,,,,,,,,,,,59d6165050f88f000161e951,10:48:58,04/04/2024
,"<p style=""font-size:75px;"">...</p>",,ospan,iti,9BuJvcFwZfY6XLOyFsRG6orXj913,html-keyboard-response,91,552633,0.0-46.0-2.0-2.0-0.0,,,,,,,,,,,,,,,59d6165050f88f000161e951,10:48:58,04/04/2024
1803.0,,,ospan,symmetry,9BuJvcFwZfY6XLOyFsRG6orXj913,symmetry-judgement-task,92,555698,0.0-46.0-2.0-2.0-1.0-0.0,,,,,,,,,,1.0,1.0,,,,59d6165050f88f000161e951,10:48:58,04/04/2024
,"<div style=""font-size: 10rem; color: #0000FF"">N</div>",,ospan,letter,9BuJvcFwZfY6XLOyFsRG6orXj913,html-keyboard-response,93,556711,0.0-46.0-2.0-2.0-1.0-1.0,,,,,,,,,,,,,,,59d6165050f88f000161e951,10:48:58,04/04/2024
1918.0,,,ospan,symmetry,9BuJvcFwZfY6XLOyFsRG6orXj913,symmetry-judgement-task,94,560724,0.0-46.0-2.0-2.0-1.0-2.0,,,,,,,,,,1.0,1.0,,,,59d6165050f88f000161e951,10:48:58,04/04/2024
,"<div style=""font-size: 10rem; color: #0000FF"">C</div>",,ospan,letter,9BuJvcFwZfY6XLOyFsRG6orXj913,html-keyboard-response,95,561731,0.0-46.0-2.0-2.0-1.0-3.0,,,,,,,,,,,,,,,59d6165050f88f000161e951,10:48:58,04/04/2024
1630.0,,,ospan,symmetry,9BuJvcFwZfY6XLOyFsRG6orXj913,symmetry-judgement-task,96,565364,0.0-46.0-2.0-2.0-1.0-4.0,,,,,,,,,,1.0,1.0,,,,59d6165050f88f000161e951,10:48:58,04/04/2024
,"<div style=""font-size: 10rem; color: #0000FF"">Y</div>",,ospan,letter,9BuJvcFwZfY6XLOyFsRG6orXj913,html-keyboard-response,97,566376,0.0-46.0-2.0-2.0-1.0-5.0,,,,,,,,,,,,,,,59d6165050f88f000161e951,10:48:58,04/04/2024
4101.0,"<div class = numbox><p style=""font-size: 2.4rem"">Please recall the letters you saw to the best of your ability. If you do not remember a particular letter, use the SKIP button.<br><b>(When you are ready to lock in your answer, press ENTER)</b></p><button id = button_1 class = ""square num-button"" onclick = ""recordClick(this)""><div class = content><div class = numbers>C</div></div></button><button id = button_2 class = ""square num-button"" onclick = ""recordClick(this)""><div class = content><div class = numbers>G</div></div></button><button id = button_3 class = ""square num-button"" onclick = ""recordClick(this)""><div class = content><div class = numbers>H</div></div></button><button id = button_4 class = ""square num-button"" onclick = ""recordClick(this)""><div class = content><div class = numbers>J</div></div></button><button id = button_5 class = ""square num-button"" onclick = ""recordClick(this)""><div class = content><div class = numbers>K</div></div></button><button id = button_6 class = ""square num-button"" onclick = ""recordClick(this)""><div class = content><div class = numbers>L</div></div></button><button id = button_7 class = ""square num-button"" onclick = ""recordClick(this)""><div class = content><div class = numbers>N</div></div></button><button id = button_8 class = ""square num-button"" onclick = ""recordClick(this)""><div class = content><div class = numbers>P</div></div></button><button id = button_9 class = ""square num-button"" onclick = ""recordClick(this)""><div class = content><div class = numbers>Q</div></div></button><button id = button_10 class = ""square num-button"" onclick = ""recordClick(this)""><div class = content><div class = numbers>R</div></div></button><button id = button_11 class = ""square num-button"" onclick = ""recordClick(this)""><div class = content><div class = numbers>S</div></div></button><button id = button_12 class = ""square num-button"" onclick = ""recordClick(this)""><div class = content><div class = numbers>Y</div></div></button><button class = clear_button id = ""ClearButton"" onclick = ""clearResponse()"">BACKSPACE</button><button class = blank_button id = ""BlankButton"" onclick = ""blankResponse()"">SKIP</button><p style=""font-size: 2.4rem""><u><b>Current Answer:</b></u></p><br><br><div id=echoed_txt style=""font-size: 5rem; color:blue;""><b></b></div></div>",enter,ospan,retrieval,9BuJvcFwZfY6XLOyFsRG6orXj913,html-keyboard-response,98,571240,0.0-46.0-2.0-2.0-2.0-0.0,NA,NA,NA,3.0,"[""N"",""C"",""Y""]","[""N"",""C"",""Y""]",1.0,3.0,"['<font color=""green"">N</font>', '<font color=""green"">C</font>', '<font color=""green"">Y</font>']",,,,,,59d6165050f88f000161e951,10:48:58,04/04/2024
1073.0,"['<p style=""font-size:44px"">Letters:<br><br><br><font color=""green"">N</font> <font color=""green"">C</font> <font color=""green"">Y</font></p><br><br><p style=""font-size:30px"">Symmetry:<br><br><font color=""green"">100%</font></p><br><br>']",0,ospan,practice_feedback,9BuJvcFwZfY6XLOyFsRG6orXj913,html-button-response,99,572819,0.0-46.0-2.0-2.0-2.0-1.0,,,,,,,,,,,,,,,59d6165050f88f000161e951,10:48:58,04/04/2024
13483.100000143051,"<div class = 'left_align' style='font-size: 3rem; line-height: 1.3;'><b>Great work! That is the end of practice.</b><br><br>The real trials will look just like the practice trials you just completed.<br><br><u>Here, you will not see feedback</u>. First, you will see an grid picture to judge,<br>then a letter to remember. When the recall screen appears, report the letters in the<br>order presented. If you forget a letter, remember to use the <b>blank</b> button to move to the<br>next letter. Some of the sets will have more symmetry grids and letters than others.<br><br>It is important that you do your best on both the symmetry judgments and the letter recall<br>parts of the experiment. For for the symmetry judgments, try to work as <b>quickly</b> and <br>as <b>accurately</b> as possible. Remember to keep your symmetry accuracy at 85% or above.<br><br><b>For the letters, do NOT use any external aid (e.g., writing on paper, electronic device).</b><br><br>It is <u>very important</u> to our experiment to have a <b>true</b> view of your real performance.<br><br>Do not worry if you miss some when it gets hard! This task is meant to be very challenging!<br><br>Click the button to begin.</div><br><br><br><br>",0,ospan,starting_real_here,9BuJvcFwZfY6XLOyFsRG6orXj913,html-button-response,100,586306,0.0-46.0-2.0-3.0,,,,,,,,,,,,,,,59d6165050f88f000161e951,10:48:58,04/04/2024
,"<p style=""font-size:75px;"">...</p>",,ospan,iti,9BuJvcFwZfY6XLOyFsRG6orXj913,html-keyboard-response,101,587578,0.0-46.0-3.0-0.0-0.0,,,,,,,,,,,,,,,59d6165050f88f000161e951,10:48:58,04/04/2024
2003.0,,,ospan,symmetry,9BuJvcFwZfY6XLOyFsRG6orXj913,symmetry-judgement-task,102,590667,0.0-46.0-3.0-0.0-1.0-0.0,,,,,,,,,,1.0,1.0,,,,59d6165050f88f000161e951,10:48:58,04/04/2024
,"<div style=""font-size: 10rem; color: #0000FF"">N</div>",,ospan,letter,9BuJvcFwZfY6XLOyFsRG6orXj913,html-keyboard-response,103,591679,0.0-46.0-3.0-0.0-1.0-1.0,,,,,,,,,,,,,,,59d6165050f88f000161e951,10:48:58,04/04/2024
1707.0,,,ospan,symmetry,9BuJvcFwZfY6XLOyFsRG6orXj913,symmetry-judgement-task,104,595404,0.0-46.0-3.0-0.0-1.0-2.0,,,,,,,,,,1.0,1.0,,,,59d6165050f88f000161e951,10:48:58,04/04/2024
,"<div style=""font-size: 10rem; color: #0000FF"">G</div>",,ospan,letter,9BuJvcFwZfY6XLOyFsRG6orXj913,html-keyboard-response,105,596407,0.0-46.0-3.0-0.0-1.0-3.0,,,,,,,,,,,,,,,59d6165050f88f000161e951,10:48:58,04/04/2024
1902.0,,,ospan,symmetry,9BuJvcFwZfY6XLOyFsRG6orXj913,symmetry-judgement-task,106,600338,0.0-46.0-3.0-0.0-1.0-4.0,,,,,,,,,,1.0,1.0,,,,59d6165050f88f000161e951,10:48:58,04/04/2024
,"<div style=""font-size: 10rem; color: #0000FF"">J</div>",,ospan,letter,9BuJvcFwZfY6XLOyFsRG6orXj913,html-keyboard-response,107,601340,0.0-46.0-3.0-0.0-1.0-5.0,,,,,,,,,,,,,,,59d6165050f88f000161e951,10:48:58,04/04/2024
6910.099999904633,"<div class = numbox><p style=""font-size: 2.4rem"">Please recall the letters you saw to the best of your ability. If you do not remember a particular letter, use the SKIP button.<br><b>(When you are ready to lock in your answer, press ENTER)</b></p><button id = button_1 class = ""square num-button"" onclick = ""recordClick(this)""><div class = content><div class = numbers>C</div></div></button><button id = button_2 class = ""square num-button"" onclick = ""recordClick(this)""><div class = content><div class = numbers>G</div></div></button><button id = button_3 class = ""square num-button"" onclick = ""recordClick(this)""><div class = content><div class = numbers>H</div></div></button><button id = button_4 class = ""square num-button"" onclick = ""recordClick(this)""><div class = content><div class = numbers>J</div></div></button><button id = button_5 class = ""square num-button"" onclick = ""recordClick(this)""><div class = content><div class = numbers>K</div></div></button><button id = button_6 class = ""square num-button"" onclick = ""recordClick(this)""><div class = content><div class = numbers>L</div></div></button><button id = button_7 class = ""square num-button"" onclick = ""recordClick(this)""><div class = content><div class = numbers>N</div></div></button><button id = button_8 class = ""square num-button"" onclick = ""recordClick(this)""><div class = content><div class = numbers>P</div></div></button><button id = button_9 class = ""square num-button"" onclick = ""recordClick(this)""><div class = content><div class = numbers>Q</div></div></button><button id = button_10 class = ""square num-button"" onclick = ""recordClick(this)""><div class = content><div class = numbers>R</div></div></button><button id = button_11 class = ""square num-button"" onclick = ""recordClick(this)""><div class = content><div class = numbers>S</div></div></button><button id = button_12 class = ""square num-button"" onclick = ""recordClick(this)""><div class = content><div class = numbers>Y</div></div></button><button class = clear_button id = ""ClearButton"" onclick = ""clearResponse()"">BACKSPACE</button><button class = blank_button id = ""BlankButton"" onclick = ""blankResponse()"">SKIP</button><p style=""font-size: 2.4rem""><u><b>Current Answer:</b></u></p><br><br><div id=echoed_txt style=""font-size: 5rem; color:blue;""><b></b></div></div>",enter,ospan,retrieval,9BuJvcFwZfY6XLOyFsRG6orXj913,html-keyboard-response,108,609008,0.0-46.0-3.0-0.0-2.0,3,3,3,3.0,"[""N"",""G"",""J""]","[""N"",""G"",""J""]",1.0,3.0,,,,,,,59d6165050f88f000161e951,10:48:58,04/04/2024
1349.4000000953674,[''],0,ospan,feedback,9BuJvcFwZfY6XLOyFsRG6orXj913,html-button-response,109,610869,0.0-46.0-3.0-0.0-3.0,,,,,,,,,,,,100.0,0.0,,59d6165050f88f000161e951,10:48:58,04/04/2024
,"<p style=""font-size:75px;"">...</p>",,ospan,iti,9BuJvcFwZfY6XLOyFsRG6orXj913,html-keyboard-response,110,611879,0.0-46.0-4.0-0.0-0.0,,,,,,,,,,,,,,,59d6165050f88f000161e951,10:48:58,04/04/2024
1967.0,,,ospan,symmetry,9BuJvcFwZfY6XLOyFsRG6orXj913,symmetry-judgement-task,111,615192,0.0-46.0-4.0-0.0-1.0-0.0,,,,,,,,,,1.0,1.0,,,,59d6165050f88f000161e951,10:48:58,04/04/2024
,"<div style=""font-size: 10rem; color: #0000FF"">K</div>",,ospan,letter,9BuJvcFwZfY6XLOyFsRG6orXj913,html-keyboard-response,112,616204,0.0-46.0-4.0-0.0-1.0-1.0,,,,,,,,,,,,,,,59d6165050f88f000161e951,10:48:58,04/04/2024
1068.0,,,ospan,symmetry,9BuJvcFwZfY6XLOyFsRG6orXj913,symmetry-judgement-task,113,619314,0.0-46.0-4.0-0.0-1.0-2.0,,,,,,,,,,1.0,1.0,,,,59d6165050f88f000161e951,10:48:58,04/04/2024
,"<div style=""font-size: 10rem; color: #0000FF"">L</div>",,ospan,letter,9BuJvcFwZfY6XLOyFsRG6orXj913,html-keyboard-response,114,620321,0.0-46.0-4.0-0.0-1.0-3.0,,,,,,,,,,,,,,,59d6165050f88f000161e951,10:48:58,04/04/2024
928.0,,,ospan,symmetry,9BuJvcFwZfY6XLOyFsRG6orXj913,symmetry-judgement-task,115,623424,0.0-46.0-4.0-0.0-1.0-4.0,,,,,,,,,,1.0,1.0,,,,59d6165050f88f000161e951,10:48:58,04/04/2024
,"<div style=""font-size: 10rem; color: #0000FF"">J</div>",,ospan,letter,9BuJvcFwZfY6XLOyFsRG6orXj913,html-keyboard-response,116,624428,0.0-46.0-4.0-0.0-1.0-5.0,,,,,,,,,,,,,,,59d6165050f88f000161e951,10:48:58,04/04/2024
1970.0,,,ospan,symmetry,9BuJvcFwZfY6XLOyFsRG6orXj913,symmetry-judgement-task,117,628533,0.0-46.0-4.0-0.0-1.0-6.0,,,,,,,,,,1.0,1.0,,,,59d6165050f88f000161e951,10:48:58,04/04/2024
,"<div style=""font-size: 10rem; color: #0000FF"">R</div>",,ospan,letter,9BuJvcFwZfY6XLOyFsRG6orXj913,html-keyboard-response,118,629543,0.0-46.0-4.0-0.0-1.0-7.0,,,,,,,,,,,,,,,59d6165050f88f000161e951,10:48:58,04/04/2024
4872.599999904633,"<div class = numbox><p style=""font-size: 2.4rem"">Please recall the letters you saw to the best of your ability. If you do not remember a particular letter, use the SKIP button.<br><b>(When you are ready to lock in your answer, press ENTER)</b></p><button id = button_1 class = ""square num-button"" onclick = ""recordClick(this)""><div class = content><div class = numbers>C</div></div></button><button id = button_2 class = ""square num-button"" onclick = ""recordClick(this)""><div class = content><div class = numbers>G</div></div></button><button id = button_3 class = ""square num-button"" onclick = ""recordClick(this)""><div class = content><div class = numbers>H</div></div></button><button id = button_4 class = ""square num-button"" onclick = ""recordClick(this)""><div class = content><div class = numbers>J</div></div></button><button id = button_5 class = ""square num-button"" onclick = ""recordClick(this)""><div class = content><div class = numbers>K</div></div></button><button id = button_6 class = ""square num-button"" onclick = ""recordClick(this)""><div class = content><div class = numbers>L</div></div></button><button id = button_7 class = ""square num-button"" onclick = ""recordClick(this)""><div class = content><div class = numbers>N</div></div></button><button id = button_8 class = ""square num-button"" onclick = ""recordClick(this)""><div class = content><div class = numbers>P</div></div></button><button id = button_9 class = ""square num-button"" onclick = ""recordClick(this)""><div class = content><div class = numbers>Q</div></div></button><button id = button_10 class = ""square num-button"" onclick = ""recordClick(this)""><div class = content><div class = numbers>R</div></div></button><button id = button_11 class = ""square num-button"" onclick = ""recordClick(this)""><div class = content><div class = numbers>S</div></div></button><button id = button_12 class = ""square num-button"" onclick = ""recordClick(this)""><div class = content><div class = numbers>Y</div></div></button><button class = clear_button id = ""ClearButton"" onclick = ""clearResponse()"">BACKSPACE</button><button class = blank_button id = ""BlankButton"" onclick = ""blankResponse()"">SKIP</button><p style=""font-size: 2.4rem""><u><b>Current Answer:</b></u></p><br><br><div id=echoed_txt style=""font-size: 5rem; color:blue;""><b></b></div></div>",enter,ospan,retrieval,9BuJvcFwZfY6XLOyFsRG6orXj913,html-keyboard-response,119,635175,0.0-46.0-4.0-0.0-2.0,7,7,7,4.0,"[""K"",""L"",""J"",""R""]","[""K"",""L"",""J"",""R""]",1.0,4.0,,,,,,,59d6165050f88f000161e951,10:48:58,04/04/2024
1594.0999999046326,[''],0,ospan,feedback,9BuJvcFwZfY6XLOyFsRG6orXj913,html-button-response,120,637278,0.0-46.0-4.0-0.0-3.0,,,,,,,,,,,,100.0,0.0,,59d6165050f88f000161e951,10:48:58,04/04/2024
,"<p style=""font-size:75px;"">...</p>",,ospan,iti,9BuJvcFwZfY6XLOyFsRG6orXj913,html-keyboard-response,121,638295,0.0-46.0-4.0-1.0-0.0,,,,,,,,,,,,,,,59d6165050f88f000161e951,10:48:58,04/04/2024
1591.0,,,ospan,symmetry,9BuJvcFwZfY6XLOyFsRG6orXj913,symmetry-judgement-task,122,641258,0.0-46.0-4.0-1.0-1.0-0.0,,,,,,,,,,1.0,1.0,,,,59d6165050f88f000161e951,10:48:58,04/04/2024
,"<div style=""font-size: 10rem; color: #0000FF"">C</div>",,ospan,letter,9BuJvcFwZfY6XLOyFsRG6orXj913,html-keyboard-response,123,642269,0.0-46.0-4.0-1.0-1.0-1.0,,,,,,,,,,,,,,,59d6165050f88f000161e951,10:48:58,04/04/2024
1054.0,,,ospan,symmetry,9BuJvcFwZfY6XLOyFsRG6orXj913,symmetry-judgement-task,124,645504,0.0-46.0-4.0-1.0-1.0-2.0,,,,,,,,,,1.0,1.0,,,,59d6165050f88f000161e951,10:48:58,04/04/2024
,"<div style=""font-size: 10rem; color: #0000FF"">H</div>",,ospan,letter,9BuJvcFwZfY6XLOyFsRG6orXj913,html-keyboard-response,125,646521,0.0-46.0-4.0-1.0-1.0-3.0,,,,,,,,,,,,,,,59d6165050f88f000161e951,10:48:58,04/04/2024
1270.0,,,ospan,symmetry,9BuJvcFwZfY6XLOyFsRG6orXj913,symmetry-judgement-task,126,649818,0.0-46.0-4.0-1.0-1.0-4.0,,,,,,,,,,1.0,1.0,,,,59d6165050f88f000161e951,10:48:58,04/04/2024
,"<div style=""font-size: 10rem; color: #0000FF"">N</div>",,ospan,letter,9BuJvcFwZfY6XLOyFsRG6orXj913,html-keyboard-response,127,650830,0.0-46.0-4.0-1.0-1.0-5.0,,,,,,,,,,,,,,,59d6165050f88f000161e951,10:48:58,04/04/2024
1827.0,,,ospan,symmetry,9BuJvcFwZfY6XLOyFsRG6orXj913,symmetry-judgement-task,128,654801,0.0-46.0-4.0-1.0-1.0-6.0,,,,,,,,,,1.0,1.0,,,,59d6165050f88f000161e951,10:48:58,04/04/2024
,"<div style=""font-size: 10rem; color: #0000FF"">P</div>",,ospan,letter,9BuJvcFwZfY6XLOyFsRG6orXj913,html-keyboard-response,129,655814,0.0-46.0-4.0-1.0-1.0-7.0,,,,,,,,,,,,,,,59d6165050f88f000161e951,10:48:58,04/04/2024
1410.0,,,ospan,symmetry,9BuJvcFwZfY6XLOyFsRG6orXj913,symmetry-judgement-task,130,659284,0.0-46.0-4.0-1.0-1.0-8.0,,,,,,,,,,1.0,1.0,,,,59d6165050f88f000161e951,10:48:58,04/04/2024
,"<div style=""font-size: 10rem; color: #0000FF"">J</div>",,ospan,letter,9BuJvcFwZfY6XLOyFsRG6orXj913,html-keyboard-response,131,660293,0.0-46.0-4.0-1.0-1.0-9.0,,,,,,,,,,,,,,,59d6165050f88f000161e951,10:48:58,04/04/2024
5163.700000047684,"<div class = numbox><p style=""font-size: 2.4rem"">Please recall the letters you saw to the best of your ability. If you do not remember a particular letter, use the SKIP button.<br><b>(When you are ready to lock in your answer, press ENTER)</b></p><button id = button_1 class = ""square num-button"" onclick = ""recordClick(this)""><div class = content><div class = numbers>C</div></div></button><button id = button_2 class = ""square num-button"" onclick = ""recordClick(this)""><div class = content><div class = numbers>G</div></div></button><button id = button_3 class = ""square num-button"" onclick = ""recordClick(this)""><div class = content><div class = numbers>H</div></div></button><button id = button_4 class = ""square num-button"" onclick = ""recordClick(this)""><div class = content><div class = numbers>J</div></div></button><button id = button_5 class = ""square num-button"" onclick = ""recordClick(this)""><div class = content><div class = numbers>K</div></div></button><button id = button_6 class = ""square num-button"" onclick = ""recordClick(this)""><div class = content><div class = numbers>L</div></div></button><button id = button_7 class = ""square num-button"" onclick = ""recordClick(this)""><div class = content><div class = numbers>N</div></div></button><button id = button_8 class = ""square num-button"" onclick = ""recordClick(this)""><div class = content><div class = numbers>P</div></div></button><button id = button_9 class = ""square num-button"" onclick = ""recordClick(this)""><div class = content><div class = numbers>Q</div></div></button><button id = button_10 class = ""square num-button"" onclick = ""recordClick(this)""><div class = content><div class = numbers>R</div></div></button><button id = button_11 class = ""square num-button"" onclick = ""recordClick(this)""><div class = content><div class = numbers>S</div></div></button><button id = button_12 class = ""square num-button"" onclick = ""recordClick(this)""><div class = content><div class = numbers>Y</div></div></button><button class = clear_button id = ""ClearButton"" onclick = ""clearResponse()"">BACKSPACE</button><button class = blank_button id = ""BlankButton"" onclick = ""blankResponse()"">SKIP</button><p style=""font-size: 2.4rem""><u><b>Current Answer:</b></u></p><br><br><div id=echoed_txt style=""font-size: 5rem; color:blue;""><b></b></div></div>",enter,ospan,retrieval,9BuJvcFwZfY6XLOyFsRG6orXj913,html-keyboard-response,132,666216,0.0-46.0-4.0-1.0-2.0,12,12,12,5.0,"[""C"",""H"",""N"",""P"",""J""]","[""C"",""H"",""N"",""P"",""J""]",1.0,5.0,,,,,,,59d6165050f88f000161e951,10:48:58,04/04/2024
966.5,[''],0,ospan,feedback,9BuJvcFwZfY6XLOyFsRG6orXj913,html-button-response,133,667700,0.0-46.0-4.0-1.0-3.0,,,,,,,,,,,,100.0,0.0,,59d6165050f88f000161e951,10:48:58,04/04/2024
,"<p style=""font-size:75px;"">...</p>",,ospan,iti,9BuJvcFwZfY6XLOyFsRG6orXj913,html-keyboard-response,134,668706,0.0-46.0-4.0-2.0-0.0,,,,,,,,,,,,,,,59d6165050f88f000161e951,10:48:58,04/04/2024
1595.0,,,ospan,symmetry,9BuJvcFwZfY6XLOyFsRG6orXj913,symmetry-judgement-task,135,671441,0.0-46.0-4.0-2.0-1.0-0.0,,,,,,,,,,1.0,1.0,,,,59d6165050f88f000161e951,10:48:58,04/04/2024
,"<div style=""font-size: 10rem; color: #0000FF"">H</div>",,ospan,letter,9BuJvcFwZfY6XLOyFsRG6orXj913,html-keyboard-response,136,672455,0.0-46.0-4.0-2.0-1.0-1.0,,,,,,,,,,,,,,,59d6165050f88f000161e951,10:48:58,04/04/2024
1627.0,,,ospan,symmetry,9BuJvcFwZfY6XLOyFsRG6orXj913,symmetry-judgement-task,137,676259,0.0-46.0-4.0-2.0-1.0-2.0,,,,,,,,,,1.0,1.0,,,,59d6165050f88f000161e951,10:48:58,04/04/2024
,"<div style=""font-size: 10rem; color: #0000FF"">P</div>",,ospan,letter,9BuJvcFwZfY6XLOyFsRG6orXj913,html-keyboard-response,138,677266,0.0-46.0-4.0-2.0-1.0-3.0,,,,,,,,,,,,,,,59d6165050f88f000161e951,10:48:58,04/04/2024
1281.0,,,ospan,symmetry,9BuJvcFwZfY6XLOyFsRG6orXj913,symmetry-judgement-task,139,680646,0.0-46.0-4.0-2.0-1.0-4.0,,,,,,,,,,1.0,1.0,,,,59d6165050f88f000161e951,10:48:58,04/04/2024
,"<div style=""font-size: 10rem; color: #0000FF"">Q</div>",,ospan,letter,9BuJvcFwZfY6XLOyFsRG6orXj913,html-keyboard-response,140,681651,0.0-46.0-4.0-2.0-1.0-5.0,,,,,,,,,,,,,,,59d6165050f88f000161e951,10:48:58,04/04/2024
3953.9000000953674,"<div class = numbox><p style=""font-size: 2.4rem"">Please recall the letters you saw to the best of your ability. If you do not remember a particular letter, use the SKIP button.<br><b>(When you are ready to lock in your answer, press ENTER)</b></p><button id = button_1 class = ""square num-button"" onclick = ""recordClick(this)""><div class = content><div class = numbers>C</div></div></button><button id = button_2 class = ""square num-button"" onclick = ""recordClick(this)""><div class = content><div class = numbers>G</div></div></button><button id = button_3 class = ""square num-button"" onclick = ""recordClick(this)""><div class = content><div class = numbers>H</div></div></button><button id = button_4 class = ""square num-button"" onclick = ""recordClick(this)""><div class = content><div class = numbers>J</div></div></button><button id = button_5 class = ""square num-button"" onclick = ""recordClick(this)""><div class = content><div class = numbers>K</div></div></button><button id = button_6 class = ""square num-button"" onclick = ""recordClick(this)""><div class = content><div class = numbers>L</div></div></button><button id = button_7 class = ""square num-button"" onclick = ""recordClick(this)""><div class = content><div class = numbers>N</div></div></button><button id = button_8 class = ""square num-button"" onclick = ""recordClick(this)""><div class = content><div class = numbers>P</div></div></button><button id = button_9 class = ""square num-button"" onclick = ""recordClick(this)""><div class = content><div class = numbers>Q</div></div></button><button id = button_10 class = ""square num-button"" onclick = ""recordClick(this)""><div class = content><div class = numbers>R</div></div></button><button id = button_11 class = ""square num-button"" onclick = ""recordClick(this)""><div class = content><div class = numbers>S</div></div></button><button id = button_12 class = ""square num-button"" onclick = ""recordClick(this)""><div class = content><div class = numbers>Y</div></div></button><button class = clear_button id = ""ClearButton"" onclick = ""clearResponse()"">BACKSPACE</button><button class = blank_button id = ""BlankButton"" onclick = ""blankResponse()"">SKIP</button><p style=""font-size: 2.4rem""><u><b>Current Answer:</b></u></p><br><br><div id=echoed_txt style=""font-size: 5rem; color:blue;""><b></b></div></div>",enter,ospan,retrieval,9BuJvcFwZfY6XLOyFsRG6orXj913,html-keyboard-response,141,686365,0.0-46.0-4.0-2.0-2.0,15,15,15,3.0,"[""H"",""P"",""Q""]","[""H"",""P"",""Q""]",1.0,3.0,,,,,,,59d6165050f88f000161e951,10:48:58,04/04/2024
945.7999999523163,[''],0,ospan,feedback,9BuJvcFwZfY6XLOyFsRG6orXj913,html-button-response,142,687827,0.0-46.0-4.0-2.0-3.0,,,,,,,,,,,,100.0,0.0,,59d6165050f88f000161e951,10:48:58,04/04/2024
,"<p style=""font-size:75px;"">...</p>",,ospan,iti,9BuJvcFwZfY6XLOyFsRG6orXj913,html-keyboard-response,143,688839,0.0-46.0-5.0-0.0-0.0,,,,,,,,,,,,,,,59d6165050f88f000161e951,10:48:58,04/04/2024
1582.0,,,ospan,symmetry,9BuJvcFwZfY6XLOyFsRG6orXj913,symmetry-judgement-task,144,691761,0.0-46.0-5.0-0.0-1.0-0.0,,,,,,,,,,1.0,1.0,,,,59d6165050f88f000161e951,10:48:58,04/04/2024
,"<div style=""font-size: 10rem; color: #0000FF"">L</div>",,ospan,letter,9BuJvcFwZfY6XLOyFsRG6orXj913,html-keyboard-response,145,692768,0.0-46.0-5.0-0.0-1.0-1.0,,,,,,,,,,,,,,,59d6165050f88f000161e951,10:48:58,04/04/2024
1448.0,,,ospan,symmetry,9BuJvcFwZfY6XLOyFsRG6orXj913,symmetry-judgement-task,146,696319,0.0-46.0-5.0-0.0-1.0-2.0,,,,,,,,,,1.0,1.0,,,,59d6165050f88f000161e951,10:48:58,04/04/2024
,"<div style=""font-size: 10rem; color: #0000FF"">R</div>",,ospan,letter,9BuJvcFwZfY6XLOyFsRG6orXj913,html-keyboard-response,147,697326,0.0-46.0-5.0-0.0-1.0-3.0,,,,,,,,,,,,,,,59d6165050f88f000161e951,10:48:58,04/04/2024
1017.0,,,ospan,symmetry,9BuJvcFwZfY6XLOyFsRG6orXj913,symmetry-judgement-task,148,700485,0.0-46.0-5.0-0.0-1.0-4.0,,,,,,,,,,1.0,1.0,,,,59d6165050f88f000161e951,10:48:58,04/04/2024
,"<div style=""font-size: 10rem; color: #0000FF"">P</div>",,ospan,letter,9BuJvcFwZfY6XLOyFsRG6orXj913,html-keyboard-response,149,701489,0.0-46.0-5.0-0.0-1.0-5.0,,,,,,,,,,,,,,,59d6165050f88f000161e951,10:48:58,04/04/2024
1409.0,,,ospan,symmetry,9BuJvcFwZfY6XLOyFsRG6orXj913,symmetry-judgement-task,150,705223,0.0-46.0-5.0-0.0-1.0-6.0,,,,,,,,,,1.0,1.0,,,,59d6165050f88f000161e951,10:48:58,04/04/2024
,"<div style=""font-size: 10rem; color: #0000FF"">C</div>",,ospan,letter,9BuJvcFwZfY6XLOyFsRG6orXj913,html-keyboard-response,151,706240,0.0-46.0-5.0-0.0-1.0-7.0,,,,,,,,,,,,,,,59d6165050f88f000161e951,10:48:58,04/04/2024
1926.0,,,ospan,symmetry,9BuJvcFwZfY6XLOyFsRG6orXj913,symmetry-judgement-task,152,710217,0.0-46.0-5.0-0.0-1.0-8.0,,,,,,,,,,1.0,1.0,,,,59d6165050f88f000161e951,10:48:58,04/04/2024
,"<div style=""font-size: 10rem; color: #0000FF"">G</div>",,ospan,letter,9BuJvcFwZfY6XLOyFsRG6orXj913,html-keyboard-response,153,711220,0.0-46.0-5.0-0.0-1.0-9.0,,,,,,,,,,,,,,,59d6165050f88f000161e951,10:48:58,04/04/2024
2509.0,,,ospan,symmetry,9BuJvcFwZfY6XLOyFsRG6orXj913,symmetry-judgement-task,154,715772,0.0-46.0-5.0-0.0-1.0-10.0,,,,,,,,,,1.0,1.0,,,,59d6165050f88f000161e951,10:48:58,04/04/2024
,"<div style=""font-size: 10rem; color: #0000FF"">Q</div>",,ospan,letter,9BuJvcFwZfY6XLOyFsRG6orXj913,html-keyboard-response,155,716777,0.0-46.0-5.0-0.0-1.0-11.0,,,,,,,,,,,,,,,59d6165050f88f000161e951,10:48:58,04/04/2024
5898.800000190735,"<div class = numbox><p style=""font-size: 2.4rem"">Please recall the letters you saw to the best of your ability. If you do not remember a particular letter, use the SKIP button.<br><b>(When you are ready to lock in your answer, press ENTER)</b></p><button id = button_1 class = ""square num-button"" onclick = ""recordClick(this)""><div class = content><div class = numbers>C</div></div></button><button id = button_2 class = ""square num-button"" onclick = ""recordClick(this)""><div class = content><div class = numbers>G</div></div></button><button id = button_3 class = ""square num-button"" onclick = ""recordClick(this)""><div class = content><div class = numbers>H</div></div></button><button id = button_4 class = ""square num-button"" onclick = ""recordClick(this)""><div class = content><div class = numbers>J</div></div></button><button id = button_5 class = ""square num-button"" onclick = ""recordClick(this)""><div class = content><div class = numbers>K</div></div></button><button id = button_6 class = ""square num-button"" onclick = ""recordClick(this)""><div class = content><div class = numbers>L</div></div></button><button id = button_7 class = ""square num-button"" onclick = ""recordClick(this)""><div class = content><div class = numbers>N</div></div></button><button id = button_8 class = ""square num-button"" onclick = ""recordClick(this)""><div class = content><div class = numbers>P</div></div></button><button id = button_9 class = ""square num-button"" onclick = ""recordClick(this)""><div class = content><div class = numbers>Q</div></div></button><button id = button_10 class = ""square num-button"" onclick = ""recordClick(this)""><div class = content><div class = numbers>R</div></div></button><button id = button_11 class = ""square num-button"" onclick = ""recordClick(this)""><div class = content><div class = numbers>S</div></div></button><button id = button_12 class = ""square num-button"" onclick = ""recordClick(this)""><div class = content><div class = numbers>Y</div></div></button><button class = clear_button id = ""ClearButton"" onclick = ""clearResponse()"">BACKSPACE</button><button class = blank_button id = ""BlankButton"" onclick = ""blankResponse()"">SKIP</button><p style=""font-size: 2.4rem""><u><b>Current Answer:</b></u></p><br><br><div id=echoed_txt style=""font-size: 5rem; color:blue;""><b></b></div></div>",enter,ospan,retrieval,9BuJvcFwZfY6XLOyFsRG6orXj913,html-keyboard-response,156,723438,0.0-46.0-5.0-0.0-2.0,21,18,15,6.0,"[""L"",""R"",""C"",""P"",""G""]","[""L"",""R"",""P"",""C"",""G"",""Q""]",0.0,3.0,,,,,,,59d6165050f88f000161e951,10:48:58,04/04/2024
1519.0,[''],0,ospan,feedback,9BuJvcFwZfY6XLOyFsRG6orXj913,html-button-response,157,725461,0.0-46.0-5.0-0.0-3.0,,,,,,,,,,,,100.0,0.0,,59d6165050f88f000161e951,10:48:58,04/04/2024
,"<p style=""font-size:75px;"">...</p>",,ospan,iti,9BuJvcFwZfY6XLOyFsRG6orXj913,html-keyboard-response,158,726467,0.0-46.0-5.0-1.0-0.0,,,,,,,,,,,,,,,59d6165050f88f000161e951,10:48:58,04/04/2024
1454.0,,,ospan,symmetry,9BuJvcFwZfY6XLOyFsRG6orXj913,symmetry-judgement-task,159,729274,0.0-46.0-5.0-1.0-1.0-0.0,,,,,,,,,,1.0,1.0,,,,59d6165050f88f000161e951,10:48:58,04/04/2024
,"<div style=""font-size: 10rem; color: #0000FF"">Y</div>",,ospan,letter,9BuJvcFwZfY6XLOyFsRG6orXj913,html-keyboard-response,160,730284,0.0-46.0-5.0-1.0-1.0-1.0,,,,,,,,,,,,,,,59d6165050f88f000161e951,10:48:58,04/04/2024
1325.0,,,ospan,symmetry,9BuJvcFwZfY6XLOyFsRG6orXj913,symmetry-judgement-task,161,733728,0.0-46.0-5.0-1.0-1.0-2.0,,,,,,,,,,1.0,1.0,,,,59d6165050f88f000161e951,10:48:58,04/04/2024
,"<div style=""font-size: 10rem; color: #0000FF"">H</div>",,ospan,letter,9BuJvcFwZfY6XLOyFsRG6orXj913,html-keyboard-response,162,734732,0.0-46.0-5.0-1.0-1.0-3.0,,,,,,,,,,,,,,,59d6165050f88f000161e951,10:48:58,04/04/2024
1948.0,,,ospan,symmetry,9BuJvcFwZfY6XLOyFsRG6orXj913,symmetry-judgement-task,163,738799,0.0-46.0-5.0-1.0-1.0-4.0,,,,,,,,,,1.0,1.0,,,,59d6165050f88f000161e951,10:48:58,04/04/2024
,"<div style=""font-size: 10rem; color: #0000FF"">N</div>",,ospan,letter,9BuJvcFwZfY6XLOyFsRG6orXj913,html-keyboard-response,164,739817,0.0-46.0-5.0-1.0-1.0-5.0,,,,,,,,,,,,,,,59d6165050f88f000161e951,10:48:58,04/04/2024
1129.0,,,ospan,symmetry,9BuJvcFwZfY6XLOyFsRG6orXj913,symmetry-judgement-task,165,743054,0.0-46.0-5.0-1.0-1.0-6.0,,,,,,,,,,1.0,1.0,,,,59d6165050f88f000161e951,10:48:58,04/04/2024
,"<div style=""font-size: 10rem; color: #0000FF"">P</div>",,ospan,letter,9BuJvcFwZfY6XLOyFsRG6orXj913,html-keyboard-response,166,744059,0.0-46.0-5.0-1.0-1.0-7.0,,,,,,,,,,,,,,,59d6165050f88f000161e951,10:48:58,04/04/2024
1088.0,,,ospan,symmetry,9BuJvcFwZfY6XLOyFsRG6orXj913,symmetry-judgement-task,167,747240,0.0-46.0-5.0-1.0-1.0-8.0,,,,,,,,,,1.0,1.0,,,,59d6165050f88f000161e951,10:48:58,04/04/2024
,"<div style=""font-size: 10rem; color: #0000FF"">G</div>",,ospan,letter,9BuJvcFwZfY6XLOyFsRG6orXj913,html-keyboard-response,168,748249,0.0-46.0-5.0-1.0-1.0-9.0,,,,,,,,,,,,,,,59d6165050f88f000161e951,10:48:58,04/04/2024
1438.0,,,ospan,symmetry,9BuJvcFwZfY6XLOyFsRG6orXj913,symmetry-judgement-task,169,751810,0.0-46.0-5.0-1.0-1.0-10.0,,,,,,,,,,1.0,1.0,,,,59d6165050f88f000161e951,10:48:58,04/04/2024
,"<div style=""font-size: 10rem; color: #0000FF"">S</div>",,ospan,letter,9BuJvcFwZfY6XLOyFsRG6orXj913,html-keyboard-response,170,752817,0.0-46.0-5.0-1.0-1.0-11.0,,,,,,,,,,,,,,,59d6165050f88f000161e951,10:48:58,04/04/2024
1408.0,,,ospan,symmetry,9BuJvcFwZfY6XLOyFsRG6orXj913,symmetry-judgement-task,171,756259,0.0-46.0-5.0-1.0-1.0-12.0,,,,,,,,,,1.0,1.0,,,,59d6165050f88f000161e951,10:48:58,04/04/2024
,"<div style=""font-size: 10rem; color: #0000FF"">R</div>",,ospan,letter,9BuJvcFwZfY6XLOyFsRG6orXj913,html-keyboard-response,172,757265,0.0-46.0-5.0-1.0-1.0-13.0,,,,,,,,,,,,,,,59d6165050f88f000161e951,10:48:58,04/04/2024
11610.700000047684,"<div class = numbox><p style=""font-size: 2.4rem"">Please recall the letters you saw to the best of your ability. If you do not remember a particular letter, use the SKIP button.<br><b>(When you are ready to lock in your answer, press ENTER)</b></p><button id = button_1 class = ""square num-button"" onclick = ""recordClick(this)""><div class = content><div class = numbers>C</div></div></button><button id = button_2 class = ""square num-button"" onclick = ""recordClick(this)""><div class = content><div class = numbers>G</div></div></button><button id = button_3 class = ""square num-button"" onclick = ""recordClick(this)""><div class = content><div class = numbers>H</div></div></button><button id = button_4 class = ""square num-button"" onclick = ""recordClick(this)""><div class = content><div class = numbers>J</div></div></button><button id = button_5 class = ""square num-button"" onclick = ""recordClick(this)""><div class = content><div class = numbers>K</div></div></button><button id = button_6 class = ""square num-button"" onclick = ""recordClick(this)""><div class = content><div class = numbers>L</div></div></button><button id = button_7 class = ""square num-button"" onclick = ""recordClick(this)""><div class = content><div class = numbers>N</div></div></button><button id = button_8 class = ""square num-button"" onclick = ""recordClick(this)""><div class = content><div class = numbers>P</div></div></button><button id = button_9 class = ""square num-button"" onclick = ""recordClick(this)""><div class = content><div class = numbers>Q</div></div></button><button id = button_10 class = ""square num-button"" onclick = ""recordClick(this)""><div class = content><div class = numbers>R</div></div></button><button id = button_11 class = ""square num-button"" onclick = ""recordClick(this)""><div class = content><div class = numbers>S</div></div></button><button id = button_12 class = ""square num-button"" onclick = ""recordClick(this)""><div class = content><div class = numbers>Y</div></div></button><button class = clear_button id = ""ClearButton"" onclick = ""clearResponse()"">BACKSPACE</button><button class = blank_button id = ""BlankButton"" onclick = ""blankResponse()"">SKIP</button><p style=""font-size: 2.4rem""><u><b>Current Answer:</b></u></p><br><br><div id=echoed_txt style=""font-size: 5rem; color:blue;""><b></b></div></div>",enter,ospan,retrieval,9BuJvcFwZfY6XLOyFsRG6orXj913,html-keyboard-response,173,769629,0.0-46.0-5.0-1.0-2.0,28,22,15,7.0,"[""Y"",""H"",""N"",""G"",""P"",""S""]","[""Y"",""H"",""N"",""P"",""G"",""S"",""R""]",0.0,4.0,,,,,,,59d6165050f88f000161e951,10:48:58,04/04/2024
1230.0,[''],0,ospan,feedback,9BuJvcFwZfY6XLOyFsRG6orXj913,html-button-response,174,771377,0.0-46.0-5.0-1.0-3.0,,,,,,,,,,,,100.0,0.0,,59d6165050f88f000161e951,10:48:58,04/04/2024
,"<p style=""font-size:75px;"">...</p>",,ospan,iti,9BuJvcFwZfY6XLOyFsRG6orXj913,html-keyboard-response,175,772393,0.0-46.0-6.0-0.0-0.0,,,,,,,,,,,,,,,59d6165050f88f000161e951,10:48:58,04/04/2024
2735.0,,,ospan,symmetry,9BuJvcFwZfY6XLOyFsRG6orXj913,symmetry-judgement-task,176,776428,0.0-46.0-6.0-0.0-1.0-0.0,,,,,,,,,,1.0,1.0,,,,59d6165050f88f000161e951,10:48:58,04/04/2024
,"<div style=""font-size: 10rem; color: #0000FF"">Y</div>",,ospan,letter,9BuJvcFwZfY6XLOyFsRG6orXj913,html-keyboard-response,177,777432,0.0-46.0-6.0-0.0-1.0-1.0,,,,,,,,,,,,,,,59d6165050f88f000161e951,10:48:58,04/04/2024
1239.0,,,ospan,symmetry,9BuJvcFwZfY6XLOyFsRG6orXj913,symmetry-judgement-task,178,780754,0.0-46.0-6.0-0.0-1.0-2.0,,,,,,,,,,1.0,1.0,,,,59d6165050f88f000161e951,10:48:58,04/04/2024
,"<div style=""font-size: 10rem; color: #0000FF"">R</div>",,ospan,letter,9BuJvcFwZfY6XLOyFsRG6orXj913,html-keyboard-response,179,781765,0.0-46.0-6.0-0.0-1.0-3.0,,,,,,,,,,,,,,,59d6165050f88f000161e951,10:48:58,04/04/2024
2226.0,,,ospan,symmetry,9BuJvcFwZfY6XLOyFsRG6orXj913,symmetry-judgement-task,180,786029,0.0-46.0-6.0-0.0-1.0-4.0,,,,,,,,,,1.0,1.0,,,,59d6165050f88f000161e951,10:48:58,04/04/2024
,"<div style=""font-size: 10rem; color: #0000FF"">P</div>",,ospan,letter,9BuJvcFwZfY6XLOyFsRG6orXj913,html-keyboard-response,181,787038,0.0-46.0-6.0-0.0-1.0-5.0,,,,,,,,,,,,,,,59d6165050f88f000161e951,10:48:58,04/04/2024
1346.0,,,ospan,symmetry,9BuJvcFwZfY6XLOyFsRG6orXj913,symmetry-judgement-task,182,790597,0.0-46.0-6.0-0.0-1.0-6.0,,,,,,,,,,1.0,1.0,,,,59d6165050f88f000161e951,10:48:58,04/04/2024
,"<div style=""font-size: 10rem; color: #0000FF"">Q</div>",,ospan,letter,9BuJvcFwZfY6XLOyFsRG6orXj913,html-keyboard-response,183,791603,0.0-46.0-6.0-0.0-1.0-7.0,,,,,,,,,,,,,,,59d6165050f88f000161e951,10:48:58,04/04/2024
1096.0,,,ospan,symmetry,9BuJvcFwZfY6XLOyFsRG6orXj913,symmetry-judgement-task,184,794999,0.0-46.0-6.0-0.0-1.0-8.0,,,,,,,,,,1.0,1.0,,,,59d6165050f88f000161e951,10:48:58,04/04/2024
,"<div style=""font-size: 10rem; color: #0000FF"">H</div>",,ospan,letter,9BuJvcFwZfY6XLOyFsRG6orXj913,html-keyboard-response,185,796005,0.0-46.0-6.0-0.0-1.0-9.0,,,,,,,,,,,,,,,59d6165050f88f000161e951,10:48:58,04/04/2024
5981.599999904633,"<div class = numbox><p style=""font-size: 2.4rem"">Please recall the letters you saw to the best of your ability. If you do not remember a particular letter, use the SKIP button.<br><b>(When you are ready to lock in your answer, press ENTER)</b></p><button id = button_1 class = ""square num-button"" onclick = ""recordClick(this)""><div class = content><div class = numbers>C</div></div></button><button id = button_2 class = ""square num-button"" onclick = ""recordClick(this)""><div class = content><div class = numbers>G</div></div></button><button id = button_3 class = ""square num-button"" onclick = ""recordClick(this)""><div class = content><div class = numbers>H</div></div></button><button id = button_4 class = ""square num-button"" onclick = ""recordClick(this)""><div class = content><div class = numbers>J</div></div></button><button id = button_5 class = ""square num-button"" onclick = ""recordClick(this)""><div class = content><div class = numbers>K</div></div></button><button id = button_6 class = ""square num-button"" onclick = ""recordClick(this)""><div class = content><div class = numbers>L</div></div></button><button id = button_7 class = ""square num-button"" onclick = ""recordClick(this)""><div class = content><div class = numbers>N</div></div></button><button id = button_8 class = ""square num-button"" onclick = ""recordClick(this)""><div class = content><div class = numbers>P</div></div></button><button id = button_9 class = ""square num-button"" onclick = ""recordClick(this)""><div class = content><div class = numbers>Q</div></div></button><button id = button_10 class = ""square num-button"" onclick = ""recordClick(this)""><div class = content><div class = numbers>R</div></div></button><button id = button_11 class = ""square num-button"" onclick = ""recordClick(this)""><div class = content><div class = numbers>S</div></div></button><button id = button_12 class = ""square num-button"" onclick = ""recordClick(this)""><div class = content><div class = numbers>Y</div></div></button><button class = clear_button id = ""ClearButton"" onclick = ""clearResponse()"">BACKSPACE</button><button class = blank_button id = ""BlankButton"" onclick = ""blankResponse()"">SKIP</button><p style=""font-size: 2.4rem""><u><b>Current Answer:</b></u></p><br><br><div id=echoed_txt style=""font-size: 5rem; color:blue;""><b></b></div></div>",enter,ospan,retrieval,9BuJvcFwZfY6XLOyFsRG6orXj913,html-keyboard-response,186,802747,0.0-46.0-6.0-0.0-2.0,33,27,20,5.0,"[""Y"",""R"",""P"",""Q"",""H""]","[""Y"",""R"",""P"",""Q"",""H""]",1.0,5.0,,,,,,,59d6165050f88f000161e951,10:48:58,04/04/2024
1213.2999999523163,[''],0,ospan,feedback,9BuJvcFwZfY6XLOyFsRG6orXj913,html-button-response,187,804465,0.0-46.0-6.0-0.0-3.0,,,,,,,,,,,,100.0,0.0,,59d6165050f88f000161e951,10:48:58,04/04/2024
,"<p style=""font-size:75px;"">...</p>",,ospan,iti,9BuJvcFwZfY6XLOyFsRG6orXj913,html-keyboard-response,188,805477,0.0-46.0-6.0-1.0-0.0,,,,,,,,,,,,,,,59d6165050f88f000161e951,10:48:58,04/04/2024
2666.0,,,ospan,symmetry,9BuJvcFwZfY6XLOyFsRG6orXj913,symmetry-judgement-task,189,809276,0.0-46.0-6.0-1.0-1.0-0.0,,,,,,,,,,1.0,1.0,,,,59d6165050f88f000161e951,10:48:58,04/04/2024
,"<div style=""font-size: 10rem; color: #0000FF"">R</div>",,ospan,letter,9BuJvcFwZfY6XLOyFsRG6orXj913,html-keyboard-response,190,810286,0.0-46.0-6.0-1.0-1.0-1.0,,,,,,,,,,,,,,,59d6165050f88f000161e951,10:48:58,04/04/2024
2223.0,,,ospan,symmetry,9BuJvcFwZfY6XLOyFsRG6orXj913,symmetry-judgement-task,191,814623,0.0-46.0-6.0-1.0-1.0-2.0,,,,,,,,,,1.0,1.0,,,,59d6165050f88f000161e951,10:48:58,04/04/2024
,"<div style=""font-size: 10rem; color: #0000FF"">C</div>",,ospan,letter,9BuJvcFwZfY6XLOyFsRG6orXj913,html-keyboard-response,192,815631,0.0-46.0-6.0-1.0-1.0-3.0,,,,,,,,,,,,,,,59d6165050f88f000161e951,10:48:58,04/04/2024
2509.0,,,ospan,symmetry,9BuJvcFwZfY6XLOyFsRG6orXj913,symmetry-judgement-task,193,820201,0.0-46.0-6.0-1.0-1.0-4.0,,,,,,,,,,1.0,1.0,,,,59d6165050f88f000161e951,10:48:58,04/04/2024
,"<div style=""font-size: 10rem; color: #0000FF"">P</div>",,ospan,letter,9BuJvcFwZfY6XLOyFsRG6orXj913,html-keyboard-response,194,821209,0.0-46.0-6.0-1.0-1.0-5.0,,,,,,,,,,,,,,,59d6165050f88f000161e951,10:48:58,04/04/2024
1531.0,,,ospan,symmetry,9BuJvcFwZfY6XLOyFsRG6orXj913,symmetry-judgement-task,195,824889,0.0-46.0-6.0-1.0-1.0-6.0,,,,,,,,,,1.0,1.0,,,,59d6165050f88f000161e951,10:48:58,04/04/2024
,"<div style=""font-size: 10rem; color: #0000FF"">H</div>",,ospan,letter,9BuJvcFwZfY6XLOyFsRG6orXj913,html-keyboard-response,196,825898,0.0-46.0-6.0-1.0-1.0-7.0,,,,,,,,,,,,,,,59d6165050f88f000161e951,10:48:58,04/04/2024
1853.0,,,ospan,symmetry,9BuJvcFwZfY6XLOyFsRG6orXj913,symmetry-judgement-task,197,829804,0.0-46.0-6.0-1.0-1.0-8.0,,,,,,,,,,1.0,1.0,,,,59d6165050f88f000161e951,10:48:58,04/04/2024
,"<div style=""font-size: 10rem; color: #0000FF"">S</div>",,ospan,letter,9BuJvcFwZfY6XLOyFsRG6orXj913,html-keyboard-response,198,830808,0.0-46.0-6.0-1.0-1.0-9.0,,,,,,,,,,,,,,,59d6165050f88f000161e951,10:48:58,04/04/2024
1627.0,,,ospan,symmetry,9BuJvcFwZfY6XLOyFsRG6orXj913,symmetry-judgement-task,199,834633,0.0-46.0-6.0-1.0-1.0-10.0,,,,,,,,,,1.0,1.0,,,,59d6165050f88f000161e951,10:48:58,04/04/2024
,"<div style=""font-size: 10rem; color: #0000FF"">N</div>",,ospan,letter,9BuJvcFwZfY6XLOyFsRG6orXj913,html-keyboard-response,200,835637,0.0-46.0-6.0-1.0-1.0-11.0,,,,,,,,,,,,,,,59d6165050f88f000161e951,10:48:58,04/04/2024
1240.0,,,ospan,symmetry,9BuJvcFwZfY6XLOyFsRG6orXj913,symmetry-judgement-task,201,838975,0.0-46.0-6.0-1.0-1.0-12.0,,,,,,,,,,1.0,1.0,,,,59d6165050f88f000161e951,10:48:58,04/04/2024
,"<div style=""font-size: 10rem; color: #0000FF"">J</div>",,ospan,letter,9BuJvcFwZfY6XLOyFsRG6orXj913,html-keyboard-response,202,839984,0.0-46.0-6.0-1.0-1.0-13.0,,,,,,,,,,,,,,,59d6165050f88f000161e951,10:48:58,04/04/2024
1049.0,,,ospan,symmetry,9BuJvcFwZfY6XLOyFsRG6orXj913,symmetry-judgement-task,203,843135,0.0-46.0-6.0-1.0-1.0-14.0,,,,,,,,,,1.0,1.0,,,,59d6165050f88f000161e951,10:48:58,04/04/2024
,"<div style=""font-size: 10rem; color: #0000FF"">G</div>",,ospan,letter,9BuJvcFwZfY6XLOyFsRG6orXj913,html-keyboard-response,204,844151,0.0-46.0-6.0-1.0-1.0-15.0,,,,,,,,,,,,,,,59d6165050f88f000161e951,10:48:58,04/04/2024
7246.0,"<div class = numbox><p style=""font-size: 2.4rem"">Please recall the letters you saw to the best of your ability. If you do not remember a particular letter, use the SKIP button.<br><b>(When you are ready to lock in your answer, press ENTER)</b></p><button id = button_1 class = ""square num-button"" onclick = ""recordClick(this)""><div class = content><div class = numbers>C</div></div></button><button id = button_2 class = ""square num-button"" onclick = ""recordClick(this)""><div class = content><div class = numbers>G</div></div></button><button id = button_3 class = ""square num-button"" onclick = ""recordClick(this)""><div class = content><div class = numbers>H</div></div></button><button id = button_4 class = ""square num-button"" onclick = ""recordClick(this)""><div class = content><div class = numbers>J</div></div></button><button id = button_5 class = ""square num-button"" onclick = ""recordClick(this)""><div class = content><div class = numbers>K</div></div></button><button id = button_6 class = ""square num-button"" onclick = ""recordClick(this)""><div class = content><div class = numbers>L</div></div></button><button id = button_7 class = ""square num-button"" onclick = ""recordClick(this)""><div class = content><div class = numbers>N</div></div></button><button id = button_8 class = ""square num-button"" onclick = ""recordClick(this)""><div class = content><div class = numbers>P</div></div></button><button id = button_9 class = ""square num-button"" onclick = ""recordClick(this)""><div class = content><div class = numbers>Q</div></div></button><button id = button_10 class = ""square num-button"" onclick = ""recordClick(this)""><div class = content><div class = numbers>R</div></div></button><button id = button_11 class = ""square num-button"" onclick = ""recordClick(this)""><div class = content><div class = numbers>S</div></div></button><button id = button_12 class = ""square num-button"" onclick = ""recordClick(this)""><div class = content><div class = numbers>Y</div></div></button><button class = clear_button id = ""ClearButton"" onclick = ""clearResponse()"">BACKSPACE</button><button class = blank_button id = ""BlankButton"" onclick = ""blankResponse()"">SKIP</button><p style=""font-size: 2.4rem""><u><b>Current Answer:</b></u></p><br><br><div id=echoed_txt style=""font-size: 5rem; color:blue;""><b></b></div></div>",enter,ospan,retrieval,9BuJvcFwZfY6XLOyFsRG6orXj913,html-keyboard-response,205,852149,0.0-46.0-6.0-1.0-2.0,41,29,20,8.0,"[""Y"",""_"",""P"",""H"",""N"",""G""]","[""R"",""C"",""P"",""H"",""S"",""N"",""J"",""G""]",0.0,2.0,,,,,,,59d6165050f88f000161e951,10:48:58,04/04/2024
1317.8999998569489,[''],0,ospan,feedback,9BuJvcFwZfY6XLOyFsRG6orXj913,html-button-response,206,853982,0.0-46.0-6.0-1.0-3.0,,,,,,,,,,,,100.0,0.0,,59d6165050f88f000161e951,10:48:58,04/04/2024
8069.0,,{'Q0': 'None'},ospan,survey_ospan,9BuJvcFwZfY6XLOyFsRG6orXj913,lmdlab-survey-text,207,862819,0.0-46.0-7.0,,,,,,,,,,,,,,9BuJvcFwZfY6XLOyFsRG6orXj913,59d6165050f88f000161e951,10:48:58,04/04/2024
1241.0,<p><p style='font-size: 3rem'>Great work!<br><br>This completes the symmetry and memory task.</p><br><br><br>,0,ospan,finish,9BuJvcFwZfY6XLOyFsRG6orXj913,html-button-response,208,864067,0.0-46.0-8.0,41,29,20,,,,,,,,,100.0,,,59d6165050f88f000161e951,10:48:58,04/04/2024
