rt,stimulus,response,exp_name,exp_stage,subjectID,trial_type,trial_index,time_elapsed,internal_node_id,ospan_shown,ospan_total,ospan_abs,length,resp_actual,resp_correct,full_correct,num_correct,feedback,accuracy,correct,math_acc,math_warning,databaseID,prolificID,start_time,date
3303.4000000953674,<div class = 'left_align' style='font-size: 3.25rem; line-height: 1.3;'><p class = 'center_align'><b>Welcome to the Symmetry and Memory Task</b><br><br><br><br></p>Press 'continue' to show the instructions.<br><br><br><br></div>,0,ospan,instruct,YgTvO6KjiTWF5ZNYt5FoV90Xnow2,html-button-response,51,588984,0.0-43.0-0.0-0.0-0.0,,,,,,,,,,,,,,,63d19839498b3afe724b69d6,11:06:59,05/03/2024
74753.7000002861,"<div class = 'left_align' style='font-size: 3.25rem; line-height: 1.3;'><p class = 'center_align'><b>Symmetry and Memory Task</b><br><br></p>In this task, you will try to memorize letters you see on the screen<br>while you also view black and white grid pictures.<br><br>In the next few minutes, you will have some practice to get you familiar<br>with how the task works.<br><br>It may be difficult sometimes, but please do not worry about making mistakes!<br><br>We will begin by practicing the letter part of the task.<br><br><br><br></div>",0,ospan,instruct,YgTvO6KjiTWF5ZNYt5FoV90Xnow2,html-button-response,52,663995,0.0-43.0-0.0-0.0-1.0,,,,,,,,,,,,,,,63d19839498b3afe724b69d6,11:06:59,05/03/2024
6730.300000190735,"<div class = 'left_align' style='font-size: 3.25rem; line-height: 1.3;'>For this practice part, letters will appear on the screen one at a time.<br><br>Try to remember each letter in the order presented.<br><br>After some letters have been shown, you will see a response screen. Your<br>goal is to report the letters you saw <b>in order</b>. If you do not remember<br>a particular letter, you will have the option to leave it blank.<br><br><br><br></div>",0,ospan,instruct,YgTvO6KjiTWF5ZNYt5FoV90Xnow2,html-button-response,53,670988,0.0-43.0-0.0-0.0-2.0,,,,,,,,,,,,,,,63d19839498b3afe724b69d6,11:06:59,05/03/2024
4380.10000038147,"<div class = 'left_align' style='font-size: 3.25rem; line-height: 1.3;'>Remember, it is very important to get the letters in the same<br>order as you see them.<br><br>When you are ready, you may begin the letter practice.</div><br><br><br><br>",0,ospan,instruct,YgTvO6KjiTWF5ZNYt5FoV90Xnow2,html-button-response,54,675630,0.0-43.0-0.0-0.0-3.0,,,,,,,,,,,,,,,63d19839498b3afe724b69d6,11:06:59,05/03/2024
,"<p style=""font-size:75px;"">...</p>",,ospan,iti,YgTvO6KjiTWF5ZNYt5FoV90Xnow2,html-keyboard-response,55,676905,0.0-43.0-0.0-1.0-0.0,,,,,,,,,,,,,,,63d19839498b3afe724b69d6,11:06:59,05/03/2024
,"<div style=""font-size: 10rem; color: #0000FF"">H</div>",,ospan,letter,YgTvO6KjiTWF5ZNYt5FoV90Xnow2,html-keyboard-response,56,677911,0.0-43.0-0.0-1.0-1.0,,,,,,,,,,,,,,,63d19839498b3afe724b69d6,11:06:59,05/03/2024
,"<div style=""font-size: 10rem; color: #0000FF"">N</div>",,ospan,letter,YgTvO6KjiTWF5ZNYt5FoV90Xnow2,html-keyboard-response,57,679683,0.0-43.0-0.0-1.0-2.0,,,,,,,,,,,,,,,63d19839498b3afe724b69d6,11:06:59,05/03/2024
13689.299999713898,"<div class = numbox><p style=""font-size: 2.4rem"">Please recall the letters you saw to the best of your ability. If you do not remember a particular letter, use the SKIP button.<br><b>(When you are ready to lock in your answer, press ENTER)</b></p><button id = button_1 class = ""square num-button"" onclick = ""recordClick(this)""><div class = content><div class = numbers>C</div></div></button><button id = button_2 class = ""square num-button"" onclick = ""recordClick(this)""><div class = content><div class = numbers>G</div></div></button><button id = button_3 class = ""square num-button"" onclick = ""recordClick(this)""><div class = content><div class = numbers>H</div></div></button><button id = button_4 class = ""square num-button"" onclick = ""recordClick(this)""><div class = content><div class = numbers>J</div></div></button><button id = button_5 class = ""square num-button"" onclick = ""recordClick(this)""><div class = content><div class = numbers>K</div></div></button><button id = button_6 class = ""square num-button"" onclick = ""recordClick(this)""><div class = content><div class = numbers>L</div></div></button><button id = button_7 class = ""square num-button"" onclick = ""recordClick(this)""><div class = content><div class = numbers>N</div></div></button><button id = button_8 class = ""square num-button"" onclick = ""recordClick(this)""><div class = content><div class = numbers>P</div></div></button><button id = button_9 class = ""square num-button"" onclick = ""recordClick(this)""><div class = content><div class = numbers>Q</div></div></button><button id = button_10 class = ""square num-button"" onclick = ""recordClick(this)""><div class = content><div class = numbers>R</div></div></button><button id = button_11 class = ""square num-button"" onclick = ""recordClick(this)""><div class = content><div class = numbers>S</div></div></button><button id = button_12 class = ""square num-button"" onclick = ""recordClick(this)""><div class = content><div class = numbers>Y</div></div></button><button class = clear_button id = ""ClearButton"" onclick = ""clearResponse()"">BACKSPACE</button><button class = blank_button id = ""BlankButton"" onclick = ""blankResponse()"">SKIP</button><p style=""font-size: 2.4rem""><u><b>Current Answer:</b></u></p><br><br><div id=echoed_txt style=""font-size: 5rem; color:blue;""><b></b></div></div>",enter,ospan,retrieval,YgTvO6KjiTWF5ZNYt5FoV90Xnow2,html-keyboard-response,58,694140,0.0-43.0-0.0-1.0-3.0,NA,NA,NA,2.0,"[""H"",""N""]","[""H"",""N""]",1.0,2.0,"['<font color=""green"">H</font>', '<font color=""green"">N</font>']",,,,,,63d19839498b3afe724b69d6,11:06:59,05/03/2024
22477.099999904633,"['<p style=""font-size:44px"">Letters:<br><br><br><font color=""green"">H</font> <font color=""green"">N</font></p><br><br>']",0,ospan,practice_feedback,YgTvO6KjiTWF5ZNYt5FoV90Xnow2,html-button-response,59,717123,0.0-43.0-0.0-1.0-4.0,,,,,,,,,,,,,,,63d19839498b3afe724b69d6,11:06:59,05/03/2024
,"<p style=""font-size:75px;"">...</p>",,ospan,iti,YgTvO6KjiTWF5ZNYt5FoV90Xnow2,html-keyboard-response,60,718135,0.0-43.0-0.0-2.0-0.0,,,,,,,,,,,,,,,63d19839498b3afe724b69d6,11:06:59,05/03/2024
,"<div style=""font-size: 10rem; color: #0000FF"">S</div>",,ospan,letter,YgTvO6KjiTWF5ZNYt5FoV90Xnow2,html-keyboard-response,61,719137,0.0-43.0-0.0-2.0-1.0,,,,,,,,,,,,,,,63d19839498b3afe724b69d6,11:06:59,05/03/2024
,"<div style=""font-size: 10rem; color: #0000FF"">R</div>",,ospan,letter,YgTvO6KjiTWF5ZNYt5FoV90Xnow2,html-keyboard-response,62,720910,0.0-43.0-0.0-2.0-2.0,,,,,,,,,,,,,,,63d19839498b3afe724b69d6,11:06:59,05/03/2024
,"<div style=""font-size: 10rem; color: #0000FF"">G</div>",,ospan,letter,YgTvO6KjiTWF5ZNYt5FoV90Xnow2,html-keyboard-response,63,722675,0.0-43.0-0.0-2.0-3.0,,,,,,,,,,,,,,,63d19839498b3afe724b69d6,11:06:59,05/03/2024
5829.799999713898,"<div class = numbox><p style=""font-size: 2.4rem"">Please recall the letters you saw to the best of your ability. If you do not remember a particular letter, use the SKIP button.<br><b>(When you are ready to lock in your answer, press ENTER)</b></p><button id = button_1 class = ""square num-button"" onclick = ""recordClick(this)""><div class = content><div class = numbers>C</div></div></button><button id = button_2 class = ""square num-button"" onclick = ""recordClick(this)""><div class = content><div class = numbers>G</div></div></button><button id = button_3 class = ""square num-button"" onclick = ""recordClick(this)""><div class = content><div class = numbers>H</div></div></button><button id = button_4 class = ""square num-button"" onclick = ""recordClick(this)""><div class = content><div class = numbers>J</div></div></button><button id = button_5 class = ""square num-button"" onclick = ""recordClick(this)""><div class = content><div class = numbers>K</div></div></button><button id = button_6 class = ""square num-button"" onclick = ""recordClick(this)""><div class = content><div class = numbers>L</div></div></button><button id = button_7 class = ""square num-button"" onclick = ""recordClick(this)""><div class = content><div class = numbers>N</div></div></button><button id = button_8 class = ""square num-button"" onclick = ""recordClick(this)""><div class = content><div class = numbers>P</div></div></button><button id = button_9 class = ""square num-button"" onclick = ""recordClick(this)""><div class = content><div class = numbers>Q</div></div></button><button id = button_10 class = ""square num-button"" onclick = ""recordClick(this)""><div class = content><div class = numbers>R</div></div></button><button id = button_11 class = ""square num-button"" onclick = ""recordClick(this)""><div class = content><div class = numbers>S</div></div></button><button id = button_12 class = ""square num-button"" onclick = ""recordClick(this)""><div class = content><div class = numbers>Y</div></div></button><button class = clear_button id = ""ClearButton"" onclick = ""clearResponse()"">BACKSPACE</button><button class = blank_button id = ""BlankButton"" onclick = ""blankResponse()"">SKIP</button><p style=""font-size: 2.4rem""><u><b>Current Answer:</b></u></p><br><br><div id=echoed_txt style=""font-size: 5rem; color:blue;""><b></b></div></div>",enter,ospan,retrieval,YgTvO6KjiTWF5ZNYt5FoV90Xnow2,html-keyboard-response,64,729267,0.0-43.0-0.0-2.0-4.0,NA,NA,NA,3.0,"[""S"",""R"",""G""]","[""S"",""R"",""G""]",1.0,3.0,"['<font color=""green"">S</font>', '<font color=""green"">R</font>', '<font color=""green"">G</font>']",,,,,,63d19839498b3afe724b69d6,11:06:59,05/03/2024
13596.400000095367,"['<p style=""font-size:44px"">Letters:<br><br><br><font color=""green"">S</font> <font color=""green"">R</font> <font color=""green"">G</font></p><br><br>']",0,ospan,practice_feedback,YgTvO6KjiTWF5ZNYt5FoV90Xnow2,html-button-response,65,743369,0.0-43.0-0.0-2.0-5.0,,,,,,,,,,,,,,,63d19839498b3afe724b69d6,11:06:59,05/03/2024
28098.400000095367,"<div class = 'left_align' style='font-size: 3.25rem; line-height: 1.3;'>Now you will practice doing the <b>symmetry judgment part</b> of the experiment.<br><br>A black and white grid picture will appear on the screen and you have to judge if it is <br>symmetrical or asymetrical.<br><br>A picture is 'mirror' symmetrical if its left half is identical to the right half when flipped.<br>Here are examples of a symmetrical and an asymetrical picture:<br><br><center><img src='Stimuli/img/symm_instructions_extra.png' style='height:420px; width:900'></img></center><br>To judge symmetry, imagine you were to fold each picture down the middle, like a book –<br>would the left half match the right half when folded onto each other?<br><br></div><br>",0,ospan,instruct,YgTvO6KjiTWF5ZNYt5FoV90Xnow2,html-button-response,66,771468,0.0-43.0-1.0-0.0-0.0,,,,,,,,,,,,,,,63d19839498b3afe724b69d6,11:06:59,05/03/2024
69582.59999990463,"<div class = 'left_align' style='font-size: 3.25rem; line-height: 1.3;'>When you have viewed the picture and determined whether it is symmetrical or not,<br>you can <b>click the Yes or No button</b> below to answer.<br><br>If you take longer than 15 seconds, it will continue automatically<br>and record the answer as an error.</div><br>",0,ospan,instruct,YgTvO6KjiTWF5ZNYt5FoV90Xnow2,html-button-response,67,841311,0.0-43.0-1.0-0.0-1.0,,,,,,,,,,,,,,,63d19839498b3afe724b69d6,11:06:59,05/03/2024
12821.800000190735,"<div class = 'left_align' style='font-size: 3.25rem; line-height: 1.3;'>It is <b>very</b> important that you make the symmetry judgment correctly.<br><br>It is also important that you try and judge the picture as quickly as you can.<br><br>When you are ready, click on the button below to try some practice problems.</div><br><br><br><br>",0,ospan,instruct,YgTvO6KjiTWF5ZNYt5FoV90Xnow2,html-button-response,68,854391,0.0-43.0-1.0-0.0-2.0,,,,,,,,,,,,,,,63d19839498b3afe724b69d6,11:06:59,05/03/2024
4097.0,,,ospan,symmetry,YgTvO6KjiTWF5ZNYt5FoV90Xnow2,symmetry-judgement-task,69,859353,0.0-43.0-1.0-1.0-0.0,,,,,,,,,,1.0,1.0,,,,63d19839498b3afe724b69d6,11:06:59,05/03/2024
,"<p style=""color:green; font-size: 35px"">Correct</p>",,ospan,feedback,YgTvO6KjiTWF5ZNYt5FoV90Xnow2,html-keyboard-response,70,860121,0.0-43.0-1.0-1.0-1.0,,,,,,,,,,,,,,,63d19839498b3afe724b69d6,11:06:59,05/03/2024
2959.0,,,ospan,symmetry,YgTvO6KjiTWF5ZNYt5FoV90Xnow2,symmetry-judgement-task,71,865978,0.0-43.0-1.0-1.0-2.0,,,,,,,,,,1.0,1.0,,,,63d19839498b3afe724b69d6,11:06:59,05/03/2024
,"<p style=""color:green; font-size: 35px"">Correct</p>",,ospan,feedback,YgTvO6KjiTWF5ZNYt5FoV90Xnow2,html-keyboard-response,72,866733,0.0-43.0-1.0-1.0-3.0,,,,,,,,,,,,,,,63d19839498b3afe724b69d6,11:06:59,05/03/2024
1861.0,,,ospan,symmetry,YgTvO6KjiTWF5ZNYt5FoV90Xnow2,symmetry-judgement-task,73,871465,0.0-43.0-1.0-1.0-4.0,,,,,,,,,,1.0,1.0,,,,63d19839498b3afe724b69d6,11:06:59,05/03/2024
,"<p style=""color:green; font-size: 35px"">Correct</p>",,ospan,feedback,YgTvO6KjiTWF5ZNYt5FoV90Xnow2,html-keyboard-response,74,872225,0.0-43.0-1.0-1.0-5.0,,,,,,,,,,,,,,,63d19839498b3afe724b69d6,11:06:59,05/03/2024
53179.2999997139,"<p style=""font-size: 3rem;"">You responded correctly on 3 of 3 symmetry judgments. Good job!</p><br><br>",0,ospan,practice,YgTvO6KjiTWF5ZNYt5FoV90Xnow2,html-button-response,75,927410,0.0-43.0-1.0-2.0,,,,,,,,,,,,,,,63d19839498b3afe724b69d6,11:06:59,05/03/2024
102445.2999997139,"<div class = 'left_align' style='font-size: 3.25rem; line-height: 1.3;'>Now you will practice doing both parts of the experiment at the same time.<br><br>In the next practice set, you will be given one grid picture to judge.<br>Then letter will appear on the screen. Try to remember the letter.<br><br>It is <b>very important</b> to make the symmetry judgment as quickly and accurately as possible.<br><br>Just as before, once you have make the symmetry judgment, you can click Yes or No.<br><b>Note that you will no longer see Correct or Incorrect feedback.</div><br><br><br><br>",0,ospan,instruct,YgTvO6KjiTWF5ZNYt5FoV90Xnow2,html-button-response,76,1030121,0.0-43.0-2.0-0.0-0.0,,,,,,,,,,,,,,,63d19839498b3afe724b69d6,11:06:59,05/03/2024
10001.299999713898,"<div class = 'left_align' style='font-size: 3.25rem; line-height: 1.3;'>After the letter goes away, another grid picture will appear, and then<br>another letter.<br><br>At the end of each set of letters and grids, you will recall the letters to the best<br>of your ability. Remember, try your best to get the letters in the correct order.<br><br>It is important to <b>quickly</b> and <b>accurately</b> make the symmetry judgments.</div><br><br><br><br>",0,ospan,instruct,YgTvO6KjiTWF5ZNYt5FoV90Xnow2,html-button-response,77,1040383,0.0-43.0-2.0-0.0-1.0,,,,,,,,,,,,,,,63d19839498b3afe724b69d6,11:06:59,05/03/2024
72491.19999980927,"<div class = 'left_align' style='font-size: 3.25rem; line-height: 1.3;'>On the feedback screen, if you are not doing well at the symmetry judgments,<br>you will also see a warning in the middle. This indicates your percent <br>correct for the grid pictures for the entire experiment.<br><br>It is <b>very</b> important for you to keep accuracy at least at 85%: <u>We can only use<br>data where the participant was at least 85% accurate on the judgments.</u> Therefore,<br> please try your best to perform well on the symmetry judgments, <b>at the same time</b><br>doing your best to recall as many letters as possible.<br><br>Click the button to try some practice problems.</div><br><br><br><br>",0,ospan,instruct,YgTvO6KjiTWF5ZNYt5FoV90Xnow2,html-button-response,78,1113143,0.0-43.0-2.0-0.0-2.0,,,,,,,,,,,,,,,63d19839498b3afe724b69d6,11:06:59,05/03/2024
,"<p style=""font-size:75px;"">...</p>",,ospan,iti,YgTvO6KjiTWF5ZNYt5FoV90Xnow2,html-keyboard-response,79,1114416,0.0-43.0-2.0-1.0-0.0,,,,,,,,,,,,,,,63d19839498b3afe724b69d6,11:06:59,05/03/2024
3335.0,,,ospan,symmetry,YgTvO6KjiTWF5ZNYt5FoV90Xnow2,symmetry-judgement-task,80,1118841,0.0-43.0-2.0-1.0-1.0-0.0,,,,,,,,,,1.0,1.0,,,,63d19839498b3afe724b69d6,11:06:59,05/03/2024
,"<div style=""font-size: 10rem; color: #0000FF"">K</div>",,ospan,letter,YgTvO6KjiTWF5ZNYt5FoV90Xnow2,html-keyboard-response,81,1119846,0.0-43.0-2.0-1.0-1.0-1.0,,,,,,,,,,,,,,,63d19839498b3afe724b69d6,11:06:59,05/03/2024
1609.0,,,ospan,symmetry,YgTvO6KjiTWF5ZNYt5FoV90Xnow2,symmetry-judgement-task,82,1123543,0.0-43.0-2.0-1.0-1.0-2.0,,,,,,,,,,1.0,1.0,,,,63d19839498b3afe724b69d6,11:06:59,05/03/2024
,"<div style=""font-size: 10rem; color: #0000FF"">G</div>",,ospan,letter,YgTvO6KjiTWF5ZNYt5FoV90Xnow2,html-keyboard-response,83,1124553,0.0-43.0-2.0-1.0-1.0-3.0,,,,,,,,,,,,,,,63d19839498b3afe724b69d6,11:06:59,05/03/2024
1451.0,,,ospan,symmetry,YgTvO6KjiTWF5ZNYt5FoV90Xnow2,symmetry-judgement-task,84,1128109,0.0-43.0-2.0-1.0-1.0-4.0,,,,,,,,,,1.0,1.0,,,,63d19839498b3afe724b69d6,11:06:59,05/03/2024
,"<div style=""font-size: 10rem; color: #0000FF"">R</div>",,ospan,letter,YgTvO6KjiTWF5ZNYt5FoV90Xnow2,html-keyboard-response,85,1129116,0.0-43.0-2.0-1.0-1.0-5.0,,,,,,,,,,,,,,,63d19839498b3afe724b69d6,11:06:59,05/03/2024
5287.800000190735,"<div class = numbox><p style=""font-size: 2.4rem"">Please recall the letters you saw to the best of your ability. If you do not remember a particular letter, use the SKIP button.<br><b>(When you are ready to lock in your answer, press ENTER)</b></p><button id = button_1 class = ""square num-button"" onclick = ""recordClick(this)""><div class = content><div class = numbers>C</div></div></button><button id = button_2 class = ""square num-button"" onclick = ""recordClick(this)""><div class = content><div class = numbers>G</div></div></button><button id = button_3 class = ""square num-button"" onclick = ""recordClick(this)""><div class = content><div class = numbers>H</div></div></button><button id = button_4 class = ""square num-button"" onclick = ""recordClick(this)""><div class = content><div class = numbers>J</div></div></button><button id = button_5 class = ""square num-button"" onclick = ""recordClick(this)""><div class = content><div class = numbers>K</div></div></button><button id = button_6 class = ""square num-button"" onclick = ""recordClick(this)""><div class = content><div class = numbers>L</div></div></button><button id = button_7 class = ""square num-button"" onclick = ""recordClick(this)""><div class = content><div class = numbers>N</div></div></button><button id = button_8 class = ""square num-button"" onclick = ""recordClick(this)""><div class = content><div class = numbers>P</div></div></button><button id = button_9 class = ""square num-button"" onclick = ""recordClick(this)""><div class = content><div class = numbers>Q</div></div></button><button id = button_10 class = ""square num-button"" onclick = ""recordClick(this)""><div class = content><div class = numbers>R</div></div></button><button id = button_11 class = ""square num-button"" onclick = ""recordClick(this)""><div class = content><div class = numbers>S</div></div></button><button id = button_12 class = ""square num-button"" onclick = ""recordClick(this)""><div class = content><div class = numbers>Y</div></div></button><button class = clear_button id = ""ClearButton"" onclick = ""clearResponse()"">BACKSPACE</button><button class = blank_button id = ""BlankButton"" onclick = ""blankResponse()"">SKIP</button><p style=""font-size: 2.4rem""><u><b>Current Answer:</b></u></p><br><br><div id=echoed_txt style=""font-size: 5rem; color:blue;""><b></b></div></div>",enter,ospan,retrieval,YgTvO6KjiTWF5ZNYt5FoV90Xnow2,html-keyboard-response,86,1135163,0.0-43.0-2.0-1.0-2.0-0.0,NA,NA,NA,3.0,"[""K"",""G"",""R""]","[""K"",""G"",""R""]",1.0,3.0,"['<font color=""green"">K</font>', '<font color=""green"">G</font>', '<font color=""green"">R</font>']",,,,,,63d19839498b3afe724b69d6,11:06:59,05/03/2024
2145.7999997138977,"['<p style=""font-size:44px"">Letters:<br><br><br><font color=""green"">K</font> <font color=""green"">G</font> <font color=""green"">R</font></p><br><br><p style=""font-size:30px"">Symmetry:<br><br><font color=""green"">100%</font></p><br><br>']",0,ospan,practice_feedback,YgTvO6KjiTWF5ZNYt5FoV90Xnow2,html-button-response,87,1137815,0.0-43.0-2.0-1.0-2.0-1.0,,,,,,,,,,,,,,,63d19839498b3afe724b69d6,11:06:59,05/03/2024
,"<p style=""font-size:75px;"">...</p>",,ospan,iti,YgTvO6KjiTWF5ZNYt5FoV90Xnow2,html-keyboard-response,88,1138816,0.0-43.0-2.0-2.0-0.0,,,,,,,,,,,,,,,63d19839498b3afe724b69d6,11:06:59,05/03/2024
2499.0,,,ospan,symmetry,YgTvO6KjiTWF5ZNYt5FoV90Xnow2,symmetry-judgement-task,89,1142699,0.0-43.0-2.0-2.0-1.0-0.0,,,,,,,,,,1.0,1.0,,,,63d19839498b3afe724b69d6,11:06:59,05/03/2024
,"<div style=""font-size: 10rem; color: #0000FF"">P</div>",,ospan,letter,YgTvO6KjiTWF5ZNYt5FoV90Xnow2,html-keyboard-response,90,1143709,0.0-43.0-2.0-2.0-1.0-1.0,,,,,,,,,,,,,,,63d19839498b3afe724b69d6,11:06:59,05/03/2024
1910.0,,,ospan,symmetry,YgTvO6KjiTWF5ZNYt5FoV90Xnow2,symmetry-judgement-task,91,1147764,0.0-43.0-2.0-2.0-1.0-2.0,,,,,,,,,,1.0,1.0,,,,63d19839498b3afe724b69d6,11:06:59,05/03/2024
,"<div style=""font-size: 10rem; color: #0000FF"">R</div>",,ospan,letter,YgTvO6KjiTWF5ZNYt5FoV90Xnow2,html-keyboard-response,92,1148771,0.0-43.0-2.0-2.0-1.0-3.0,,,,,,,,,,,,,,,63d19839498b3afe724b69d6,11:06:59,05/03/2024
3816.0,,,ospan,symmetry,YgTvO6KjiTWF5ZNYt5FoV90Xnow2,symmetry-judgement-task,93,1154692,0.0-43.0-2.0-2.0-1.0-4.0,,,,,,,,,,1.0,1.0,,,,63d19839498b3afe724b69d6,11:06:59,05/03/2024
,"<div style=""font-size: 10rem; color: #0000FF"">K</div>",,ospan,letter,YgTvO6KjiTWF5ZNYt5FoV90Xnow2,html-keyboard-response,94,1155698,0.0-43.0-2.0-2.0-1.0-5.0,,,,,,,,,,,,,,,63d19839498b3afe724b69d6,11:06:59,05/03/2024
5499.89999961853,"<div class = numbox><p style=""font-size: 2.4rem"">Please recall the letters you saw to the best of your ability. If you do not remember a particular letter, use the SKIP button.<br><b>(When you are ready to lock in your answer, press ENTER)</b></p><button id = button_1 class = ""square num-button"" onclick = ""recordClick(this)""><div class = content><div class = numbers>C</div></div></button><button id = button_2 class = ""square num-button"" onclick = ""recordClick(this)""><div class = content><div class = numbers>G</div></div></button><button id = button_3 class = ""square num-button"" onclick = ""recordClick(this)""><div class = content><div class = numbers>H</div></div></button><button id = button_4 class = ""square num-button"" onclick = ""recordClick(this)""><div class = content><div class = numbers>J</div></div></button><button id = button_5 class = ""square num-button"" onclick = ""recordClick(this)""><div class = content><div class = numbers>K</div></div></button><button id = button_6 class = ""square num-button"" onclick = ""recordClick(this)""><div class = content><div class = numbers>L</div></div></button><button id = button_7 class = ""square num-button"" onclick = ""recordClick(this)""><div class = content><div class = numbers>N</div></div></button><button id = button_8 class = ""square num-button"" onclick = ""recordClick(this)""><div class = content><div class = numbers>P</div></div></button><button id = button_9 class = ""square num-button"" onclick = ""recordClick(this)""><div class = content><div class = numbers>Q</div></div></button><button id = button_10 class = ""square num-button"" onclick = ""recordClick(this)""><div class = content><div class = numbers>R</div></div></button><button id = button_11 class = ""square num-button"" onclick = ""recordClick(this)""><div class = content><div class = numbers>S</div></div></button><button id = button_12 class = ""square num-button"" onclick = ""recordClick(this)""><div class = content><div class = numbers>Y</div></div></button><button class = clear_button id = ""ClearButton"" onclick = ""clearResponse()"">BACKSPACE</button><button class = blank_button id = ""BlankButton"" onclick = ""blankResponse()"">SKIP</button><p style=""font-size: 2.4rem""><u><b>Current Answer:</b></u></p><br><br><div id=echoed_txt style=""font-size: 5rem; color:blue;""><b></b></div></div>",enter,ospan,retrieval,YgTvO6KjiTWF5ZNYt5FoV90Xnow2,html-keyboard-response,95,1161966,0.0-43.0-2.0-2.0-2.0-0.0,NA,NA,NA,3.0,"[""P"",""R"",""K""]","[""P"",""R"",""K""]",1.0,3.0,"['<font color=""green"">P</font>', '<font color=""green"">R</font>', '<font color=""green"">K</font>']",,,,,,63d19839498b3afe724b69d6,11:06:59,05/03/2024
1729.7999997138977,"['<p style=""font-size:44px"">Letters:<br><br><br><font color=""green"">P</font> <font color=""green"">R</font> <font color=""green"">K</font></p><br><br><p style=""font-size:30px"">Symmetry:<br><br><font color=""green"">100%</font></p><br><br>']",0,ospan,practice_feedback,YgTvO6KjiTWF5ZNYt5FoV90Xnow2,html-button-response,96,1164207,0.0-43.0-2.0-2.0-2.0-1.0,,,,,,,,,,,,,,,63d19839498b3afe724b69d6,11:06:59,05/03/2024
3738.0,"<div class = 'left_align' style='font-size: 3rem; line-height: 1.3;'><b>Great work! That is the end of practice.</b><br><br>The real trials will look just like the practice trials you just completed.<br><br><u>Here, you will not see feedback</u>. First, you will see an grid picture to judge,<br>then a letter to remember. When the recall screen appears, report the letters in the<br>order presented. If you forget a letter, remember to use the <b>blank</b> button to move to the<br>next letter. Some of the sets will have more symmetry grids and letters than others.<br><br>It is important that you do your best on both the symmetry judgments and the letter recall<br>parts of the experiment. For for the symmetry judgments, try to work as <b>quickly</b> and <br>as <b>accurately</b> as possible. Remember to keep your symmetry accuracy at 85% or above.<br><br><b>For the letters, do NOT use any external aid (e.g., writing on paper, electronic device).</b><br><br>It is <u>very important</u> to our experiment to have a <b>true</b> view of your real performance.<br><br>Do not worry if you miss some when it gets hard! This task is meant to be very challenging!<br><br>Click the button to begin.</div><br><br><br><br>",0,ospan,starting_real_here,YgTvO6KjiTWF5ZNYt5FoV90Xnow2,html-button-response,97,1167946,0.0-43.0-2.0-3.0,,,,,,,,,,,,,,,63d19839498b3afe724b69d6,11:06:59,05/03/2024
,"<p style=""font-size:75px;"">...</p>",,ospan,iti,YgTvO6KjiTWF5ZNYt5FoV90Xnow2,html-keyboard-response,98,1169206,0.0-43.0-3.0-0.0-0.0,,,,,,,,,,,,,,,63d19839498b3afe724b69d6,11:06:59,05/03/2024
2831.0,,,ospan,symmetry,YgTvO6KjiTWF5ZNYt5FoV90Xnow2,symmetry-judgement-task,99,1173377,0.0-43.0-3.0-0.0-1.0-0.0,,,,,,,,,,1.0,1.0,,,,63d19839498b3afe724b69d6,11:06:59,05/03/2024
,"<div style=""font-size: 10rem; color: #0000FF"">K</div>",,ospan,letter,YgTvO6KjiTWF5ZNYt5FoV90Xnow2,html-keyboard-response,100,1174388,0.0-43.0-3.0-0.0-1.0-1.0,,,,,,,,,,,,,,,63d19839498b3afe724b69d6,11:06:59,05/03/2024
2085.0,,,ospan,symmetry,YgTvO6KjiTWF5ZNYt5FoV90Xnow2,symmetry-judgement-task,101,1178585,0.0-43.0-3.0-0.0-1.0-2.0,,,,,,,,,,1.0,1.0,,,,63d19839498b3afe724b69d6,11:06:59,05/03/2024
,"<div style=""font-size: 10rem; color: #0000FF"">C</div>",,ospan,letter,YgTvO6KjiTWF5ZNYt5FoV90Xnow2,html-keyboard-response,102,1179600,0.0-43.0-3.0-0.0-1.0-3.0,,,,,,,,,,,,,,,63d19839498b3afe724b69d6,11:06:59,05/03/2024
2292.0,,,ospan,symmetry,YgTvO6KjiTWF5ZNYt5FoV90Xnow2,symmetry-judgement-task,103,1184016,0.0-43.0-3.0-0.0-1.0-4.0,,,,,,,,,,1.0,1.0,,,,63d19839498b3afe724b69d6,11:06:59,05/03/2024
,"<div style=""font-size: 10rem; color: #0000FF"">P</div>",,ospan,letter,YgTvO6KjiTWF5ZNYt5FoV90Xnow2,html-keyboard-response,104,1185019,0.0-43.0-3.0-0.0-1.0-5.0,,,,,,,,,,,,,,,63d19839498b3afe724b69d6,11:06:59,05/03/2024
4727.099999904633,"<div class = numbox><p style=""font-size: 2.4rem"">Please recall the letters you saw to the best of your ability. If you do not remember a particular letter, use the SKIP button.<br><b>(When you are ready to lock in your answer, press ENTER)</b></p><button id = button_1 class = ""square num-button"" onclick = ""recordClick(this)""><div class = content><div class = numbers>C</div></div></button><button id = button_2 class = ""square num-button"" onclick = ""recordClick(this)""><div class = content><div class = numbers>G</div></div></button><button id = button_3 class = ""square num-button"" onclick = ""recordClick(this)""><div class = content><div class = numbers>H</div></div></button><button id = button_4 class = ""square num-button"" onclick = ""recordClick(this)""><div class = content><div class = numbers>J</div></div></button><button id = button_5 class = ""square num-button"" onclick = ""recordClick(this)""><div class = content><div class = numbers>K</div></div></button><button id = button_6 class = ""square num-button"" onclick = ""recordClick(this)""><div class = content><div class = numbers>L</div></div></button><button id = button_7 class = ""square num-button"" onclick = ""recordClick(this)""><div class = content><div class = numbers>N</div></div></button><button id = button_8 class = ""square num-button"" onclick = ""recordClick(this)""><div class = content><div class = numbers>P</div></div></button><button id = button_9 class = ""square num-button"" onclick = ""recordClick(this)""><div class = content><div class = numbers>Q</div></div></button><button id = button_10 class = ""square num-button"" onclick = ""recordClick(this)""><div class = content><div class = numbers>R</div></div></button><button id = button_11 class = ""square num-button"" onclick = ""recordClick(this)""><div class = content><div class = numbers>S</div></div></button><button id = button_12 class = ""square num-button"" onclick = ""recordClick(this)""><div class = content><div class = numbers>Y</div></div></button><button class = clear_button id = ""ClearButton"" onclick = ""clearResponse()"">BACKSPACE</button><button class = blank_button id = ""BlankButton"" onclick = ""blankResponse()"">SKIP</button><p style=""font-size: 2.4rem""><u><b>Current Answer:</b></u></p><br><br><div id=echoed_txt style=""font-size: 5rem; color:blue;""><b></b></div></div>",enter,ospan,retrieval,YgTvO6KjiTWF5ZNYt5FoV90Xnow2,html-keyboard-response,105,1190507,0.0-43.0-3.0-0.0-2.0,3,3,3,3.0,"[""K"",""C"",""P""]","[""K"",""C"",""P""]",1.0,3.0,,,,,,,63d19839498b3afe724b69d6,11:06:59,05/03/2024
2387.2000002861023,[''],0,ospan,feedback,YgTvO6KjiTWF5ZNYt5FoV90Xnow2,html-button-response,106,1193403,0.0-43.0-3.0-0.0-3.0,,,,,,,,,,,,100.0,0.0,,63d19839498b3afe724b69d6,11:06:59,05/03/2024
,"<p style=""font-size:75px;"">...</p>",,ospan,iti,YgTvO6KjiTWF5ZNYt5FoV90Xnow2,html-keyboard-response,107,1194410,0.0-43.0-4.0-0.0-0.0,,,,,,,,,,,,,,,63d19839498b3afe724b69d6,11:06:59,05/03/2024
2095.0,,,ospan,symmetry,YgTvO6KjiTWF5ZNYt5FoV90Xnow2,symmetry-judgement-task,108,1197885,0.0-43.0-4.0-0.0-1.0-0.0,,,,,,,,,,1.0,1.0,,,,63d19839498b3afe724b69d6,11:06:59,05/03/2024
,"<div style=""font-size: 10rem; color: #0000FF"">N</div>",,ospan,letter,YgTvO6KjiTWF5ZNYt5FoV90Xnow2,html-keyboard-response,109,1198898,0.0-43.0-4.0-0.0-1.0-1.0,,,,,,,,,,,,,,,63d19839498b3afe724b69d6,11:06:59,05/03/2024
1828.0,,,ospan,symmetry,YgTvO6KjiTWF5ZNYt5FoV90Xnow2,symmetry-judgement-task,110,1202830,0.0-43.0-4.0-0.0-1.0-2.0,,,,,,,,,,1.0,1.0,,,,63d19839498b3afe724b69d6,11:06:59,05/03/2024
,"<div style=""font-size: 10rem; color: #0000FF"">Q</div>",,ospan,letter,YgTvO6KjiTWF5ZNYt5FoV90Xnow2,html-keyboard-response,111,1203843,0.0-43.0-4.0-0.0-1.0-3.0,,,,,,,,,,,,,,,63d19839498b3afe724b69d6,11:06:59,05/03/2024
1515.0,,,ospan,symmetry,YgTvO6KjiTWF5ZNYt5FoV90Xnow2,symmetry-judgement-task,112,1207457,0.0-43.0-4.0-0.0-1.0-4.0,,,,,,,,,,1.0,1.0,,,,63d19839498b3afe724b69d6,11:06:59,05/03/2024
,"<div style=""font-size: 10rem; color: #0000FF"">J</div>",,ospan,letter,YgTvO6KjiTWF5ZNYt5FoV90Xnow2,html-keyboard-response,113,1208464,0.0-43.0-4.0-0.0-1.0-5.0,,,,,,,,,,,,,,,63d19839498b3afe724b69d6,11:06:59,05/03/2024
1456.0,,,ospan,symmetry,YgTvO6KjiTWF5ZNYt5FoV90Xnow2,symmetry-judgement-task,114,1212055,0.0-43.0-4.0-0.0-1.0-6.0,,,,,,,,,,1.0,1.0,,,,63d19839498b3afe724b69d6,11:06:59,05/03/2024
,"<div style=""font-size: 10rem; color: #0000FF"">L</div>",,ospan,letter,YgTvO6KjiTWF5ZNYt5FoV90Xnow2,html-keyboard-response,115,1213068,0.0-43.0-4.0-0.0-1.0-7.0,,,,,,,,,,,,,,,63d19839498b3afe724b69d6,11:06:59,05/03/2024
6978.89999961853,"<div class = numbox><p style=""font-size: 2.4rem"">Please recall the letters you saw to the best of your ability. If you do not remember a particular letter, use the SKIP button.<br><b>(When you are ready to lock in your answer, press ENTER)</b></p><button id = button_1 class = ""square num-button"" onclick = ""recordClick(this)""><div class = content><div class = numbers>C</div></div></button><button id = button_2 class = ""square num-button"" onclick = ""recordClick(this)""><div class = content><div class = numbers>G</div></div></button><button id = button_3 class = ""square num-button"" onclick = ""recordClick(this)""><div class = content><div class = numbers>H</div></div></button><button id = button_4 class = ""square num-button"" onclick = ""recordClick(this)""><div class = content><div class = numbers>J</div></div></button><button id = button_5 class = ""square num-button"" onclick = ""recordClick(this)""><div class = content><div class = numbers>K</div></div></button><button id = button_6 class = ""square num-button"" onclick = ""recordClick(this)""><div class = content><div class = numbers>L</div></div></button><button id = button_7 class = ""square num-button"" onclick = ""recordClick(this)""><div class = content><div class = numbers>N</div></div></button><button id = button_8 class = ""square num-button"" onclick = ""recordClick(this)""><div class = content><div class = numbers>P</div></div></button><button id = button_9 class = ""square num-button"" onclick = ""recordClick(this)""><div class = content><div class = numbers>Q</div></div></button><button id = button_10 class = ""square num-button"" onclick = ""recordClick(this)""><div class = content><div class = numbers>R</div></div></button><button id = button_11 class = ""square num-button"" onclick = ""recordClick(this)""><div class = content><div class = numbers>S</div></div></button><button id = button_12 class = ""square num-button"" onclick = ""recordClick(this)""><div class = content><div class = numbers>Y</div></div></button><button class = clear_button id = ""ClearButton"" onclick = ""clearResponse()"">BACKSPACE</button><button class = blank_button id = ""BlankButton"" onclick = ""blankResponse()"">SKIP</button><p style=""font-size: 2.4rem""><u><b>Current Answer:</b></u></p><br><br><div id=echoed_txt style=""font-size: 5rem; color:blue;""><b></b></div></div>",enter,ospan,retrieval,YgTvO6KjiTWF5ZNYt5FoV90Xnow2,html-keyboard-response,116,1220808,0.0-43.0-4.0-0.0-2.0,7,7,7,4.0,"[""N"",""Q"",""J"",""L""]","[""N"",""Q"",""J"",""L""]",1.0,4.0,,,,,,,63d19839498b3afe724b69d6,11:06:59,05/03/2024
1395.5,[''],0,ospan,feedback,YgTvO6KjiTWF5ZNYt5FoV90Xnow2,html-button-response,117,1222711,0.0-43.0-4.0-0.0-3.0,,,,,,,,,,,,100.0,0.0,,63d19839498b3afe724b69d6,11:06:59,05/03/2024
,"<p style=""font-size:75px;"">...</p>",,ospan,iti,YgTvO6KjiTWF5ZNYt5FoV90Xnow2,html-keyboard-response,118,1223721,0.0-43.0-4.0-1.0-0.0,,,,,,,,,,,,,,,63d19839498b3afe724b69d6,11:06:59,05/03/2024
2616.0,,,ospan,symmetry,YgTvO6KjiTWF5ZNYt5FoV90Xnow2,symmetry-judgement-task,119,1227717,0.0-43.0-4.0-1.0-1.0-0.0,,,,,,,,,,1.0,1.0,,,,63d19839498b3afe724b69d6,11:06:59,05/03/2024
,"<div style=""font-size: 10rem; color: #0000FF"">N</div>",,ospan,letter,YgTvO6KjiTWF5ZNYt5FoV90Xnow2,html-keyboard-response,120,1228721,0.0-43.0-4.0-1.0-1.0-1.0,,,,,,,,,,,,,,,63d19839498b3afe724b69d6,11:06:59,05/03/2024
3583.0,,,ospan,symmetry,YgTvO6KjiTWF5ZNYt5FoV90Xnow2,symmetry-judgement-task,121,1234397,0.0-43.0-4.0-1.0-1.0-2.0,,,,,,,,,,1.0,1.0,,,,63d19839498b3afe724b69d6,11:06:59,05/03/2024
,"<div style=""font-size: 10rem; color: #0000FF"">H</div>",,ospan,letter,YgTvO6KjiTWF5ZNYt5FoV90Xnow2,html-keyboard-response,122,1235414,0.0-43.0-4.0-1.0-1.0-3.0,,,,,,,,,,,,,,,63d19839498b3afe724b69d6,11:06:59,05/03/2024
2372.0,,,ospan,symmetry,YgTvO6KjiTWF5ZNYt5FoV90Xnow2,symmetry-judgement-task,123,1239908,0.0-43.0-4.0-1.0-1.0-4.0,,,,,,,,,,1.0,1.0,,,,63d19839498b3afe724b69d6,11:06:59,05/03/2024
,"<div style=""font-size: 10rem; color: #0000FF"">Q</div>",,ospan,letter,YgTvO6KjiTWF5ZNYt5FoV90Xnow2,html-keyboard-response,124,1240917,0.0-43.0-4.0-1.0-1.0-5.0,,,,,,,,,,,,,,,63d19839498b3afe724b69d6,11:06:59,05/03/2024
2157.0,,,ospan,symmetry,YgTvO6KjiTWF5ZNYt5FoV90Xnow2,symmetry-judgement-task,125,1245234,0.0-43.0-4.0-1.0-1.0-6.0,,,,,,,,,,1.0,1.0,,,,63d19839498b3afe724b69d6,11:06:59,05/03/2024
,"<div style=""font-size: 10rem; color: #0000FF"">Y</div>",,ospan,letter,YgTvO6KjiTWF5ZNYt5FoV90Xnow2,html-keyboard-response,126,1246245,0.0-43.0-4.0-1.0-1.0-7.0,,,,,,,,,,,,,,,63d19839498b3afe724b69d6,11:06:59,05/03/2024
1570.0,,,ospan,symmetry,YgTvO6KjiTWF5ZNYt5FoV90Xnow2,symmetry-judgement-task,127,1249901,0.0-43.0-4.0-1.0-1.0-8.0,,,,,,,,,,1.0,1.0,,,,63d19839498b3afe724b69d6,11:06:59,05/03/2024
,"<div style=""font-size: 10rem; color: #0000FF"">R</div>",,ospan,letter,YgTvO6KjiTWF5ZNYt5FoV90Xnow2,html-keyboard-response,128,1250919,0.0-43.0-4.0-1.0-1.0-9.0,,,,,,,,,,,,,,,63d19839498b3afe724b69d6,11:06:59,05/03/2024
6173.799999713898,"<div class = numbox><p style=""font-size: 2.4rem"">Please recall the letters you saw to the best of your ability. If you do not remember a particular letter, use the SKIP button.<br><b>(When you are ready to lock in your answer, press ENTER)</b></p><button id = button_1 class = ""square num-button"" onclick = ""recordClick(this)""><div class = content><div class = numbers>C</div></div></button><button id = button_2 class = ""square num-button"" onclick = ""recordClick(this)""><div class = content><div class = numbers>G</div></div></button><button id = button_3 class = ""square num-button"" onclick = ""recordClick(this)""><div class = content><div class = numbers>H</div></div></button><button id = button_4 class = ""square num-button"" onclick = ""recordClick(this)""><div class = content><div class = numbers>J</div></div></button><button id = button_5 class = ""square num-button"" onclick = ""recordClick(this)""><div class = content><div class = numbers>K</div></div></button><button id = button_6 class = ""square num-button"" onclick = ""recordClick(this)""><div class = content><div class = numbers>L</div></div></button><button id = button_7 class = ""square num-button"" onclick = ""recordClick(this)""><div class = content><div class = numbers>N</div></div></button><button id = button_8 class = ""square num-button"" onclick = ""recordClick(this)""><div class = content><div class = numbers>P</div></div></button><button id = button_9 class = ""square num-button"" onclick = ""recordClick(this)""><div class = content><div class = numbers>Q</div></div></button><button id = button_10 class = ""square num-button"" onclick = ""recordClick(this)""><div class = content><div class = numbers>R</div></div></button><button id = button_11 class = ""square num-button"" onclick = ""recordClick(this)""><div class = content><div class = numbers>S</div></div></button><button id = button_12 class = ""square num-button"" onclick = ""recordClick(this)""><div class = content><div class = numbers>Y</div></div></button><button class = clear_button id = ""ClearButton"" onclick = ""clearResponse()"">BACKSPACE</button><button class = blank_button id = ""BlankButton"" onclick = ""blankResponse()"">SKIP</button><p style=""font-size: 2.4rem""><u><b>Current Answer:</b></u></p><br><br><div id=echoed_txt style=""font-size: 5rem; color:blue;""><b></b></div></div>",enter,ospan,retrieval,YgTvO6KjiTWF5ZNYt5FoV90Xnow2,html-keyboard-response,129,1257854,0.0-43.0-4.0-1.0-2.0,12,10,7,5.0,"[""N"",""H"",""Q"",""R"",""Y""]","[""N"",""H"",""Q"",""Y"",""R""]",0.0,3.0,,,,,,,63d19839498b3afe724b69d6,11:06:59,05/03/2024
1532.0,[''],0,ospan,feedback,YgTvO6KjiTWF5ZNYt5FoV90Xnow2,html-button-response,130,1259899,0.0-43.0-4.0-1.0-3.0,,,,,,,,,,,,100.0,0.0,,63d19839498b3afe724b69d6,11:06:59,05/03/2024
,"<p style=""font-size:75px;"">...</p>",,ospan,iti,YgTvO6KjiTWF5ZNYt5FoV90Xnow2,html-keyboard-response,131,1260909,0.0-43.0-4.0-2.0-0.0,,,,,,,,,,,,,,,63d19839498b3afe724b69d6,11:06:59,05/03/2024
2227.0,,,ospan,symmetry,YgTvO6KjiTWF5ZNYt5FoV90Xnow2,symmetry-judgement-task,132,1264509,0.0-43.0-4.0-2.0-1.0-0.0,,,,,,,,,,1.0,1.0,,,,63d19839498b3afe724b69d6,11:06:59,05/03/2024
,"<div style=""font-size: 10rem; color: #0000FF"">P</div>",,ospan,letter,YgTvO6KjiTWF5ZNYt5FoV90Xnow2,html-keyboard-response,133,1265525,0.0-43.0-4.0-2.0-1.0-1.0,,,,,,,,,,,,,,,63d19839498b3afe724b69d6,11:06:59,05/03/2024
3788.0,,,ospan,symmetry,YgTvO6KjiTWF5ZNYt5FoV90Xnow2,symmetry-judgement-task,134,1271439,0.0-43.0-4.0-2.0-1.0-2.0,,,,,,,,,,1.0,1.0,,,,63d19839498b3afe724b69d6,11:06:59,05/03/2024
,"<div style=""font-size: 10rem; color: #0000FF"">Y</div>",,ospan,letter,YgTvO6KjiTWF5ZNYt5FoV90Xnow2,html-keyboard-response,135,1272454,0.0-43.0-4.0-2.0-1.0-3.0,,,,,,,,,,,,,,,63d19839498b3afe724b69d6,11:06:59,05/03/2024
1651.0,,,ospan,symmetry,YgTvO6KjiTWF5ZNYt5FoV90Xnow2,symmetry-judgement-task,136,1276226,0.0-43.0-4.0-2.0-1.0-4.0,,,,,,,,,,1.0,1.0,,,,63d19839498b3afe724b69d6,11:06:59,05/03/2024
,"<div style=""font-size: 10rem; color: #0000FF"">Q</div>",,ospan,letter,YgTvO6KjiTWF5ZNYt5FoV90Xnow2,html-keyboard-response,137,1277231,0.0-43.0-4.0-2.0-1.0-5.0,,,,,,,,,,,,,,,63d19839498b3afe724b69d6,11:06:59,05/03/2024
5214.599999904633,"<div class = numbox><p style=""font-size: 2.4rem"">Please recall the letters you saw to the best of your ability. If you do not remember a particular letter, use the SKIP button.<br><b>(When you are ready to lock in your answer, press ENTER)</b></p><button id = button_1 class = ""square num-button"" onclick = ""recordClick(this)""><div class = content><div class = numbers>C</div></div></button><button id = button_2 class = ""square num-button"" onclick = ""recordClick(this)""><div class = content><div class = numbers>G</div></div></button><button id = button_3 class = ""square num-button"" onclick = ""recordClick(this)""><div class = content><div class = numbers>H</div></div></button><button id = button_4 class = ""square num-button"" onclick = ""recordClick(this)""><div class = content><div class = numbers>J</div></div></button><button id = button_5 class = ""square num-button"" onclick = ""recordClick(this)""><div class = content><div class = numbers>K</div></div></button><button id = button_6 class = ""square num-button"" onclick = ""recordClick(this)""><div class = content><div class = numbers>L</div></div></button><button id = button_7 class = ""square num-button"" onclick = ""recordClick(this)""><div class = content><div class = numbers>N</div></div></button><button id = button_8 class = ""square num-button"" onclick = ""recordClick(this)""><div class = content><div class = numbers>P</div></div></button><button id = button_9 class = ""square num-button"" onclick = ""recordClick(this)""><div class = content><div class = numbers>Q</div></div></button><button id = button_10 class = ""square num-button"" onclick = ""recordClick(this)""><div class = content><div class = numbers>R</div></div></button><button id = button_11 class = ""square num-button"" onclick = ""recordClick(this)""><div class = content><div class = numbers>S</div></div></button><button id = button_12 class = ""square num-button"" onclick = ""recordClick(this)""><div class = content><div class = numbers>Y</div></div></button><button class = clear_button id = ""ClearButton"" onclick = ""clearResponse()"">BACKSPACE</button><button class = blank_button id = ""BlankButton"" onclick = ""blankResponse()"">SKIP</button><p style=""font-size: 2.4rem""><u><b>Current Answer:</b></u></p><br><br><div id=echoed_txt style=""font-size: 5rem; color:blue;""><b></b></div></div>",enter,ospan,retrieval,YgTvO6KjiTWF5ZNYt5FoV90Xnow2,html-keyboard-response,138,1283213,0.0-43.0-4.0-2.0-2.0,15,13,10,3.0,"[""P"",""Y"",""Q""]","[""P"",""Y"",""Q""]",1.0,3.0,,,,,,,63d19839498b3afe724b69d6,11:06:59,05/03/2024
1970.1999998092651,[''],0,ospan,feedback,YgTvO6KjiTWF5ZNYt5FoV90Xnow2,html-button-response,139,1285698,0.0-43.0-4.0-2.0-3.0,,,,,,,,,,,,100.0,0.0,,63d19839498b3afe724b69d6,11:06:59,05/03/2024
,"<p style=""font-size:75px;"">...</p>",,ospan,iti,YgTvO6KjiTWF5ZNYt5FoV90Xnow2,html-keyboard-response,140,1286707,0.0-43.0-5.0-0.0-0.0,,,,,,,,,,,,,,,63d19839498b3afe724b69d6,11:06:59,05/03/2024
3448.0,,,ospan,symmetry,YgTvO6KjiTWF5ZNYt5FoV90Xnow2,symmetry-judgement-task,141,1291512,0.0-43.0-5.0-0.0-1.0-0.0,,,,,,,,,,1.0,1.0,,,,63d19839498b3afe724b69d6,11:06:59,05/03/2024
,"<div style=""font-size: 10rem; color: #0000FF"">C</div>",,ospan,letter,YgTvO6KjiTWF5ZNYt5FoV90Xnow2,html-keyboard-response,142,1292524,0.0-43.0-5.0-0.0-1.0-1.0,,,,,,,,,,,,,,,63d19839498b3afe724b69d6,11:06:59,05/03/2024
2335.0,,,ospan,symmetry,YgTvO6KjiTWF5ZNYt5FoV90Xnow2,symmetry-judgement-task,143,1296974,0.0-43.0-5.0-0.0-1.0-2.0,,,,,,,,,,1.0,1.0,,,,63d19839498b3afe724b69d6,11:06:59,05/03/2024
,"<div style=""font-size: 10rem; color: #0000FF"">N</div>",,ospan,letter,YgTvO6KjiTWF5ZNYt5FoV90Xnow2,html-keyboard-response,144,1297986,0.0-43.0-5.0-0.0-1.0-3.0,,,,,,,,,,,,,,,63d19839498b3afe724b69d6,11:06:59,05/03/2024
2698.0,,,ospan,symmetry,YgTvO6KjiTWF5ZNYt5FoV90Xnow2,symmetry-judgement-task,145,1302815,0.0-43.0-5.0-0.0-1.0-4.0,,,,,,,,,,1.0,1.0,,,,63d19839498b3afe724b69d6,11:06:59,05/03/2024
,"<div style=""font-size: 10rem; color: #0000FF"">H</div>",,ospan,letter,YgTvO6KjiTWF5ZNYt5FoV90Xnow2,html-keyboard-response,146,1303831,0.0-43.0-5.0-0.0-1.0-5.0,,,,,,,,,,,,,,,63d19839498b3afe724b69d6,11:06:59,05/03/2024
3020.0,,,ospan,symmetry,YgTvO6KjiTWF5ZNYt5FoV90Xnow2,symmetry-judgement-task,147,1308978,0.0-43.0-5.0-0.0-1.0-6.0,,,,,,,,,,1.0,1.0,,,,63d19839498b3afe724b69d6,11:06:59,05/03/2024
,"<div style=""font-size: 10rem; color: #0000FF"">J</div>",,ospan,letter,YgTvO6KjiTWF5ZNYt5FoV90Xnow2,html-keyboard-response,148,1309984,0.0-43.0-5.0-0.0-1.0-7.0,,,,,,,,,,,,,,,63d19839498b3afe724b69d6,11:06:59,05/03/2024
2925.0,,,ospan,symmetry,YgTvO6KjiTWF5ZNYt5FoV90Xnow2,symmetry-judgement-task,149,1315015,0.0-43.0-5.0-0.0-1.0-8.0,,,,,,,,,,1.0,1.0,,,,63d19839498b3afe724b69d6,11:06:59,05/03/2024
,"<div style=""font-size: 10rem; color: #0000FF"">R</div>",,ospan,letter,YgTvO6KjiTWF5ZNYt5FoV90Xnow2,html-keyboard-response,150,1316029,0.0-43.0-5.0-0.0-1.0-9.0,,,,,,,,,,,,,,,63d19839498b3afe724b69d6,11:06:59,05/03/2024
1493.0,,,ospan,symmetry,YgTvO6KjiTWF5ZNYt5FoV90Xnow2,symmetry-judgement-task,151,1319633,0.0-43.0-5.0-0.0-1.0-10.0,,,,,,,,,,1.0,1.0,,,,63d19839498b3afe724b69d6,11:06:59,05/03/2024
,"<div style=""font-size: 10rem; color: #0000FF"">P</div>",,ospan,letter,YgTvO6KjiTWF5ZNYt5FoV90Xnow2,html-keyboard-response,152,1320641,0.0-43.0-5.0-0.0-1.0-11.0,,,,,,,,,,,,,,,63d19839498b3afe724b69d6,11:06:59,05/03/2024
8867.699999809265,"<div class = numbox><p style=""font-size: 2.4rem"">Please recall the letters you saw to the best of your ability. If you do not remember a particular letter, use the SKIP button.<br><b>(When you are ready to lock in your answer, press ENTER)</b></p><button id = button_1 class = ""square num-button"" onclick = ""recordClick(this)""><div class = content><div class = numbers>C</div></div></button><button id = button_2 class = ""square num-button"" onclick = ""recordClick(this)""><div class = content><div class = numbers>G</div></div></button><button id = button_3 class = ""square num-button"" onclick = ""recordClick(this)""><div class = content><div class = numbers>H</div></div></button><button id = button_4 class = ""square num-button"" onclick = ""recordClick(this)""><div class = content><div class = numbers>J</div></div></button><button id = button_5 class = ""square num-button"" onclick = ""recordClick(this)""><div class = content><div class = numbers>K</div></div></button><button id = button_6 class = ""square num-button"" onclick = ""recordClick(this)""><div class = content><div class = numbers>L</div></div></button><button id = button_7 class = ""square num-button"" onclick = ""recordClick(this)""><div class = content><div class = numbers>N</div></div></button><button id = button_8 class = ""square num-button"" onclick = ""recordClick(this)""><div class = content><div class = numbers>P</div></div></button><button id = button_9 class = ""square num-button"" onclick = ""recordClick(this)""><div class = content><div class = numbers>Q</div></div></button><button id = button_10 class = ""square num-button"" onclick = ""recordClick(this)""><div class = content><div class = numbers>R</div></div></button><button id = button_11 class = ""square num-button"" onclick = ""recordClick(this)""><div class = content><div class = numbers>S</div></div></button><button id = button_12 class = ""square num-button"" onclick = ""recordClick(this)""><div class = content><div class = numbers>Y</div></div></button><button class = clear_button id = ""ClearButton"" onclick = ""clearResponse()"">BACKSPACE</button><button class = blank_button id = ""BlankButton"" onclick = ""blankResponse()"">SKIP</button><p style=""font-size: 2.4rem""><u><b>Current Answer:</b></u></p><br><br><div id=echoed_txt style=""font-size: 5rem; color:blue;""><b></b></div></div>",enter,ospan,retrieval,YgTvO6KjiTWF5ZNYt5FoV90Xnow2,html-keyboard-response,153,1330275,0.0-43.0-5.0-0.0-2.0,21,19,16,6.0,"[""C"",""N"",""H"",""J"",""R"",""P""]","[""C"",""N"",""H"",""J"",""R"",""P""]",1.0,6.0,,,,,,,63d19839498b3afe724b69d6,11:06:59,05/03/2024
1101.6999998092651,[''],0,ospan,feedback,YgTvO6KjiTWF5ZNYt5FoV90Xnow2,html-button-response,154,1331885,0.0-43.0-5.0-0.0-3.0,,,,,,,,,,,,100.0,0.0,,63d19839498b3afe724b69d6,11:06:59,05/03/2024
,"<p style=""font-size:75px;"">...</p>",,ospan,iti,YgTvO6KjiTWF5ZNYt5FoV90Xnow2,html-keyboard-response,155,1332898,0.0-43.0-5.0-1.0-0.0,,,,,,,,,,,,,,,63d19839498b3afe724b69d6,11:06:59,05/03/2024
3307.0,,,ospan,symmetry,YgTvO6KjiTWF5ZNYt5FoV90Xnow2,symmetry-judgement-task,156,1337598,0.0-43.0-5.0-1.0-1.0-0.0,,,,,,,,,,1.0,1.0,,,,63d19839498b3afe724b69d6,11:06:59,05/03/2024
,"<div style=""font-size: 10rem; color: #0000FF"">N</div>",,ospan,letter,YgTvO6KjiTWF5ZNYt5FoV90Xnow2,html-keyboard-response,157,1338607,0.0-43.0-5.0-1.0-1.0-1.0,,,,,,,,,,,,,,,63d19839498b3afe724b69d6,11:06:59,05/03/2024
2927.0,,,ospan,symmetry,YgTvO6KjiTWF5ZNYt5FoV90Xnow2,symmetry-judgement-task,158,1343682,0.0-43.0-5.0-1.0-1.0-2.0,,,,,,,,,,1.0,1.0,,,,63d19839498b3afe724b69d6,11:06:59,05/03/2024
,"<div style=""font-size: 10rem; color: #0000FF"">G</div>",,ospan,letter,YgTvO6KjiTWF5ZNYt5FoV90Xnow2,html-keyboard-response,159,1344685,0.0-43.0-5.0-1.0-1.0-3.0,,,,,,,,,,,,,,,63d19839498b3afe724b69d6,11:06:59,05/03/2024
2647.0,,,ospan,symmetry,YgTvO6KjiTWF5ZNYt5FoV90Xnow2,symmetry-judgement-task,160,1349454,0.0-43.0-5.0-1.0-1.0-4.0,,,,,,,,,,1.0,1.0,,,,63d19839498b3afe724b69d6,11:06:59,05/03/2024
,"<div style=""font-size: 10rem; color: #0000FF"">C</div>",,ospan,letter,YgTvO6KjiTWF5ZNYt5FoV90Xnow2,html-keyboard-response,161,1350470,0.0-43.0-5.0-1.0-1.0-5.0,,,,,,,,,,,,,,,63d19839498b3afe724b69d6,11:06:59,05/03/2024
1312.0,,,ospan,symmetry,YgTvO6KjiTWF5ZNYt5FoV90Xnow2,symmetry-judgement-task,162,1353915,0.0-43.0-5.0-1.0-1.0-6.0,,,,,,,,,,1.0,1.0,,,,63d19839498b3afe724b69d6,11:06:59,05/03/2024
,"<div style=""font-size: 10rem; color: #0000FF"">Q</div>",,ospan,letter,YgTvO6KjiTWF5ZNYt5FoV90Xnow2,html-keyboard-response,163,1354926,0.0-43.0-5.0-1.0-1.0-7.0,,,,,,,,,,,,,,,63d19839498b3afe724b69d6,11:06:59,05/03/2024
1719.0,,,ospan,symmetry,YgTvO6KjiTWF5ZNYt5FoV90Xnow2,symmetry-judgement-task,164,1358758,0.0-43.0-5.0-1.0-1.0-8.0,,,,,,,,,,1.0,1.0,,,,63d19839498b3afe724b69d6,11:06:59,05/03/2024
,"<div style=""font-size: 10rem; color: #0000FF"">H</div>",,ospan,letter,YgTvO6KjiTWF5ZNYt5FoV90Xnow2,html-keyboard-response,165,1359770,0.0-43.0-5.0-1.0-1.0-9.0,,,,,,,,,,,,,,,63d19839498b3afe724b69d6,11:06:59,05/03/2024
1469.0,,,ospan,symmetry,YgTvO6KjiTWF5ZNYt5FoV90Xnow2,symmetry-judgement-task,166,1363358,0.0-43.0-5.0-1.0-1.0-10.0,,,,,,,,,,1.0,1.0,,,,63d19839498b3afe724b69d6,11:06:59,05/03/2024
,"<div style=""font-size: 10rem; color: #0000FF"">L</div>",,ospan,letter,YgTvO6KjiTWF5ZNYt5FoV90Xnow2,html-keyboard-response,167,1364374,0.0-43.0-5.0-1.0-1.0-11.0,,,,,,,,,,,,,,,63d19839498b3afe724b69d6,11:06:59,05/03/2024
1564.0,,,ospan,symmetry,YgTvO6KjiTWF5ZNYt5FoV90Xnow2,symmetry-judgement-task,168,1368039,0.0-43.0-5.0-1.0-1.0-12.0,,,,,,,,,,1.0,1.0,,,,63d19839498b3afe724b69d6,11:06:59,05/03/2024
,"<div style=""font-size: 10rem; color: #0000FF"">Y</div>",,ospan,letter,YgTvO6KjiTWF5ZNYt5FoV90Xnow2,html-keyboard-response,169,1369045,0.0-43.0-5.0-1.0-1.0-13.0,,,,,,,,,,,,,,,63d19839498b3afe724b69d6,11:06:59,05/03/2024
8559.0,"<div class = numbox><p style=""font-size: 2.4rem"">Please recall the letters you saw to the best of your ability. If you do not remember a particular letter, use the SKIP button.<br><b>(When you are ready to lock in your answer, press ENTER)</b></p><button id = button_1 class = ""square num-button"" onclick = ""recordClick(this)""><div class = content><div class = numbers>C</div></div></button><button id = button_2 class = ""square num-button"" onclick = ""recordClick(this)""><div class = content><div class = numbers>G</div></div></button><button id = button_3 class = ""square num-button"" onclick = ""recordClick(this)""><div class = content><div class = numbers>H</div></div></button><button id = button_4 class = ""square num-button"" onclick = ""recordClick(this)""><div class = content><div class = numbers>J</div></div></button><button id = button_5 class = ""square num-button"" onclick = ""recordClick(this)""><div class = content><div class = numbers>K</div></div></button><button id = button_6 class = ""square num-button"" onclick = ""recordClick(this)""><div class = content><div class = numbers>L</div></div></button><button id = button_7 class = ""square num-button"" onclick = ""recordClick(this)""><div class = content><div class = numbers>N</div></div></button><button id = button_8 class = ""square num-button"" onclick = ""recordClick(this)""><div class = content><div class = numbers>P</div></div></button><button id = button_9 class = ""square num-button"" onclick = ""recordClick(this)""><div class = content><div class = numbers>Q</div></div></button><button id = button_10 class = ""square num-button"" onclick = ""recordClick(this)""><div class = content><div class = numbers>R</div></div></button><button id = button_11 class = ""square num-button"" onclick = ""recordClick(this)""><div class = content><div class = numbers>S</div></div></button><button id = button_12 class = ""square num-button"" onclick = ""recordClick(this)""><div class = content><div class = numbers>Y</div></div></button><button class = clear_button id = ""ClearButton"" onclick = ""clearResponse()"">BACKSPACE</button><button class = blank_button id = ""BlankButton"" onclick = ""blankResponse()"">SKIP</button><p style=""font-size: 2.4rem""><u><b>Current Answer:</b></u></p><br><br><div id=echoed_txt style=""font-size: 5rem; color:blue;""><b></b></div></div>",enter,ospan,retrieval,YgTvO6KjiTWF5ZNYt5FoV90Xnow2,html-keyboard-response,170,1378364,0.0-43.0-5.0-1.0-2.0,28,26,23,7.0,"[""N"",""G"",""C"",""Q"",""H"",""L"",""Y""]","[""N"",""G"",""C"",""Q"",""H"",""L"",""Y""]",1.0,7.0,,,,,,,63d19839498b3afe724b69d6,11:06:59,05/03/2024
1224.3000001907349,[''],0,ospan,feedback,YgTvO6KjiTWF5ZNYt5FoV90Xnow2,html-button-response,171,1380095,0.0-43.0-5.0-1.0-3.0,,,,,,,,,,,,100.0,0.0,,63d19839498b3afe724b69d6,11:06:59,05/03/2024
,"<p style=""font-size:75px;"">...</p>",,ospan,iti,YgTvO6KjiTWF5ZNYt5FoV90Xnow2,html-keyboard-response,172,1381101,0.0-43.0-6.0-0.0-0.0,,,,,,,,,,,,,,,63d19839498b3afe724b69d6,11:06:59,05/03/2024
2840.0,,,ospan,symmetry,YgTvO6KjiTWF5ZNYt5FoV90Xnow2,symmetry-judgement-task,173,1385040,0.0-43.0-6.0-0.0-1.0-0.0,,,,,,,,,,1.0,1.0,,,,63d19839498b3afe724b69d6,11:06:59,05/03/2024
,"<div style=""font-size: 10rem; color: #0000FF"">J</div>",,ospan,letter,YgTvO6KjiTWF5ZNYt5FoV90Xnow2,html-keyboard-response,174,1386054,0.0-43.0-6.0-0.0-1.0-1.0,,,,,,,,,,,,,,,63d19839498b3afe724b69d6,11:06:59,05/03/2024
1460.0,,,ospan,symmetry,YgTvO6KjiTWF5ZNYt5FoV90Xnow2,symmetry-judgement-task,175,1389613,0.0-43.0-6.0-0.0-1.0-2.0,,,,,,,,,,1.0,1.0,,,,63d19839498b3afe724b69d6,11:06:59,05/03/2024
,"<div style=""font-size: 10rem; color: #0000FF"">K</div>",,ospan,letter,YgTvO6KjiTWF5ZNYt5FoV90Xnow2,html-keyboard-response,176,1390625,0.0-43.0-6.0-0.0-1.0-3.0,,,,,,,,,,,,,,,63d19839498b3afe724b69d6,11:06:59,05/03/2024
2726.0,,,ospan,symmetry,YgTvO6KjiTWF5ZNYt5FoV90Xnow2,symmetry-judgement-task,177,1395451,0.0-43.0-6.0-0.0-1.0-4.0,,,,,,,,,,1.0,1.0,,,,63d19839498b3afe724b69d6,11:06:59,05/03/2024
,"<div style=""font-size: 10rem; color: #0000FF"">L</div>",,ospan,letter,YgTvO6KjiTWF5ZNYt5FoV90Xnow2,html-keyboard-response,178,1396469,0.0-43.0-6.0-0.0-1.0-5.0,,,,,,,,,,,,,,,63d19839498b3afe724b69d6,11:06:59,05/03/2024
4612.0,,,ospan,symmetry,YgTvO6KjiTWF5ZNYt5FoV90Xnow2,symmetry-judgement-task,179,1403189,0.0-43.0-6.0-0.0-1.0-6.0,,,,,,,,,,1.0,1.0,,,,63d19839498b3afe724b69d6,11:06:59,05/03/2024
,"<div style=""font-size: 10rem; color: #0000FF"">R</div>",,ospan,letter,YgTvO6KjiTWF5ZNYt5FoV90Xnow2,html-keyboard-response,180,1404195,0.0-43.0-6.0-0.0-1.0-7.0,,,,,,,,,,,,,,,63d19839498b3afe724b69d6,11:06:59,05/03/2024
1349.0,,,ospan,symmetry,YgTvO6KjiTWF5ZNYt5FoV90Xnow2,symmetry-judgement-task,181,1407669,0.0-43.0-6.0-0.0-1.0-8.0,,,,,,,,,,1.0,1.0,,,,63d19839498b3afe724b69d6,11:06:59,05/03/2024
,"<div style=""font-size: 10rem; color: #0000FF"">Q</div>",,ospan,letter,YgTvO6KjiTWF5ZNYt5FoV90Xnow2,html-keyboard-response,182,1408674,0.0-43.0-6.0-0.0-1.0-9.0,,,,,,,,,,,,,,,63d19839498b3afe724b69d6,11:06:59,05/03/2024
10789.099999904633,"<div class = numbox><p style=""font-size: 2.4rem"">Please recall the letters you saw to the best of your ability. If you do not remember a particular letter, use the SKIP button.<br><b>(When you are ready to lock in your answer, press ENTER)</b></p><button id = button_1 class = ""square num-button"" onclick = ""recordClick(this)""><div class = content><div class = numbers>C</div></div></button><button id = button_2 class = ""square num-button"" onclick = ""recordClick(this)""><div class = content><div class = numbers>G</div></div></button><button id = button_3 class = ""square num-button"" onclick = ""recordClick(this)""><div class = content><div class = numbers>H</div></div></button><button id = button_4 class = ""square num-button"" onclick = ""recordClick(this)""><div class = content><div class = numbers>J</div></div></button><button id = button_5 class = ""square num-button"" onclick = ""recordClick(this)""><div class = content><div class = numbers>K</div></div></button><button id = button_6 class = ""square num-button"" onclick = ""recordClick(this)""><div class = content><div class = numbers>L</div></div></button><button id = button_7 class = ""square num-button"" onclick = ""recordClick(this)""><div class = content><div class = numbers>N</div></div></button><button id = button_8 class = ""square num-button"" onclick = ""recordClick(this)""><div class = content><div class = numbers>P</div></div></button><button id = button_9 class = ""square num-button"" onclick = ""recordClick(this)""><div class = content><div class = numbers>Q</div></div></button><button id = button_10 class = ""square num-button"" onclick = ""recordClick(this)""><div class = content><div class = numbers>R</div></div></button><button id = button_11 class = ""square num-button"" onclick = ""recordClick(this)""><div class = content><div class = numbers>S</div></div></button><button id = button_12 class = ""square num-button"" onclick = ""recordClick(this)""><div class = content><div class = numbers>Y</div></div></button><button class = clear_button id = ""ClearButton"" onclick = ""clearResponse()"">BACKSPACE</button><button class = blank_button id = ""BlankButton"" onclick = ""blankResponse()"">SKIP</button><p style=""font-size: 2.4rem""><u><b>Current Answer:</b></u></p><br><br><div id=echoed_txt style=""font-size: 5rem; color:blue;""><b></b></div></div>",enter,ospan,retrieval,YgTvO6KjiTWF5ZNYt5FoV90Xnow2,html-keyboard-response,183,1420230,0.0-43.0-6.0-0.0-2.0,33,31,28,5.0,"[""J"",""K"",""L"",""R"",""Q""]","[""J"",""K"",""L"",""R"",""Q""]",1.0,5.0,,,,,,,63d19839498b3afe724b69d6,11:06:59,05/03/2024
1737.3000001907349,[''],0,ospan,feedback,YgTvO6KjiTWF5ZNYt5FoV90Xnow2,html-button-response,184,1422478,0.0-43.0-6.0-0.0-3.0,,,,,,,,,,,,100.0,0.0,,63d19839498b3afe724b69d6,11:06:59,05/03/2024
,"<p style=""font-size:75px;"">...</p>",,ospan,iti,YgTvO6KjiTWF5ZNYt5FoV90Xnow2,html-keyboard-response,185,1423488,0.0-43.0-6.0-1.0-0.0,,,,,,,,,,,,,,,63d19839498b3afe724b69d6,11:06:59,05/03/2024
2563.0,,,ospan,symmetry,YgTvO6KjiTWF5ZNYt5FoV90Xnow2,symmetry-judgement-task,186,1427422,0.0-43.0-6.0-1.0-1.0-0.0,,,,,,,,,,1.0,1.0,,,,63d19839498b3afe724b69d6,11:06:59,05/03/2024
,"<div style=""font-size: 10rem; color: #0000FF"">S</div>",,ospan,letter,YgTvO6KjiTWF5ZNYt5FoV90Xnow2,html-keyboard-response,187,1428439,0.0-43.0-6.0-1.0-1.0-1.0,,,,,,,,,,,,,,,63d19839498b3afe724b69d6,11:06:59,05/03/2024
2561.0,,,ospan,symmetry,YgTvO6KjiTWF5ZNYt5FoV90Xnow2,symmetry-judgement-task,188,1433128,0.0-43.0-6.0-1.0-1.0-2.0,,,,,,,,,,1.0,1.0,,,,63d19839498b3afe724b69d6,11:06:59,05/03/2024
,"<div style=""font-size: 10rem; color: #0000FF"">K</div>",,ospan,letter,YgTvO6KjiTWF5ZNYt5FoV90Xnow2,html-keyboard-response,189,1434142,0.0-43.0-6.0-1.0-1.0-3.0,,,,,,,,,,,,,,,63d19839498b3afe724b69d6,11:06:59,05/03/2024
1464.0,,,ospan,symmetry,YgTvO6KjiTWF5ZNYt5FoV90Xnow2,symmetry-judgement-task,190,1437981,0.0-43.0-6.0-1.0-1.0-4.0,,,,,,,,,,1.0,1.0,,,,63d19839498b3afe724b69d6,11:06:59,05/03/2024
,"<div style=""font-size: 10rem; color: #0000FF"">P</div>",,ospan,letter,YgTvO6KjiTWF5ZNYt5FoV90Xnow2,html-keyboard-response,191,1438995,0.0-43.0-6.0-1.0-1.0-5.0,,,,,,,,,,,,,,,63d19839498b3afe724b69d6,11:06:59,05/03/2024
1672.0,,,ospan,symmetry,YgTvO6KjiTWF5ZNYt5FoV90Xnow2,symmetry-judgement-task,192,1442786,0.0-43.0-6.0-1.0-1.0-6.0,,,,,,,,,,1.0,1.0,,,,63d19839498b3afe724b69d6,11:06:59,05/03/2024
,"<div style=""font-size: 10rem; color: #0000FF"">J</div>",,ospan,letter,YgTvO6KjiTWF5ZNYt5FoV90Xnow2,html-keyboard-response,193,1443806,0.0-43.0-6.0-1.0-1.0-7.0,,,,,,,,,,,,,,,63d19839498b3afe724b69d6,11:06:59,05/03/2024
1399.0,,,ospan,symmetry,YgTvO6KjiTWF5ZNYt5FoV90Xnow2,symmetry-judgement-task,194,1447312,0.0-43.0-6.0-1.0-1.0-8.0,,,,,,,,,,1.0,1.0,,,,63d19839498b3afe724b69d6,11:06:59,05/03/2024
,"<div style=""font-size: 10rem; color: #0000FF"">C</div>",,ospan,letter,YgTvO6KjiTWF5ZNYt5FoV90Xnow2,html-keyboard-response,195,1448320,0.0-43.0-6.0-1.0-1.0-9.0,,,,,,,,,,,,,,,63d19839498b3afe724b69d6,11:06:59,05/03/2024
1217.0,,,ospan,symmetry,YgTvO6KjiTWF5ZNYt5FoV90Xnow2,symmetry-judgement-task,196,1451692,0.0-43.0-6.0-1.0-1.0-10.0,,,,,,,,,,1.0,1.0,,,,63d19839498b3afe724b69d6,11:06:59,05/03/2024
,"<div style=""font-size: 10rem; color: #0000FF"">L</div>",,ospan,letter,YgTvO6KjiTWF5ZNYt5FoV90Xnow2,html-keyboard-response,197,1452699,0.0-43.0-6.0-1.0-1.0-11.0,,,,,,,,,,,,,,,63d19839498b3afe724b69d6,11:06:59,05/03/2024
2441.0,,,ospan,symmetry,YgTvO6KjiTWF5ZNYt5FoV90Xnow2,symmetry-judgement-task,198,1457238,0.0-43.0-6.0-1.0-1.0-12.0,,,,,,,,,,1.0,1.0,,,,63d19839498b3afe724b69d6,11:06:59,05/03/2024
,"<div style=""font-size: 10rem; color: #0000FF"">R</div>",,ospan,letter,YgTvO6KjiTWF5ZNYt5FoV90Xnow2,html-keyboard-response,199,1458245,0.0-43.0-6.0-1.0-1.0-13.0,,,,,,,,,,,,,,,63d19839498b3afe724b69d6,11:06:59,05/03/2024
1563.0,,,ospan,symmetry,YgTvO6KjiTWF5ZNYt5FoV90Xnow2,symmetry-judgement-task,200,1461916,0.0-43.0-6.0-1.0-1.0-14.0,,,,,,,,,,1.0,1.0,,,,63d19839498b3afe724b69d6,11:06:59,05/03/2024
,"<div style=""font-size: 10rem; color: #0000FF"">Y</div>",,ospan,letter,YgTvO6KjiTWF5ZNYt5FoV90Xnow2,html-keyboard-response,201,1462923,0.0-43.0-6.0-1.0-1.0-15.0,,,,,,,,,,,,,,,63d19839498b3afe724b69d6,11:06:59,05/03/2024
16994.900000095367,"<div class = numbox><p style=""font-size: 2.4rem"">Please recall the letters you saw to the best of your ability. If you do not remember a particular letter, use the SKIP button.<br><b>(When you are ready to lock in your answer, press ENTER)</b></p><button id = button_1 class = ""square num-button"" onclick = ""recordClick(this)""><div class = content><div class = numbers>C</div></div></button><button id = button_2 class = ""square num-button"" onclick = ""recordClick(this)""><div class = content><div class = numbers>G</div></div></button><button id = button_3 class = ""square num-button"" onclick = ""recordClick(this)""><div class = content><div class = numbers>H</div></div></button><button id = button_4 class = ""square num-button"" onclick = ""recordClick(this)""><div class = content><div class = numbers>J</div></div></button><button id = button_5 class = ""square num-button"" onclick = ""recordClick(this)""><div class = content><div class = numbers>K</div></div></button><button id = button_6 class = ""square num-button"" onclick = ""recordClick(this)""><div class = content><div class = numbers>L</div></div></button><button id = button_7 class = ""square num-button"" onclick = ""recordClick(this)""><div class = content><div class = numbers>N</div></div></button><button id = button_8 class = ""square num-button"" onclick = ""recordClick(this)""><div class = content><div class = numbers>P</div></div></button><button id = button_9 class = ""square num-button"" onclick = ""recordClick(this)""><div class = content><div class = numbers>Q</div></div></button><button id = button_10 class = ""square num-button"" onclick = ""recordClick(this)""><div class = content><div class = numbers>R</div></div></button><button id = button_11 class = ""square num-button"" onclick = ""recordClick(this)""><div class = content><div class = numbers>S</div></div></button><button id = button_12 class = ""square num-button"" onclick = ""recordClick(this)""><div class = content><div class = numbers>Y</div></div></button><button class = clear_button id = ""ClearButton"" onclick = ""clearResponse()"">BACKSPACE</button><button class = blank_button id = ""BlankButton"" onclick = ""blankResponse()"">SKIP</button><p style=""font-size: 2.4rem""><u><b>Current Answer:</b></u></p><br><br><div id=echoed_txt style=""font-size: 5rem; color:blue;""><b></b></div></div>",enter,ospan,retrieval,YgTvO6KjiTWF5ZNYt5FoV90Xnow2,html-keyboard-response,202,1480686,0.0-43.0-6.0-1.0-2.0,41,35,28,8.0,"[""S"",""K"",""P"",""J"",""L"",""R"",""Y""]","[""S"",""K"",""P"",""J"",""C"",""L"",""R"",""Y""]",0.0,4.0,,,,,,,63d19839498b3afe724b69d6,11:06:59,05/03/2024
1405.0,[''],0,ospan,feedback,YgTvO6KjiTWF5ZNYt5FoV90Xnow2,html-button-response,203,1482604,0.0-43.0-6.0-1.0-3.0,,,,,,,,,,,,100.0,0.0,,63d19839498b3afe724b69d6,11:06:59,05/03/2024
18632.0,,{'Q0': 'Task was a little hard.'},ospan,survey_ospan,YgTvO6KjiTWF5ZNYt5FoV90Xnow2,lmdlab-survey-text,204,1502005,0.0-43.0-7.0,,,,,,,,,,,,,,YgTvO6KjiTWF5ZNYt5FoV90Xnow2,63d19839498b3afe724b69d6,11:06:59,05/03/2024
2764.7000002861023,<p><p style='font-size: 3rem'>Great work!<br><br>This completes the symmetry and memory task.</p><br><br><br>,0,ospan,finish,YgTvO6KjiTWF5ZNYt5FoV90Xnow2,html-button-response,205,1504775,0.0-43.0-8.0,41,35,28,,,,,,,,,100.0,,,63d19839498b3afe724b69d6,11:06:59,05/03/2024
