rt,stimulus,response,exp_name,exp_stage,subjectID,trial_type,trial_index,time_elapsed,internal_node_id,ospan_shown,ospan_total,ospan_abs,length,resp_actual,resp_correct,full_correct,num_correct,feedback,accuracy,correct,math_acc,math_warning,databaseID,prolificID,start_time,date
1698.8000001907349,<div class = 'left_align' style='font-size: 3.25rem; line-height: 1.3;'><p class = 'center_align'><b>Welcome to the Symmetry and Memory Task</b><br><br><br><br></p>Press 'continue' to show the instructions.<br><br><br><br></div>,0,ospan,instruct,T4QtYXeO3kaKDUSzysSor9iaSH82,html-button-response,54,535718,0.0-46.0-0.0-0.0-0.0,,,,,,,,,,,,,,,60cb358cae78471cdfa7a0a6,12:44:57,03/04/2024
7936.5,"<div class = 'left_align' style='font-size: 3.25rem; line-height: 1.3;'><p class = 'center_align'><b>Symmetry and Memory Task</b><br><br></p>In this task, you will try to memorize letters you see on the screen<br>while you also view black and white grid pictures.<br><br>In the next few minutes, you will have some practice to get you familiar<br>with how the task works.<br><br>It may be difficult sometimes, but please do not worry about making mistakes!<br><br>We will begin by practicing the letter part of the task.<br><br><br><br></div>",0,ospan,instruct,T4QtYXeO3kaKDUSzysSor9iaSH82,html-button-response,55,543908,0.0-46.0-0.0-0.0-1.0,,,,,,,,,,,,,,,60cb358cae78471cdfa7a0a6,12:44:57,03/04/2024
9431.200000047684,"<div class = 'left_align' style='font-size: 3.25rem; line-height: 1.3;'>For this practice part, letters will appear on the screen one at a time.<br><br>Try to remember each letter in the order presented.<br><br>After some letters have been shown, you will see a response screen. Your<br>goal is to report the letters you saw <b>in order</b>. If you do not remember<br>a particular letter, you will have the option to leave it blank.<br><br><br><br></div>",0,ospan,instruct,T4QtYXeO3kaKDUSzysSor9iaSH82,html-button-response,56,553603,0.0-46.0-0.0-0.0-2.0,,,,,,,,,,,,,,,60cb358cae78471cdfa7a0a6,12:44:57,03/04/2024
2931.9000000953674,"<div class = 'left_align' style='font-size: 3.25rem; line-height: 1.3;'>Remember, it is very important to get the letters in the same<br>order as you see them.<br><br>When you are ready, you may begin the letter practice.</div><br><br><br><br>",0,ospan,instruct,T4QtYXeO3kaKDUSzysSor9iaSH82,html-button-response,57,556795,0.0-46.0-0.0-0.0-3.0,,,,,,,,,,,,,,,60cb358cae78471cdfa7a0a6,12:44:57,03/04/2024
,"<p style=""font-size:75px;"">...</p>",,ospan,iti,T4QtYXeO3kaKDUSzysSor9iaSH82,html-keyboard-response,58,558048,0.0-46.0-0.0-1.0-0.0,,,,,,,,,,,,,,,60cb358cae78471cdfa7a0a6,12:44:57,03/04/2024
,"<div style=""font-size: 10rem; color: #0000FF"">N</div>",,ospan,letter,T4QtYXeO3kaKDUSzysSor9iaSH82,html-keyboard-response,59,559052,0.0-46.0-0.0-1.0-1.0,,,,,,,,,,,,,,,60cb358cae78471cdfa7a0a6,12:44:57,03/04/2024
,"<div style=""font-size: 10rem; color: #0000FF"">R</div>",,ospan,letter,T4QtYXeO3kaKDUSzysSor9iaSH82,html-keyboard-response,60,560818,0.0-46.0-0.0-1.0-2.0,,,,,,,,,,,,,,,60cb358cae78471cdfa7a0a6,12:44:57,03/04/2024
5459.200000047684,"<div class = numbox><p style=""font-size: 2.4rem"">Please recall the letters you saw to the best of your ability. If you do not remember a particular letter, use the SKIP button.<br><b>(When you are ready to lock in your answer, press ENTER)</b></p><button id = button_1 class = ""square num-button"" onclick = ""recordClick(this)""><div class = content><div class = numbers>C</div></div></button><button id = button_2 class = ""square num-button"" onclick = ""recordClick(this)""><div class = content><div class = numbers>G</div></div></button><button id = button_3 class = ""square num-button"" onclick = ""recordClick(this)""><div class = content><div class = numbers>H</div></div></button><button id = button_4 class = ""square num-button"" onclick = ""recordClick(this)""><div class = content><div class = numbers>J</div></div></button><button id = button_5 class = ""square num-button"" onclick = ""recordClick(this)""><div class = content><div class = numbers>K</div></div></button><button id = button_6 class = ""square num-button"" onclick = ""recordClick(this)""><div class = content><div class = numbers>L</div></div></button><button id = button_7 class = ""square num-button"" onclick = ""recordClick(this)""><div class = content><div class = numbers>N</div></div></button><button id = button_8 class = ""square num-button"" onclick = ""recordClick(this)""><div class = content><div class = numbers>P</div></div></button><button id = button_9 class = ""square num-button"" onclick = ""recordClick(this)""><div class = content><div class = numbers>Q</div></div></button><button id = button_10 class = ""square num-button"" onclick = ""recordClick(this)""><div class = content><div class = numbers>R</div></div></button><button id = button_11 class = ""square num-button"" onclick = ""recordClick(this)""><div class = content><div class = numbers>S</div></div></button><button id = button_12 class = ""square num-button"" onclick = ""recordClick(this)""><div class = content><div class = numbers>Y</div></div></button><button class = clear_button id = ""ClearButton"" onclick = ""clearResponse()"">BACKSPACE</button><button class = blank_button id = ""BlankButton"" onclick = ""blankResponse()"">SKIP</button><p style=""font-size: 2.4rem""><u><b>Current Answer:</b></u></p><br><br><div id=echoed_txt style=""font-size: 5rem; color:blue;""><b></b></div></div>",enter,ospan,retrieval,T4QtYXeO3kaKDUSzysSor9iaSH82,html-keyboard-response,61,567031,0.0-46.0-0.0-1.0-3.0,NA,NA,NA,2.0,"[""N"",""R""]","[""N"",""R""]",1.0,2.0,"['<font color=""green"">N</font>', '<font color=""green"">R</font>']",,,,,,60cb358cae78471cdfa7a0a6,12:44:57,03/04/2024
1416.2000000476837,"['<p style=""font-size:44px"">Letters:<br><br><br><font color=""green"">N</font> <font color=""green"">R</font></p><br><br>']",0,ospan,practice_feedback,T4QtYXeO3kaKDUSzysSor9iaSH82,html-button-response,62,568955,0.0-46.0-0.0-1.0-4.0,,,,,,,,,,,,,,,60cb358cae78471cdfa7a0a6,12:44:57,03/04/2024
,"<p style=""font-size:75px;"">...</p>",,ospan,iti,T4QtYXeO3kaKDUSzysSor9iaSH82,html-keyboard-response,63,569962,0.0-46.0-0.0-2.0-0.0,,,,,,,,,,,,,,,60cb358cae78471cdfa7a0a6,12:44:57,03/04/2024
,"<div style=""font-size: 10rem; color: #0000FF"">H</div>",,ospan,letter,T4QtYXeO3kaKDUSzysSor9iaSH82,html-keyboard-response,64,570965,0.0-46.0-0.0-2.0-1.0,,,,,,,,,,,,,,,60cb358cae78471cdfa7a0a6,12:44:57,03/04/2024
,"<div style=""font-size: 10rem; color: #0000FF"">L</div>",,ospan,letter,T4QtYXeO3kaKDUSzysSor9iaSH82,html-keyboard-response,65,572724,0.0-46.0-0.0-2.0-2.0,,,,,,,,,,,,,,,60cb358cae78471cdfa7a0a6,12:44:57,03/04/2024
,"<div style=""font-size: 10rem; color: #0000FF"">R</div>",,ospan,letter,T4QtYXeO3kaKDUSzysSor9iaSH82,html-keyboard-response,66,574490,0.0-46.0-0.0-2.0-3.0,,,,,,,,,,,,,,,60cb358cae78471cdfa7a0a6,12:44:57,03/04/2024
3769.5,"<div class = numbox><p style=""font-size: 2.4rem"">Please recall the letters you saw to the best of your ability. If you do not remember a particular letter, use the SKIP button.<br><b>(When you are ready to lock in your answer, press ENTER)</b></p><button id = button_1 class = ""square num-button"" onclick = ""recordClick(this)""><div class = content><div class = numbers>C</div></div></button><button id = button_2 class = ""square num-button"" onclick = ""recordClick(this)""><div class = content><div class = numbers>G</div></div></button><button id = button_3 class = ""square num-button"" onclick = ""recordClick(this)""><div class = content><div class = numbers>H</div></div></button><button id = button_4 class = ""square num-button"" onclick = ""recordClick(this)""><div class = content><div class = numbers>J</div></div></button><button id = button_5 class = ""square num-button"" onclick = ""recordClick(this)""><div class = content><div class = numbers>K</div></div></button><button id = button_6 class = ""square num-button"" onclick = ""recordClick(this)""><div class = content><div class = numbers>L</div></div></button><button id = button_7 class = ""square num-button"" onclick = ""recordClick(this)""><div class = content><div class = numbers>N</div></div></button><button id = button_8 class = ""square num-button"" onclick = ""recordClick(this)""><div class = content><div class = numbers>P</div></div></button><button id = button_9 class = ""square num-button"" onclick = ""recordClick(this)""><div class = content><div class = numbers>Q</div></div></button><button id = button_10 class = ""square num-button"" onclick = ""recordClick(this)""><div class = content><div class = numbers>R</div></div></button><button id = button_11 class = ""square num-button"" onclick = ""recordClick(this)""><div class = content><div class = numbers>S</div></div></button><button id = button_12 class = ""square num-button"" onclick = ""recordClick(this)""><div class = content><div class = numbers>Y</div></div></button><button class = clear_button id = ""ClearButton"" onclick = ""clearResponse()"">BACKSPACE</button><button class = blank_button id = ""BlankButton"" onclick = ""blankResponse()"">SKIP</button><p style=""font-size: 2.4rem""><u><b>Current Answer:</b></u></p><br><br><div id=echoed_txt style=""font-size: 5rem; color:blue;""><b></b></div></div>",enter,ospan,retrieval,T4QtYXeO3kaKDUSzysSor9iaSH82,html-keyboard-response,67,579013,0.0-46.0-0.0-2.0-4.0,NA,NA,NA,3.0,"[""H"",""L"",""R""]","[""H"",""L"",""R""]",1.0,3.0,"['<font color=""green"">H</font>', '<font color=""green"">L</font>', '<font color=""green"">R</font>']",,,,,,60cb358cae78471cdfa7a0a6,12:44:57,03/04/2024
773.8999998569489,"['<p style=""font-size:44px"">Letters:<br><br><br><font color=""green"">H</font> <font color=""green"">L</font> <font color=""green"">R</font></p><br><br>']",0,ospan,practice_feedback,T4QtYXeO3kaKDUSzysSor9iaSH82,html-button-response,68,580299,0.0-46.0-0.0-2.0-5.0,,,,,,,,,,,,,,,60cb358cae78471cdfa7a0a6,12:44:57,03/04/2024
13159.5,"<div class = 'left_align' style='font-size: 3.25rem; line-height: 1.3;'>Now you will practice doing the <b>symmetry judgment part</b> of the experiment.<br><br>A black and white grid picture will appear on the screen and you have to judge if it is <br>symmetrical or asymetrical.<br><br>A picture is 'mirror' symmetrical if its left half is identical to the right half when flipped.<br>Here are examples of a symmetrical and an asymetrical picture:<br><br><center><img src='Stimuli/img/symm_instructions_extra.png' style='height:420px; width:900'></img></center><br>To judge symmetry, imagine you were to fold each picture down the middle, like a book –<br>would the left half match the right half when folded onto each other?<br><br></div><br>",0,ospan,instruct,T4QtYXeO3kaKDUSzysSor9iaSH82,html-button-response,69,593462,0.0-46.0-1.0-0.0-0.0,,,,,,,,,,,,,,,60cb358cae78471cdfa7a0a6,12:44:57,03/04/2024
3730.4000000953674,"<div class = 'left_align' style='font-size: 3.25rem; line-height: 1.3;'>When you have viewed the picture and determined whether it is symmetrical or not,<br>you can <b>click the Yes or No button</b> below to answer.<br><br>If you take longer than 15 seconds, it will continue automatically<br>and record the answer as an error.</div><br>",0,ospan,instruct,T4QtYXeO3kaKDUSzysSor9iaSH82,html-button-response,70,597457,0.0-46.0-1.0-0.0-1.0,,,,,,,,,,,,,,,60cb358cae78471cdfa7a0a6,12:44:57,03/04/2024
2105.7999999523163,"<div class = 'left_align' style='font-size: 3.25rem; line-height: 1.3;'>It is <b>very</b> important that you make the symmetry judgment correctly.<br><br>It is also important that you try and judge the picture as quickly as you can.<br><br>When you are ready, click on the button below to try some practice problems.</div><br><br><br><br>",0,ospan,instruct,T4QtYXeO3kaKDUSzysSor9iaSH82,html-button-response,71,599818,0.0-46.0-1.0-0.0-2.0,,,,,,,,,,,,,,,60cb358cae78471cdfa7a0a6,12:44:57,03/04/2024
2673.0,,,ospan,symmetry,T4QtYXeO3kaKDUSzysSor9iaSH82,symmetry-judgement-task,72,603365,0.0-46.0-1.0-1.0-0.0,,,,,,,,,,1.0,1.0,,,,60cb358cae78471cdfa7a0a6,12:44:57,03/04/2024
,"<p style=""color:green; font-size: 35px"">Correct</p>",,ospan,feedback,T4QtYXeO3kaKDUSzysSor9iaSH82,html-keyboard-response,73,604127,0.0-46.0-1.0-1.0-1.0,,,,,,,,,,,,,,,60cb358cae78471cdfa7a0a6,12:44:57,03/04/2024
1904.0,,,ospan,symmetry,T4QtYXeO3kaKDUSzysSor9iaSH82,symmetry-judgement-task,74,608927,0.0-46.0-1.0-1.0-2.0,,,,,,,,,,1.0,1.0,,,,60cb358cae78471cdfa7a0a6,12:44:57,03/04/2024
,"<p style=""color:green; font-size: 35px"">Correct</p>",,ospan,feedback,T4QtYXeO3kaKDUSzysSor9iaSH82,html-keyboard-response,75,609680,0.0-46.0-1.0-1.0-3.0,,,,,,,,,,,,,,,60cb358cae78471cdfa7a0a6,12:44:57,03/04/2024
1472.0,,,ospan,symmetry,T4QtYXeO3kaKDUSzysSor9iaSH82,symmetry-judgement-task,76,614055,0.0-46.0-1.0-1.0-4.0,,,,,,,,,,0.0,0.0,,,,60cb358cae78471cdfa7a0a6,12:44:57,03/04/2024
,"<p style=""color:red; font-size: 35px"">Incorrect</p>",,ospan,feedback,T4QtYXeO3kaKDUSzysSor9iaSH82,html-keyboard-response,77,614808,0.0-46.0-1.0-1.0-5.0,,,,,,,,,,,,,,,60cb358cae78471cdfa7a0a6,12:44:57,03/04/2024
5964.700000047684,"<p style=""font-size: 3rem;"">You only responded correctly on 2 of 3 symmetry judgments.<br><br><b>In the main task, you must try harder to answer accurately.</b></p><br><br>",0,ospan,practice,T4QtYXeO3kaKDUSzysSor9iaSH82,html-button-response,78,622790,0.0-46.0-1.0-2.0,,,,,,,,,,,,,,,60cb358cae78471cdfa7a0a6,12:44:57,03/04/2024
1934.5,"<div class = 'left_align' style='font-size: 3.25rem; line-height: 1.3;'>Now you will practice doing both parts of the experiment at the same time.<br><br>In the next practice set, you will be given one grid picture to judge.<br>Then letter will appear on the screen. Try to remember the letter.<br><br>It is <b>very important</b> to make the symmetry judgment as quickly and accurately as possible.<br><br>Just as before, once you have make the symmetry judgment, you can click Yes or No.<br><b>Note that you will no longer see Correct or Incorrect feedback.</div><br><br><br><br>",0,ospan,instruct,T4QtYXeO3kaKDUSzysSor9iaSH82,html-button-response,79,624989,0.0-46.0-2.0-0.0-0.0,,,,,,,,,,,,,,,60cb358cae78471cdfa7a0a6,12:44:57,03/04/2024
6339.900000095367,"<div class = 'left_align' style='font-size: 3.25rem; line-height: 1.3;'>After the letter goes away, another grid picture will appear, and then<br>another letter.<br><br>At the end of each set of letters and grids, you will recall the letters to the best<br>of your ability. Remember, try your best to get the letters in the correct order.<br><br>It is important to <b>quickly</b> and <b>accurately</b> make the symmetry judgments.</div><br><br><br><br>",0,ospan,instruct,T4QtYXeO3kaKDUSzysSor9iaSH82,html-button-response,80,631587,0.0-46.0-2.0-0.0-1.0,,,,,,,,,,,,,,,60cb358cae78471cdfa7a0a6,12:44:57,03/04/2024
7665.5,"<div class = 'left_align' style='font-size: 3.25rem; line-height: 1.3;'>On the feedback screen, if you are not doing well at the symmetry judgments,<br>you will also see a warning in the middle. This indicates your percent <br>correct for the grid pictures for the entire experiment.<br><br>It is <b>very</b> important for you to keep accuracy at least at 85%: <u>We can only use<br>data where the participant was at least 85% accurate on the judgments.</u> Therefore,<br> please try your best to perform well on the symmetry judgments, <b>at the same time</b><br>doing your best to recall as many letters as possible.<br><br>Click the button to try some practice problems.</div><br><br><br><br>",0,ospan,instruct,T4QtYXeO3kaKDUSzysSor9iaSH82,html-button-response,81,639509,0.0-46.0-2.0-0.0-2.0,,,,,,,,,,,,,,,60cb358cae78471cdfa7a0a6,12:44:57,03/04/2024
,"<p style=""font-size:75px;"">...</p>",,ospan,iti,T4QtYXeO3kaKDUSzysSor9iaSH82,html-keyboard-response,82,640784,0.0-46.0-2.0-1.0-0.0,,,,,,,,,,,,,,,60cb358cae78471cdfa7a0a6,12:44:57,03/04/2024
2720.0,,,ospan,symmetry,T4QtYXeO3kaKDUSzysSor9iaSH82,symmetry-judgement-task,83,644863,0.0-46.0-2.0-1.0-1.0-0.0,,,,,,,,,,1.0,1.0,,,,60cb358cae78471cdfa7a0a6,12:44:57,03/04/2024
,"<div style=""font-size: 10rem; color: #0000FF"">K</div>",,ospan,letter,T4QtYXeO3kaKDUSzysSor9iaSH82,html-keyboard-response,84,645870,0.0-46.0-2.0-1.0-1.0-1.0,,,,,,,,,,,,,,,60cb358cae78471cdfa7a0a6,12:44:57,03/04/2024
6824.0,,,ospan,symmetry,T4QtYXeO3kaKDUSzysSor9iaSH82,symmetry-judgement-task,85,654808,0.0-46.0-2.0-1.0-1.0-2.0,,,,,,,,,,1.0,1.0,,,,60cb358cae78471cdfa7a0a6,12:44:57,03/04/2024
,"<div style=""font-size: 10rem; color: #0000FF"">Y</div>",,ospan,letter,T4QtYXeO3kaKDUSzysSor9iaSH82,html-keyboard-response,86,655811,0.0-46.0-2.0-1.0-1.0-3.0,,,,,,,,,,,,,,,60cb358cae78471cdfa7a0a6,12:44:57,03/04/2024
1872.0,,,ospan,symmetry,T4QtYXeO3kaKDUSzysSor9iaSH82,symmetry-judgement-task,87,659828,0.0-46.0-2.0-1.0-1.0-4.0,,,,,,,,,,1.0,1.0,,,,60cb358cae78471cdfa7a0a6,12:44:57,03/04/2024
,"<div style=""font-size: 10rem; color: #0000FF"">C</div>",,ospan,letter,T4QtYXeO3kaKDUSzysSor9iaSH82,html-keyboard-response,88,660831,0.0-46.0-2.0-1.0-1.0-5.0,,,,,,,,,,,,,,,60cb358cae78471cdfa7a0a6,12:44:57,03/04/2024
5106.100000143051,"<div class = numbox><p style=""font-size: 2.4rem"">Please recall the letters you saw to the best of your ability. If you do not remember a particular letter, use the SKIP button.<br><b>(When you are ready to lock in your answer, press ENTER)</b></p><button id = button_1 class = ""square num-button"" onclick = ""recordClick(this)""><div class = content><div class = numbers>C</div></div></button><button id = button_2 class = ""square num-button"" onclick = ""recordClick(this)""><div class = content><div class = numbers>G</div></div></button><button id = button_3 class = ""square num-button"" onclick = ""recordClick(this)""><div class = content><div class = numbers>H</div></div></button><button id = button_4 class = ""square num-button"" onclick = ""recordClick(this)""><div class = content><div class = numbers>J</div></div></button><button id = button_5 class = ""square num-button"" onclick = ""recordClick(this)""><div class = content><div class = numbers>K</div></div></button><button id = button_6 class = ""square num-button"" onclick = ""recordClick(this)""><div class = content><div class = numbers>L</div></div></button><button id = button_7 class = ""square num-button"" onclick = ""recordClick(this)""><div class = content><div class = numbers>N</div></div></button><button id = button_8 class = ""square num-button"" onclick = ""recordClick(this)""><div class = content><div class = numbers>P</div></div></button><button id = button_9 class = ""square num-button"" onclick = ""recordClick(this)""><div class = content><div class = numbers>Q</div></div></button><button id = button_10 class = ""square num-button"" onclick = ""recordClick(this)""><div class = content><div class = numbers>R</div></div></button><button id = button_11 class = ""square num-button"" onclick = ""recordClick(this)""><div class = content><div class = numbers>S</div></div></button><button id = button_12 class = ""square num-button"" onclick = ""recordClick(this)""><div class = content><div class = numbers>Y</div></div></button><button class = clear_button id = ""ClearButton"" onclick = ""clearResponse()"">BACKSPACE</button><button class = blank_button id = ""BlankButton"" onclick = ""blankResponse()"">SKIP</button><p style=""font-size: 2.4rem""><u><b>Current Answer:</b></u></p><br><br><div id=echoed_txt style=""font-size: 5rem; color:blue;""><b></b></div></div>",enter,ospan,retrieval,T4QtYXeO3kaKDUSzysSor9iaSH82,html-keyboard-response,89,666690,0.0-46.0-2.0-1.0-2.0-0.0,NA,NA,NA,3.0,"[""K"",""Y"",""C""]","[""K"",""Y"",""C""]",1.0,3.0,"['<font color=""green"">K</font>', '<font color=""green"">Y</font>', '<font color=""green"">C</font>']",,,,,,60cb358cae78471cdfa7a0a6,12:44:57,03/04/2024
2257.7000000476837,"['<p style=""font-size:44px"">Letters:<br><br><br><font color=""green"">K</font> <font color=""green"">Y</font> <font color=""green"">C</font></p><br><br><p style=""font-size:30px"">Symmetry:<br><br><font color=""green"">100%</font></p><br><br>']",0,ospan,practice_feedback,T4QtYXeO3kaKDUSzysSor9iaSH82,html-button-response,90,669455,0.0-46.0-2.0-1.0-2.0-1.0,,,,,,,,,,,,,,,60cb358cae78471cdfa7a0a6,12:44:57,03/04/2024
,"<p style=""font-size:75px;"">...</p>",,ospan,iti,T4QtYXeO3kaKDUSzysSor9iaSH82,html-keyboard-response,91,670465,0.0-46.0-2.0-2.0-0.0,,,,,,,,,,,,,,,60cb358cae78471cdfa7a0a6,12:44:57,03/04/2024
4889.0,,,ospan,symmetry,T4QtYXeO3kaKDUSzysSor9iaSH82,symmetry-judgement-task,92,676724,0.0-46.0-2.0-2.0-1.0-0.0,,,,,,,,,,1.0,1.0,,,,60cb358cae78471cdfa7a0a6,12:44:57,03/04/2024
,"<div style=""font-size: 10rem; color: #0000FF"">R</div>",,ospan,letter,T4QtYXeO3kaKDUSzysSor9iaSH82,html-keyboard-response,93,677736,0.0-46.0-2.0-2.0-1.0-1.0,,,,,,,,,,,,,,,60cb358cae78471cdfa7a0a6,12:44:57,03/04/2024
2879.0,,,ospan,symmetry,T4QtYXeO3kaKDUSzysSor9iaSH82,symmetry-judgement-task,94,682745,0.0-46.0-2.0-2.0-1.0-2.0,,,,,,,,,,1.0,1.0,,,,60cb358cae78471cdfa7a0a6,12:44:57,03/04/2024
,"<div style=""font-size: 10rem; color: #0000FF"">J</div>",,ospan,letter,T4QtYXeO3kaKDUSzysSor9iaSH82,html-keyboard-response,95,683758,0.0-46.0-2.0-2.0-1.0-3.0,,,,,,,,,,,,,,,60cb358cae78471cdfa7a0a6,12:44:57,03/04/2024
3461.0,,,ospan,symmetry,T4QtYXeO3kaKDUSzysSor9iaSH82,symmetry-judgement-task,96,689360,0.0-46.0-2.0-2.0-1.0-4.0,,,,,,,,,,1.0,1.0,,,,60cb358cae78471cdfa7a0a6,12:44:57,03/04/2024
,"<div style=""font-size: 10rem; color: #0000FF"">C</div>",,ospan,letter,T4QtYXeO3kaKDUSzysSor9iaSH82,html-keyboard-response,97,690364,0.0-46.0-2.0-2.0-1.0-5.0,,,,,,,,,,,,,,,60cb358cae78471cdfa7a0a6,12:44:57,03/04/2024
5297.099999904633,"<div class = numbox><p style=""font-size: 2.4rem"">Please recall the letters you saw to the best of your ability. If you do not remember a particular letter, use the SKIP button.<br><b>(When you are ready to lock in your answer, press ENTER)</b></p><button id = button_1 class = ""square num-button"" onclick = ""recordClick(this)""><div class = content><div class = numbers>C</div></div></button><button id = button_2 class = ""square num-button"" onclick = ""recordClick(this)""><div class = content><div class = numbers>G</div></div></button><button id = button_3 class = ""square num-button"" onclick = ""recordClick(this)""><div class = content><div class = numbers>H</div></div></button><button id = button_4 class = ""square num-button"" onclick = ""recordClick(this)""><div class = content><div class = numbers>J</div></div></button><button id = button_5 class = ""square num-button"" onclick = ""recordClick(this)""><div class = content><div class = numbers>K</div></div></button><button id = button_6 class = ""square num-button"" onclick = ""recordClick(this)""><div class = content><div class = numbers>L</div></div></button><button id = button_7 class = ""square num-button"" onclick = ""recordClick(this)""><div class = content><div class = numbers>N</div></div></button><button id = button_8 class = ""square num-button"" onclick = ""recordClick(this)""><div class = content><div class = numbers>P</div></div></button><button id = button_9 class = ""square num-button"" onclick = ""recordClick(this)""><div class = content><div class = numbers>Q</div></div></button><button id = button_10 class = ""square num-button"" onclick = ""recordClick(this)""><div class = content><div class = numbers>R</div></div></button><button id = button_11 class = ""square num-button"" onclick = ""recordClick(this)""><div class = content><div class = numbers>S</div></div></button><button id = button_12 class = ""square num-button"" onclick = ""recordClick(this)""><div class = content><div class = numbers>Y</div></div></button><button class = clear_button id = ""ClearButton"" onclick = ""clearResponse()"">BACKSPACE</button><button class = blank_button id = ""BlankButton"" onclick = ""blankResponse()"">SKIP</button><p style=""font-size: 2.4rem""><u><b>Current Answer:</b></u></p><br><br><div id=echoed_txt style=""font-size: 5rem; color:blue;""><b></b></div></div>",enter,ospan,retrieval,T4QtYXeO3kaKDUSzysSor9iaSH82,html-keyboard-response,98,696429,0.0-46.0-2.0-2.0-2.0-0.0,NA,NA,NA,3.0,"[""K"",""J"",""C""]","[""R"",""J"",""C""]",0.0,2.0,"['<font color=""red"">R</font>', '<font color=""green"">J</font>', '<font color=""green"">C</font>']",,,,,,60cb358cae78471cdfa7a0a6,12:44:57,03/04/2024
2315.899999856949,"['<p style=""font-size:44px"">Letters:<br><br><br><font color=""red"">R</font> <font color=""green"">J</font> <font color=""green"">C</font></p><br><br><p style=""font-size:30px"">Symmetry:<br><br><font color=""green"">100%</font></p><br><br>']",0,ospan,practice_feedback,T4QtYXeO3kaKDUSzysSor9iaSH82,html-button-response,99,699261,0.0-46.0-2.0-2.0-2.0-1.0,,,,,,,,,,,,,,,60cb358cae78471cdfa7a0a6,12:44:57,03/04/2024
7513.799999952316,"<div class = 'left_align' style='font-size: 3rem; line-height: 1.3;'><b>Great work! That is the end of practice.</b><br><br>The real trials will look just like the practice trials you just completed.<br><br><u>Here, you will not see feedback</u>. First, you will see an grid picture to judge,<br>then a letter to remember. When the recall screen appears, report the letters in the<br>order presented. If you forget a letter, remember to use the <b>blank</b> button to move to the<br>next letter. Some of the sets will have more symmetry grids and letters than others.<br><br>It is important that you do your best on both the symmetry judgments and the letter recall<br>parts of the experiment. For for the symmetry judgments, try to work as <b>quickly</b> and <br>as <b>accurately</b> as possible. Remember to keep your symmetry accuracy at 85% or above.<br><br><b>For the letters, do NOT use any external aid (e.g., writing on paper, electronic device).</b><br><br>It is <u>very important</u> to our experiment to have a <b>true</b> view of your real performance.<br><br>Do not worry if you miss some when it gets hard! This task is meant to be very challenging!<br><br>Click the button to begin.</div><br><br><br><br>",0,ospan,starting_real_here,T4QtYXeO3kaKDUSzysSor9iaSH82,html-button-response,100,706778,0.0-46.0-2.0-3.0,,,,,,,,,,,,,,,60cb358cae78471cdfa7a0a6,12:44:57,03/04/2024
,"<p style=""font-size:75px;"">...</p>",,ospan,iti,T4QtYXeO3kaKDUSzysSor9iaSH82,html-keyboard-response,101,708037,0.0-46.0-3.0-0.0-0.0,,,,,,,,,,,,,,,60cb358cae78471cdfa7a0a6,12:44:57,03/04/2024
2041.0,,,ospan,symmetry,T4QtYXeO3kaKDUSzysSor9iaSH82,symmetry-judgement-task,102,711436,0.0-46.0-3.0-0.0-1.0-0.0,,,,,,,,,,1.0,1.0,,,,60cb358cae78471cdfa7a0a6,12:44:57,03/04/2024
,"<div style=""font-size: 10rem; color: #0000FF"">P</div>",,ospan,letter,T4QtYXeO3kaKDUSzysSor9iaSH82,html-keyboard-response,103,712439,0.0-46.0-3.0-0.0-1.0-1.0,,,,,,,,,,,,,,,60cb358cae78471cdfa7a0a6,12:44:57,03/04/2024
2555.0,,,ospan,symmetry,T4QtYXeO3kaKDUSzysSor9iaSH82,symmetry-judgement-task,104,717117,0.0-46.0-3.0-0.0-1.0-2.0,,,,,,,,,,1.0,1.0,,,,60cb358cae78471cdfa7a0a6,12:44:57,03/04/2024
,"<div style=""font-size: 10rem; color: #0000FF"">J</div>",,ospan,letter,T4QtYXeO3kaKDUSzysSor9iaSH82,html-keyboard-response,105,718128,0.0-46.0-3.0-0.0-1.0-3.0,,,,,,,,,,,,,,,60cb358cae78471cdfa7a0a6,12:44:57,03/04/2024
3028.0,,,ospan,symmetry,T4QtYXeO3kaKDUSzysSor9iaSH82,symmetry-judgement-task,106,723264,0.0-46.0-3.0-0.0-1.0-4.0,,,,,,,,,,1.0,1.0,,,,60cb358cae78471cdfa7a0a6,12:44:57,03/04/2024
,"<div style=""font-size: 10rem; color: #0000FF"">C</div>",,ospan,letter,T4QtYXeO3kaKDUSzysSor9iaSH82,html-keyboard-response,107,724270,0.0-46.0-3.0-0.0-1.0-5.0,,,,,,,,,,,,,,,60cb358cae78471cdfa7a0a6,12:44:57,03/04/2024
3996.2999999523163,"<div class = numbox><p style=""font-size: 2.4rem"">Please recall the letters you saw to the best of your ability. If you do not remember a particular letter, use the SKIP button.<br><b>(When you are ready to lock in your answer, press ENTER)</b></p><button id = button_1 class = ""square num-button"" onclick = ""recordClick(this)""><div class = content><div class = numbers>C</div></div></button><button id = button_2 class = ""square num-button"" onclick = ""recordClick(this)""><div class = content><div class = numbers>G</div></div></button><button id = button_3 class = ""square num-button"" onclick = ""recordClick(this)""><div class = content><div class = numbers>H</div></div></button><button id = button_4 class = ""square num-button"" onclick = ""recordClick(this)""><div class = content><div class = numbers>J</div></div></button><button id = button_5 class = ""square num-button"" onclick = ""recordClick(this)""><div class = content><div class = numbers>K</div></div></button><button id = button_6 class = ""square num-button"" onclick = ""recordClick(this)""><div class = content><div class = numbers>L</div></div></button><button id = button_7 class = ""square num-button"" onclick = ""recordClick(this)""><div class = content><div class = numbers>N</div></div></button><button id = button_8 class = ""square num-button"" onclick = ""recordClick(this)""><div class = content><div class = numbers>P</div></div></button><button id = button_9 class = ""square num-button"" onclick = ""recordClick(this)""><div class = content><div class = numbers>Q</div></div></button><button id = button_10 class = ""square num-button"" onclick = ""recordClick(this)""><div class = content><div class = numbers>R</div></div></button><button id = button_11 class = ""square num-button"" onclick = ""recordClick(this)""><div class = content><div class = numbers>S</div></div></button><button id = button_12 class = ""square num-button"" onclick = ""recordClick(this)""><div class = content><div class = numbers>Y</div></div></button><button class = clear_button id = ""ClearButton"" onclick = ""clearResponse()"">BACKSPACE</button><button class = blank_button id = ""BlankButton"" onclick = ""blankResponse()"">SKIP</button><p style=""font-size: 2.4rem""><u><b>Current Answer:</b></u></p><br><br><div id=echoed_txt style=""font-size: 5rem; color:blue;""><b></b></div></div>",enter,ospan,retrieval,T4QtYXeO3kaKDUSzysSor9iaSH82,html-keyboard-response,108,729033,0.0-46.0-3.0-0.0-2.0,3,3,3,3.0,"[""P"",""J"",""C""]","[""P"",""J"",""C""]",1.0,3.0,,,,,,,60cb358cae78471cdfa7a0a6,12:44:57,03/04/2024
1366.7000000476837,[''],0,ospan,feedback,T4QtYXeO3kaKDUSzysSor9iaSH82,html-button-response,109,730917,0.0-46.0-3.0-0.0-3.0,,,,,,,,,,,,100.0,0.0,,60cb358cae78471cdfa7a0a6,12:44:57,03/04/2024
,"<p style=""font-size:75px;"">...</p>",,ospan,iti,T4QtYXeO3kaKDUSzysSor9iaSH82,html-keyboard-response,110,731930,0.0-46.0-4.0-0.0-0.0,,,,,,,,,,,,,,,60cb358cae78471cdfa7a0a6,12:44:57,03/04/2024
2148.0,,,ospan,symmetry,T4QtYXeO3kaKDUSzysSor9iaSH82,symmetry-judgement-task,111,735459,0.0-46.0-4.0-0.0-1.0-0.0,,,,,,,,,,1.0,1.0,,,,60cb358cae78471cdfa7a0a6,12:44:57,03/04/2024
,"<div style=""font-size: 10rem; color: #0000FF"">N</div>",,ospan,letter,T4QtYXeO3kaKDUSzysSor9iaSH82,html-keyboard-response,112,736476,0.0-46.0-4.0-0.0-1.0-1.0,,,,,,,,,,,,,,,60cb358cae78471cdfa7a0a6,12:44:57,03/04/2024
1672.0,,,ospan,symmetry,T4QtYXeO3kaKDUSzysSor9iaSH82,symmetry-judgement-task,113,740265,0.0-46.0-4.0-0.0-1.0-2.0,,,,,,,,,,1.0,1.0,,,,60cb358cae78471cdfa7a0a6,12:44:57,03/04/2024
,"<div style=""font-size: 10rem; color: #0000FF"">H</div>",,ospan,letter,T4QtYXeO3kaKDUSzysSor9iaSH82,html-keyboard-response,114,741280,0.0-46.0-4.0-0.0-1.0-3.0,,,,,,,,,,,,,,,60cb358cae78471cdfa7a0a6,12:44:57,03/04/2024
1702.0,,,ospan,symmetry,T4QtYXeO3kaKDUSzysSor9iaSH82,symmetry-judgement-task,115,745124,0.0-46.0-4.0-0.0-1.0-4.0,,,,,,,,,,1.0,1.0,,,,60cb358cae78471cdfa7a0a6,12:44:57,03/04/2024
,"<div style=""font-size: 10rem; color: #0000FF"">Y</div>",,ospan,letter,T4QtYXeO3kaKDUSzysSor9iaSH82,html-keyboard-response,116,746127,0.0-46.0-4.0-0.0-1.0-5.0,,,,,,,,,,,,,,,60cb358cae78471cdfa7a0a6,12:44:57,03/04/2024
5976.0,,,ospan,symmetry,T4QtYXeO3kaKDUSzysSor9iaSH82,symmetry-judgement-task,117,754227,0.0-46.0-4.0-0.0-1.0-6.0,,,,,,,,,,1.0,1.0,,,,60cb358cae78471cdfa7a0a6,12:44:57,03/04/2024
,"<div style=""font-size: 10rem; color: #0000FF"">C</div>",,ospan,letter,T4QtYXeO3kaKDUSzysSor9iaSH82,html-keyboard-response,118,755238,0.0-46.0-4.0-0.0-1.0-7.0,,,,,,,,,,,,,,,60cb358cae78471cdfa7a0a6,12:44:57,03/04/2024
9967.0,"<div class = numbox><p style=""font-size: 2.4rem"">Please recall the letters you saw to the best of your ability. If you do not remember a particular letter, use the SKIP button.<br><b>(When you are ready to lock in your answer, press ENTER)</b></p><button id = button_1 class = ""square num-button"" onclick = ""recordClick(this)""><div class = content><div class = numbers>C</div></div></button><button id = button_2 class = ""square num-button"" onclick = ""recordClick(this)""><div class = content><div class = numbers>G</div></div></button><button id = button_3 class = ""square num-button"" onclick = ""recordClick(this)""><div class = content><div class = numbers>H</div></div></button><button id = button_4 class = ""square num-button"" onclick = ""recordClick(this)""><div class = content><div class = numbers>J</div></div></button><button id = button_5 class = ""square num-button"" onclick = ""recordClick(this)""><div class = content><div class = numbers>K</div></div></button><button id = button_6 class = ""square num-button"" onclick = ""recordClick(this)""><div class = content><div class = numbers>L</div></div></button><button id = button_7 class = ""square num-button"" onclick = ""recordClick(this)""><div class = content><div class = numbers>N</div></div></button><button id = button_8 class = ""square num-button"" onclick = ""recordClick(this)""><div class = content><div class = numbers>P</div></div></button><button id = button_9 class = ""square num-button"" onclick = ""recordClick(this)""><div class = content><div class = numbers>Q</div></div></button><button id = button_10 class = ""square num-button"" onclick = ""recordClick(this)""><div class = content><div class = numbers>R</div></div></button><button id = button_11 class = ""square num-button"" onclick = ""recordClick(this)""><div class = content><div class = numbers>S</div></div></button><button id = button_12 class = ""square num-button"" onclick = ""recordClick(this)""><div class = content><div class = numbers>Y</div></div></button><button class = clear_button id = ""ClearButton"" onclick = ""clearResponse()"">BACKSPACE</button><button class = blank_button id = ""BlankButton"" onclick = ""blankResponse()"">SKIP</button><p style=""font-size: 2.4rem""><u><b>Current Answer:</b></u></p><br><br><div id=echoed_txt style=""font-size: 5rem; color:blue;""><b></b></div></div>",enter,ospan,retrieval,T4QtYXeO3kaKDUSzysSor9iaSH82,html-keyboard-response,119,765968,0.0-46.0-4.0-0.0-2.0,7,7,7,4.0,"[""N"",""H"",""Y"",""C""]","[""N"",""H"",""Y"",""C""]",1.0,4.0,,,,,,,60cb358cae78471cdfa7a0a6,12:44:57,03/04/2024
1198.0,[''],0,ospan,feedback,T4QtYXeO3kaKDUSzysSor9iaSH82,html-button-response,120,767676,0.0-46.0-4.0-0.0-3.0,,,,,,,,,,,,100.0,0.0,,60cb358cae78471cdfa7a0a6,12:44:57,03/04/2024
,"<p style=""font-size:75px;"">...</p>",,ospan,iti,T4QtYXeO3kaKDUSzysSor9iaSH82,html-keyboard-response,121,768681,0.0-46.0-4.0-1.0-0.0,,,,,,,,,,,,,,,60cb358cae78471cdfa7a0a6,12:44:57,03/04/2024
2899.0,,,ospan,symmetry,T4QtYXeO3kaKDUSzysSor9iaSH82,symmetry-judgement-task,122,772684,0.0-46.0-4.0-1.0-1.0-0.0,,,,,,,,,,1.0,1.0,,,,60cb358cae78471cdfa7a0a6,12:44:57,03/04/2024
,"<div style=""font-size: 10rem; color: #0000FF"">Q</div>",,ospan,letter,T4QtYXeO3kaKDUSzysSor9iaSH82,html-keyboard-response,123,773702,0.0-46.0-4.0-1.0-1.0-1.0,,,,,,,,,,,,,,,60cb358cae78471cdfa7a0a6,12:44:57,03/04/2024
1947.0,,,ospan,symmetry,T4QtYXeO3kaKDUSzysSor9iaSH82,symmetry-judgement-task,124,777805,0.0-46.0-4.0-1.0-1.0-2.0,,,,,,,,,,1.0,1.0,,,,60cb358cae78471cdfa7a0a6,12:44:57,03/04/2024
,"<div style=""font-size: 10rem; color: #0000FF"">P</div>",,ospan,letter,T4QtYXeO3kaKDUSzysSor9iaSH82,html-keyboard-response,125,778813,0.0-46.0-4.0-1.0-1.0-3.0,,,,,,,,,,,,,,,60cb358cae78471cdfa7a0a6,12:44:57,03/04/2024
2140.0,,,ospan,symmetry,T4QtYXeO3kaKDUSzysSor9iaSH82,symmetry-judgement-task,126,783055,0.0-46.0-4.0-1.0-1.0-4.0,,,,,,,,,,1.0,1.0,,,,60cb358cae78471cdfa7a0a6,12:44:57,03/04/2024
,"<div style=""font-size: 10rem; color: #0000FF"">K</div>",,ospan,letter,T4QtYXeO3kaKDUSzysSor9iaSH82,html-keyboard-response,127,784064,0.0-46.0-4.0-1.0-1.0-5.0,,,,,,,,,,,,,,,60cb358cae78471cdfa7a0a6,12:44:57,03/04/2024
3214.0,,,ospan,symmetry,T4QtYXeO3kaKDUSzysSor9iaSH82,symmetry-judgement-task,128,789401,0.0-46.0-4.0-1.0-1.0-6.0,,,,,,,,,,1.0,1.0,,,,60cb358cae78471cdfa7a0a6,12:44:57,03/04/2024
,"<div style=""font-size: 10rem; color: #0000FF"">G</div>",,ospan,letter,T4QtYXeO3kaKDUSzysSor9iaSH82,html-keyboard-response,129,790406,0.0-46.0-4.0-1.0-1.0-7.0,,,,,,,,,,,,,,,60cb358cae78471cdfa7a0a6,12:44:57,03/04/2024
3845.0,,,ospan,symmetry,T4QtYXeO3kaKDUSzysSor9iaSH82,symmetry-judgement-task,130,796412,0.0-46.0-4.0-1.0-1.0-8.0,,,,,,,,,,1.0,1.0,,,,60cb358cae78471cdfa7a0a6,12:44:57,03/04/2024
,"<div style=""font-size: 10rem; color: #0000FF"">Y</div>",,ospan,letter,T4QtYXeO3kaKDUSzysSor9iaSH82,html-keyboard-response,131,797417,0.0-46.0-4.0-1.0-1.0-9.0,,,,,,,,,,,,,,,60cb358cae78471cdfa7a0a6,12:44:57,03/04/2024
7240.800000190735,"<div class = numbox><p style=""font-size: 2.4rem"">Please recall the letters you saw to the best of your ability. If you do not remember a particular letter, use the SKIP button.<br><b>(When you are ready to lock in your answer, press ENTER)</b></p><button id = button_1 class = ""square num-button"" onclick = ""recordClick(this)""><div class = content><div class = numbers>C</div></div></button><button id = button_2 class = ""square num-button"" onclick = ""recordClick(this)""><div class = content><div class = numbers>G</div></div></button><button id = button_3 class = ""square num-button"" onclick = ""recordClick(this)""><div class = content><div class = numbers>H</div></div></button><button id = button_4 class = ""square num-button"" onclick = ""recordClick(this)""><div class = content><div class = numbers>J</div></div></button><button id = button_5 class = ""square num-button"" onclick = ""recordClick(this)""><div class = content><div class = numbers>K</div></div></button><button id = button_6 class = ""square num-button"" onclick = ""recordClick(this)""><div class = content><div class = numbers>L</div></div></button><button id = button_7 class = ""square num-button"" onclick = ""recordClick(this)""><div class = content><div class = numbers>N</div></div></button><button id = button_8 class = ""square num-button"" onclick = ""recordClick(this)""><div class = content><div class = numbers>P</div></div></button><button id = button_9 class = ""square num-button"" onclick = ""recordClick(this)""><div class = content><div class = numbers>Q</div></div></button><button id = button_10 class = ""square num-button"" onclick = ""recordClick(this)""><div class = content><div class = numbers>R</div></div></button><button id = button_11 class = ""square num-button"" onclick = ""recordClick(this)""><div class = content><div class = numbers>S</div></div></button><button id = button_12 class = ""square num-button"" onclick = ""recordClick(this)""><div class = content><div class = numbers>Y</div></div></button><button class = clear_button id = ""ClearButton"" onclick = ""clearResponse()"">BACKSPACE</button><button class = blank_button id = ""BlankButton"" onclick = ""blankResponse()"">SKIP</button><p style=""font-size: 2.4rem""><u><b>Current Answer:</b></u></p><br><br><div id=echoed_txt style=""font-size: 5rem; color:blue;""><b></b></div></div>",enter,ospan,retrieval,T4QtYXeO3kaKDUSzysSor9iaSH82,html-keyboard-response,132,805415,0.0-46.0-4.0-1.0-2.0,12,12,12,5.0,"[""Q"",""P"",""K"",""G"",""Y""]","[""Q"",""P"",""K"",""G"",""Y""]",1.0,5.0,,,,,,,60cb358cae78471cdfa7a0a6,12:44:57,03/04/2024
770.5,[''],0,ospan,feedback,T4QtYXeO3kaKDUSzysSor9iaSH82,html-button-response,133,806703,0.0-46.0-4.0-1.0-3.0,,,,,,,,,,,,100.0,0.0,,60cb358cae78471cdfa7a0a6,12:44:57,03/04/2024
,"<p style=""font-size:75px;"">...</p>",,ospan,iti,T4QtYXeO3kaKDUSzysSor9iaSH82,html-keyboard-response,134,807714,0.0-46.0-4.0-2.0-0.0,,,,,,,,,,,,,,,60cb358cae78471cdfa7a0a6,12:44:57,03/04/2024
2108.0,,,ospan,symmetry,T4QtYXeO3kaKDUSzysSor9iaSH82,symmetry-judgement-task,135,811174,0.0-46.0-4.0-2.0-1.0-0.0,,,,,,,,,,1.0,1.0,,,,60cb358cae78471cdfa7a0a6,12:44:57,03/04/2024
,"<div style=""font-size: 10rem; color: #0000FF"">J</div>",,ospan,letter,T4QtYXeO3kaKDUSzysSor9iaSH82,html-keyboard-response,136,812182,0.0-46.0-4.0-2.0-1.0-1.0,,,,,,,,,,,,,,,60cb358cae78471cdfa7a0a6,12:44:57,03/04/2024
2044.0,,,ospan,symmetry,T4QtYXeO3kaKDUSzysSor9iaSH82,symmetry-judgement-task,137,816308,0.0-46.0-4.0-2.0-1.0-2.0,,,,,,,,,,1.0,1.0,,,,60cb358cae78471cdfa7a0a6,12:44:57,03/04/2024
,"<div style=""font-size: 10rem; color: #0000FF"">R</div>",,ospan,letter,T4QtYXeO3kaKDUSzysSor9iaSH82,html-keyboard-response,138,817317,0.0-46.0-4.0-2.0-1.0-3.0,,,,,,,,,,,,,,,60cb358cae78471cdfa7a0a6,12:44:57,03/04/2024
1711.0,,,ospan,symmetry,T4QtYXeO3kaKDUSzysSor9iaSH82,symmetry-judgement-task,139,821147,0.0-46.0-4.0-2.0-1.0-4.0,,,,,,,,,,1.0,1.0,,,,60cb358cae78471cdfa7a0a6,12:44:57,03/04/2024
,"<div style=""font-size: 10rem; color: #0000FF"">P</div>",,ospan,letter,T4QtYXeO3kaKDUSzysSor9iaSH82,html-keyboard-response,140,822151,0.0-46.0-4.0-2.0-1.0-5.0,,,,,,,,,,,,,,,60cb358cae78471cdfa7a0a6,12:44:57,03/04/2024
4693.600000143051,"<div class = numbox><p style=""font-size: 2.4rem"">Please recall the letters you saw to the best of your ability. If you do not remember a particular letter, use the SKIP button.<br><b>(When you are ready to lock in your answer, press ENTER)</b></p><button id = button_1 class = ""square num-button"" onclick = ""recordClick(this)""><div class = content><div class = numbers>C</div></div></button><button id = button_2 class = ""square num-button"" onclick = ""recordClick(this)""><div class = content><div class = numbers>G</div></div></button><button id = button_3 class = ""square num-button"" onclick = ""recordClick(this)""><div class = content><div class = numbers>H</div></div></button><button id = button_4 class = ""square num-button"" onclick = ""recordClick(this)""><div class = content><div class = numbers>J</div></div></button><button id = button_5 class = ""square num-button"" onclick = ""recordClick(this)""><div class = content><div class = numbers>K</div></div></button><button id = button_6 class = ""square num-button"" onclick = ""recordClick(this)""><div class = content><div class = numbers>L</div></div></button><button id = button_7 class = ""square num-button"" onclick = ""recordClick(this)""><div class = content><div class = numbers>N</div></div></button><button id = button_8 class = ""square num-button"" onclick = ""recordClick(this)""><div class = content><div class = numbers>P</div></div></button><button id = button_9 class = ""square num-button"" onclick = ""recordClick(this)""><div class = content><div class = numbers>Q</div></div></button><button id = button_10 class = ""square num-button"" onclick = ""recordClick(this)""><div class = content><div class = numbers>R</div></div></button><button id = button_11 class = ""square num-button"" onclick = ""recordClick(this)""><div class = content><div class = numbers>S</div></div></button><button id = button_12 class = ""square num-button"" onclick = ""recordClick(this)""><div class = content><div class = numbers>Y</div></div></button><button class = clear_button id = ""ClearButton"" onclick = ""clearResponse()"">BACKSPACE</button><button class = blank_button id = ""BlankButton"" onclick = ""blankResponse()"">SKIP</button><p style=""font-size: 2.4rem""><u><b>Current Answer:</b></u></p><br><br><div id=echoed_txt style=""font-size: 5rem; color:blue;""><b></b></div></div>",enter,ospan,retrieval,T4QtYXeO3kaKDUSzysSor9iaSH82,html-keyboard-response,141,827612,0.0-46.0-4.0-2.0-2.0,15,15,15,3.0,"[""J"",""R"",""P""]","[""J"",""R"",""P""]",1.0,3.0,,,,,,,60cb358cae78471cdfa7a0a6,12:44:57,03/04/2024
726.2999999523163,[''],0,ospan,feedback,T4QtYXeO3kaKDUSzysSor9iaSH82,html-button-response,142,828850,0.0-46.0-4.0-2.0-3.0,,,,,,,,,,,,100.0,0.0,,60cb358cae78471cdfa7a0a6,12:44:57,03/04/2024
,"<p style=""font-size:75px;"">...</p>",,ospan,iti,T4QtYXeO3kaKDUSzysSor9iaSH82,html-keyboard-response,143,829867,0.0-46.0-5.0-0.0-0.0,,,,,,,,,,,,,,,60cb358cae78471cdfa7a0a6,12:44:57,03/04/2024
1686.0,,,ospan,symmetry,T4QtYXeO3kaKDUSzysSor9iaSH82,symmetry-judgement-task,144,832919,0.0-46.0-5.0-0.0-1.0-0.0,,,,,,,,,,1.0,1.0,,,,60cb358cae78471cdfa7a0a6,12:44:57,03/04/2024
,"<div style=""font-size: 10rem; color: #0000FF"">N</div>",,ospan,letter,T4QtYXeO3kaKDUSzysSor9iaSH82,html-keyboard-response,145,833924,0.0-46.0-5.0-0.0-1.0-1.0,,,,,,,,,,,,,,,60cb358cae78471cdfa7a0a6,12:44:57,03/04/2024
1984.0,,,ospan,symmetry,T4QtYXeO3kaKDUSzysSor9iaSH82,symmetry-judgement-task,146,837998,0.0-46.0-5.0-0.0-1.0-2.0,,,,,,,,,,1.0,1.0,,,,60cb358cae78471cdfa7a0a6,12:44:57,03/04/2024
,"<div style=""font-size: 10rem; color: #0000FF"">H</div>",,ospan,letter,T4QtYXeO3kaKDUSzysSor9iaSH82,html-keyboard-response,147,839010,0.0-46.0-5.0-0.0-1.0-3.0,,,,,,,,,,,,,,,60cb358cae78471cdfa7a0a6,12:44:57,03/04/2024
2393.0,,,ospan,symmetry,T4QtYXeO3kaKDUSzysSor9iaSH82,symmetry-judgement-task,148,843516,0.0-46.0-5.0-0.0-1.0-4.0,,,,,,,,,,1.0,1.0,,,,60cb358cae78471cdfa7a0a6,12:44:57,03/04/2024
,"<div style=""font-size: 10rem; color: #0000FF"">K</div>",,ospan,letter,T4QtYXeO3kaKDUSzysSor9iaSH82,html-keyboard-response,149,844530,0.0-46.0-5.0-0.0-1.0-5.0,,,,,,,,,,,,,,,60cb358cae78471cdfa7a0a6,12:44:57,03/04/2024
3056.0,,,ospan,symmetry,T4QtYXeO3kaKDUSzysSor9iaSH82,symmetry-judgement-task,150,849702,0.0-46.0-5.0-0.0-1.0-6.0,,,,,,,,,,1.0,1.0,,,,60cb358cae78471cdfa7a0a6,12:44:57,03/04/2024
,"<div style=""font-size: 10rem; color: #0000FF"">C</div>",,ospan,letter,T4QtYXeO3kaKDUSzysSor9iaSH82,html-keyboard-response,151,850710,0.0-46.0-5.0-0.0-1.0-7.0,,,,,,,,,,,,,,,60cb358cae78471cdfa7a0a6,12:44:57,03/04/2024
2099.0,,,ospan,symmetry,T4QtYXeO3kaKDUSzysSor9iaSH82,symmetry-judgement-task,152,854993,0.0-46.0-5.0-0.0-1.0-8.0,,,,,,,,,,0.0,0.0,,,,60cb358cae78471cdfa7a0a6,12:44:57,03/04/2024
,"<div style=""font-size: 10rem; color: #0000FF"">P</div>",,ospan,letter,T4QtYXeO3kaKDUSzysSor9iaSH82,html-keyboard-response,153,856004,0.0-46.0-5.0-0.0-1.0-9.0,,,,,,,,,,,,,,,60cb358cae78471cdfa7a0a6,12:44:57,03/04/2024
1568.0,,,ospan,symmetry,T4QtYXeO3kaKDUSzysSor9iaSH82,symmetry-judgement-task,154,859701,0.0-46.0-5.0-0.0-1.0-10.0,,,,,,,,,,1.0,1.0,,,,60cb358cae78471cdfa7a0a6,12:44:57,03/04/2024
,"<div style=""font-size: 10rem; color: #0000FF"">Y</div>",,ospan,letter,T4QtYXeO3kaKDUSzysSor9iaSH82,html-keyboard-response,155,860704,0.0-46.0-5.0-0.0-1.0-11.0,,,,,,,,,,,,,,,60cb358cae78471cdfa7a0a6,12:44:57,03/04/2024
5739.799999952316,"<div class = numbox><p style=""font-size: 2.4rem"">Please recall the letters you saw to the best of your ability. If you do not remember a particular letter, use the SKIP button.<br><b>(When you are ready to lock in your answer, press ENTER)</b></p><button id = button_1 class = ""square num-button"" onclick = ""recordClick(this)""><div class = content><div class = numbers>C</div></div></button><button id = button_2 class = ""square num-button"" onclick = ""recordClick(this)""><div class = content><div class = numbers>G</div></div></button><button id = button_3 class = ""square num-button"" onclick = ""recordClick(this)""><div class = content><div class = numbers>H</div></div></button><button id = button_4 class = ""square num-button"" onclick = ""recordClick(this)""><div class = content><div class = numbers>J</div></div></button><button id = button_5 class = ""square num-button"" onclick = ""recordClick(this)""><div class = content><div class = numbers>K</div></div></button><button id = button_6 class = ""square num-button"" onclick = ""recordClick(this)""><div class = content><div class = numbers>L</div></div></button><button id = button_7 class = ""square num-button"" onclick = ""recordClick(this)""><div class = content><div class = numbers>N</div></div></button><button id = button_8 class = ""square num-button"" onclick = ""recordClick(this)""><div class = content><div class = numbers>P</div></div></button><button id = button_9 class = ""square num-button"" onclick = ""recordClick(this)""><div class = content><div class = numbers>Q</div></div></button><button id = button_10 class = ""square num-button"" onclick = ""recordClick(this)""><div class = content><div class = numbers>R</div></div></button><button id = button_11 class = ""square num-button"" onclick = ""recordClick(this)""><div class = content><div class = numbers>S</div></div></button><button id = button_12 class = ""square num-button"" onclick = ""recordClick(this)""><div class = content><div class = numbers>Y</div></div></button><button class = clear_button id = ""ClearButton"" onclick = ""clearResponse()"">BACKSPACE</button><button class = blank_button id = ""BlankButton"" onclick = ""blankResponse()"">SKIP</button><p style=""font-size: 2.4rem""><u><b>Current Answer:</b></u></p><br><br><div id=echoed_txt style=""font-size: 5rem; color:blue;""><b></b></div></div>",enter,ospan,retrieval,T4QtYXeO3kaKDUSzysSor9iaSH82,html-keyboard-response,156,867207,0.0-46.0-5.0-0.0-2.0,21,21,21,6.0,"[""N"",""H"",""K"",""C"",""P"",""Y""]","[""N"",""H"",""K"",""C"",""P"",""Y""]",1.0,6.0,,,,,,,60cb358cae78471cdfa7a0a6,12:44:57,03/04/2024
836.2000000476837,[''],0,ospan,feedback,T4QtYXeO3kaKDUSzysSor9iaSH82,html-button-response,157,868557,0.0-46.0-5.0-0.0-3.0,,,,,,,,,,,,95.0,0.0,,60cb358cae78471cdfa7a0a6,12:44:57,03/04/2024
,"<p style=""font-size:75px;"">...</p>",,ospan,iti,T4QtYXeO3kaKDUSzysSor9iaSH82,html-keyboard-response,158,869566,0.0-46.0-5.0-1.0-0.0,,,,,,,,,,,,,,,60cb358cae78471cdfa7a0a6,12:44:57,03/04/2024
1607.0,,,ospan,symmetry,T4QtYXeO3kaKDUSzysSor9iaSH82,symmetry-judgement-task,159,872539,0.0-46.0-5.0-1.0-1.0-0.0,,,,,,,,,,1.0,1.0,,,,60cb358cae78471cdfa7a0a6,12:44:57,03/04/2024
,"<div style=""font-size: 10rem; color: #0000FF"">Q</div>",,ospan,letter,T4QtYXeO3kaKDUSzysSor9iaSH82,html-keyboard-response,160,873545,0.0-46.0-5.0-1.0-1.0-1.0,,,,,,,,,,,,,,,60cb358cae78471cdfa7a0a6,12:44:57,03/04/2024
1555.0,,,ospan,symmetry,T4QtYXeO3kaKDUSzysSor9iaSH82,symmetry-judgement-task,161,877251,0.0-46.0-5.0-1.0-1.0-2.0,,,,,,,,,,1.0,1.0,,,,60cb358cae78471cdfa7a0a6,12:44:57,03/04/2024
,"<div style=""font-size: 10rem; color: #0000FF"">S</div>",,ospan,letter,T4QtYXeO3kaKDUSzysSor9iaSH82,html-keyboard-response,162,878258,0.0-46.0-5.0-1.0-1.0-3.0,,,,,,,,,,,,,,,60cb358cae78471cdfa7a0a6,12:44:57,03/04/2024
1242.0,,,ospan,symmetry,T4QtYXeO3kaKDUSzysSor9iaSH82,symmetry-judgement-task,163,881670,0.0-46.0-5.0-1.0-1.0-4.0,,,,,,,,,,1.0,1.0,,,,60cb358cae78471cdfa7a0a6,12:44:57,03/04/2024
,"<div style=""font-size: 10rem; color: #0000FF"">J</div>",,ospan,letter,T4QtYXeO3kaKDUSzysSor9iaSH82,html-keyboard-response,164,882685,0.0-46.0-5.0-1.0-1.0-5.0,,,,,,,,,,,,,,,60cb358cae78471cdfa7a0a6,12:44:57,03/04/2024
1302.0,,,ospan,symmetry,T4QtYXeO3kaKDUSzysSor9iaSH82,symmetry-judgement-task,165,886121,0.0-46.0-5.0-1.0-1.0-6.0,,,,,,,,,,1.0,1.0,,,,60cb358cae78471cdfa7a0a6,12:44:57,03/04/2024
,"<div style=""font-size: 10rem; color: #0000FF"">N</div>",,ospan,letter,T4QtYXeO3kaKDUSzysSor9iaSH82,html-keyboard-response,166,887138,0.0-46.0-5.0-1.0-1.0-7.0,,,,,,,,,,,,,,,60cb358cae78471cdfa7a0a6,12:44:57,03/04/2024
1326.0,,,ospan,symmetry,T4QtYXeO3kaKDUSzysSor9iaSH82,symmetry-judgement-task,167,890598,0.0-46.0-5.0-1.0-1.0-8.0,,,,,,,,,,1.0,1.0,,,,60cb358cae78471cdfa7a0a6,12:44:57,03/04/2024
,"<div style=""font-size: 10rem; color: #0000FF"">R</div>",,ospan,letter,T4QtYXeO3kaKDUSzysSor9iaSH82,html-keyboard-response,168,891610,0.0-46.0-5.0-1.0-1.0-9.0,,,,,,,,,,,,,,,60cb358cae78471cdfa7a0a6,12:44:57,03/04/2024
1204.0,,,ospan,symmetry,T4QtYXeO3kaKDUSzysSor9iaSH82,symmetry-judgement-task,169,894918,0.0-46.0-5.0-1.0-1.0-10.0,,,,,,,,,,1.0,1.0,,,,60cb358cae78471cdfa7a0a6,12:44:57,03/04/2024
,"<div style=""font-size: 10rem; color: #0000FF"">C</div>",,ospan,letter,T4QtYXeO3kaKDUSzysSor9iaSH82,html-keyboard-response,170,895924,0.0-46.0-5.0-1.0-1.0-11.0,,,,,,,,,,,,,,,60cb358cae78471cdfa7a0a6,12:44:57,03/04/2024
1868.0,,,ospan,symmetry,T4QtYXeO3kaKDUSzysSor9iaSH82,symmetry-judgement-task,171,899928,0.0-46.0-5.0-1.0-1.0-12.0,,,,,,,,,,1.0,1.0,,,,60cb358cae78471cdfa7a0a6,12:44:57,03/04/2024
,"<div style=""font-size: 10rem; color: #0000FF"">P</div>",,ospan,letter,T4QtYXeO3kaKDUSzysSor9iaSH82,html-keyboard-response,172,900936,0.0-46.0-5.0-1.0-1.0-13.0,,,,,,,,,,,,,,,60cb358cae78471cdfa7a0a6,12:44:57,03/04/2024
8262.900000095367,"<div class = numbox><p style=""font-size: 2.4rem"">Please recall the letters you saw to the best of your ability. If you do not remember a particular letter, use the SKIP button.<br><b>(When you are ready to lock in your answer, press ENTER)</b></p><button id = button_1 class = ""square num-button"" onclick = ""recordClick(this)""><div class = content><div class = numbers>C</div></div></button><button id = button_2 class = ""square num-button"" onclick = ""recordClick(this)""><div class = content><div class = numbers>G</div></div></button><button id = button_3 class = ""square num-button"" onclick = ""recordClick(this)""><div class = content><div class = numbers>H</div></div></button><button id = button_4 class = ""square num-button"" onclick = ""recordClick(this)""><div class = content><div class = numbers>J</div></div></button><button id = button_5 class = ""square num-button"" onclick = ""recordClick(this)""><div class = content><div class = numbers>K</div></div></button><button id = button_6 class = ""square num-button"" onclick = ""recordClick(this)""><div class = content><div class = numbers>L</div></div></button><button id = button_7 class = ""square num-button"" onclick = ""recordClick(this)""><div class = content><div class = numbers>N</div></div></button><button id = button_8 class = ""square num-button"" onclick = ""recordClick(this)""><div class = content><div class = numbers>P</div></div></button><button id = button_9 class = ""square num-button"" onclick = ""recordClick(this)""><div class = content><div class = numbers>Q</div></div></button><button id = button_10 class = ""square num-button"" onclick = ""recordClick(this)""><div class = content><div class = numbers>R</div></div></button><button id = button_11 class = ""square num-button"" onclick = ""recordClick(this)""><div class = content><div class = numbers>S</div></div></button><button id = button_12 class = ""square num-button"" onclick = ""recordClick(this)""><div class = content><div class = numbers>Y</div></div></button><button class = clear_button id = ""ClearButton"" onclick = ""clearResponse()"">BACKSPACE</button><button class = blank_button id = ""BlankButton"" onclick = ""blankResponse()"">SKIP</button><p style=""font-size: 2.4rem""><u><b>Current Answer:</b></u></p><br><br><div id=echoed_txt style=""font-size: 5rem; color:blue;""><b></b></div></div>",enter,ospan,retrieval,T4QtYXeO3kaKDUSzysSor9iaSH82,html-keyboard-response,173,909953,0.0-46.0-5.0-1.0-2.0,28,26,21,7.0,"[""Q"",""S"",""J"",""N"",""R"",""P"",""C""]","[""Q"",""S"",""J"",""N"",""R"",""C"",""P""]",0.0,5.0,,,,,,,60cb358cae78471cdfa7a0a6,12:44:57,03/04/2024
764.4000000953674,[''],0,ospan,feedback,T4QtYXeO3kaKDUSzysSor9iaSH82,html-button-response,174,911223,0.0-46.0-5.0-1.0-3.0,,,,,,,,,,,,96.0,0.0,,60cb358cae78471cdfa7a0a6,12:44:57,03/04/2024
,"<p style=""font-size:75px;"">...</p>",,ospan,iti,T4QtYXeO3kaKDUSzysSor9iaSH82,html-keyboard-response,175,912237,0.0-46.0-6.0-0.0-0.0,,,,,,,,,,,,,,,60cb358cae78471cdfa7a0a6,12:44:57,03/04/2024
1401.0,,,ospan,symmetry,T4QtYXeO3kaKDUSzysSor9iaSH82,symmetry-judgement-task,176,914973,0.0-46.0-6.0-0.0-1.0-0.0,,,,,,,,,,1.0,1.0,,,,60cb358cae78471cdfa7a0a6,12:44:57,03/04/2024
,"<div style=""font-size: 10rem; color: #0000FF"">P</div>",,ospan,letter,T4QtYXeO3kaKDUSzysSor9iaSH82,html-keyboard-response,177,915989,0.0-46.0-6.0-0.0-1.0-1.0,,,,,,,,,,,,,,,60cb358cae78471cdfa7a0a6,12:44:57,03/04/2024
1406.0,,,ospan,symmetry,T4QtYXeO3kaKDUSzysSor9iaSH82,symmetry-judgement-task,178,919505,0.0-46.0-6.0-0.0-1.0-2.0,,,,,,,,,,1.0,1.0,,,,60cb358cae78471cdfa7a0a6,12:44:57,03/04/2024
,"<div style=""font-size: 10rem; color: #0000FF"">C</div>",,ospan,letter,T4QtYXeO3kaKDUSzysSor9iaSH82,html-keyboard-response,179,920508,0.0-46.0-6.0-0.0-1.0-3.0,,,,,,,,,,,,,,,60cb358cae78471cdfa7a0a6,12:44:57,03/04/2024
1163.0,,,ospan,symmetry,T4QtYXeO3kaKDUSzysSor9iaSH82,symmetry-judgement-task,180,923821,0.0-46.0-6.0-0.0-1.0-4.0,,,,,,,,,,1.0,1.0,,,,60cb358cae78471cdfa7a0a6,12:44:57,03/04/2024
,"<div style=""font-size: 10rem; color: #0000FF"">Q</div>",,ospan,letter,T4QtYXeO3kaKDUSzysSor9iaSH82,html-keyboard-response,181,924835,0.0-46.0-6.0-0.0-1.0-5.0,,,,,,,,,,,,,,,60cb358cae78471cdfa7a0a6,12:44:57,03/04/2024
1753.0,,,ospan,symmetry,T4QtYXeO3kaKDUSzysSor9iaSH82,symmetry-judgement-task,182,928717,0.0-46.0-6.0-0.0-1.0-6.0,,,,,,,,,,1.0,1.0,,,,60cb358cae78471cdfa7a0a6,12:44:57,03/04/2024
,"<div style=""font-size: 10rem; color: #0000FF"">R</div>",,ospan,letter,T4QtYXeO3kaKDUSzysSor9iaSH82,html-keyboard-response,183,929729,0.0-46.0-6.0-0.0-1.0-7.0,,,,,,,,,,,,,,,60cb358cae78471cdfa7a0a6,12:44:57,03/04/2024
1618.0,,,ospan,symmetry,T4QtYXeO3kaKDUSzysSor9iaSH82,symmetry-judgement-task,184,933507,0.0-46.0-6.0-0.0-1.0-8.0,,,,,,,,,,1.0,1.0,,,,60cb358cae78471cdfa7a0a6,12:44:57,03/04/2024
,"<div style=""font-size: 10rem; color: #0000FF"">H</div>",,ospan,letter,T4QtYXeO3kaKDUSzysSor9iaSH82,html-keyboard-response,185,934519,0.0-46.0-6.0-0.0-1.0-9.0,,,,,,,,,,,,,,,60cb358cae78471cdfa7a0a6,12:44:57,03/04/2024
6708.899999856949,"<div class = numbox><p style=""font-size: 2.4rem"">Please recall the letters you saw to the best of your ability. If you do not remember a particular letter, use the SKIP button.<br><b>(When you are ready to lock in your answer, press ENTER)</b></p><button id = button_1 class = ""square num-button"" onclick = ""recordClick(this)""><div class = content><div class = numbers>C</div></div></button><button id = button_2 class = ""square num-button"" onclick = ""recordClick(this)""><div class = content><div class = numbers>G</div></div></button><button id = button_3 class = ""square num-button"" onclick = ""recordClick(this)""><div class = content><div class = numbers>H</div></div></button><button id = button_4 class = ""square num-button"" onclick = ""recordClick(this)""><div class = content><div class = numbers>J</div></div></button><button id = button_5 class = ""square num-button"" onclick = ""recordClick(this)""><div class = content><div class = numbers>K</div></div></button><button id = button_6 class = ""square num-button"" onclick = ""recordClick(this)""><div class = content><div class = numbers>L</div></div></button><button id = button_7 class = ""square num-button"" onclick = ""recordClick(this)""><div class = content><div class = numbers>N</div></div></button><button id = button_8 class = ""square num-button"" onclick = ""recordClick(this)""><div class = content><div class = numbers>P</div></div></button><button id = button_9 class = ""square num-button"" onclick = ""recordClick(this)""><div class = content><div class = numbers>Q</div></div></button><button id = button_10 class = ""square num-button"" onclick = ""recordClick(this)""><div class = content><div class = numbers>R</div></div></button><button id = button_11 class = ""square num-button"" onclick = ""recordClick(this)""><div class = content><div class = numbers>S</div></div></button><button id = button_12 class = ""square num-button"" onclick = ""recordClick(this)""><div class = content><div class = numbers>Y</div></div></button><button class = clear_button id = ""ClearButton"" onclick = ""clearResponse()"">BACKSPACE</button><button class = blank_button id = ""BlankButton"" onclick = ""blankResponse()"">SKIP</button><p style=""font-size: 2.4rem""><u><b>Current Answer:</b></u></p><br><br><div id=echoed_txt style=""font-size: 5rem; color:blue;""><b></b></div></div>",enter,ospan,retrieval,T4QtYXeO3kaKDUSzysSor9iaSH82,html-keyboard-response,186,941981,0.0-46.0-6.0-0.0-2.0,33,30,21,5.0,"[""P"",""C"",""Q"",""R""]","[""P"",""C"",""Q"",""R"",""H""]",0.0,4.0,,,,,,,60cb358cae78471cdfa7a0a6,12:44:57,03/04/2024
1071.4000000953674,[''],0,ospan,feedback,T4QtYXeO3kaKDUSzysSor9iaSH82,html-button-response,187,943557,0.0-46.0-6.0-0.0-3.0,,,,,,,,,,,,97.0,0.0,,60cb358cae78471cdfa7a0a6,12:44:57,03/04/2024
,"<p style=""font-size:75px;"">...</p>",,ospan,iti,T4QtYXeO3kaKDUSzysSor9iaSH82,html-keyboard-response,188,944570,0.0-46.0-6.0-1.0-0.0,,,,,,,,,,,,,,,60cb358cae78471cdfa7a0a6,12:44:57,03/04/2024
6000.0,,,ospan,symmetry,T4QtYXeO3kaKDUSzysSor9iaSH82,symmetry-judgement-task,189,951974,0.0-46.0-6.0-1.0-1.0-0.0,,,,,,,,,,1.0,1.0,,,,60cb358cae78471cdfa7a0a6,12:44:57,03/04/2024
,"<div style=""font-size: 10rem; color: #0000FF"">N</div>",,ospan,letter,T4QtYXeO3kaKDUSzysSor9iaSH82,html-keyboard-response,190,952993,0.0-46.0-6.0-1.0-1.0-1.0,,,,,,,,,,,,,,,60cb358cae78471cdfa7a0a6,12:44:57,03/04/2024
2225.0,,,ospan,symmetry,T4QtYXeO3kaKDUSzysSor9iaSH82,symmetry-judgement-task,191,957330,0.0-46.0-6.0-1.0-1.0-2.0,,,,,,,,,,1.0,1.0,,,,60cb358cae78471cdfa7a0a6,12:44:57,03/04/2024
,"<div style=""font-size: 10rem; color: #0000FF"">C</div>",,ospan,letter,T4QtYXeO3kaKDUSzysSor9iaSH82,html-keyboard-response,192,958340,0.0-46.0-6.0-1.0-1.0-3.0,,,,,,,,,,,,,,,60cb358cae78471cdfa7a0a6,12:44:57,03/04/2024
3132.0,,,ospan,symmetry,T4QtYXeO3kaKDUSzysSor9iaSH82,symmetry-judgement-task,193,963600,0.0-46.0-6.0-1.0-1.0-4.0,,,,,,,,,,1.0,1.0,,,,60cb358cae78471cdfa7a0a6,12:44:57,03/04/2024
,"<div style=""font-size: 10rem; color: #0000FF"">Y</div>",,ospan,letter,T4QtYXeO3kaKDUSzysSor9iaSH82,html-keyboard-response,194,964603,0.0-46.0-6.0-1.0-1.0-5.0,,,,,,,,,,,,,,,60cb358cae78471cdfa7a0a6,12:44:57,03/04/2024
1284.0,,,ospan,symmetry,T4QtYXeO3kaKDUSzysSor9iaSH82,symmetry-judgement-task,195,967998,0.0-46.0-6.0-1.0-1.0-6.0,,,,,,,,,,1.0,1.0,,,,60cb358cae78471cdfa7a0a6,12:44:57,03/04/2024
,"<div style=""font-size: 10rem; color: #0000FF"">S</div>",,ospan,letter,T4QtYXeO3kaKDUSzysSor9iaSH82,html-keyboard-response,196,969012,0.0-46.0-6.0-1.0-1.0-7.0,,,,,,,,,,,,,,,60cb358cae78471cdfa7a0a6,12:44:57,03/04/2024
2108.0,,,ospan,symmetry,T4QtYXeO3kaKDUSzysSor9iaSH82,symmetry-judgement-task,197,973248,0.0-46.0-6.0-1.0-1.0-8.0,,,,,,,,,,1.0,1.0,,,,60cb358cae78471cdfa7a0a6,12:44:57,03/04/2024
,"<div style=""font-size: 10rem; color: #0000FF"">R</div>",,ospan,letter,T4QtYXeO3kaKDUSzysSor9iaSH82,html-keyboard-response,198,974257,0.0-46.0-6.0-1.0-1.0-9.0,,,,,,,,,,,,,,,60cb358cae78471cdfa7a0a6,12:44:57,03/04/2024
1483.0,,,ospan,symmetry,T4QtYXeO3kaKDUSzysSor9iaSH82,symmetry-judgement-task,199,977878,0.0-46.0-6.0-1.0-1.0-10.0,,,,,,,,,,1.0,1.0,,,,60cb358cae78471cdfa7a0a6,12:44:57,03/04/2024
,"<div style=""font-size: 10rem; color: #0000FF"">P</div>",,ospan,letter,T4QtYXeO3kaKDUSzysSor9iaSH82,html-keyboard-response,200,978890,0.0-46.0-6.0-1.0-1.0-11.0,,,,,,,,,,,,,,,60cb358cae78471cdfa7a0a6,12:44:57,03/04/2024
1735.0,,,ospan,symmetry,T4QtYXeO3kaKDUSzysSor9iaSH82,symmetry-judgement-task,201,982750,0.0-46.0-6.0-1.0-1.0-12.0,,,,,,,,,,1.0,1.0,,,,60cb358cae78471cdfa7a0a6,12:44:57,03/04/2024
,"<div style=""font-size: 10rem; color: #0000FF"">L</div>",,ospan,letter,T4QtYXeO3kaKDUSzysSor9iaSH82,html-keyboard-response,202,983767,0.0-46.0-6.0-1.0-1.0-13.0,,,,,,,,,,,,,,,60cb358cae78471cdfa7a0a6,12:44:57,03/04/2024
1871.0,,,ospan,symmetry,T4QtYXeO3kaKDUSzysSor9iaSH82,symmetry-judgement-task,203,987742,0.0-46.0-6.0-1.0-1.0-14.0,,,,,,,,,,1.0,1.0,,,,60cb358cae78471cdfa7a0a6,12:44:57,03/04/2024
,"<div style=""font-size: 10rem; color: #0000FF"">H</div>",,ospan,letter,T4QtYXeO3kaKDUSzysSor9iaSH82,html-keyboard-response,204,988753,0.0-46.0-6.0-1.0-1.0-15.0,,,,,,,,,,,,,,,60cb358cae78471cdfa7a0a6,12:44:57,03/04/2024
5749.0,"<div class = numbox><p style=""font-size: 2.4rem"">Please recall the letters you saw to the best of your ability. If you do not remember a particular letter, use the SKIP button.<br><b>(When you are ready to lock in your answer, press ENTER)</b></p><button id = button_1 class = ""square num-button"" onclick = ""recordClick(this)""><div class = content><div class = numbers>C</div></div></button><button id = button_2 class = ""square num-button"" onclick = ""recordClick(this)""><div class = content><div class = numbers>G</div></div></button><button id = button_3 class = ""square num-button"" onclick = ""recordClick(this)""><div class = content><div class = numbers>H</div></div></button><button id = button_4 class = ""square num-button"" onclick = ""recordClick(this)""><div class = content><div class = numbers>J</div></div></button><button id = button_5 class = ""square num-button"" onclick = ""recordClick(this)""><div class = content><div class = numbers>K</div></div></button><button id = button_6 class = ""square num-button"" onclick = ""recordClick(this)""><div class = content><div class = numbers>L</div></div></button><button id = button_7 class = ""square num-button"" onclick = ""recordClick(this)""><div class = content><div class = numbers>N</div></div></button><button id = button_8 class = ""square num-button"" onclick = ""recordClick(this)""><div class = content><div class = numbers>P</div></div></button><button id = button_9 class = ""square num-button"" onclick = ""recordClick(this)""><div class = content><div class = numbers>Q</div></div></button><button id = button_10 class = ""square num-button"" onclick = ""recordClick(this)""><div class = content><div class = numbers>R</div></div></button><button id = button_11 class = ""square num-button"" onclick = ""recordClick(this)""><div class = content><div class = numbers>S</div></div></button><button id = button_12 class = ""square num-button"" onclick = ""recordClick(this)""><div class = content><div class = numbers>Y</div></div></button><button class = clear_button id = ""ClearButton"" onclick = ""clearResponse()"">BACKSPACE</button><button class = blank_button id = ""BlankButton"" onclick = ""blankResponse()"">SKIP</button><p style=""font-size: 2.4rem""><u><b>Current Answer:</b></u></p><br><br><div id=echoed_txt style=""font-size: 5rem; color:blue;""><b></b></div></div>",enter,ospan,retrieval,T4QtYXeO3kaKDUSzysSor9iaSH82,html-keyboard-response,205,995262,0.0-46.0-6.0-1.0-2.0,41,32,21,8.0,"[""N"",""C"",""P"",""H"",""L"",""Y""]","[""N"",""C"",""Y"",""S"",""R"",""P"",""L"",""H""]",0.0,2.0,,,,,,,60cb358cae78471cdfa7a0a6,12:44:57,03/04/2024
1966.0,[''],0,ospan,feedback,T4QtYXeO3kaKDUSzysSor9iaSH82,html-button-response,206,997738,0.0-46.0-6.0-1.0-3.0,,,,,,,,,,,,98.0,0.0,,60cb358cae78471cdfa7a0a6,12:44:57,03/04/2024
11989.800000190735,,{'Q0': 'was getting way too hard to remember'},ospan,survey_ospan,T4QtYXeO3kaKDUSzysSor9iaSH82,lmdlab-survey-text,207,1010484,0.0-46.0-7.0,,,,,,,,,,,,,,T4QtYXeO3kaKDUSzysSor9iaSH82,60cb358cae78471cdfa7a0a6,12:44:57,03/04/2024
765.5,<p><p style='font-size: 3rem'>Great work!<br><br>This completes the symmetry and memory task.</p><br><br><br>,0,ospan,finish,T4QtYXeO3kaKDUSzysSor9iaSH82,html-button-response,208,1011258,0.0-46.0-8.0,41,32,21,,,,,,,,,98.0,,,60cb358cae78471cdfa7a0a6,12:44:57,03/04/2024
