rt,stimulus,response,exp_name,exp_stage,subjectID,trial_type,trial_index,time_elapsed,internal_node_id,ospan_shown,ospan_total,ospan_abs,length,resp_actual,resp_correct,full_correct,num_correct,feedback,accuracy,correct,math_acc,math_warning,databaseID,prolificID,start_time,date
2714.4000000953674,<div class = 'left_align' style='font-size: 3.25rem; line-height: 1.3;'><p class = 'center_align'><b>Welcome to the Symmetry and Memory Task</b><br><br><br><br></p>Press 'continue' to show the instructions.<br><br><br><br></div>,0,ospan,instruct,1d15vrOBIgd5yUPaa3UmC3daYvL2,html-button-response,51,1014535,0.0-43.0-0.0-0.0-0.0,,,,,,,,,,,,,,,65c64d6115f43749efb97d68,11:06:07,05/03/2024
13777.799999952316,"<div class = 'left_align' style='font-size: 3.25rem; line-height: 1.3;'><p class = 'center_align'><b>Symmetry and Memory Task</b><br><br></p>In this task, you will try to memorize letters you see on the screen<br>while you also view black and white grid pictures.<br><br>In the next few minutes, you will have some practice to get you familiar<br>with how the task works.<br><br>It may be difficult sometimes, but please do not worry about making mistakes!<br><br>We will begin by practicing the letter part of the task.<br><br><br><br></div>",0,ospan,instruct,1d15vrOBIgd5yUPaa3UmC3daYvL2,html-button-response,52,1028566,0.0-43.0-0.0-0.0-1.0,,,,,,,,,,,,,,,65c64d6115f43749efb97d68,11:06:07,05/03/2024
15033.5,"<div class = 'left_align' style='font-size: 3.25rem; line-height: 1.3;'>For this practice part, letters will appear on the screen one at a time.<br><br>Try to remember each letter in the order presented.<br><br>After some letters have been shown, you will see a response screen. Your<br>goal is to report the letters you saw <b>in order</b>. If you do not remember<br>a particular letter, you will have the option to leave it blank.<br><br><br><br></div>",0,ospan,instruct,1d15vrOBIgd5yUPaa3UmC3daYvL2,html-button-response,53,1043862,0.0-43.0-0.0-0.0-2.0,,,,,,,,,,,,,,,65c64d6115f43749efb97d68,11:06:07,05/03/2024
7809.299999952316,"<div class = 'left_align' style='font-size: 3.25rem; line-height: 1.3;'>Remember, it is very important to get the letters in the same<br>order as you see them.<br><br>When you are ready, you may begin the letter practice.</div><br><br><br><br>",0,ospan,instruct,1d15vrOBIgd5yUPaa3UmC3daYvL2,html-button-response,54,1051936,0.0-43.0-0.0-0.0-3.0,,,,,,,,,,,,,,,65c64d6115f43749efb97d68,11:06:07,05/03/2024
,"<p style=""font-size:75px;"">...</p>",,ospan,iti,1d15vrOBIgd5yUPaa3UmC3daYvL2,html-keyboard-response,55,1053213,0.0-43.0-0.0-1.0-0.0,,,,,,,,,,,,,,,65c64d6115f43749efb97d68,11:06:07,05/03/2024
,"<div style=""font-size: 10rem; color: #0000FF"">K</div>",,ospan,letter,1d15vrOBIgd5yUPaa3UmC3daYvL2,html-keyboard-response,56,1054231,0.0-43.0-0.0-1.0-1.0,,,,,,,,,,,,,,,65c64d6115f43749efb97d68,11:06:07,05/03/2024
,"<div style=""font-size: 10rem; color: #0000FF"">L</div>",,ospan,letter,1d15vrOBIgd5yUPaa3UmC3daYvL2,html-keyboard-response,57,1055991,0.0-43.0-0.0-1.0-2.0,,,,,,,,,,,,,,,65c64d6115f43749efb97d68,11:06:07,05/03/2024
49705.799999952316,"<div class = numbox><p style=""font-size: 2.4rem"">Please recall the letters you saw to the best of your ability. If you do not remember a particular letter, use the SKIP button.<br><b>(When you are ready to lock in your answer, press ENTER)</b></p><button id = button_1 class = ""square num-button"" onclick = ""recordClick(this)""><div class = content><div class = numbers>C</div></div></button><button id = button_2 class = ""square num-button"" onclick = ""recordClick(this)""><div class = content><div class = numbers>G</div></div></button><button id = button_3 class = ""square num-button"" onclick = ""recordClick(this)""><div class = content><div class = numbers>H</div></div></button><button id = button_4 class = ""square num-button"" onclick = ""recordClick(this)""><div class = content><div class = numbers>J</div></div></button><button id = button_5 class = ""square num-button"" onclick = ""recordClick(this)""><div class = content><div class = numbers>K</div></div></button><button id = button_6 class = ""square num-button"" onclick = ""recordClick(this)""><div class = content><div class = numbers>L</div></div></button><button id = button_7 class = ""square num-button"" onclick = ""recordClick(this)""><div class = content><div class = numbers>N</div></div></button><button id = button_8 class = ""square num-button"" onclick = ""recordClick(this)""><div class = content><div class = numbers>P</div></div></button><button id = button_9 class = ""square num-button"" onclick = ""recordClick(this)""><div class = content><div class = numbers>Q</div></div></button><button id = button_10 class = ""square num-button"" onclick = ""recordClick(this)""><div class = content><div class = numbers>R</div></div></button><button id = button_11 class = ""square num-button"" onclick = ""recordClick(this)""><div class = content><div class = numbers>S</div></div></button><button id = button_12 class = ""square num-button"" onclick = ""recordClick(this)""><div class = content><div class = numbers>Y</div></div></button><button class = clear_button id = ""ClearButton"" onclick = ""clearResponse()"">BACKSPACE</button><button class = blank_button id = ""BlankButton"" onclick = ""blankResponse()"">SKIP</button><p style=""font-size: 2.4rem""><u><b>Current Answer:</b></u></p><br><br><div id=echoed_txt style=""font-size: 5rem; color:blue;""><b></b></div></div>",enter,ospan,retrieval,1d15vrOBIgd5yUPaa3UmC3daYvL2,html-keyboard-response,58,1106452,0.0-43.0-0.0-1.0-3.0,NA,NA,NA,2.0,"[""K"",""L""]","[""K"",""L""]",1.0,2.0,"['<font color=""green"">K</font>', '<font color=""green"">L</font>']",,,,,,65c64d6115f43749efb97d68,11:06:07,05/03/2024
1984.9000000953674,"['<p style=""font-size:44px"">Letters:<br><br><br><font color=""green"">K</font> <font color=""green"">L</font></p><br><br>']",0,ospan,practice_feedback,1d15vrOBIgd5yUPaa3UmC3daYvL2,html-button-response,59,1108943,0.0-43.0-0.0-1.0-4.0,,,,,,,,,,,,,,,65c64d6115f43749efb97d68,11:06:07,05/03/2024
,"<p style=""font-size:75px;"">...</p>",,ospan,iti,1d15vrOBIgd5yUPaa3UmC3daYvL2,html-keyboard-response,60,1109945,0.0-43.0-0.0-2.0-0.0,,,,,,,,,,,,,,,65c64d6115f43749efb97d68,11:06:07,05/03/2024
,"<div style=""font-size: 10rem; color: #0000FF"">N</div>",,ospan,letter,1d15vrOBIgd5yUPaa3UmC3daYvL2,html-keyboard-response,61,1110960,0.0-43.0-0.0-2.0-1.0,,,,,,,,,,,,,,,65c64d6115f43749efb97d68,11:06:07,05/03/2024
,"<div style=""font-size: 10rem; color: #0000FF"">K</div>",,ospan,letter,1d15vrOBIgd5yUPaa3UmC3daYvL2,html-keyboard-response,62,1112736,0.0-43.0-0.0-2.0-2.0,,,,,,,,,,,,,,,65c64d6115f43749efb97d68,11:06:07,05/03/2024
,"<div style=""font-size: 10rem; color: #0000FF"">Q</div>",,ospan,letter,1d15vrOBIgd5yUPaa3UmC3daYvL2,html-keyboard-response,63,1114502,0.0-43.0-0.0-2.0-3.0,,,,,,,,,,,,,,,65c64d6115f43749efb97d68,11:06:07,05/03/2024
4138.299999952316,"<div class = numbox><p style=""font-size: 2.4rem"">Please recall the letters you saw to the best of your ability. If you do not remember a particular letter, use the SKIP button.<br><b>(When you are ready to lock in your answer, press ENTER)</b></p><button id = button_1 class = ""square num-button"" onclick = ""recordClick(this)""><div class = content><div class = numbers>C</div></div></button><button id = button_2 class = ""square num-button"" onclick = ""recordClick(this)""><div class = content><div class = numbers>G</div></div></button><button id = button_3 class = ""square num-button"" onclick = ""recordClick(this)""><div class = content><div class = numbers>H</div></div></button><button id = button_4 class = ""square num-button"" onclick = ""recordClick(this)""><div class = content><div class = numbers>J</div></div></button><button id = button_5 class = ""square num-button"" onclick = ""recordClick(this)""><div class = content><div class = numbers>K</div></div></button><button id = button_6 class = ""square num-button"" onclick = ""recordClick(this)""><div class = content><div class = numbers>L</div></div></button><button id = button_7 class = ""square num-button"" onclick = ""recordClick(this)""><div class = content><div class = numbers>N</div></div></button><button id = button_8 class = ""square num-button"" onclick = ""recordClick(this)""><div class = content><div class = numbers>P</div></div></button><button id = button_9 class = ""square num-button"" onclick = ""recordClick(this)""><div class = content><div class = numbers>Q</div></div></button><button id = button_10 class = ""square num-button"" onclick = ""recordClick(this)""><div class = content><div class = numbers>R</div></div></button><button id = button_11 class = ""square num-button"" onclick = ""recordClick(this)""><div class = content><div class = numbers>S</div></div></button><button id = button_12 class = ""square num-button"" onclick = ""recordClick(this)""><div class = content><div class = numbers>Y</div></div></button><button class = clear_button id = ""ClearButton"" onclick = ""clearResponse()"">BACKSPACE</button><button class = blank_button id = ""BlankButton"" onclick = ""blankResponse()"">SKIP</button><p style=""font-size: 2.4rem""><u><b>Current Answer:</b></u></p><br><br><div id=echoed_txt style=""font-size: 5rem; color:blue;""><b></b></div></div>",enter,ospan,retrieval,1d15vrOBIgd5yUPaa3UmC3daYvL2,html-keyboard-response,64,1119402,0.0-43.0-0.0-2.0-4.0,NA,NA,NA,3.0,"[""N"",""K"",""Q""]","[""N"",""K"",""Q""]",1.0,3.0,"['<font color=""green"">N</font>', '<font color=""green"">K</font>', '<font color=""green"">Q</font>']",,,,,,65c64d6115f43749efb97d68,11:06:07,05/03/2024
940.7999999523163,"['<p style=""font-size:44px"">Letters:<br><br><br><font color=""green"">N</font> <font color=""green"">K</font> <font color=""green"">Q</font></p><br><br>']",0,ospan,practice_feedback,1d15vrOBIgd5yUPaa3UmC3daYvL2,html-button-response,65,1120853,0.0-43.0-0.0-2.0-5.0,,,,,,,,,,,,,,,65c64d6115f43749efb97d68,11:06:07,05/03/2024
109303.29999995232,"<div class = 'left_align' style='font-size: 3.25rem; line-height: 1.3;'>Now you will practice doing the <b>symmetry judgment part</b> of the experiment.<br><br>A black and white grid picture will appear on the screen and you have to judge if it is <br>symmetrical or asymetrical.<br><br>A picture is 'mirror' symmetrical if its left half is identical to the right half when flipped.<br>Here are examples of a symmetrical and an asymetrical picture:<br><br><center><img src='Stimuli/img/symm_instructions_extra.png' style='height:420px; width:900'></img></center><br>To judge symmetry, imagine you were to fold each picture down the middle, like a book –<br>would the left half match the right half when folded onto each other?<br><br></div><br>",0,ospan,instruct,1d15vrOBIgd5yUPaa3UmC3daYvL2,html-button-response,66,1230158,0.0-43.0-1.0-0.0-0.0,,,,,,,,,,,,,,,65c64d6115f43749efb97d68,11:06:07,05/03/2024
9925.599999904633,"<div class = 'left_align' style='font-size: 3.25rem; line-height: 1.3;'>When you have viewed the picture and determined whether it is symmetrical or not,<br>you can <b>click the Yes or No button</b> below to answer.<br><br>If you take longer than 15 seconds, it will continue automatically<br>and record the answer as an error.</div><br>",0,ospan,instruct,1d15vrOBIgd5yUPaa3UmC3daYvL2,html-button-response,67,1240339,0.0-43.0-1.0-0.0-1.0,,,,,,,,,,,,,,,65c64d6115f43749efb97d68,11:06:07,05/03/2024
6146.100000143051,"<div class = 'left_align' style='font-size: 3.25rem; line-height: 1.3;'>It is <b>very</b> important that you make the symmetry judgment correctly.<br><br>It is also important that you try and judge the picture as quickly as you can.<br><br>When you are ready, click on the button below to try some practice problems.</div><br><br><br><br>",0,ospan,instruct,1d15vrOBIgd5yUPaa3UmC3daYvL2,html-button-response,68,1246738,0.0-43.0-1.0-0.0-2.0,,,,,,,,,,,,,,,65c64d6115f43749efb97d68,11:06:07,05/03/2024
4520.0,,,ospan,symmetry,1d15vrOBIgd5yUPaa3UmC3daYvL2,symmetry-judgement-task,69,1252144,0.0-43.0-1.0-1.0-0.0,,,,,,,,,,1.0,1.0,,,,65c64d6115f43749efb97d68,11:06:07,05/03/2024
,"<p style=""color:green; font-size: 35px"">Correct</p>",,ospan,feedback,1d15vrOBIgd5yUPaa3UmC3daYvL2,html-keyboard-response,70,1252911,0.0-43.0-1.0-1.0-1.0,,,,,,,,,,,,,,,65c64d6115f43749efb97d68,11:06:07,05/03/2024
5363.0,,,ospan,symmetry,1d15vrOBIgd5yUPaa3UmC3daYvL2,symmetry-judgement-task,71,1261071,0.0-43.0-1.0-1.0-2.0,,,,,,,,,,1.0,1.0,,,,65c64d6115f43749efb97d68,11:06:07,05/03/2024
,"<p style=""color:green; font-size: 35px"">Correct</p>",,ospan,feedback,1d15vrOBIgd5yUPaa3UmC3daYvL2,html-keyboard-response,72,1261827,0.0-43.0-1.0-1.0-3.0,,,,,,,,,,,,,,,65c64d6115f43749efb97d68,11:06:07,05/03/2024
3407.0,,,ospan,symmetry,1d15vrOBIgd5yUPaa3UmC3daYvL2,symmetry-judgement-task,73,1268050,0.0-43.0-1.0-1.0-4.0,,,,,,,,,,1.0,1.0,,,,65c64d6115f43749efb97d68,11:06:07,05/03/2024
,"<p style=""color:green; font-size: 35px"">Correct</p>",,ospan,feedback,1d15vrOBIgd5yUPaa3UmC3daYvL2,html-keyboard-response,74,1268810,0.0-43.0-1.0-1.0-5.0,,,,,,,,,,,,,,,65c64d6115f43749efb97d68,11:06:07,05/03/2024
2746.7999999523163,"<p style=""font-size: 3rem;"">You responded correctly on 3 of 3 symmetry judgments. Good job!</p><br><br>",0,ospan,practice,1d15vrOBIgd5yUPaa3UmC3daYvL2,html-button-response,75,1273573,0.0-43.0-1.0-2.0,,,,,,,,,,,,,,,65c64d6115f43749efb97d68,11:06:07,05/03/2024
12638.100000143051,"<div class = 'left_align' style='font-size: 3.25rem; line-height: 1.3;'>Now you will practice doing both parts of the experiment at the same time.<br><br>In the next practice set, you will be given one grid picture to judge.<br>Then letter will appear on the screen. Try to remember the letter.<br><br>It is <b>very important</b> to make the symmetry judgment as quickly and accurately as possible.<br><br>Just as before, once you have make the symmetry judgment, you can click Yes or No.<br><b>Note that you will no longer see Correct or Incorrect feedback.</div><br><br><br><br>",0,ospan,instruct,1d15vrOBIgd5yUPaa3UmC3daYvL2,html-button-response,76,1286478,0.0-43.0-2.0-0.0-0.0,,,,,,,,,,,,,,,65c64d6115f43749efb97d68,11:06:07,05/03/2024
12889.399999856949,"<div class = 'left_align' style='font-size: 3.25rem; line-height: 1.3;'>After the letter goes away, another grid picture will appear, and then<br>another letter.<br><br>At the end of each set of letters and grids, you will recall the letters to the best<br>of your ability. Remember, try your best to get the letters in the correct order.<br><br>It is important to <b>quickly</b> and <b>accurately</b> make the symmetry judgments.</div><br><br><br><br>",0,ospan,instruct,1d15vrOBIgd5yUPaa3UmC3daYvL2,html-button-response,77,1299623,0.0-43.0-2.0-0.0-1.0,,,,,,,,,,,,,,,65c64d6115f43749efb97d68,11:06:07,05/03/2024
25589.799999952316,"<div class = 'left_align' style='font-size: 3.25rem; line-height: 1.3;'>On the feedback screen, if you are not doing well at the symmetry judgments,<br>you will also see a warning in the middle. This indicates your percent <br>correct for the grid pictures for the entire experiment.<br><br>It is <b>very</b> important for you to keep accuracy at least at 85%: <u>We can only use<br>data where the participant was at least 85% accurate on the judgments.</u> Therefore,<br> please try your best to perform well on the symmetry judgments, <b>at the same time</b><br>doing your best to recall as many letters as possible.<br><br>Click the button to try some practice problems.</div><br><br><br><br>",0,ospan,instruct,1d15vrOBIgd5yUPaa3UmC3daYvL2,html-button-response,78,1325472,0.0-43.0-2.0-0.0-2.0,,,,,,,,,,,,,,,65c64d6115f43749efb97d68,11:06:07,05/03/2024
,"<p style=""font-size:75px;"">...</p>",,ospan,iti,1d15vrOBIgd5yUPaa3UmC3daYvL2,html-keyboard-response,79,1326744,0.0-43.0-2.0-1.0-0.0,,,,,,,,,,,,,,,65c64d6115f43749efb97d68,11:06:07,05/03/2024
6890.0,,,ospan,symmetry,1d15vrOBIgd5yUPaa3UmC3daYvL2,symmetry-judgement-task,80,1334940,0.0-43.0-2.0-1.0-1.0-0.0,,,,,,,,,,1.0,1.0,,,,65c64d6115f43749efb97d68,11:06:07,05/03/2024
,"<div style=""font-size: 10rem; color: #0000FF"">R</div>",,ospan,letter,1d15vrOBIgd5yUPaa3UmC3daYvL2,html-keyboard-response,81,1335957,0.0-43.0-2.0-1.0-1.0-1.0,,,,,,,,,,,,,,,65c64d6115f43749efb97d68,11:06:07,05/03/2024
4074.0,,,ospan,symmetry,1d15vrOBIgd5yUPaa3UmC3daYvL2,symmetry-judgement-task,82,1342091,0.0-43.0-2.0-1.0-1.0-2.0,,,,,,,,,,1.0,1.0,,,,65c64d6115f43749efb97d68,11:06:07,05/03/2024
,"<div style=""font-size: 10rem; color: #0000FF"">K</div>",,ospan,letter,1d15vrOBIgd5yUPaa3UmC3daYvL2,html-keyboard-response,83,1343101,0.0-43.0-2.0-1.0-1.0-3.0,,,,,,,,,,,,,,,65c64d6115f43749efb97d68,11:06:07,05/03/2024
2552.0,,,ospan,symmetry,1d15vrOBIgd5yUPaa3UmC3daYvL2,symmetry-judgement-task,84,1347791,0.0-43.0-2.0-1.0-1.0-4.0,,,,,,,,,,1.0,1.0,,,,65c64d6115f43749efb97d68,11:06:07,05/03/2024
,"<div style=""font-size: 10rem; color: #0000FF"">J</div>",,ospan,letter,1d15vrOBIgd5yUPaa3UmC3daYvL2,html-keyboard-response,85,1348803,0.0-43.0-2.0-1.0-1.0-5.0,,,,,,,,,,,,,,,65c64d6115f43749efb97d68,11:06:07,05/03/2024
6397.200000047684,"<div class = numbox><p style=""font-size: 2.4rem"">Please recall the letters you saw to the best of your ability. If you do not remember a particular letter, use the SKIP button.<br><b>(When you are ready to lock in your answer, press ENTER)</b></p><button id = button_1 class = ""square num-button"" onclick = ""recordClick(this)""><div class = content><div class = numbers>C</div></div></button><button id = button_2 class = ""square num-button"" onclick = ""recordClick(this)""><div class = content><div class = numbers>G</div></div></button><button id = button_3 class = ""square num-button"" onclick = ""recordClick(this)""><div class = content><div class = numbers>H</div></div></button><button id = button_4 class = ""square num-button"" onclick = ""recordClick(this)""><div class = content><div class = numbers>J</div></div></button><button id = button_5 class = ""square num-button"" onclick = ""recordClick(this)""><div class = content><div class = numbers>K</div></div></button><button id = button_6 class = ""square num-button"" onclick = ""recordClick(this)""><div class = content><div class = numbers>L</div></div></button><button id = button_7 class = ""square num-button"" onclick = ""recordClick(this)""><div class = content><div class = numbers>N</div></div></button><button id = button_8 class = ""square num-button"" onclick = ""recordClick(this)""><div class = content><div class = numbers>P</div></div></button><button id = button_9 class = ""square num-button"" onclick = ""recordClick(this)""><div class = content><div class = numbers>Q</div></div></button><button id = button_10 class = ""square num-button"" onclick = ""recordClick(this)""><div class = content><div class = numbers>R</div></div></button><button id = button_11 class = ""square num-button"" onclick = ""recordClick(this)""><div class = content><div class = numbers>S</div></div></button><button id = button_12 class = ""square num-button"" onclick = ""recordClick(this)""><div class = content><div class = numbers>Y</div></div></button><button class = clear_button id = ""ClearButton"" onclick = ""clearResponse()"">BACKSPACE</button><button class = blank_button id = ""BlankButton"" onclick = ""blankResponse()"">SKIP</button><p style=""font-size: 2.4rem""><u><b>Current Answer:</b></u></p><br><br><div id=echoed_txt style=""font-size: 5rem; color:blue;""><b></b></div></div>",enter,ospan,retrieval,1d15vrOBIgd5yUPaa3UmC3daYvL2,html-keyboard-response,86,1355959,0.0-43.0-2.0-1.0-2.0-0.0,NA,NA,NA,3.0,"[""R"",""K"",""J""]","[""R"",""K"",""J""]",1.0,3.0,"['<font color=""green"">R</font>', '<font color=""green"">K</font>', '<font color=""green"">J</font>']",,,,,,65c64d6115f43749efb97d68,11:06:07,05/03/2024
3191.0999999046326,"['<p style=""font-size:44px"">Letters:<br><br><br><font color=""green"">R</font> <font color=""green"">K</font> <font color=""green"">J</font></p><br><br><p style=""font-size:30px"">Symmetry:<br><br><font color=""green"">100%</font></p><br><br>']",0,ospan,practice_feedback,1d15vrOBIgd5yUPaa3UmC3daYvL2,html-button-response,87,1359653,0.0-43.0-2.0-1.0-2.0-1.0,,,,,,,,,,,,,,,65c64d6115f43749efb97d68,11:06:07,05/03/2024
,"<p style=""font-size:75px;"">...</p>",,ospan,iti,1d15vrOBIgd5yUPaa3UmC3daYvL2,html-keyboard-response,88,1360669,0.0-43.0-2.0-2.0-0.0,,,,,,,,,,,,,,,65c64d6115f43749efb97d68,11:06:07,05/03/2024
3672.0,,,ospan,symmetry,1d15vrOBIgd5yUPaa3UmC3daYvL2,symmetry-judgement-task,89,1365627,0.0-43.0-2.0-2.0-1.0-0.0,,,,,,,,,,1.0,1.0,,,,65c64d6115f43749efb97d68,11:06:07,05/03/2024
,"<div style=""font-size: 10rem; color: #0000FF"">J</div>",,ospan,letter,1d15vrOBIgd5yUPaa3UmC3daYvL2,html-keyboard-response,90,1366630,0.0-43.0-2.0-2.0-1.0-1.0,,,,,,,,,,,,,,,65c64d6115f43749efb97d68,11:06:07,05/03/2024
3613.0,,,ospan,symmetry,1d15vrOBIgd5yUPaa3UmC3daYvL2,symmetry-judgement-task,91,1372313,0.0-43.0-2.0-2.0-1.0-2.0,,,,,,,,,,1.0,1.0,,,,65c64d6115f43749efb97d68,11:06:07,05/03/2024
,"<div style=""font-size: 10rem; color: #0000FF"">K</div>",,ospan,letter,1d15vrOBIgd5yUPaa3UmC3daYvL2,html-keyboard-response,92,1373325,0.0-43.0-2.0-2.0-1.0-3.0,,,,,,,,,,,,,,,65c64d6115f43749efb97d68,11:06:07,05/03/2024
4327.0,,,ospan,symmetry,1d15vrOBIgd5yUPaa3UmC3daYvL2,symmetry-judgement-task,93,1379723,0.0-43.0-2.0-2.0-1.0-4.0,,,,,,,,,,1.0,1.0,,,,65c64d6115f43749efb97d68,11:06:07,05/03/2024
,"<div style=""font-size: 10rem; color: #0000FF"">H</div>",,ospan,letter,1d15vrOBIgd5yUPaa3UmC3daYvL2,html-keyboard-response,94,1380731,0.0-43.0-2.0-2.0-1.0-5.0,,,,,,,,,,,,,,,65c64d6115f43749efb97d68,11:06:07,05/03/2024
3763.9000000953674,"<div class = numbox><p style=""font-size: 2.4rem"">Please recall the letters you saw to the best of your ability. If you do not remember a particular letter, use the SKIP button.<br><b>(When you are ready to lock in your answer, press ENTER)</b></p><button id = button_1 class = ""square num-button"" onclick = ""recordClick(this)""><div class = content><div class = numbers>C</div></div></button><button id = button_2 class = ""square num-button"" onclick = ""recordClick(this)""><div class = content><div class = numbers>G</div></div></button><button id = button_3 class = ""square num-button"" onclick = ""recordClick(this)""><div class = content><div class = numbers>H</div></div></button><button id = button_4 class = ""square num-button"" onclick = ""recordClick(this)""><div class = content><div class = numbers>J</div></div></button><button id = button_5 class = ""square num-button"" onclick = ""recordClick(this)""><div class = content><div class = numbers>K</div></div></button><button id = button_6 class = ""square num-button"" onclick = ""recordClick(this)""><div class = content><div class = numbers>L</div></div></button><button id = button_7 class = ""square num-button"" onclick = ""recordClick(this)""><div class = content><div class = numbers>N</div></div></button><button id = button_8 class = ""square num-button"" onclick = ""recordClick(this)""><div class = content><div class = numbers>P</div></div></button><button id = button_9 class = ""square num-button"" onclick = ""recordClick(this)""><div class = content><div class = numbers>Q</div></div></button><button id = button_10 class = ""square num-button"" onclick = ""recordClick(this)""><div class = content><div class = numbers>R</div></div></button><button id = button_11 class = ""square num-button"" onclick = ""recordClick(this)""><div class = content><div class = numbers>S</div></div></button><button id = button_12 class = ""square num-button"" onclick = ""recordClick(this)""><div class = content><div class = numbers>Y</div></div></button><button class = clear_button id = ""ClearButton"" onclick = ""clearResponse()"">BACKSPACE</button><button class = blank_button id = ""BlankButton"" onclick = ""blankResponse()"">SKIP</button><p style=""font-size: 2.4rem""><u><b>Current Answer:</b></u></p><br><br><div id=echoed_txt style=""font-size: 5rem; color:blue;""><b></b></div></div>",enter,ospan,retrieval,1d15vrOBIgd5yUPaa3UmC3daYvL2,html-keyboard-response,95,1385252,0.0-43.0-2.0-2.0-2.0-0.0,NA,NA,NA,3.0,"[""J"",""K"",""H""]","[""J"",""K"",""H""]",1.0,3.0,"['<font color=""green"">J</font>', '<font color=""green"">K</font>', '<font color=""green"">H</font>']",,,,,,65c64d6115f43749efb97d68,11:06:07,05/03/2024
1094.0,"['<p style=""font-size:44px"">Letters:<br><br><br><font color=""green"">J</font> <font color=""green"">K</font> <font color=""green"">H</font></p><br><br><p style=""font-size:30px"">Symmetry:<br><br><font color=""green"">100%</font></p><br><br>']",0,ospan,practice_feedback,1d15vrOBIgd5yUPaa3UmC3daYvL2,html-button-response,96,1386861,0.0-43.0-2.0-2.0-2.0-1.0,,,,,,,,,,,,,,,65c64d6115f43749efb97d68,11:06:07,05/03/2024
37913.800000190735,"<div class = 'left_align' style='font-size: 3rem; line-height: 1.3;'><b>Great work! That is the end of practice.</b><br><br>The real trials will look just like the practice trials you just completed.<br><br><u>Here, you will not see feedback</u>. First, you will see an grid picture to judge,<br>then a letter to remember. When the recall screen appears, report the letters in the<br>order presented. If you forget a letter, remember to use the <b>blank</b> button to move to the<br>next letter. Some of the sets will have more symmetry grids and letters than others.<br><br>It is important that you do your best on both the symmetry judgments and the letter recall<br>parts of the experiment. For for the symmetry judgments, try to work as <b>quickly</b> and <br>as <b>accurately</b> as possible. Remember to keep your symmetry accuracy at 85% or above.<br><br><b>For the letters, do NOT use any external aid (e.g., writing on paper, electronic device).</b><br><br>It is <u>very important</u> to our experiment to have a <b>true</b> view of your real performance.<br><br>Do not worry if you miss some when it gets hard! This task is meant to be very challenging!<br><br>Click the button to begin.</div><br><br><br><br>",0,ospan,starting_real_here,1d15vrOBIgd5yUPaa3UmC3daYvL2,html-button-response,97,1424776,0.0-43.0-2.0-3.0,,,,,,,,,,,,,,,65c64d6115f43749efb97d68,11:06:07,05/03/2024
,"<p style=""font-size:75px;"">...</p>",,ospan,iti,1d15vrOBIgd5yUPaa3UmC3daYvL2,html-keyboard-response,98,1426042,0.0-43.0-3.0-0.0-0.0,,,,,,,,,,,,,,,65c64d6115f43749efb97d68,11:06:07,05/03/2024
3715.0,,,ospan,symmetry,1d15vrOBIgd5yUPaa3UmC3daYvL2,symmetry-judgement-task,99,1430871,0.0-43.0-3.0-0.0-1.0-0.0,,,,,,,,,,1.0,1.0,,,,65c64d6115f43749efb97d68,11:06:07,05/03/2024
,"<div style=""font-size: 10rem; color: #0000FF"">J</div>",,ospan,letter,1d15vrOBIgd5yUPaa3UmC3daYvL2,html-keyboard-response,100,1431880,0.0-43.0-3.0-0.0-1.0-1.0,,,,,,,,,,,,,,,65c64d6115f43749efb97d68,11:06:07,05/03/2024
3079.0,,,ospan,symmetry,1d15vrOBIgd5yUPaa3UmC3daYvL2,symmetry-judgement-task,101,1437105,0.0-43.0-3.0-0.0-1.0-2.0,,,,,,,,,,1.0,1.0,,,,65c64d6115f43749efb97d68,11:06:07,05/03/2024
,"<div style=""font-size: 10rem; color: #0000FF"">G</div>",,ospan,letter,1d15vrOBIgd5yUPaa3UmC3daYvL2,html-keyboard-response,102,1438110,0.0-43.0-3.0-0.0-1.0-3.0,,,,,,,,,,,,,,,65c64d6115f43749efb97d68,11:06:07,05/03/2024
3087.0,,,ospan,symmetry,1d15vrOBIgd5yUPaa3UmC3daYvL2,symmetry-judgement-task,103,1443245,0.0-43.0-3.0-0.0-1.0-4.0,,,,,,,,,,1.0,1.0,,,,65c64d6115f43749efb97d68,11:06:07,05/03/2024
,"<div style=""font-size: 10rem; color: #0000FF"">L</div>",,ospan,letter,1d15vrOBIgd5yUPaa3UmC3daYvL2,html-keyboard-response,104,1444253,0.0-43.0-3.0-0.0-1.0-5.0,,,,,,,,,,,,,,,65c64d6115f43749efb97d68,11:06:07,05/03/2024
4059.2000000476837,"<div class = numbox><p style=""font-size: 2.4rem"">Please recall the letters you saw to the best of your ability. If you do not remember a particular letter, use the SKIP button.<br><b>(When you are ready to lock in your answer, press ENTER)</b></p><button id = button_1 class = ""square num-button"" onclick = ""recordClick(this)""><div class = content><div class = numbers>C</div></div></button><button id = button_2 class = ""square num-button"" onclick = ""recordClick(this)""><div class = content><div class = numbers>G</div></div></button><button id = button_3 class = ""square num-button"" onclick = ""recordClick(this)""><div class = content><div class = numbers>H</div></div></button><button id = button_4 class = ""square num-button"" onclick = ""recordClick(this)""><div class = content><div class = numbers>J</div></div></button><button id = button_5 class = ""square num-button"" onclick = ""recordClick(this)""><div class = content><div class = numbers>K</div></div></button><button id = button_6 class = ""square num-button"" onclick = ""recordClick(this)""><div class = content><div class = numbers>L</div></div></button><button id = button_7 class = ""square num-button"" onclick = ""recordClick(this)""><div class = content><div class = numbers>N</div></div></button><button id = button_8 class = ""square num-button"" onclick = ""recordClick(this)""><div class = content><div class = numbers>P</div></div></button><button id = button_9 class = ""square num-button"" onclick = ""recordClick(this)""><div class = content><div class = numbers>Q</div></div></button><button id = button_10 class = ""square num-button"" onclick = ""recordClick(this)""><div class = content><div class = numbers>R</div></div></button><button id = button_11 class = ""square num-button"" onclick = ""recordClick(this)""><div class = content><div class = numbers>S</div></div></button><button id = button_12 class = ""square num-button"" onclick = ""recordClick(this)""><div class = content><div class = numbers>Y</div></div></button><button class = clear_button id = ""ClearButton"" onclick = ""clearResponse()"">BACKSPACE</button><button class = blank_button id = ""BlankButton"" onclick = ""blankResponse()"">SKIP</button><p style=""font-size: 2.4rem""><u><b>Current Answer:</b></u></p><br><br><div id=echoed_txt style=""font-size: 5rem; color:blue;""><b></b></div></div>",enter,ospan,retrieval,1d15vrOBIgd5yUPaa3UmC3daYvL2,html-keyboard-response,105,1449071,0.0-43.0-3.0-0.0-2.0,3,3,3,3.0,"[""J"",""G"",""L""]","[""J"",""G"",""L""]",1.0,3.0,,,,,,,65c64d6115f43749efb97d68,11:06:07,05/03/2024
1409.2000000476837,[''],0,ospan,feedback,1d15vrOBIgd5yUPaa3UmC3daYvL2,html-button-response,106,1450990,0.0-43.0-3.0-0.0-3.0,,,,,,,,,,,,100.0,0.0,,65c64d6115f43749efb97d68,11:06:07,05/03/2024
,"<p style=""font-size:75px;"">...</p>",,ospan,iti,1d15vrOBIgd5yUPaa3UmC3daYvL2,html-keyboard-response,107,1452007,0.0-43.0-4.0-0.0-0.0,,,,,,,,,,,,,,,65c64d6115f43749efb97d68,11:06:07,05/03/2024
3348.0,,,ospan,symmetry,1d15vrOBIgd5yUPaa3UmC3daYvL2,symmetry-judgement-task,108,1456681,0.0-43.0-4.0-0.0-1.0-0.0,,,,,,,,,,1.0,1.0,,,,65c64d6115f43749efb97d68,11:06:07,05/03/2024
,"<div style=""font-size: 10rem; color: #0000FF"">C</div>",,ospan,letter,1d15vrOBIgd5yUPaa3UmC3daYvL2,html-keyboard-response,109,1457695,0.0-43.0-4.0-0.0-1.0-1.0,,,,,,,,,,,,,,,65c64d6115f43749efb97d68,11:06:07,05/03/2024
4971.0,,,ospan,symmetry,1d15vrOBIgd5yUPaa3UmC3daYvL2,symmetry-judgement-task,110,1464742,0.0-43.0-4.0-0.0-1.0-2.0,,,,,,,,,,1.0,1.0,,,,65c64d6115f43749efb97d68,11:06:07,05/03/2024
,"<div style=""font-size: 10rem; color: #0000FF"">J</div>",,ospan,letter,1d15vrOBIgd5yUPaa3UmC3daYvL2,html-keyboard-response,111,1465751,0.0-43.0-4.0-0.0-1.0-3.0,,,,,,,,,,,,,,,65c64d6115f43749efb97d68,11:06:07,05/03/2024
3293.0,,,ospan,symmetry,1d15vrOBIgd5yUPaa3UmC3daYvL2,symmetry-judgement-task,112,1471104,0.0-43.0-4.0-0.0-1.0-4.0,,,,,,,,,,1.0,1.0,,,,65c64d6115f43749efb97d68,11:06:07,05/03/2024
,"<div style=""font-size: 10rem; color: #0000FF"">L</div>",,ospan,letter,1d15vrOBIgd5yUPaa3UmC3daYvL2,html-keyboard-response,113,1472113,0.0-43.0-4.0-0.0-1.0-5.0,,,,,,,,,,,,,,,65c64d6115f43749efb97d68,11:06:07,05/03/2024
2268.0,,,ospan,symmetry,1d15vrOBIgd5yUPaa3UmC3daYvL2,symmetry-judgement-task,114,1476458,0.0-43.0-4.0-0.0-1.0-6.0,,,,,,,,,,1.0,1.0,,,,65c64d6115f43749efb97d68,11:06:07,05/03/2024
,"<div style=""font-size: 10rem; color: #0000FF"">Y</div>",,ospan,letter,1d15vrOBIgd5yUPaa3UmC3daYvL2,html-keyboard-response,115,1477469,0.0-43.0-4.0-0.0-1.0-7.0,,,,,,,,,,,,,,,65c64d6115f43749efb97d68,11:06:07,05/03/2024
5358.299999952316,"<div class = numbox><p style=""font-size: 2.4rem"">Please recall the letters you saw to the best of your ability. If you do not remember a particular letter, use the SKIP button.<br><b>(When you are ready to lock in your answer, press ENTER)</b></p><button id = button_1 class = ""square num-button"" onclick = ""recordClick(this)""><div class = content><div class = numbers>C</div></div></button><button id = button_2 class = ""square num-button"" onclick = ""recordClick(this)""><div class = content><div class = numbers>G</div></div></button><button id = button_3 class = ""square num-button"" onclick = ""recordClick(this)""><div class = content><div class = numbers>H</div></div></button><button id = button_4 class = ""square num-button"" onclick = ""recordClick(this)""><div class = content><div class = numbers>J</div></div></button><button id = button_5 class = ""square num-button"" onclick = ""recordClick(this)""><div class = content><div class = numbers>K</div></div></button><button id = button_6 class = ""square num-button"" onclick = ""recordClick(this)""><div class = content><div class = numbers>L</div></div></button><button id = button_7 class = ""square num-button"" onclick = ""recordClick(this)""><div class = content><div class = numbers>N</div></div></button><button id = button_8 class = ""square num-button"" onclick = ""recordClick(this)""><div class = content><div class = numbers>P</div></div></button><button id = button_9 class = ""square num-button"" onclick = ""recordClick(this)""><div class = content><div class = numbers>Q</div></div></button><button id = button_10 class = ""square num-button"" onclick = ""recordClick(this)""><div class = content><div class = numbers>R</div></div></button><button id = button_11 class = ""square num-button"" onclick = ""recordClick(this)""><div class = content><div class = numbers>S</div></div></button><button id = button_12 class = ""square num-button"" onclick = ""recordClick(this)""><div class = content><div class = numbers>Y</div></div></button><button class = clear_button id = ""ClearButton"" onclick = ""clearResponse()"">BACKSPACE</button><button class = blank_button id = ""BlankButton"" onclick = ""blankResponse()"">SKIP</button><p style=""font-size: 2.4rem""><u><b>Current Answer:</b></u></p><br><br><div id=echoed_txt style=""font-size: 5rem; color:blue;""><b></b></div></div>",enter,ospan,retrieval,1d15vrOBIgd5yUPaa3UmC3daYvL2,html-keyboard-response,116,1483591,0.0-43.0-4.0-0.0-2.0,7,7,7,4.0,"[""C"",""J"",""L"",""Y""]","[""C"",""J"",""L"",""Y""]",1.0,4.0,,,,,,,65c64d6115f43749efb97d68,11:06:07,05/03/2024
824.0,[''],0,ospan,feedback,1d15vrOBIgd5yUPaa3UmC3daYvL2,html-button-response,117,1484931,0.0-43.0-4.0-0.0-3.0,,,,,,,,,,,,100.0,0.0,,65c64d6115f43749efb97d68,11:06:07,05/03/2024
,"<p style=""font-size:75px;"">...</p>",,ospan,iti,1d15vrOBIgd5yUPaa3UmC3daYvL2,html-keyboard-response,118,1485935,0.0-43.0-4.0-1.0-0.0,,,,,,,,,,,,,,,65c64d6115f43749efb97d68,11:06:07,05/03/2024
3946.0,,,ospan,symmetry,1d15vrOBIgd5yUPaa3UmC3daYvL2,symmetry-judgement-task,119,1491239,0.0-43.0-4.0-1.0-1.0-0.0,,,,,,,,,,1.0,1.0,,,,65c64d6115f43749efb97d68,11:06:07,05/03/2024
,"<div style=""font-size: 10rem; color: #0000FF"">J</div>",,ospan,letter,1d15vrOBIgd5yUPaa3UmC3daYvL2,html-keyboard-response,120,1492247,0.0-43.0-4.0-1.0-1.0-1.0,,,,,,,,,,,,,,,65c64d6115f43749efb97d68,11:06:07,05/03/2024
2196.0,,,ospan,symmetry,1d15vrOBIgd5yUPaa3UmC3daYvL2,symmetry-judgement-task,121,1496559,0.0-43.0-4.0-1.0-1.0-2.0,,,,,,,,,,1.0,1.0,,,,65c64d6115f43749efb97d68,11:06:07,05/03/2024
,"<div style=""font-size: 10rem; color: #0000FF"">G</div>",,ospan,letter,1d15vrOBIgd5yUPaa3UmC3daYvL2,html-keyboard-response,122,1497570,0.0-43.0-4.0-1.0-1.0-3.0,,,,,,,,,,,,,,,65c64d6115f43749efb97d68,11:06:07,05/03/2024
1921.0,,,ospan,symmetry,1d15vrOBIgd5yUPaa3UmC3daYvL2,symmetry-judgement-task,123,1501591,0.0-43.0-4.0-1.0-1.0-4.0,,,,,,,,,,1.0,1.0,,,,65c64d6115f43749efb97d68,11:06:07,05/03/2024
,"<div style=""font-size: 10rem; color: #0000FF"">K</div>",,ospan,letter,1d15vrOBIgd5yUPaa3UmC3daYvL2,html-keyboard-response,124,1502606,0.0-43.0-4.0-1.0-1.0-5.0,,,,,,,,,,,,,,,65c64d6115f43749efb97d68,11:06:07,05/03/2024
2670.0,,,ospan,symmetry,1d15vrOBIgd5yUPaa3UmC3daYvL2,symmetry-judgement-task,125,1507383,0.0-43.0-4.0-1.0-1.0-6.0,,,,,,,,,,1.0,1.0,,,,65c64d6115f43749efb97d68,11:06:07,05/03/2024
,"<div style=""font-size: 10rem; color: #0000FF"">C</div>",,ospan,letter,1d15vrOBIgd5yUPaa3UmC3daYvL2,html-keyboard-response,126,1508387,0.0-43.0-4.0-1.0-1.0-7.0,,,,,,,,,,,,,,,65c64d6115f43749efb97d68,11:06:07,05/03/2024
2383.0,,,ospan,symmetry,1d15vrOBIgd5yUPaa3UmC3daYvL2,symmetry-judgement-task,127,1512850,0.0-43.0-4.0-1.0-1.0-8.0,,,,,,,,,,1.0,1.0,,,,65c64d6115f43749efb97d68,11:06:07,05/03/2024
,"<div style=""font-size: 10rem; color: #0000FF"">N</div>",,ospan,letter,1d15vrOBIgd5yUPaa3UmC3daYvL2,html-keyboard-response,128,1513857,0.0-43.0-4.0-1.0-1.0-9.0,,,,,,,,,,,,,,,65c64d6115f43749efb97d68,11:06:07,05/03/2024
6714.900000095367,"<div class = numbox><p style=""font-size: 2.4rem"">Please recall the letters you saw to the best of your ability. If you do not remember a particular letter, use the SKIP button.<br><b>(When you are ready to lock in your answer, press ENTER)</b></p><button id = button_1 class = ""square num-button"" onclick = ""recordClick(this)""><div class = content><div class = numbers>C</div></div></button><button id = button_2 class = ""square num-button"" onclick = ""recordClick(this)""><div class = content><div class = numbers>G</div></div></button><button id = button_3 class = ""square num-button"" onclick = ""recordClick(this)""><div class = content><div class = numbers>H</div></div></button><button id = button_4 class = ""square num-button"" onclick = ""recordClick(this)""><div class = content><div class = numbers>J</div></div></button><button id = button_5 class = ""square num-button"" onclick = ""recordClick(this)""><div class = content><div class = numbers>K</div></div></button><button id = button_6 class = ""square num-button"" onclick = ""recordClick(this)""><div class = content><div class = numbers>L</div></div></button><button id = button_7 class = ""square num-button"" onclick = ""recordClick(this)""><div class = content><div class = numbers>N</div></div></button><button id = button_8 class = ""square num-button"" onclick = ""recordClick(this)""><div class = content><div class = numbers>P</div></div></button><button id = button_9 class = ""square num-button"" onclick = ""recordClick(this)""><div class = content><div class = numbers>Q</div></div></button><button id = button_10 class = ""square num-button"" onclick = ""recordClick(this)""><div class = content><div class = numbers>R</div></div></button><button id = button_11 class = ""square num-button"" onclick = ""recordClick(this)""><div class = content><div class = numbers>S</div></div></button><button id = button_12 class = ""square num-button"" onclick = ""recordClick(this)""><div class = content><div class = numbers>Y</div></div></button><button class = clear_button id = ""ClearButton"" onclick = ""clearResponse()"">BACKSPACE</button><button class = blank_button id = ""BlankButton"" onclick = ""blankResponse()"">SKIP</button><p style=""font-size: 2.4rem""><u><b>Current Answer:</b></u></p><br><br><div id=echoed_txt style=""font-size: 5rem; color:blue;""><b></b></div></div>",enter,ospan,retrieval,1d15vrOBIgd5yUPaa3UmC3daYvL2,html-keyboard-response,129,1521324,0.0-43.0-4.0-1.0-2.0,12,12,12,5.0,"[""J"",""G"",""K"",""C"",""N""]","[""J"",""G"",""K"",""C"",""N""]",1.0,5.0,,,,,,,65c64d6115f43749efb97d68,11:06:07,05/03/2024
1333.3999998569489,[''],0,ospan,feedback,1d15vrOBIgd5yUPaa3UmC3daYvL2,html-button-response,130,1523168,0.0-43.0-4.0-1.0-3.0,,,,,,,,,,,,100.0,0.0,,65c64d6115f43749efb97d68,11:06:07,05/03/2024
,"<p style=""font-size:75px;"">...</p>",,ospan,iti,1d15vrOBIgd5yUPaa3UmC3daYvL2,html-keyboard-response,131,1524172,0.0-43.0-4.0-2.0-0.0,,,,,,,,,,,,,,,65c64d6115f43749efb97d68,11:06:07,05/03/2024
9357.0,,,ospan,symmetry,1d15vrOBIgd5yUPaa3UmC3daYvL2,symmetry-judgement-task,132,1534847,0.0-43.0-4.0-2.0-1.0-0.0,,,,,,,,,,1.0,1.0,,,,65c64d6115f43749efb97d68,11:06:07,05/03/2024
,"<div style=""font-size: 10rem; color: #0000FF"">P</div>",,ospan,letter,1d15vrOBIgd5yUPaa3UmC3daYvL2,html-keyboard-response,133,1535855,0.0-43.0-4.0-2.0-1.0-1.0,,,,,,,,,,,,,,,65c64d6115f43749efb97d68,11:06:07,05/03/2024
2505.0,,,ospan,symmetry,1d15vrOBIgd5yUPaa3UmC3daYvL2,symmetry-judgement-task,134,1540481,0.0-43.0-4.0-2.0-1.0-2.0,,,,,,,,,,1.0,1.0,,,,65c64d6115f43749efb97d68,11:06:07,05/03/2024
,"<div style=""font-size: 10rem; color: #0000FF"">J</div>",,ospan,letter,1d15vrOBIgd5yUPaa3UmC3daYvL2,html-keyboard-response,135,1541491,0.0-43.0-4.0-2.0-1.0-3.0,,,,,,,,,,,,,,,65c64d6115f43749efb97d68,11:06:07,05/03/2024
3059.0,,,ospan,symmetry,1d15vrOBIgd5yUPaa3UmC3daYvL2,symmetry-judgement-task,136,1546645,0.0-43.0-4.0-2.0-1.0-4.0,,,,,,,,,,1.0,1.0,,,,65c64d6115f43749efb97d68,11:06:07,05/03/2024
,"<div style=""font-size: 10rem; color: #0000FF"">Y</div>",,ospan,letter,1d15vrOBIgd5yUPaa3UmC3daYvL2,html-keyboard-response,137,1547657,0.0-43.0-4.0-2.0-1.0-5.0,,,,,,,,,,,,,,,65c64d6115f43749efb97d68,11:06:07,05/03/2024
4080.7999999523163,"<div class = numbox><p style=""font-size: 2.4rem"">Please recall the letters you saw to the best of your ability. If you do not remember a particular letter, use the SKIP button.<br><b>(When you are ready to lock in your answer, press ENTER)</b></p><button id = button_1 class = ""square num-button"" onclick = ""recordClick(this)""><div class = content><div class = numbers>C</div></div></button><button id = button_2 class = ""square num-button"" onclick = ""recordClick(this)""><div class = content><div class = numbers>G</div></div></button><button id = button_3 class = ""square num-button"" onclick = ""recordClick(this)""><div class = content><div class = numbers>H</div></div></button><button id = button_4 class = ""square num-button"" onclick = ""recordClick(this)""><div class = content><div class = numbers>J</div></div></button><button id = button_5 class = ""square num-button"" onclick = ""recordClick(this)""><div class = content><div class = numbers>K</div></div></button><button id = button_6 class = ""square num-button"" onclick = ""recordClick(this)""><div class = content><div class = numbers>L</div></div></button><button id = button_7 class = ""square num-button"" onclick = ""recordClick(this)""><div class = content><div class = numbers>N</div></div></button><button id = button_8 class = ""square num-button"" onclick = ""recordClick(this)""><div class = content><div class = numbers>P</div></div></button><button id = button_9 class = ""square num-button"" onclick = ""recordClick(this)""><div class = content><div class = numbers>Q</div></div></button><button id = button_10 class = ""square num-button"" onclick = ""recordClick(this)""><div class = content><div class = numbers>R</div></div></button><button id = button_11 class = ""square num-button"" onclick = ""recordClick(this)""><div class = content><div class = numbers>S</div></div></button><button id = button_12 class = ""square num-button"" onclick = ""recordClick(this)""><div class = content><div class = numbers>Y</div></div></button><button class = clear_button id = ""ClearButton"" onclick = ""clearResponse()"">BACKSPACE</button><button class = blank_button id = ""BlankButton"" onclick = ""blankResponse()"">SKIP</button><p style=""font-size: 2.4rem""><u><b>Current Answer:</b></u></p><br><br><div id=echoed_txt style=""font-size: 5rem; color:blue;""><b></b></div></div>",enter,ospan,retrieval,1d15vrOBIgd5yUPaa3UmC3daYvL2,html-keyboard-response,138,1552503,0.0-43.0-4.0-2.0-2.0,15,15,15,3.0,"[""P"",""J"",""Y""]","[""P"",""J"",""Y""]",1.0,3.0,,,,,,,65c64d6115f43749efb97d68,11:06:07,05/03/2024
1133.5,[''],0,ospan,feedback,1d15vrOBIgd5yUPaa3UmC3daYvL2,html-button-response,139,1554142,0.0-43.0-4.0-2.0-3.0,,,,,,,,,,,,100.0,0.0,,65c64d6115f43749efb97d68,11:06:07,05/03/2024
,"<p style=""font-size:75px;"">...</p>",,ospan,iti,1d15vrOBIgd5yUPaa3UmC3daYvL2,html-keyboard-response,140,1555149,0.0-43.0-5.0-0.0-0.0,,,,,,,,,,,,,,,65c64d6115f43749efb97d68,11:06:07,05/03/2024
3712.0,,,ospan,symmetry,1d15vrOBIgd5yUPaa3UmC3daYvL2,symmetry-judgement-task,141,1560139,0.0-43.0-5.0-0.0-1.0-0.0,,,,,,,,,,1.0,1.0,,,,65c64d6115f43749efb97d68,11:06:07,05/03/2024
,"<div style=""font-size: 10rem; color: #0000FF"">S</div>",,ospan,letter,1d15vrOBIgd5yUPaa3UmC3daYvL2,html-keyboard-response,142,1561148,0.0-43.0-5.0-0.0-1.0-1.0,,,,,,,,,,,,,,,65c64d6115f43749efb97d68,11:06:07,05/03/2024
1682.0,,,ospan,symmetry,1d15vrOBIgd5yUPaa3UmC3daYvL2,symmetry-judgement-task,143,1564925,0.0-43.0-5.0-0.0-1.0-2.0,,,,,,,,,,1.0,1.0,,,,65c64d6115f43749efb97d68,11:06:07,05/03/2024
,"<div style=""font-size: 10rem; color: #0000FF"">Y</div>",,ospan,letter,1d15vrOBIgd5yUPaa3UmC3daYvL2,html-keyboard-response,144,1565936,0.0-43.0-5.0-0.0-1.0-3.0,,,,,,,,,,,,,,,65c64d6115f43749efb97d68,11:06:07,05/03/2024
1801.0,,,ospan,symmetry,1d15vrOBIgd5yUPaa3UmC3daYvL2,symmetry-judgement-task,145,1569863,0.0-43.0-5.0-0.0-1.0-4.0,,,,,,,,,,1.0,1.0,,,,65c64d6115f43749efb97d68,11:06:07,05/03/2024
,"<div style=""font-size: 10rem; color: #0000FF"">N</div>",,ospan,letter,1d15vrOBIgd5yUPaa3UmC3daYvL2,html-keyboard-response,146,1570874,0.0-43.0-5.0-0.0-1.0-5.0,,,,,,,,,,,,,,,65c64d6115f43749efb97d68,11:06:07,05/03/2024
2686.0,,,ospan,symmetry,1d15vrOBIgd5yUPaa3UmC3daYvL2,symmetry-judgement-task,147,1575724,0.0-43.0-5.0-0.0-1.0-6.0,,,,,,,,,,1.0,1.0,,,,65c64d6115f43749efb97d68,11:06:07,05/03/2024
,"<div style=""font-size: 10rem; color: #0000FF"">L</div>",,ospan,letter,1d15vrOBIgd5yUPaa3UmC3daYvL2,html-keyboard-response,148,1576730,0.0-43.0-5.0-0.0-1.0-7.0,,,,,,,,,,,,,,,65c64d6115f43749efb97d68,11:06:07,05/03/2024
1861.0,,,ospan,symmetry,1d15vrOBIgd5yUPaa3UmC3daYvL2,symmetry-judgement-task,149,1580689,0.0-43.0-5.0-0.0-1.0-8.0,,,,,,,,,,1.0,1.0,,,,65c64d6115f43749efb97d68,11:06:07,05/03/2024
,"<div style=""font-size: 10rem; color: #0000FF"">C</div>",,ospan,letter,1d15vrOBIgd5yUPaa3UmC3daYvL2,html-keyboard-response,150,1581704,0.0-43.0-5.0-0.0-1.0-9.0,,,,,,,,,,,,,,,65c64d6115f43749efb97d68,11:06:07,05/03/2024
1920.0,,,ospan,symmetry,1d15vrOBIgd5yUPaa3UmC3daYvL2,symmetry-judgement-task,151,1585749,0.0-43.0-5.0-0.0-1.0-10.0,,,,,,,,,,1.0,1.0,,,,65c64d6115f43749efb97d68,11:06:07,05/03/2024
,"<div style=""font-size: 10rem; color: #0000FF"">R</div>",,ospan,letter,1d15vrOBIgd5yUPaa3UmC3daYvL2,html-keyboard-response,152,1586754,0.0-43.0-5.0-0.0-1.0-11.0,,,,,,,,,,,,,,,65c64d6115f43749efb97d68,11:06:07,05/03/2024
10215.0,"<div class = numbox><p style=""font-size: 2.4rem"">Please recall the letters you saw to the best of your ability. If you do not remember a particular letter, use the SKIP button.<br><b>(When you are ready to lock in your answer, press ENTER)</b></p><button id = button_1 class = ""square num-button"" onclick = ""recordClick(this)""><div class = content><div class = numbers>C</div></div></button><button id = button_2 class = ""square num-button"" onclick = ""recordClick(this)""><div class = content><div class = numbers>G</div></div></button><button id = button_3 class = ""square num-button"" onclick = ""recordClick(this)""><div class = content><div class = numbers>H</div></div></button><button id = button_4 class = ""square num-button"" onclick = ""recordClick(this)""><div class = content><div class = numbers>J</div></div></button><button id = button_5 class = ""square num-button"" onclick = ""recordClick(this)""><div class = content><div class = numbers>K</div></div></button><button id = button_6 class = ""square num-button"" onclick = ""recordClick(this)""><div class = content><div class = numbers>L</div></div></button><button id = button_7 class = ""square num-button"" onclick = ""recordClick(this)""><div class = content><div class = numbers>N</div></div></button><button id = button_8 class = ""square num-button"" onclick = ""recordClick(this)""><div class = content><div class = numbers>P</div></div></button><button id = button_9 class = ""square num-button"" onclick = ""recordClick(this)""><div class = content><div class = numbers>Q</div></div></button><button id = button_10 class = ""square num-button"" onclick = ""recordClick(this)""><div class = content><div class = numbers>R</div></div></button><button id = button_11 class = ""square num-button"" onclick = ""recordClick(this)""><div class = content><div class = numbers>S</div></div></button><button id = button_12 class = ""square num-button"" onclick = ""recordClick(this)""><div class = content><div class = numbers>Y</div></div></button><button class = clear_button id = ""ClearButton"" onclick = ""clearResponse()"">BACKSPACE</button><button class = blank_button id = ""BlankButton"" onclick = ""blankResponse()"">SKIP</button><p style=""font-size: 2.4rem""><u><b>Current Answer:</b></u></p><br><br><div id=echoed_txt style=""font-size: 5rem; color:blue;""><b></b></div></div>",enter,ospan,retrieval,1d15vrOBIgd5yUPaa3UmC3daYvL2,html-keyboard-response,153,1597722,0.0-43.0-5.0-0.0-2.0,21,21,21,6.0,"[""S"",""Y"",""N"",""L"",""C"",""R""]","[""S"",""Y"",""N"",""L"",""C"",""R""]",1.0,6.0,,,,,,,65c64d6115f43749efb97d68,11:06:07,05/03/2024
1971.5,[''],0,ospan,feedback,1d15vrOBIgd5yUPaa3UmC3daYvL2,html-button-response,154,1600205,0.0-43.0-5.0-0.0-3.0,,,,,,,,,,,,100.0,0.0,,65c64d6115f43749efb97d68,11:06:07,05/03/2024
,"<p style=""font-size:75px;"">...</p>",,ospan,iti,1d15vrOBIgd5yUPaa3UmC3daYvL2,html-keyboard-response,155,1601209,0.0-43.0-5.0-1.0-0.0,,,,,,,,,,,,,,,65c64d6115f43749efb97d68,11:06:07,05/03/2024
3378.0,,,ospan,symmetry,1d15vrOBIgd5yUPaa3UmC3daYvL2,symmetry-judgement-task,156,1605961,0.0-43.0-5.0-1.0-1.0-0.0,,,,,,,,,,1.0,1.0,,,,65c64d6115f43749efb97d68,11:06:07,05/03/2024
,"<div style=""font-size: 10rem; color: #0000FF"">H</div>",,ospan,letter,1d15vrOBIgd5yUPaa3UmC3daYvL2,html-keyboard-response,157,1606973,0.0-43.0-5.0-1.0-1.0-1.0,,,,,,,,,,,,,,,65c64d6115f43749efb97d68,11:06:07,05/03/2024
1429.0,,,ospan,symmetry,1d15vrOBIgd5yUPaa3UmC3daYvL2,symmetry-judgement-task,158,1610470,0.0-43.0-5.0-1.0-1.0-2.0,,,,,,,,,,1.0,1.0,,,,65c64d6115f43749efb97d68,11:06:07,05/03/2024
,"<div style=""font-size: 10rem; color: #0000FF"">S</div>",,ospan,letter,1d15vrOBIgd5yUPaa3UmC3daYvL2,html-keyboard-response,159,1611482,0.0-43.0-5.0-1.0-1.0-3.0,,,,,,,,,,,,,,,65c64d6115f43749efb97d68,11:06:07,05/03/2024
3059.0,,,ospan,symmetry,1d15vrOBIgd5yUPaa3UmC3daYvL2,symmetry-judgement-task,160,1616584,0.0-43.0-5.0-1.0-1.0-4.0,,,,,,,,,,1.0,1.0,,,,65c64d6115f43749efb97d68,11:06:07,05/03/2024
,"<div style=""font-size: 10rem; color: #0000FF"">K</div>",,ospan,letter,1d15vrOBIgd5yUPaa3UmC3daYvL2,html-keyboard-response,161,1617597,0.0-43.0-5.0-1.0-1.0-5.0,,,,,,,,,,,,,,,65c64d6115f43749efb97d68,11:06:07,05/03/2024
1901.0,,,ospan,symmetry,1d15vrOBIgd5yUPaa3UmC3daYvL2,symmetry-judgement-task,162,1621641,0.0-43.0-5.0-1.0-1.0-6.0,,,,,,,,,,1.0,1.0,,,,65c64d6115f43749efb97d68,11:06:07,05/03/2024
,"<div style=""font-size: 10rem; color: #0000FF"">Y</div>",,ospan,letter,1d15vrOBIgd5yUPaa3UmC3daYvL2,html-keyboard-response,163,1622654,0.0-43.0-5.0-1.0-1.0-7.0,,,,,,,,,,,,,,,65c64d6115f43749efb97d68,11:06:07,05/03/2024
3084.0,,,ospan,symmetry,1d15vrOBIgd5yUPaa3UmC3daYvL2,symmetry-judgement-task,164,1627818,0.0-43.0-5.0-1.0-1.0-8.0,,,,,,,,,,1.0,1.0,,,,65c64d6115f43749efb97d68,11:06:07,05/03/2024
,"<div style=""font-size: 10rem; color: #0000FF"">N</div>",,ospan,letter,1d15vrOBIgd5yUPaa3UmC3daYvL2,html-keyboard-response,165,1628826,0.0-43.0-5.0-1.0-1.0-9.0,,,,,,,,,,,,,,,65c64d6115f43749efb97d68,11:06:07,05/03/2024
4158.0,,,ospan,symmetry,1d15vrOBIgd5yUPaa3UmC3daYvL2,symmetry-judgement-task,166,1635103,0.0-43.0-5.0-1.0-1.0-10.0,,,,,,,,,,1.0,1.0,,,,65c64d6115f43749efb97d68,11:06:07,05/03/2024
,"<div style=""font-size: 10rem; color: #0000FF"">Q</div>",,ospan,letter,1d15vrOBIgd5yUPaa3UmC3daYvL2,html-keyboard-response,167,1636114,0.0-43.0-5.0-1.0-1.0-11.0,,,,,,,,,,,,,,,65c64d6115f43749efb97d68,11:06:07,05/03/2024
2097.0,,,ospan,symmetry,1d15vrOBIgd5yUPaa3UmC3daYvL2,symmetry-judgement-task,168,1640357,0.0-43.0-5.0-1.0-1.0-12.0,,,,,,,,,,1.0,1.0,,,,65c64d6115f43749efb97d68,11:06:07,05/03/2024
,"<div style=""font-size: 10rem; color: #0000FF"">L</div>",,ospan,letter,1d15vrOBIgd5yUPaa3UmC3daYvL2,html-keyboard-response,169,1641365,0.0-43.0-5.0-1.0-1.0-13.0,,,,,,,,,,,,,,,65c64d6115f43749efb97d68,11:06:07,05/03/2024
8694.699999809265,"<div class = numbox><p style=""font-size: 2.4rem"">Please recall the letters you saw to the best of your ability. If you do not remember a particular letter, use the SKIP button.<br><b>(When you are ready to lock in your answer, press ENTER)</b></p><button id = button_1 class = ""square num-button"" onclick = ""recordClick(this)""><div class = content><div class = numbers>C</div></div></button><button id = button_2 class = ""square num-button"" onclick = ""recordClick(this)""><div class = content><div class = numbers>G</div></div></button><button id = button_3 class = ""square num-button"" onclick = ""recordClick(this)""><div class = content><div class = numbers>H</div></div></button><button id = button_4 class = ""square num-button"" onclick = ""recordClick(this)""><div class = content><div class = numbers>J</div></div></button><button id = button_5 class = ""square num-button"" onclick = ""recordClick(this)""><div class = content><div class = numbers>K</div></div></button><button id = button_6 class = ""square num-button"" onclick = ""recordClick(this)""><div class = content><div class = numbers>L</div></div></button><button id = button_7 class = ""square num-button"" onclick = ""recordClick(this)""><div class = content><div class = numbers>N</div></div></button><button id = button_8 class = ""square num-button"" onclick = ""recordClick(this)""><div class = content><div class = numbers>P</div></div></button><button id = button_9 class = ""square num-button"" onclick = ""recordClick(this)""><div class = content><div class = numbers>Q</div></div></button><button id = button_10 class = ""square num-button"" onclick = ""recordClick(this)""><div class = content><div class = numbers>R</div></div></button><button id = button_11 class = ""square num-button"" onclick = ""recordClick(this)""><div class = content><div class = numbers>S</div></div></button><button id = button_12 class = ""square num-button"" onclick = ""recordClick(this)""><div class = content><div class = numbers>Y</div></div></button><button class = clear_button id = ""ClearButton"" onclick = ""clearResponse()"">BACKSPACE</button><button class = blank_button id = ""BlankButton"" onclick = ""blankResponse()"">SKIP</button><p style=""font-size: 2.4rem""><u><b>Current Answer:</b></u></p><br><br><div id=echoed_txt style=""font-size: 5rem; color:blue;""><b></b></div></div>",enter,ospan,retrieval,1d15vrOBIgd5yUPaa3UmC3daYvL2,html-keyboard-response,170,1650813,0.0-43.0-5.0-1.0-2.0,28,25,21,7.0,"[""H"",""S"",""K"",""N"",""Y"",""Q""]","[""H"",""S"",""K"",""Y"",""N"",""Q"",""L""]",0.0,4.0,,,,,,,65c64d6115f43749efb97d68,11:06:07,05/03/2024
1345.7000000476837,[''],0,ospan,feedback,1d15vrOBIgd5yUPaa3UmC3daYvL2,html-button-response,171,1652668,0.0-43.0-5.0-1.0-3.0,,,,,,,,,,,,100.0,0.0,,65c64d6115f43749efb97d68,11:06:07,05/03/2024
,"<p style=""font-size:75px;"">...</p>",,ospan,iti,1d15vrOBIgd5yUPaa3UmC3daYvL2,html-keyboard-response,172,1653682,0.0-43.0-6.0-0.0-0.0,,,,,,,,,,,,,,,65c64d6115f43749efb97d68,11:06:07,05/03/2024
4283.0,,,ospan,symmetry,1d15vrOBIgd5yUPaa3UmC3daYvL2,symmetry-judgement-task,173,1659279,0.0-43.0-6.0-0.0-1.0-0.0,,,,,,,,,,1.0,1.0,,,,65c64d6115f43749efb97d68,11:06:07,05/03/2024
,"<div style=""font-size: 10rem; color: #0000FF"">C</div>",,ospan,letter,1d15vrOBIgd5yUPaa3UmC3daYvL2,html-keyboard-response,174,1660291,0.0-43.0-6.0-0.0-1.0-1.0,,,,,,,,,,,,,,,65c64d6115f43749efb97d68,11:06:07,05/03/2024
2636.0,,,ospan,symmetry,1d15vrOBIgd5yUPaa3UmC3daYvL2,symmetry-judgement-task,175,1665010,0.0-43.0-6.0-0.0-1.0-2.0,,,,,,,,,,1.0,1.0,,,,65c64d6115f43749efb97d68,11:06:07,05/03/2024
,"<div style=""font-size: 10rem; color: #0000FF"">H</div>",,ospan,letter,1d15vrOBIgd5yUPaa3UmC3daYvL2,html-keyboard-response,176,1666019,0.0-43.0-6.0-0.0-1.0-3.0,,,,,,,,,,,,,,,65c64d6115f43749efb97d68,11:06:07,05/03/2024
1679.0,,,ospan,symmetry,1d15vrOBIgd5yUPaa3UmC3daYvL2,symmetry-judgement-task,177,1669742,0.0-43.0-6.0-0.0-1.0-4.0,,,,,,,,,,1.0,1.0,,,,65c64d6115f43749efb97d68,11:06:07,05/03/2024
,"<div style=""font-size: 10rem; color: #0000FF"">P</div>",,ospan,letter,1d15vrOBIgd5yUPaa3UmC3daYvL2,html-keyboard-response,178,1670753,0.0-43.0-6.0-0.0-1.0-5.0,,,,,,,,,,,,,,,65c64d6115f43749efb97d68,11:06:07,05/03/2024
2225.0,,,ospan,symmetry,1d15vrOBIgd5yUPaa3UmC3daYvL2,symmetry-judgement-task,179,1675055,0.0-43.0-6.0-0.0-1.0-6.0,,,,,,,,,,1.0,1.0,,,,65c64d6115f43749efb97d68,11:06:07,05/03/2024
,"<div style=""font-size: 10rem; color: #0000FF"">K</div>",,ospan,letter,1d15vrOBIgd5yUPaa3UmC3daYvL2,html-keyboard-response,180,1676062,0.0-43.0-6.0-0.0-1.0-7.0,,,,,,,,,,,,,,,65c64d6115f43749efb97d68,11:06:07,05/03/2024
7979.0,,,ospan,symmetry,1d15vrOBIgd5yUPaa3UmC3daYvL2,symmetry-judgement-task,181,1686165,0.0-43.0-6.0-0.0-1.0-8.0,,,,,,,,,,0.0,0.0,,,,65c64d6115f43749efb97d68,11:06:07,05/03/2024
,"<div style=""font-size: 10rem; color: #0000FF"">S</div>",,ospan,letter,1d15vrOBIgd5yUPaa3UmC3daYvL2,html-keyboard-response,182,1687170,0.0-43.0-6.0-0.0-1.0-9.0,,,,,,,,,,,,,,,65c64d6115f43749efb97d68,11:06:07,05/03/2024
6798.599999904633,"<div class = numbox><p style=""font-size: 2.4rem"">Please recall the letters you saw to the best of your ability. If you do not remember a particular letter, use the SKIP button.<br><b>(When you are ready to lock in your answer, press ENTER)</b></p><button id = button_1 class = ""square num-button"" onclick = ""recordClick(this)""><div class = content><div class = numbers>C</div></div></button><button id = button_2 class = ""square num-button"" onclick = ""recordClick(this)""><div class = content><div class = numbers>G</div></div></button><button id = button_3 class = ""square num-button"" onclick = ""recordClick(this)""><div class = content><div class = numbers>H</div></div></button><button id = button_4 class = ""square num-button"" onclick = ""recordClick(this)""><div class = content><div class = numbers>J</div></div></button><button id = button_5 class = ""square num-button"" onclick = ""recordClick(this)""><div class = content><div class = numbers>K</div></div></button><button id = button_6 class = ""square num-button"" onclick = ""recordClick(this)""><div class = content><div class = numbers>L</div></div></button><button id = button_7 class = ""square num-button"" onclick = ""recordClick(this)""><div class = content><div class = numbers>N</div></div></button><button id = button_8 class = ""square num-button"" onclick = ""recordClick(this)""><div class = content><div class = numbers>P</div></div></button><button id = button_9 class = ""square num-button"" onclick = ""recordClick(this)""><div class = content><div class = numbers>Q</div></div></button><button id = button_10 class = ""square num-button"" onclick = ""recordClick(this)""><div class = content><div class = numbers>R</div></div></button><button id = button_11 class = ""square num-button"" onclick = ""recordClick(this)""><div class = content><div class = numbers>S</div></div></button><button id = button_12 class = ""square num-button"" onclick = ""recordClick(this)""><div class = content><div class = numbers>Y</div></div></button><button class = clear_button id = ""ClearButton"" onclick = ""clearResponse()"">BACKSPACE</button><button class = blank_button id = ""BlankButton"" onclick = ""blankResponse()"">SKIP</button><p style=""font-size: 2.4rem""><u><b>Current Answer:</b></u></p><br><br><div id=echoed_txt style=""font-size: 5rem; color:blue;""><b></b></div></div>",enter,ospan,retrieval,1d15vrOBIgd5yUPaa3UmC3daYvL2,html-keyboard-response,183,1694728,0.0-43.0-6.0-0.0-2.0,33,30,26,5.0,"[""C"",""H"",""P"",""K"",""S""]","[""C"",""H"",""P"",""K"",""S""]",1.0,5.0,,,,,,,65c64d6115f43749efb97d68,11:06:07,05/03/2024
1056.0,[''],0,ospan,feedback,1d15vrOBIgd5yUPaa3UmC3daYvL2,html-button-response,184,1696288,0.0-43.0-6.0-0.0-3.0,,,,,,,,,,,,97.0,0.0,,65c64d6115f43749efb97d68,11:06:07,05/03/2024
,"<p style=""font-size:75px;"">...</p>",,ospan,iti,1d15vrOBIgd5yUPaa3UmC3daYvL2,html-keyboard-response,185,1697294,0.0-43.0-6.0-1.0-0.0,,,,,,,,,,,,,,,65c64d6115f43749efb97d68,11:06:07,05/03/2024
4608.0,,,ospan,symmetry,1d15vrOBIgd5yUPaa3UmC3daYvL2,symmetry-judgement-task,186,1703302,0.0-43.0-6.0-1.0-1.0-0.0,,,,,,,,,,1.0,1.0,,,,65c64d6115f43749efb97d68,11:06:07,05/03/2024
,"<div style=""font-size: 10rem; color: #0000FF"">H</div>",,ospan,letter,1d15vrOBIgd5yUPaa3UmC3daYvL2,html-keyboard-response,187,1704308,0.0-43.0-6.0-1.0-1.0-1.0,,,,,,,,,,,,,,,65c64d6115f43749efb97d68,11:06:07,05/03/2024
1544.0,,,ospan,symmetry,1d15vrOBIgd5yUPaa3UmC3daYvL2,symmetry-judgement-task,188,1707902,0.0-43.0-6.0-1.0-1.0-2.0,,,,,,,,,,1.0,1.0,,,,65c64d6115f43749efb97d68,11:06:07,05/03/2024
,"<div style=""font-size: 10rem; color: #0000FF"">G</div>",,ospan,letter,1d15vrOBIgd5yUPaa3UmC3daYvL2,html-keyboard-response,189,1708917,0.0-43.0-6.0-1.0-1.0-3.0,,,,,,,,,,,,,,,65c64d6115f43749efb97d68,11:06:07,05/03/2024
2114.0,,,ospan,symmetry,1d15vrOBIgd5yUPaa3UmC3daYvL2,symmetry-judgement-task,190,1713124,0.0-43.0-6.0-1.0-1.0-4.0,,,,,,,,,,1.0,1.0,,,,65c64d6115f43749efb97d68,11:06:07,05/03/2024
,"<div style=""font-size: 10rem; color: #0000FF"">R</div>",,ospan,letter,1d15vrOBIgd5yUPaa3UmC3daYvL2,html-keyboard-response,191,1714134,0.0-43.0-6.0-1.0-1.0-5.0,,,,,,,,,,,,,,,65c64d6115f43749efb97d68,11:06:07,05/03/2024
5055.0,,,ospan,symmetry,1d15vrOBIgd5yUPaa3UmC3daYvL2,symmetry-judgement-task,192,1721304,0.0-43.0-6.0-1.0-1.0-6.0,,,,,,,,,,1.0,1.0,,,,65c64d6115f43749efb97d68,11:06:07,05/03/2024
,"<div style=""font-size: 10rem; color: #0000FF"">P</div>",,ospan,letter,1d15vrOBIgd5yUPaa3UmC3daYvL2,html-keyboard-response,193,1722314,0.0-43.0-6.0-1.0-1.0-7.0,,,,,,,,,,,,,,,65c64d6115f43749efb97d68,11:06:07,05/03/2024
2599.0,,,ospan,symmetry,1d15vrOBIgd5yUPaa3UmC3daYvL2,symmetry-judgement-task,194,1726965,0.0-43.0-6.0-1.0-1.0-8.0,,,,,,,,,,1.0,1.0,,,,65c64d6115f43749efb97d68,11:06:07,05/03/2024
,"<div style=""font-size: 10rem; color: #0000FF"">J</div>",,ospan,letter,1d15vrOBIgd5yUPaa3UmC3daYvL2,html-keyboard-response,195,1727970,0.0-43.0-6.0-1.0-1.0-9.0,,,,,,,,,,,,,,,65c64d6115f43749efb97d68,11:06:07,05/03/2024
2314.0,,,ospan,symmetry,1d15vrOBIgd5yUPaa3UmC3daYvL2,symmetry-judgement-task,196,1732394,0.0-43.0-6.0-1.0-1.0-10.0,,,,,,,,,,1.0,1.0,,,,65c64d6115f43749efb97d68,11:06:07,05/03/2024
,"<div style=""font-size: 10rem; color: #0000FF"">L</div>",,ospan,letter,1d15vrOBIgd5yUPaa3UmC3daYvL2,html-keyboard-response,197,1733400,0.0-43.0-6.0-1.0-1.0-11.0,,,,,,,,,,,,,,,65c64d6115f43749efb97d68,11:06:07,05/03/2024
3726.0,,,ospan,symmetry,1d15vrOBIgd5yUPaa3UmC3daYvL2,symmetry-judgement-task,198,1739156,0.0-43.0-6.0-1.0-1.0-12.0,,,,,,,,,,1.0,1.0,,,,65c64d6115f43749efb97d68,11:06:07,05/03/2024
,"<div style=""font-size: 10rem; color: #0000FF"">K</div>",,ospan,letter,1d15vrOBIgd5yUPaa3UmC3daYvL2,html-keyboard-response,199,1740158,0.0-43.0-6.0-1.0-1.0-13.0,,,,,,,,,,,,,,,65c64d6115f43749efb97d68,11:06:07,05/03/2024
1391.0,,,ospan,symmetry,1d15vrOBIgd5yUPaa3UmC3daYvL2,symmetry-judgement-task,200,1743700,0.0-43.0-6.0-1.0-1.0-14.0,,,,,,,,,,0.0,0.0,,,,65c64d6115f43749efb97d68,11:06:07,05/03/2024
,"<div style=""font-size: 10rem; color: #0000FF"">C</div>",,ospan,letter,1d15vrOBIgd5yUPaa3UmC3daYvL2,html-keyboard-response,201,1744702,0.0-43.0-6.0-1.0-1.0-15.0,,,,,,,,,,,,,,,65c64d6115f43749efb97d68,11:06:07,05/03/2024
14441.199999809265,"<div class = numbox><p style=""font-size: 2.4rem"">Please recall the letters you saw to the best of your ability. If you do not remember a particular letter, use the SKIP button.<br><b>(When you are ready to lock in your answer, press ENTER)</b></p><button id = button_1 class = ""square num-button"" onclick = ""recordClick(this)""><div class = content><div class = numbers>C</div></div></button><button id = button_2 class = ""square num-button"" onclick = ""recordClick(this)""><div class = content><div class = numbers>G</div></div></button><button id = button_3 class = ""square num-button"" onclick = ""recordClick(this)""><div class = content><div class = numbers>H</div></div></button><button id = button_4 class = ""square num-button"" onclick = ""recordClick(this)""><div class = content><div class = numbers>J</div></div></button><button id = button_5 class = ""square num-button"" onclick = ""recordClick(this)""><div class = content><div class = numbers>K</div></div></button><button id = button_6 class = ""square num-button"" onclick = ""recordClick(this)""><div class = content><div class = numbers>L</div></div></button><button id = button_7 class = ""square num-button"" onclick = ""recordClick(this)""><div class = content><div class = numbers>N</div></div></button><button id = button_8 class = ""square num-button"" onclick = ""recordClick(this)""><div class = content><div class = numbers>P</div></div></button><button id = button_9 class = ""square num-button"" onclick = ""recordClick(this)""><div class = content><div class = numbers>Q</div></div></button><button id = button_10 class = ""square num-button"" onclick = ""recordClick(this)""><div class = content><div class = numbers>R</div></div></button><button id = button_11 class = ""square num-button"" onclick = ""recordClick(this)""><div class = content><div class = numbers>S</div></div></button><button id = button_12 class = ""square num-button"" onclick = ""recordClick(this)""><div class = content><div class = numbers>Y</div></div></button><button class = clear_button id = ""ClearButton"" onclick = ""clearResponse()"">BACKSPACE</button><button class = blank_button id = ""BlankButton"" onclick = ""blankResponse()"">SKIP</button><p style=""font-size: 2.4rem""><u><b>Current Answer:</b></u></p><br><br><div id=echoed_txt style=""font-size: 5rem; color:blue;""><b></b></div></div>",enter,ospan,retrieval,1d15vrOBIgd5yUPaa3UmC3daYvL2,html-keyboard-response,202,1759897,0.0-43.0-6.0-1.0-2.0,41,36,26,8.0,"[""H"",""P"",""R"",""P"",""J"",""L"",""K"",""_""]","[""H"",""G"",""R"",""P"",""J"",""L"",""K"",""C""]",0.0,6.0,,,,,,,65c64d6115f43749efb97d68,11:06:07,05/03/2024
1523.7000000476837,[''],0,ospan,feedback,1d15vrOBIgd5yUPaa3UmC3daYvL2,html-button-response,203,1761926,0.0-43.0-6.0-1.0-3.0,,,,,,,,,,,,95.0,0.0,,65c64d6115f43749efb97d68,11:06:07,05/03/2024
7873.5,,{'Q0': 'no comment'},ospan,survey_ospan,1d15vrOBIgd5yUPaa3UmC3daYvL2,lmdlab-survey-text,204,1770565,0.0-43.0-7.0,,,,,,,,,,,,,,1d15vrOBIgd5yUPaa3UmC3daYvL2,65c64d6115f43749efb97d68,11:06:07,05/03/2024
2797.800000190735,<p><p style='font-size: 3rem'>Great work!<br><br>This completes the symmetry and memory task.</p><br><br><br>,0,ospan,finish,1d15vrOBIgd5yUPaa3UmC3daYvL2,html-button-response,205,1773370,0.0-43.0-8.0,41,36,26,,,,,,,,,95.0,,,65c64d6115f43749efb97d68,11:06:07,05/03/2024
