rt,stimulus,response,exp_name,exp_stage,subjectID,trial_type,trial_index,time_elapsed,internal_node_id,ospan_shown,ospan_total,ospan_abs,length,resp_actual,resp_correct,full_correct,num_correct,feedback,accuracy,correct,math_acc,math_warning,databaseID,prolificID,start_time,date
8792.800000071526,<div class = 'left_align' style='font-size: 3.25rem; line-height: 1.3;'><p class = 'center_align'><b>Welcome to the Symmetry and Memory Task</b><br><br><br><br></p>Press 'continue' to show the instructions.<br><br><br><br></div>,0,ospan,instruct,3UMG47G6CWeflJDOUUzu20nwImc2,html-button-response,54,954346,0.0-46.0-0.0-0.0-0.0,,,,,,,,,,,,,,,659817d80a3213cd1b4dced3,14:18:04,03/04/2024
29113.0,"<div class = 'left_align' style='font-size: 3.25rem; line-height: 1.3;'><p class = 'center_align'><b>Symmetry and Memory Task</b><br><br></p>In this task, you will try to memorize letters you see on the screen<br>while you also view black and white grid pictures.<br><br>In the next few minutes, you will have some practice to get you familiar<br>with how the task works.<br><br>It may be difficult sometimes, but please do not worry about making mistakes!<br><br>We will begin by practicing the letter part of the task.<br><br><br><br></div>",0,ospan,instruct,3UMG47G6CWeflJDOUUzu20nwImc2,html-button-response,55,983716,0.0-46.0-0.0-0.0-1.0,,,,,,,,,,,,,,,659817d80a3213cd1b4dced3,14:18:04,03/04/2024
28946.700000047684,"<div class = 'left_align' style='font-size: 3.25rem; line-height: 1.3;'>For this practice part, letters will appear on the screen one at a time.<br><br>Try to remember each letter in the order presented.<br><br>After some letters have been shown, you will see a response screen. Your<br>goal is to report the letters you saw <b>in order</b>. If you do not remember<br>a particular letter, you will have the option to leave it blank.<br><br><br><br></div>",0,ospan,instruct,3UMG47G6CWeflJDOUUzu20nwImc2,html-button-response,56,1012932,0.0-46.0-0.0-0.0-2.0,,,,,,,,,,,,,,,659817d80a3213cd1b4dced3,14:18:04,03/04/2024
13504.700000047684,"<div class = 'left_align' style='font-size: 3.25rem; line-height: 1.3;'>Remember, it is very important to get the letters in the same<br>order as you see them.<br><br>When you are ready, you may begin the letter practice.</div><br><br><br><br>",0,ospan,instruct,3UMG47G6CWeflJDOUUzu20nwImc2,html-button-response,57,1026708,0.0-46.0-0.0-0.0-3.0,,,,,,,,,,,,,,,659817d80a3213cd1b4dced3,14:18:04,03/04/2024
,"<p style=""font-size:75px;"">...</p>",,ospan,iti,3UMG47G6CWeflJDOUUzu20nwImc2,html-keyboard-response,58,1027979,0.0-46.0-0.0-1.0-0.0,,,,,,,,,,,,,,,659817d80a3213cd1b4dced3,14:18:04,03/04/2024
,"<div style=""font-size: 10rem; color: #0000FF"">C</div>",,ospan,letter,3UMG47G6CWeflJDOUUzu20nwImc2,html-keyboard-response,59,1028987,0.0-46.0-0.0-1.0-1.0,,,,,,,,,,,,,,,659817d80a3213cd1b4dced3,14:18:04,03/04/2024
,"<div style=""font-size: 10rem; color: #0000FF"">R</div>",,ospan,letter,3UMG47G6CWeflJDOUUzu20nwImc2,html-keyboard-response,60,1030752,0.0-46.0-0.0-1.0-2.0,,,,,,,,,,,,,,,659817d80a3213cd1b4dced3,14:18:04,03/04/2024
18621.700000047684,"<div class = numbox><p style=""font-size: 2.4rem"">Please recall the letters you saw to the best of your ability. If you do not remember a particular letter, use the SKIP button.<br><b>(When you are ready to lock in your answer, press ENTER)</b></p><button id = button_1 class = ""square num-button"" onclick = ""recordClick(this)""><div class = content><div class = numbers>C</div></div></button><button id = button_2 class = ""square num-button"" onclick = ""recordClick(this)""><div class = content><div class = numbers>G</div></div></button><button id = button_3 class = ""square num-button"" onclick = ""recordClick(this)""><div class = content><div class = numbers>H</div></div></button><button id = button_4 class = ""square num-button"" onclick = ""recordClick(this)""><div class = content><div class = numbers>J</div></div></button><button id = button_5 class = ""square num-button"" onclick = ""recordClick(this)""><div class = content><div class = numbers>K</div></div></button><button id = button_6 class = ""square num-button"" onclick = ""recordClick(this)""><div class = content><div class = numbers>L</div></div></button><button id = button_7 class = ""square num-button"" onclick = ""recordClick(this)""><div class = content><div class = numbers>N</div></div></button><button id = button_8 class = ""square num-button"" onclick = ""recordClick(this)""><div class = content><div class = numbers>P</div></div></button><button id = button_9 class = ""square num-button"" onclick = ""recordClick(this)""><div class = content><div class = numbers>Q</div></div></button><button id = button_10 class = ""square num-button"" onclick = ""recordClick(this)""><div class = content><div class = numbers>R</div></div></button><button id = button_11 class = ""square num-button"" onclick = ""recordClick(this)""><div class = content><div class = numbers>S</div></div></button><button id = button_12 class = ""square num-button"" onclick = ""recordClick(this)""><div class = content><div class = numbers>Y</div></div></button><button class = clear_button id = ""ClearButton"" onclick = ""clearResponse()"">BACKSPACE</button><button class = blank_button id = ""BlankButton"" onclick = ""blankResponse()"">SKIP</button><p style=""font-size: 2.4rem""><u><b>Current Answer:</b></u></p><br><br><div id=echoed_txt style=""font-size: 5rem; color:blue;""><b></b></div></div>",enter,ospan,retrieval,3UMG47G6CWeflJDOUUzu20nwImc2,html-keyboard-response,61,1050133,0.0-46.0-0.0-1.0-3.0,NA,NA,NA,2.0,"[""C"",""R""]","[""C"",""R""]",1.0,2.0,"['<font color=""green"">C</font>', '<font color=""green"">R</font>']",,,,,,659817d80a3213cd1b4dced3,14:18:04,03/04/2024
4406.799999952316,"['<p style=""font-size:44px"">Letters:<br><br><br><font color=""green"">C</font> <font color=""green"">R</font></p><br><br>']",0,ospan,practice_feedback,3UMG47G6CWeflJDOUUzu20nwImc2,html-button-response,62,1055058,0.0-46.0-0.0-1.0-4.0,,,,,,,,,,,,,,,659817d80a3213cd1b4dced3,14:18:04,03/04/2024
,"<p style=""font-size:75px;"">...</p>",,ospan,iti,3UMG47G6CWeflJDOUUzu20nwImc2,html-keyboard-response,63,1056068,0.0-46.0-0.0-2.0-0.0,,,,,,,,,,,,,,,659817d80a3213cd1b4dced3,14:18:04,03/04/2024
,"<div style=""font-size: 10rem; color: #0000FF"">H</div>",,ospan,letter,3UMG47G6CWeflJDOUUzu20nwImc2,html-keyboard-response,64,1057085,0.0-46.0-0.0-2.0-1.0,,,,,,,,,,,,,,,659817d80a3213cd1b4dced3,14:18:04,03/04/2024
,"<div style=""font-size: 10rem; color: #0000FF"">N</div>",,ospan,letter,3UMG47G6CWeflJDOUUzu20nwImc2,html-keyboard-response,65,1058861,0.0-46.0-0.0-2.0-2.0,,,,,,,,,,,,,,,659817d80a3213cd1b4dced3,14:18:04,03/04/2024
,"<div style=""font-size: 10rem; color: #0000FF"">G</div>",,ospan,letter,3UMG47G6CWeflJDOUUzu20nwImc2,html-keyboard-response,66,1060627,0.0-46.0-0.0-2.0-3.0,,,,,,,,,,,,,,,659817d80a3213cd1b4dced3,14:18:04,03/04/2024
11139.299999952316,"<div class = numbox><p style=""font-size: 2.4rem"">Please recall the letters you saw to the best of your ability. If you do not remember a particular letter, use the SKIP button.<br><b>(When you are ready to lock in your answer, press ENTER)</b></p><button id = button_1 class = ""square num-button"" onclick = ""recordClick(this)""><div class = content><div class = numbers>C</div></div></button><button id = button_2 class = ""square num-button"" onclick = ""recordClick(this)""><div class = content><div class = numbers>G</div></div></button><button id = button_3 class = ""square num-button"" onclick = ""recordClick(this)""><div class = content><div class = numbers>H</div></div></button><button id = button_4 class = ""square num-button"" onclick = ""recordClick(this)""><div class = content><div class = numbers>J</div></div></button><button id = button_5 class = ""square num-button"" onclick = ""recordClick(this)""><div class = content><div class = numbers>K</div></div></button><button id = button_6 class = ""square num-button"" onclick = ""recordClick(this)""><div class = content><div class = numbers>L</div></div></button><button id = button_7 class = ""square num-button"" onclick = ""recordClick(this)""><div class = content><div class = numbers>N</div></div></button><button id = button_8 class = ""square num-button"" onclick = ""recordClick(this)""><div class = content><div class = numbers>P</div></div></button><button id = button_9 class = ""square num-button"" onclick = ""recordClick(this)""><div class = content><div class = numbers>Q</div></div></button><button id = button_10 class = ""square num-button"" onclick = ""recordClick(this)""><div class = content><div class = numbers>R</div></div></button><button id = button_11 class = ""square num-button"" onclick = ""recordClick(this)""><div class = content><div class = numbers>S</div></div></button><button id = button_12 class = ""square num-button"" onclick = ""recordClick(this)""><div class = content><div class = numbers>Y</div></div></button><button class = clear_button id = ""ClearButton"" onclick = ""clearResponse()"">BACKSPACE</button><button class = blank_button id = ""BlankButton"" onclick = ""blankResponse()"">SKIP</button><p style=""font-size: 2.4rem""><u><b>Current Answer:</b></u></p><br><br><div id=echoed_txt style=""font-size: 5rem; color:blue;""><b></b></div></div>",enter,ospan,retrieval,3UMG47G6CWeflJDOUUzu20nwImc2,html-keyboard-response,67,1072525,0.0-46.0-0.0-2.0-4.0,NA,NA,NA,3.0,"[""H"",""N"",""G""]","[""H"",""N"",""G""]",1.0,3.0,"['<font color=""green"">H</font>', '<font color=""green"">N</font>', '<font color=""green"">G</font>']",,,,,,659817d80a3213cd1b4dced3,14:18:04,03/04/2024
2797.5,"['<p style=""font-size:44px"">Letters:<br><br><br><font color=""green"">H</font> <font color=""green"">N</font> <font color=""green"">G</font></p><br><br>']",0,ospan,practice_feedback,3UMG47G6CWeflJDOUUzu20nwImc2,html-button-response,68,1075837,0.0-46.0-0.0-2.0-5.0,,,,,,,,,,,,,,,659817d80a3213cd1b4dced3,14:18:04,03/04/2024
54167.10000002384,"<div class = 'left_align' style='font-size: 3.25rem; line-height: 1.3;'>Now you will practice doing the <b>symmetry judgment part</b> of the experiment.<br><br>A black and white grid picture will appear on the screen and you have to judge if it is <br>symmetrical or asymetrical.<br><br>A picture is 'mirror' symmetrical if its left half is identical to the right half when flipped.<br>Here are examples of a symmetrical and an asymetrical picture:<br><br><center><img src='Stimuli/img/symm_instructions_extra.png' style='height:420px; width:900'></img></center><br>To judge symmetry, imagine you were to fold each picture down the middle, like a book –<br>would the left half match the right half when folded onto each other?<br><br></div><br>",0,ospan,instruct,3UMG47G6CWeflJDOUUzu20nwImc2,html-button-response,69,1130009,0.0-46.0-1.0-0.0-0.0,,,,,,,,,,,,,,,659817d80a3213cd1b4dced3,14:18:04,03/04/2024
24097.0,"<div class = 'left_align' style='font-size: 3.25rem; line-height: 1.3;'>When you have viewed the picture and determined whether it is symmetrical or not,<br>you can <b>click the Yes or No button</b> below to answer.<br><br>If you take longer than 15 seconds, it will continue automatically<br>and record the answer as an error.</div><br>",0,ospan,instruct,3UMG47G6CWeflJDOUUzu20nwImc2,html-button-response,70,1154369,0.0-46.0-1.0-0.0-1.0,,,,,,,,,,,,,,,659817d80a3213cd1b4dced3,14:18:04,03/04/2024
22106.899999976158,"<div class = 'left_align' style='font-size: 3.25rem; line-height: 1.3;'>It is <b>very</b> important that you make the symmetry judgment correctly.<br><br>It is also important that you try and judge the picture as quickly as you can.<br><br>When you are ready, click on the button below to try some practice problems.</div><br><br><br><br>",0,ospan,instruct,3UMG47G6CWeflJDOUUzu20nwImc2,html-button-response,71,1176742,0.0-46.0-1.0-0.0-2.0,,,,,,,,,,,,,,,659817d80a3213cd1b4dced3,14:18:04,03/04/2024
4648.0,,,ospan,symmetry,3UMG47G6CWeflJDOUUzu20nwImc2,symmetry-judgement-task,72,1182361,0.0-46.0-1.0-1.0-0.0,,,,,,,,,,1.0,1.0,,,,659817d80a3213cd1b4dced3,14:18:04,03/04/2024
,"<p style=""color:green; font-size: 35px"">Correct</p>",,ospan,feedback,3UMG47G6CWeflJDOUUzu20nwImc2,html-keyboard-response,73,1183129,0.0-46.0-1.0-1.0-1.0,,,,,,,,,,,,,,,659817d80a3213cd1b4dced3,14:18:04,03/04/2024
3178.0,,,ospan,symmetry,3UMG47G6CWeflJDOUUzu20nwImc2,symmetry-judgement-task,74,1189367,0.0-46.0-1.0-1.0-2.0,,,,,,,,,,1.0,1.0,,,,659817d80a3213cd1b4dced3,14:18:04,03/04/2024
,"<p style=""color:green; font-size: 35px"">Correct</p>",,ospan,feedback,3UMG47G6CWeflJDOUUzu20nwImc2,html-keyboard-response,75,1190135,0.0-46.0-1.0-1.0-3.0,,,,,,,,,,,,,,,659817d80a3213cd1b4dced3,14:18:04,03/04/2024
4576.0,,,ospan,symmetry,3UMG47G6CWeflJDOUUzu20nwImc2,symmetry-judgement-task,76,1197561,0.0-46.0-1.0-1.0-4.0,,,,,,,,,,1.0,1.0,,,,659817d80a3213cd1b4dced3,14:18:04,03/04/2024
,"<p style=""color:green; font-size: 35px"">Correct</p>",,ospan,feedback,3UMG47G6CWeflJDOUUzu20nwImc2,html-keyboard-response,77,1198317,0.0-46.0-1.0-1.0-5.0,,,,,,,,,,,,,,,659817d80a3213cd1b4dced3,14:18:04,03/04/2024
8673.300000071526,"<p style=""font-size: 3rem;"">You responded correctly on 3 of 3 symmetry judgments. Good job!</p><br><br>",0,ospan,practice,3UMG47G6CWeflJDOUUzu20nwImc2,html-button-response,78,1209010,0.0-46.0-1.0-2.0,,,,,,,,,,,,,,,659817d80a3213cd1b4dced3,14:18:04,03/04/2024
36012.0,"<div class = 'left_align' style='font-size: 3.25rem; line-height: 1.3;'>Now you will practice doing both parts of the experiment at the same time.<br><br>In the next practice set, you will be given one grid picture to judge.<br>Then letter will appear on the screen. Try to remember the letter.<br><br>It is <b>very important</b> to make the symmetry judgment as quickly and accurately as possible.<br><br>Just as before, once you have make the symmetry judgment, you can click Yes or No.<br><b>Note that you will no longer see Correct or Incorrect feedback.</div><br><br><br><br>",0,ospan,instruct,3UMG47G6CWeflJDOUUzu20nwImc2,html-button-response,79,1245285,0.0-46.0-2.0-0.0-0.0,,,,,,,,,,,,,,,659817d80a3213cd1b4dced3,14:18:04,03/04/2024
27209.399999976158,"<div class = 'left_align' style='font-size: 3.25rem; line-height: 1.3;'>After the letter goes away, another grid picture will appear, and then<br>another letter.<br><br>At the end of each set of letters and grids, you will recall the letters to the best<br>of your ability. Remember, try your best to get the letters in the correct order.<br><br>It is important to <b>quickly</b> and <b>accurately</b> make the symmetry judgments.</div><br><br><br><br>",0,ospan,instruct,3UMG47G6CWeflJDOUUzu20nwImc2,html-button-response,80,1272755,0.0-46.0-2.0-0.0-1.0,,,,,,,,,,,,,,,659817d80a3213cd1b4dced3,14:18:04,03/04/2024
41424.10000002384,"<div class = 'left_align' style='font-size: 3.25rem; line-height: 1.3;'>On the feedback screen, if you are not doing well at the symmetry judgments,<br>you will also see a warning in the middle. This indicates your percent <br>correct for the grid pictures for the entire experiment.<br><br>It is <b>very</b> important for you to keep accuracy at least at 85%: <u>We can only use<br>data where the participant was at least 85% accurate on the judgments.</u> Therefore,<br> please try your best to perform well on the symmetry judgments, <b>at the same time</b><br>doing your best to recall as many letters as possible.<br><br>Click the button to try some practice problems.</div><br><br><br><br>",0,ospan,instruct,3UMG47G6CWeflJDOUUzu20nwImc2,html-button-response,81,1314447,0.0-46.0-2.0-0.0-2.0,,,,,,,,,,,,,,,659817d80a3213cd1b4dced3,14:18:04,03/04/2024
,"<p style=""font-size:75px;"">...</p>",,ospan,iti,3UMG47G6CWeflJDOUUzu20nwImc2,html-keyboard-response,82,1315715,0.0-46.0-2.0-1.0-0.0,,,,,,,,,,,,,,,659817d80a3213cd1b4dced3,14:18:04,03/04/2024
2356.0,,,ospan,symmetry,3UMG47G6CWeflJDOUUzu20nwImc2,symmetry-judgement-task,83,1319588,0.0-46.0-2.0-1.0-1.0-0.0,,,,,,,,,,1.0,1.0,,,,659817d80a3213cd1b4dced3,14:18:04,03/04/2024
,"<div style=""font-size: 10rem; color: #0000FF"">Q</div>",,ospan,letter,3UMG47G6CWeflJDOUUzu20nwImc2,html-keyboard-response,84,1320596,0.0-46.0-2.0-1.0-1.0-1.0,,,,,,,,,,,,,,,659817d80a3213cd1b4dced3,14:18:04,03/04/2024
3458.0,,,ospan,symmetry,3UMG47G6CWeflJDOUUzu20nwImc2,symmetry-judgement-task,85,1326503,0.0-46.0-2.0-1.0-1.0-2.0,,,,,,,,,,1.0,1.0,,,,659817d80a3213cd1b4dced3,14:18:04,03/04/2024
,"<div style=""font-size: 10rem; color: #0000FF"">S</div>",,ospan,letter,3UMG47G6CWeflJDOUUzu20nwImc2,html-keyboard-response,86,1327510,0.0-46.0-2.0-1.0-1.0-3.0,,,,,,,,,,,,,,,659817d80a3213cd1b4dced3,14:18:04,03/04/2024
3998.0,,,ospan,symmetry,3UMG47G6CWeflJDOUUzu20nwImc2,symmetry-judgement-task,87,1333634,0.0-46.0-2.0-1.0-1.0-4.0,,,,,,,,,,0.0,0.0,,,,659817d80a3213cd1b4dced3,14:18:04,03/04/2024
,"<div style=""font-size: 10rem; color: #0000FF"">K</div>",,ospan,letter,3UMG47G6CWeflJDOUUzu20nwImc2,html-keyboard-response,88,1334642,0.0-46.0-2.0-1.0-1.0-5.0,,,,,,,,,,,,,,,659817d80a3213cd1b4dced3,14:18:04,03/04/2024
10208.0,"<div class = numbox><p style=""font-size: 2.4rem"">Please recall the letters you saw to the best of your ability. If you do not remember a particular letter, use the SKIP button.<br><b>(When you are ready to lock in your answer, press ENTER)</b></p><button id = button_1 class = ""square num-button"" onclick = ""recordClick(this)""><div class = content><div class = numbers>C</div></div></button><button id = button_2 class = ""square num-button"" onclick = ""recordClick(this)""><div class = content><div class = numbers>G</div></div></button><button id = button_3 class = ""square num-button"" onclick = ""recordClick(this)""><div class = content><div class = numbers>H</div></div></button><button id = button_4 class = ""square num-button"" onclick = ""recordClick(this)""><div class = content><div class = numbers>J</div></div></button><button id = button_5 class = ""square num-button"" onclick = ""recordClick(this)""><div class = content><div class = numbers>K</div></div></button><button id = button_6 class = ""square num-button"" onclick = ""recordClick(this)""><div class = content><div class = numbers>L</div></div></button><button id = button_7 class = ""square num-button"" onclick = ""recordClick(this)""><div class = content><div class = numbers>N</div></div></button><button id = button_8 class = ""square num-button"" onclick = ""recordClick(this)""><div class = content><div class = numbers>P</div></div></button><button id = button_9 class = ""square num-button"" onclick = ""recordClick(this)""><div class = content><div class = numbers>Q</div></div></button><button id = button_10 class = ""square num-button"" onclick = ""recordClick(this)""><div class = content><div class = numbers>R</div></div></button><button id = button_11 class = ""square num-button"" onclick = ""recordClick(this)""><div class = content><div class = numbers>S</div></div></button><button id = button_12 class = ""square num-button"" onclick = ""recordClick(this)""><div class = content><div class = numbers>Y</div></div></button><button class = clear_button id = ""ClearButton"" onclick = ""clearResponse()"">BACKSPACE</button><button class = blank_button id = ""BlankButton"" onclick = ""blankResponse()"">SKIP</button><p style=""font-size: 2.4rem""><u><b>Current Answer:</b></u></p><br><br><div id=echoed_txt style=""font-size: 5rem; color:blue;""><b></b></div></div>",enter,ospan,retrieval,3UMG47G6CWeflJDOUUzu20nwImc2,html-keyboard-response,89,1345613,0.0-46.0-2.0-1.0-2.0-0.0,NA,NA,NA,3.0,"[""Q"",""S"",""K""]","[""Q"",""S"",""K""]",1.0,3.0,"['<font color=""green"">Q</font>', '<font color=""green"">S</font>', '<font color=""green"">K</font>']",,,,,,659817d80a3213cd1b4dced3,14:18:04,03/04/2024
6618.799999952316,"['<p style=""font-size:44px"">Letters:<br><br><br><font color=""green"">Q</font> <font color=""green"">S</font> <font color=""green"">K</font></p><br><br><p style=""font-size:30px"">Symmetry:<br><br><font color=""red"">67%</font></p><br><br>']",0,ospan,practice_feedback,3UMG47G6CWeflJDOUUzu20nwImc2,html-button-response,90,1352741,0.0-46.0-2.0-1.0-2.0-1.0,,,,,,,,,,,,,,,659817d80a3213cd1b4dced3,14:18:04,03/04/2024
,"<p style=""font-size:75px;"">...</p>",,ospan,iti,3UMG47G6CWeflJDOUUzu20nwImc2,html-keyboard-response,91,1353752,0.0-46.0-2.0-2.0-0.0,,,,,,,,,,,,,,,659817d80a3213cd1b4dced3,14:18:04,03/04/2024
3793.0,,,ospan,symmetry,3UMG47G6CWeflJDOUUzu20nwImc2,symmetry-judgement-task,92,1359301,0.0-46.0-2.0-2.0-1.0-0.0,,,,,,,,,,1.0,1.0,,,,659817d80a3213cd1b4dced3,14:18:04,03/04/2024
,"<div style=""font-size: 10rem; color: #0000FF"">J</div>",,ospan,letter,3UMG47G6CWeflJDOUUzu20nwImc2,html-keyboard-response,93,1360312,0.0-46.0-2.0-2.0-1.0-1.0,,,,,,,,,,,,,,,659817d80a3213cd1b4dced3,14:18:04,03/04/2024
4115.0,,,ospan,symmetry,3UMG47G6CWeflJDOUUzu20nwImc2,symmetry-judgement-task,94,1366893,0.0-46.0-2.0-2.0-1.0-2.0,,,,,,,,,,1.0,1.0,,,,659817d80a3213cd1b4dced3,14:18:04,03/04/2024
,"<div style=""font-size: 10rem; color: #0000FF"">L</div>",,ospan,letter,3UMG47G6CWeflJDOUUzu20nwImc2,html-keyboard-response,95,1367902,0.0-46.0-2.0-2.0-1.0-3.0,,,,,,,,,,,,,,,659817d80a3213cd1b4dced3,14:18:04,03/04/2024
3709.0,,,ospan,symmetry,3UMG47G6CWeflJDOUUzu20nwImc2,symmetry-judgement-task,96,1373955,0.0-46.0-2.0-2.0-1.0-4.0,,,,,,,,,,1.0,1.0,,,,659817d80a3213cd1b4dced3,14:18:04,03/04/2024
,"<div style=""font-size: 10rem; color: #0000FF"">G</div>",,ospan,letter,3UMG47G6CWeflJDOUUzu20nwImc2,html-keyboard-response,97,1374971,0.0-46.0-2.0-2.0-1.0-5.0,,,,,,,,,,,,,,,659817d80a3213cd1b4dced3,14:18:04,03/04/2024
8114.099999904633,"<div class = numbox><p style=""font-size: 2.4rem"">Please recall the letters you saw to the best of your ability. If you do not remember a particular letter, use the SKIP button.<br><b>(When you are ready to lock in your answer, press ENTER)</b></p><button id = button_1 class = ""square num-button"" onclick = ""recordClick(this)""><div class = content><div class = numbers>C</div></div></button><button id = button_2 class = ""square num-button"" onclick = ""recordClick(this)""><div class = content><div class = numbers>G</div></div></button><button id = button_3 class = ""square num-button"" onclick = ""recordClick(this)""><div class = content><div class = numbers>H</div></div></button><button id = button_4 class = ""square num-button"" onclick = ""recordClick(this)""><div class = content><div class = numbers>J</div></div></button><button id = button_5 class = ""square num-button"" onclick = ""recordClick(this)""><div class = content><div class = numbers>K</div></div></button><button id = button_6 class = ""square num-button"" onclick = ""recordClick(this)""><div class = content><div class = numbers>L</div></div></button><button id = button_7 class = ""square num-button"" onclick = ""recordClick(this)""><div class = content><div class = numbers>N</div></div></button><button id = button_8 class = ""square num-button"" onclick = ""recordClick(this)""><div class = content><div class = numbers>P</div></div></button><button id = button_9 class = ""square num-button"" onclick = ""recordClick(this)""><div class = content><div class = numbers>Q</div></div></button><button id = button_10 class = ""square num-button"" onclick = ""recordClick(this)""><div class = content><div class = numbers>R</div></div></button><button id = button_11 class = ""square num-button"" onclick = ""recordClick(this)""><div class = content><div class = numbers>S</div></div></button><button id = button_12 class = ""square num-button"" onclick = ""recordClick(this)""><div class = content><div class = numbers>Y</div></div></button><button class = clear_button id = ""ClearButton"" onclick = ""clearResponse()"">BACKSPACE</button><button class = blank_button id = ""BlankButton"" onclick = ""blankResponse()"">SKIP</button><p style=""font-size: 2.4rem""><u><b>Current Answer:</b></u></p><br><br><div id=echoed_txt style=""font-size: 5rem; color:blue;""><b></b></div></div>",enter,ospan,retrieval,3UMG47G6CWeflJDOUUzu20nwImc2,html-keyboard-response,98,1383851,0.0-46.0-2.0-2.0-2.0-0.0,NA,NA,NA,3.0,"[""J"",""L"",""G""]","[""J"",""L"",""G""]",1.0,3.0,"['<font color=""green"">J</font>', '<font color=""green"">L</font>', '<font color=""green"">G</font>']",,,,,,659817d80a3213cd1b4dced3,14:18:04,03/04/2024
3626.1999999284744,"['<p style=""font-size:44px"">Letters:<br><br><br><font color=""green"">J</font> <font color=""green"">L</font> <font color=""green"">G</font></p><br><br><p style=""font-size:30px"">Symmetry:<br><br><font color=""red"">83%</font></p><br><br>']",0,ospan,practice_feedback,3UMG47G6CWeflJDOUUzu20nwImc2,html-button-response,99,1387986,0.0-46.0-2.0-2.0-2.0-1.0,,,,,,,,,,,,,,,659817d80a3213cd1b4dced3,14:18:04,03/04/2024
49596.39999997616,"<div class = 'left_align' style='font-size: 3rem; line-height: 1.3;'><b>Great work! That is the end of practice.</b><br><br>The real trials will look just like the practice trials you just completed.<br><br><u>Here, you will not see feedback</u>. First, you will see an grid picture to judge,<br>then a letter to remember. When the recall screen appears, report the letters in the<br>order presented. If you forget a letter, remember to use the <b>blank</b> button to move to the<br>next letter. Some of the sets will have more symmetry grids and letters than others.<br><br>It is important that you do your best on both the symmetry judgments and the letter recall<br>parts of the experiment. For for the symmetry judgments, try to work as <b>quickly</b> and <br>as <b>accurately</b> as possible. Remember to keep your symmetry accuracy at 85% or above.<br><br><b>For the letters, do NOT use any external aid (e.g., writing on paper, electronic device).</b><br><br>It is <u>very important</u> to our experiment to have a <b>true</b> view of your real performance.<br><br>Do not worry if you miss some when it gets hard! This task is meant to be very challenging!<br><br>Click the button to begin.</div><br><br><br><br>",0,ospan,starting_real_here,3UMG47G6CWeflJDOUUzu20nwImc2,html-button-response,100,1437589,0.0-46.0-2.0-3.0,,,,,,,,,,,,,,,659817d80a3213cd1b4dced3,14:18:04,03/04/2024
,"<p style=""font-size:75px;"">...</p>",,ospan,iti,3UMG47G6CWeflJDOUUzu20nwImc2,html-keyboard-response,101,1438862,0.0-46.0-3.0-0.0-0.0,,,,,,,,,,,,,,,659817d80a3213cd1b4dced3,14:18:04,03/04/2024
5412.0,,,ospan,symmetry,3UMG47G6CWeflJDOUUzu20nwImc2,symmetry-judgement-task,102,1445900,0.0-46.0-3.0-0.0-1.0-0.0,,,,,,,,,,1.0,1.0,,,,659817d80a3213cd1b4dced3,14:18:04,03/04/2024
,"<div style=""font-size: 10rem; color: #0000FF"">S</div>",,ospan,letter,3UMG47G6CWeflJDOUUzu20nwImc2,html-keyboard-response,103,1446912,0.0-46.0-3.0-0.0-1.0-1.0,,,,,,,,,,,,,,,659817d80a3213cd1b4dced3,14:18:04,03/04/2024
5350.0,,,ospan,symmetry,3UMG47G6CWeflJDOUUzu20nwImc2,symmetry-judgement-task,104,1454757,0.0-46.0-3.0-0.0-1.0-2.0,,,,,,,,,,1.0,1.0,,,,659817d80a3213cd1b4dced3,14:18:04,03/04/2024
,"<div style=""font-size: 10rem; color: #0000FF"">Y</div>",,ospan,letter,3UMG47G6CWeflJDOUUzu20nwImc2,html-keyboard-response,105,1455769,0.0-46.0-3.0-0.0-1.0-3.0,,,,,,,,,,,,,,,659817d80a3213cd1b4dced3,14:18:04,03/04/2024
2908.0,,,ospan,symmetry,3UMG47G6CWeflJDOUUzu20nwImc2,symmetry-judgement-task,106,1460904,0.0-46.0-3.0-0.0-1.0-4.0,,,,,,,,,,1.0,1.0,,,,659817d80a3213cd1b4dced3,14:18:04,03/04/2024
,"<div style=""font-size: 10rem; color: #0000FF"">C</div>",,ospan,letter,3UMG47G6CWeflJDOUUzu20nwImc2,html-keyboard-response,107,1461914,0.0-46.0-3.0-0.0-1.0-5.0,,,,,,,,,,,,,,,659817d80a3213cd1b4dced3,14:18:04,03/04/2024
7313.5,"<div class = numbox><p style=""font-size: 2.4rem"">Please recall the letters you saw to the best of your ability. If you do not remember a particular letter, use the SKIP button.<br><b>(When you are ready to lock in your answer, press ENTER)</b></p><button id = button_1 class = ""square num-button"" onclick = ""recordClick(this)""><div class = content><div class = numbers>C</div></div></button><button id = button_2 class = ""square num-button"" onclick = ""recordClick(this)""><div class = content><div class = numbers>G</div></div></button><button id = button_3 class = ""square num-button"" onclick = ""recordClick(this)""><div class = content><div class = numbers>H</div></div></button><button id = button_4 class = ""square num-button"" onclick = ""recordClick(this)""><div class = content><div class = numbers>J</div></div></button><button id = button_5 class = ""square num-button"" onclick = ""recordClick(this)""><div class = content><div class = numbers>K</div></div></button><button id = button_6 class = ""square num-button"" onclick = ""recordClick(this)""><div class = content><div class = numbers>L</div></div></button><button id = button_7 class = ""square num-button"" onclick = ""recordClick(this)""><div class = content><div class = numbers>N</div></div></button><button id = button_8 class = ""square num-button"" onclick = ""recordClick(this)""><div class = content><div class = numbers>P</div></div></button><button id = button_9 class = ""square num-button"" onclick = ""recordClick(this)""><div class = content><div class = numbers>Q</div></div></button><button id = button_10 class = ""square num-button"" onclick = ""recordClick(this)""><div class = content><div class = numbers>R</div></div></button><button id = button_11 class = ""square num-button"" onclick = ""recordClick(this)""><div class = content><div class = numbers>S</div></div></button><button id = button_12 class = ""square num-button"" onclick = ""recordClick(this)""><div class = content><div class = numbers>Y</div></div></button><button class = clear_button id = ""ClearButton"" onclick = ""clearResponse()"">BACKSPACE</button><button class = blank_button id = ""BlankButton"" onclick = ""blankResponse()"">SKIP</button><p style=""font-size: 2.4rem""><u><b>Current Answer:</b></u></p><br><br><div id=echoed_txt style=""font-size: 5rem; color:blue;""><b></b></div></div>",enter,ospan,retrieval,3UMG47G6CWeflJDOUUzu20nwImc2,html-keyboard-response,108,1469996,0.0-46.0-3.0-0.0-2.0,3,3,3,3.0,"[""S"",""Y"",""C""]","[""S"",""Y"",""C""]",1.0,3.0,,,,,,,659817d80a3213cd1b4dced3,14:18:04,03/04/2024
3619.6999999284744,[''],0,ospan,feedback,3UMG47G6CWeflJDOUUzu20nwImc2,html-button-response,109,1474124,0.0-46.0-3.0-0.0-3.0,,,,,,,,,,,,100.0,0.0,,659817d80a3213cd1b4dced3,14:18:04,03/04/2024
,"<p style=""font-size:75px;"">...</p>",,ospan,iti,3UMG47G6CWeflJDOUUzu20nwImc2,html-keyboard-response,110,1475134,0.0-46.0-4.0-0.0-0.0,,,,,,,,,,,,,,,659817d80a3213cd1b4dced3,14:18:04,03/04/2024
4005.0,,,ospan,symmetry,3UMG47G6CWeflJDOUUzu20nwImc2,symmetry-judgement-task,111,1480750,0.0-46.0-4.0-0.0-1.0-0.0,,,,,,,,,,1.0,1.0,,,,659817d80a3213cd1b4dced3,14:18:04,03/04/2024
,"<div style=""font-size: 10rem; color: #0000FF"">R</div>",,ospan,letter,3UMG47G6CWeflJDOUUzu20nwImc2,html-keyboard-response,112,1481766,0.0-46.0-4.0-0.0-1.0-1.0,,,,,,,,,,,,,,,659817d80a3213cd1b4dced3,14:18:04,03/04/2024
5280.0,,,ospan,symmetry,3UMG47G6CWeflJDOUUzu20nwImc2,symmetry-judgement-task,113,1489443,0.0-46.0-4.0-0.0-1.0-2.0,,,,,,,,,,1.0,1.0,,,,659817d80a3213cd1b4dced3,14:18:04,03/04/2024
,"<div style=""font-size: 10rem; color: #0000FF"">G</div>",,ospan,letter,3UMG47G6CWeflJDOUUzu20nwImc2,html-keyboard-response,114,1490451,0.0-46.0-4.0-0.0-1.0-3.0,,,,,,,,,,,,,,,659817d80a3213cd1b4dced3,14:18:04,03/04/2024
3197.0,,,ospan,symmetry,3UMG47G6CWeflJDOUUzu20nwImc2,symmetry-judgement-task,115,1495861,0.0-46.0-4.0-0.0-1.0-4.0,,,,,,,,,,1.0,1.0,,,,659817d80a3213cd1b4dced3,14:18:04,03/04/2024
,"<div style=""font-size: 10rem; color: #0000FF"">J</div>",,ospan,letter,3UMG47G6CWeflJDOUUzu20nwImc2,html-keyboard-response,116,1496868,0.0-46.0-4.0-0.0-1.0-5.0,,,,,,,,,,,,,,,659817d80a3213cd1b4dced3,14:18:04,03/04/2024
6446.0,,,ospan,symmetry,3UMG47G6CWeflJDOUUzu20nwImc2,symmetry-judgement-task,117,1505594,0.0-46.0-4.0-0.0-1.0-6.0,,,,,,,,,,1.0,1.0,,,,659817d80a3213cd1b4dced3,14:18:04,03/04/2024
,"<div style=""font-size: 10rem; color: #0000FF"">K</div>",,ospan,letter,3UMG47G6CWeflJDOUUzu20nwImc2,html-keyboard-response,118,1506610,0.0-46.0-4.0-0.0-1.0-7.0,,,,,,,,,,,,,,,659817d80a3213cd1b4dced3,14:18:04,03/04/2024
10450.100000023842,"<div class = numbox><p style=""font-size: 2.4rem"">Please recall the letters you saw to the best of your ability. If you do not remember a particular letter, use the SKIP button.<br><b>(When you are ready to lock in your answer, press ENTER)</b></p><button id = button_1 class = ""square num-button"" onclick = ""recordClick(this)""><div class = content><div class = numbers>C</div></div></button><button id = button_2 class = ""square num-button"" onclick = ""recordClick(this)""><div class = content><div class = numbers>G</div></div></button><button id = button_3 class = ""square num-button"" onclick = ""recordClick(this)""><div class = content><div class = numbers>H</div></div></button><button id = button_4 class = ""square num-button"" onclick = ""recordClick(this)""><div class = content><div class = numbers>J</div></div></button><button id = button_5 class = ""square num-button"" onclick = ""recordClick(this)""><div class = content><div class = numbers>K</div></div></button><button id = button_6 class = ""square num-button"" onclick = ""recordClick(this)""><div class = content><div class = numbers>L</div></div></button><button id = button_7 class = ""square num-button"" onclick = ""recordClick(this)""><div class = content><div class = numbers>N</div></div></button><button id = button_8 class = ""square num-button"" onclick = ""recordClick(this)""><div class = content><div class = numbers>P</div></div></button><button id = button_9 class = ""square num-button"" onclick = ""recordClick(this)""><div class = content><div class = numbers>Q</div></div></button><button id = button_10 class = ""square num-button"" onclick = ""recordClick(this)""><div class = content><div class = numbers>R</div></div></button><button id = button_11 class = ""square num-button"" onclick = ""recordClick(this)""><div class = content><div class = numbers>S</div></div></button><button id = button_12 class = ""square num-button"" onclick = ""recordClick(this)""><div class = content><div class = numbers>Y</div></div></button><button class = clear_button id = ""ClearButton"" onclick = ""clearResponse()"">BACKSPACE</button><button class = blank_button id = ""BlankButton"" onclick = ""blankResponse()"">SKIP</button><p style=""font-size: 2.4rem""><u><b>Current Answer:</b></u></p><br><br><div id=echoed_txt style=""font-size: 5rem; color:blue;""><b></b></div></div>",enter,ospan,retrieval,3UMG47G6CWeflJDOUUzu20nwImc2,html-keyboard-response,119,1517829,0.0-46.0-4.0-0.0-2.0,7,7,7,4.0,"[""R"",""G"",""J"",""K""]","[""R"",""G"",""J"",""K""]",1.0,4.0,,,,,,,659817d80a3213cd1b4dced3,14:18:04,03/04/2024
2952.899999976158,[''],0,ospan,feedback,3UMG47G6CWeflJDOUUzu20nwImc2,html-button-response,120,1521293,0.0-46.0-4.0-0.0-3.0,,,,,,,,,,,,100.0,0.0,,659817d80a3213cd1b4dced3,14:18:04,03/04/2024
,"<p style=""font-size:75px;"">...</p>",,ospan,iti,3UMG47G6CWeflJDOUUzu20nwImc2,html-keyboard-response,121,1522298,0.0-46.0-4.0-1.0-0.0,,,,,,,,,,,,,,,659817d80a3213cd1b4dced3,14:18:04,03/04/2024
8385.0,,,ospan,symmetry,3UMG47G6CWeflJDOUUzu20nwImc2,symmetry-judgement-task,122,1531870,0.0-46.0-4.0-1.0-1.0-0.0,,,,,,,,,,1.0,1.0,,,,659817d80a3213cd1b4dced3,14:18:04,03/04/2024
,"<div style=""font-size: 10rem; color: #0000FF"">P</div>",,ospan,letter,3UMG47G6CWeflJDOUUzu20nwImc2,html-keyboard-response,123,1532887,0.0-46.0-4.0-1.0-1.0-1.0,,,,,,,,,,,,,,,659817d80a3213cd1b4dced3,14:18:04,03/04/2024
6263.0,,,ospan,symmetry,3UMG47G6CWeflJDOUUzu20nwImc2,symmetry-judgement-task,124,1541365,0.0-46.0-4.0-1.0-1.0-2.0,,,,,,,,,,1.0,1.0,,,,659817d80a3213cd1b4dced3,14:18:04,03/04/2024
,"<div style=""font-size: 10rem; color: #0000FF"">L</div>",,ospan,letter,3UMG47G6CWeflJDOUUzu20nwImc2,html-keyboard-response,125,1542383,0.0-46.0-4.0-1.0-1.0-3.0,,,,,,,,,,,,,,,659817d80a3213cd1b4dced3,14:18:04,03/04/2024
4886.0,,,ospan,symmetry,3UMG47G6CWeflJDOUUzu20nwImc2,symmetry-judgement-task,126,1549711,0.0-46.0-4.0-1.0-1.0-4.0,,,,,,,,,,1.0,1.0,,,,659817d80a3213cd1b4dced3,14:18:04,03/04/2024
,"<div style=""font-size: 10rem; color: #0000FF"">C</div>",,ospan,letter,3UMG47G6CWeflJDOUUzu20nwImc2,html-keyboard-response,127,1550729,0.0-46.0-4.0-1.0-1.0-5.0,,,,,,,,,,,,,,,659817d80a3213cd1b4dced3,14:18:04,03/04/2024
2920.0,,,ospan,symmetry,3UMG47G6CWeflJDOUUzu20nwImc2,symmetry-judgement-task,128,1555970,0.0-46.0-4.0-1.0-1.0-6.0,,,,,,,,,,1.0,1.0,,,,659817d80a3213cd1b4dced3,14:18:04,03/04/2024
,"<div style=""font-size: 10rem; color: #0000FF"">G</div>",,ospan,letter,3UMG47G6CWeflJDOUUzu20nwImc2,html-keyboard-response,129,1556982,0.0-46.0-4.0-1.0-1.0-7.0,,,,,,,,,,,,,,,659817d80a3213cd1b4dced3,14:18:04,03/04/2024
3599.0,,,ospan,symmetry,3UMG47G6CWeflJDOUUzu20nwImc2,symmetry-judgement-task,130,1562949,0.0-46.0-4.0-1.0-1.0-8.0,,,,,,,,,,1.0,1.0,,,,659817d80a3213cd1b4dced3,14:18:04,03/04/2024
,"<div style=""font-size: 10rem; color: #0000FF"">R</div>",,ospan,letter,3UMG47G6CWeflJDOUUzu20nwImc2,html-keyboard-response,131,1563963,0.0-46.0-4.0-1.0-1.0-9.0,,,,,,,,,,,,,,,659817d80a3213cd1b4dced3,14:18:04,03/04/2024
12115.300000071526,"<div class = numbox><p style=""font-size: 2.4rem"">Please recall the letters you saw to the best of your ability. If you do not remember a particular letter, use the SKIP button.<br><b>(When you are ready to lock in your answer, press ENTER)</b></p><button id = button_1 class = ""square num-button"" onclick = ""recordClick(this)""><div class = content><div class = numbers>C</div></div></button><button id = button_2 class = ""square num-button"" onclick = ""recordClick(this)""><div class = content><div class = numbers>G</div></div></button><button id = button_3 class = ""square num-button"" onclick = ""recordClick(this)""><div class = content><div class = numbers>H</div></div></button><button id = button_4 class = ""square num-button"" onclick = ""recordClick(this)""><div class = content><div class = numbers>J</div></div></button><button id = button_5 class = ""square num-button"" onclick = ""recordClick(this)""><div class = content><div class = numbers>K</div></div></button><button id = button_6 class = ""square num-button"" onclick = ""recordClick(this)""><div class = content><div class = numbers>L</div></div></button><button id = button_7 class = ""square num-button"" onclick = ""recordClick(this)""><div class = content><div class = numbers>N</div></div></button><button id = button_8 class = ""square num-button"" onclick = ""recordClick(this)""><div class = content><div class = numbers>P</div></div></button><button id = button_9 class = ""square num-button"" onclick = ""recordClick(this)""><div class = content><div class = numbers>Q</div></div></button><button id = button_10 class = ""square num-button"" onclick = ""recordClick(this)""><div class = content><div class = numbers>R</div></div></button><button id = button_11 class = ""square num-button"" onclick = ""recordClick(this)""><div class = content><div class = numbers>S</div></div></button><button id = button_12 class = ""square num-button"" onclick = ""recordClick(this)""><div class = content><div class = numbers>Y</div></div></button><button class = clear_button id = ""ClearButton"" onclick = ""clearResponse()"">BACKSPACE</button><button class = blank_button id = ""BlankButton"" onclick = ""blankResponse()"">SKIP</button><p style=""font-size: 2.4rem""><u><b>Current Answer:</b></u></p><br><br><div id=echoed_txt style=""font-size: 5rem; color:blue;""><b></b></div></div>",enter,ospan,retrieval,3UMG47G6CWeflJDOUUzu20nwImc2,html-keyboard-response,132,1576838,0.0-46.0-4.0-1.0-2.0,12,11,7,5.0,"[""P"",""L"",""C"",""J"",""R""]","[""P"",""L"",""C"",""G"",""R""]",0.0,4.0,,,,,,,659817d80a3213cd1b4dced3,14:18:04,03/04/2024
2678.399999976158,[''],0,ospan,feedback,3UMG47G6CWeflJDOUUzu20nwImc2,html-button-response,133,1580029,0.0-46.0-4.0-1.0-3.0,,,,,,,,,,,,100.0,0.0,,659817d80a3213cd1b4dced3,14:18:04,03/04/2024
,"<p style=""font-size:75px;"">...</p>",,ospan,iti,3UMG47G6CWeflJDOUUzu20nwImc2,html-keyboard-response,134,1581035,0.0-46.0-4.0-2.0-0.0,,,,,,,,,,,,,,,659817d80a3213cd1b4dced3,14:18:04,03/04/2024
4888.0,,,ospan,symmetry,3UMG47G6CWeflJDOUUzu20nwImc2,symmetry-judgement-task,135,1587068,0.0-46.0-4.0-2.0-1.0-0.0,,,,,,,,,,1.0,1.0,,,,659817d80a3213cd1b4dced3,14:18:04,03/04/2024
,"<div style=""font-size: 10rem; color: #0000FF"">H</div>",,ospan,letter,3UMG47G6CWeflJDOUUzu20nwImc2,html-keyboard-response,136,1588081,0.0-46.0-4.0-2.0-1.0-1.0,,,,,,,,,,,,,,,659817d80a3213cd1b4dced3,14:18:04,03/04/2024
4274.0,,,ospan,symmetry,3UMG47G6CWeflJDOUUzu20nwImc2,symmetry-judgement-task,137,1594701,0.0-46.0-4.0-2.0-1.0-2.0,,,,,,,,,,1.0,1.0,,,,659817d80a3213cd1b4dced3,14:18:04,03/04/2024
,"<div style=""font-size: 10rem; color: #0000FF"">C</div>",,ospan,letter,3UMG47G6CWeflJDOUUzu20nwImc2,html-keyboard-response,138,1595708,0.0-46.0-4.0-2.0-1.0-3.0,,,,,,,,,,,,,,,659817d80a3213cd1b4dced3,14:18:04,03/04/2024
3861.0,,,ospan,symmetry,3UMG47G6CWeflJDOUUzu20nwImc2,symmetry-judgement-task,139,1601917,0.0-46.0-4.0-2.0-1.0-4.0,,,,,,,,,,1.0,1.0,,,,659817d80a3213cd1b4dced3,14:18:04,03/04/2024
,"<div style=""font-size: 10rem; color: #0000FF"">S</div>",,ospan,letter,3UMG47G6CWeflJDOUUzu20nwImc2,html-keyboard-response,140,1602932,0.0-46.0-4.0-2.0-1.0-5.0,,,,,,,,,,,,,,,659817d80a3213cd1b4dced3,14:18:04,03/04/2024
7130.399999976158,"<div class = numbox><p style=""font-size: 2.4rem"">Please recall the letters you saw to the best of your ability. If you do not remember a particular letter, use the SKIP button.<br><b>(When you are ready to lock in your answer, press ENTER)</b></p><button id = button_1 class = ""square num-button"" onclick = ""recordClick(this)""><div class = content><div class = numbers>C</div></div></button><button id = button_2 class = ""square num-button"" onclick = ""recordClick(this)""><div class = content><div class = numbers>G</div></div></button><button id = button_3 class = ""square num-button"" onclick = ""recordClick(this)""><div class = content><div class = numbers>H</div></div></button><button id = button_4 class = ""square num-button"" onclick = ""recordClick(this)""><div class = content><div class = numbers>J</div></div></button><button id = button_5 class = ""square num-button"" onclick = ""recordClick(this)""><div class = content><div class = numbers>K</div></div></button><button id = button_6 class = ""square num-button"" onclick = ""recordClick(this)""><div class = content><div class = numbers>L</div></div></button><button id = button_7 class = ""square num-button"" onclick = ""recordClick(this)""><div class = content><div class = numbers>N</div></div></button><button id = button_8 class = ""square num-button"" onclick = ""recordClick(this)""><div class = content><div class = numbers>P</div></div></button><button id = button_9 class = ""square num-button"" onclick = ""recordClick(this)""><div class = content><div class = numbers>Q</div></div></button><button id = button_10 class = ""square num-button"" onclick = ""recordClick(this)""><div class = content><div class = numbers>R</div></div></button><button id = button_11 class = ""square num-button"" onclick = ""recordClick(this)""><div class = content><div class = numbers>S</div></div></button><button id = button_12 class = ""square num-button"" onclick = ""recordClick(this)""><div class = content><div class = numbers>Y</div></div></button><button class = clear_button id = ""ClearButton"" onclick = ""clearResponse()"">BACKSPACE</button><button class = blank_button id = ""BlankButton"" onclick = ""blankResponse()"">SKIP</button><p style=""font-size: 2.4rem""><u><b>Current Answer:</b></u></p><br><br><div id=echoed_txt style=""font-size: 5rem; color:blue;""><b></b></div></div>",enter,ospan,retrieval,3UMG47G6CWeflJDOUUzu20nwImc2,html-keyboard-response,141,1610820,0.0-46.0-4.0-2.0-2.0,15,14,10,3.0,"[""H"",""C"",""S""]","[""H"",""C"",""S""]",1.0,3.0,,,,,,,659817d80a3213cd1b4dced3,14:18:04,03/04/2024
3163.0,[''],0,ospan,feedback,3UMG47G6CWeflJDOUUzu20nwImc2,html-button-response,142,1614498,0.0-46.0-4.0-2.0-3.0,,,,,,,,,,,,100.0,0.0,,659817d80a3213cd1b4dced3,14:18:04,03/04/2024
,"<p style=""font-size:75px;"">...</p>",,ospan,iti,3UMG47G6CWeflJDOUUzu20nwImc2,html-keyboard-response,143,1615512,0.0-46.0-5.0-0.0-0.0,,,,,,,,,,,,,,,659817d80a3213cd1b4dced3,14:18:04,03/04/2024
8834.0,,,ospan,symmetry,3UMG47G6CWeflJDOUUzu20nwImc2,symmetry-judgement-task,144,1625517,0.0-46.0-5.0-0.0-1.0-0.0,,,,,,,,,,1.0,1.0,,,,659817d80a3213cd1b4dced3,14:18:04,03/04/2024
,"<div style=""font-size: 10rem; color: #0000FF"">Y</div>",,ospan,letter,3UMG47G6CWeflJDOUUzu20nwImc2,html-keyboard-response,145,1626539,0.0-46.0-5.0-0.0-1.0-1.0,,,,,,,,,,,,,,,659817d80a3213cd1b4dced3,14:18:04,03/04/2024
4398.0,,,ospan,symmetry,3UMG47G6CWeflJDOUUzu20nwImc2,symmetry-judgement-task,146,1633231,0.0-46.0-5.0-0.0-1.0-2.0,,,,,,,,,,1.0,1.0,,,,659817d80a3213cd1b4dced3,14:18:04,03/04/2024
,"<div style=""font-size: 10rem; color: #0000FF"">G</div>",,ospan,letter,3UMG47G6CWeflJDOUUzu20nwImc2,html-keyboard-response,147,1634249,0.0-46.0-5.0-0.0-1.0-3.0,,,,,,,,,,,,,,,659817d80a3213cd1b4dced3,14:18:04,03/04/2024
6948.0,,,ospan,symmetry,3UMG47G6CWeflJDOUUzu20nwImc2,symmetry-judgement-task,148,1643598,0.0-46.0-5.0-0.0-1.0-4.0,,,,,,,,,,1.0,1.0,,,,659817d80a3213cd1b4dced3,14:18:04,03/04/2024
,"<div style=""font-size: 10rem; color: #0000FF"">C</div>",,ospan,letter,3UMG47G6CWeflJDOUUzu20nwImc2,html-keyboard-response,149,1644602,0.0-46.0-5.0-0.0-1.0-5.0,,,,,,,,,,,,,,,659817d80a3213cd1b4dced3,14:18:04,03/04/2024
5492.0,,,ospan,symmetry,3UMG47G6CWeflJDOUUzu20nwImc2,symmetry-judgement-task,150,1652377,0.0-46.0-5.0-0.0-1.0-6.0,,,,,,,,,,1.0,1.0,,,,659817d80a3213cd1b4dced3,14:18:04,03/04/2024
,"<div style=""font-size: 10rem; color: #0000FF"">J</div>",,ospan,letter,3UMG47G6CWeflJDOUUzu20nwImc2,html-keyboard-response,151,1653394,0.0-46.0-5.0-0.0-1.0-7.0,,,,,,,,,,,,,,,659817d80a3213cd1b4dced3,14:18:04,03/04/2024
5118.0,,,ospan,symmetry,3UMG47G6CWeflJDOUUzu20nwImc2,symmetry-judgement-task,152,1660937,0.0-46.0-5.0-0.0-1.0-8.0,,,,,,,,,,1.0,1.0,,,,659817d80a3213cd1b4dced3,14:18:04,03/04/2024
,"<div style=""font-size: 10rem; color: #0000FF"">N</div>",,ospan,letter,3UMG47G6CWeflJDOUUzu20nwImc2,html-keyboard-response,153,1661954,0.0-46.0-5.0-0.0-1.0-9.0,,,,,,,,,,,,,,,659817d80a3213cd1b4dced3,14:18:04,03/04/2024
4516.0,,,ospan,symmetry,3UMG47G6CWeflJDOUUzu20nwImc2,symmetry-judgement-task,154,1668779,0.0-46.0-5.0-0.0-1.0-10.0,,,,,,,,,,1.0,1.0,,,,659817d80a3213cd1b4dced3,14:18:04,03/04/2024
,"<div style=""font-size: 10rem; color: #0000FF"">L</div>",,ospan,letter,3UMG47G6CWeflJDOUUzu20nwImc2,html-keyboard-response,155,1669795,0.0-46.0-5.0-0.0-1.0-11.0,,,,,,,,,,,,,,,659817d80a3213cd1b4dced3,14:18:04,03/04/2024
13810.600000023842,"<div class = numbox><p style=""font-size: 2.4rem"">Please recall the letters you saw to the best of your ability. If you do not remember a particular letter, use the SKIP button.<br><b>(When you are ready to lock in your answer, press ENTER)</b></p><button id = button_1 class = ""square num-button"" onclick = ""recordClick(this)""><div class = content><div class = numbers>C</div></div></button><button id = button_2 class = ""square num-button"" onclick = ""recordClick(this)""><div class = content><div class = numbers>G</div></div></button><button id = button_3 class = ""square num-button"" onclick = ""recordClick(this)""><div class = content><div class = numbers>H</div></div></button><button id = button_4 class = ""square num-button"" onclick = ""recordClick(this)""><div class = content><div class = numbers>J</div></div></button><button id = button_5 class = ""square num-button"" onclick = ""recordClick(this)""><div class = content><div class = numbers>K</div></div></button><button id = button_6 class = ""square num-button"" onclick = ""recordClick(this)""><div class = content><div class = numbers>L</div></div></button><button id = button_7 class = ""square num-button"" onclick = ""recordClick(this)""><div class = content><div class = numbers>N</div></div></button><button id = button_8 class = ""square num-button"" onclick = ""recordClick(this)""><div class = content><div class = numbers>P</div></div></button><button id = button_9 class = ""square num-button"" onclick = ""recordClick(this)""><div class = content><div class = numbers>Q</div></div></button><button id = button_10 class = ""square num-button"" onclick = ""recordClick(this)""><div class = content><div class = numbers>R</div></div></button><button id = button_11 class = ""square num-button"" onclick = ""recordClick(this)""><div class = content><div class = numbers>S</div></div></button><button id = button_12 class = ""square num-button"" onclick = ""recordClick(this)""><div class = content><div class = numbers>Y</div></div></button><button class = clear_button id = ""ClearButton"" onclick = ""clearResponse()"">BACKSPACE</button><button class = blank_button id = ""BlankButton"" onclick = ""blankResponse()"">SKIP</button><p style=""font-size: 2.4rem""><u><b>Current Answer:</b></u></p><br><br><div id=echoed_txt style=""font-size: 5rem; color:blue;""><b></b></div></div>",enter,ospan,retrieval,3UMG47G6CWeflJDOUUzu20nwImc2,html-keyboard-response,156,1684367,0.0-46.0-5.0-0.0-2.0,21,17,10,6.0,"[""Y"",""G"",""C"",""N"",""L""]","[""Y"",""G"",""C"",""J"",""N"",""L""]",0.0,3.0,,,,,,,659817d80a3213cd1b4dced3,14:18:04,03/04/2024
2621.100000023842,[''],0,ospan,feedback,3UMG47G6CWeflJDOUUzu20nwImc2,html-button-response,157,1687502,0.0-46.0-5.0-0.0-3.0,,,,,,,,,,,,100.0,0.0,,659817d80a3213cd1b4dced3,14:18:04,03/04/2024
,"<p style=""font-size:75px;"">...</p>",,ospan,iti,3UMG47G6CWeflJDOUUzu20nwImc2,html-keyboard-response,158,1688507,0.0-46.0-5.0-1.0-0.0,,,,,,,,,,,,,,,659817d80a3213cd1b4dced3,14:18:04,03/04/2024
4135.0,,,ospan,symmetry,3UMG47G6CWeflJDOUUzu20nwImc2,symmetry-judgement-task,159,1694301,0.0-46.0-5.0-1.0-1.0-0.0,,,,,,,,,,1.0,1.0,,,,659817d80a3213cd1b4dced3,14:18:04,03/04/2024
,"<div style=""font-size: 10rem; color: #0000FF"">J</div>",,ospan,letter,3UMG47G6CWeflJDOUUzu20nwImc2,html-keyboard-response,160,1695312,0.0-46.0-5.0-1.0-1.0-1.0,,,,,,,,,,,,,,,659817d80a3213cd1b4dced3,14:18:04,03/04/2024
2947.0,,,ospan,symmetry,3UMG47G6CWeflJDOUUzu20nwImc2,symmetry-judgement-task,161,1700658,0.0-46.0-5.0-1.0-1.0-2.0,,,,,,,,,,1.0,1.0,,,,659817d80a3213cd1b4dced3,14:18:04,03/04/2024
,"<div style=""font-size: 10rem; color: #0000FF"">Y</div>",,ospan,letter,3UMG47G6CWeflJDOUUzu20nwImc2,html-keyboard-response,162,1701671,0.0-46.0-5.0-1.0-1.0-3.0,,,,,,,,,,,,,,,659817d80a3213cd1b4dced3,14:18:04,03/04/2024
3243.0,,,ospan,symmetry,3UMG47G6CWeflJDOUUzu20nwImc2,symmetry-judgement-task,163,1707229,0.0-46.0-5.0-1.0-1.0-4.0,,,,,,,,,,1.0,1.0,,,,659817d80a3213cd1b4dced3,14:18:04,03/04/2024
,"<div style=""font-size: 10rem; color: #0000FF"">L</div>",,ospan,letter,3UMG47G6CWeflJDOUUzu20nwImc2,html-keyboard-response,164,1708241,0.0-46.0-5.0-1.0-1.0-5.0,,,,,,,,,,,,,,,659817d80a3213cd1b4dced3,14:18:04,03/04/2024
3757.0,,,ospan,symmetry,3UMG47G6CWeflJDOUUzu20nwImc2,symmetry-judgement-task,165,1714455,0.0-46.0-5.0-1.0-1.0-6.0,,,,,,,,,,1.0,1.0,,,,659817d80a3213cd1b4dced3,14:18:04,03/04/2024
,"<div style=""font-size: 10rem; color: #0000FF"">S</div>",,ospan,letter,3UMG47G6CWeflJDOUUzu20nwImc2,html-keyboard-response,166,1715470,0.0-46.0-5.0-1.0-1.0-7.0,,,,,,,,,,,,,,,659817d80a3213cd1b4dced3,14:18:04,03/04/2024
2952.0,,,ospan,symmetry,3UMG47G6CWeflJDOUUzu20nwImc2,symmetry-judgement-task,167,1720721,0.0-46.0-5.0-1.0-1.0-8.0,,,,,,,,,,1.0,1.0,,,,659817d80a3213cd1b4dced3,14:18:04,03/04/2024
,"<div style=""font-size: 10rem; color: #0000FF"">Q</div>",,ospan,letter,3UMG47G6CWeflJDOUUzu20nwImc2,html-keyboard-response,168,1721738,0.0-46.0-5.0-1.0-1.0-9.0,,,,,,,,,,,,,,,659817d80a3213cd1b4dced3,14:18:04,03/04/2024
2951.0,,,ospan,symmetry,3UMG47G6CWeflJDOUUzu20nwImc2,symmetry-judgement-task,169,1726970,0.0-46.0-5.0-1.0-1.0-10.0,,,,,,,,,,1.0,1.0,,,,659817d80a3213cd1b4dced3,14:18:04,03/04/2024
,"<div style=""font-size: 10rem; color: #0000FF"">C</div>",,ospan,letter,3UMG47G6CWeflJDOUUzu20nwImc2,html-keyboard-response,170,1727990,0.0-46.0-5.0-1.0-1.0-11.0,,,,,,,,,,,,,,,659817d80a3213cd1b4dced3,14:18:04,03/04/2024
4503.0,,,ospan,symmetry,3UMG47G6CWeflJDOUUzu20nwImc2,symmetry-judgement-task,171,1734744,0.0-46.0-5.0-1.0-1.0-12.0,,,,,,,,,,1.0,1.0,,,,659817d80a3213cd1b4dced3,14:18:04,03/04/2024
,"<div style=""font-size: 10rem; color: #0000FF"">G</div>",,ospan,letter,3UMG47G6CWeflJDOUUzu20nwImc2,html-keyboard-response,172,1735760,0.0-46.0-5.0-1.0-1.0-13.0,,,,,,,,,,,,,,,659817d80a3213cd1b4dced3,14:18:04,03/04/2024
15735.099999904633,"<div class = numbox><p style=""font-size: 2.4rem"">Please recall the letters you saw to the best of your ability. If you do not remember a particular letter, use the SKIP button.<br><b>(When you are ready to lock in your answer, press ENTER)</b></p><button id = button_1 class = ""square num-button"" onclick = ""recordClick(this)""><div class = content><div class = numbers>C</div></div></button><button id = button_2 class = ""square num-button"" onclick = ""recordClick(this)""><div class = content><div class = numbers>G</div></div></button><button id = button_3 class = ""square num-button"" onclick = ""recordClick(this)""><div class = content><div class = numbers>H</div></div></button><button id = button_4 class = ""square num-button"" onclick = ""recordClick(this)""><div class = content><div class = numbers>J</div></div></button><button id = button_5 class = ""square num-button"" onclick = ""recordClick(this)""><div class = content><div class = numbers>K</div></div></button><button id = button_6 class = ""square num-button"" onclick = ""recordClick(this)""><div class = content><div class = numbers>L</div></div></button><button id = button_7 class = ""square num-button"" onclick = ""recordClick(this)""><div class = content><div class = numbers>N</div></div></button><button id = button_8 class = ""square num-button"" onclick = ""recordClick(this)""><div class = content><div class = numbers>P</div></div></button><button id = button_9 class = ""square num-button"" onclick = ""recordClick(this)""><div class = content><div class = numbers>Q</div></div></button><button id = button_10 class = ""square num-button"" onclick = ""recordClick(this)""><div class = content><div class = numbers>R</div></div></button><button id = button_11 class = ""square num-button"" onclick = ""recordClick(this)""><div class = content><div class = numbers>S</div></div></button><button id = button_12 class = ""square num-button"" onclick = ""recordClick(this)""><div class = content><div class = numbers>Y</div></div></button><button class = clear_button id = ""ClearButton"" onclick = ""clearResponse()"">BACKSPACE</button><button class = blank_button id = ""BlankButton"" onclick = ""blankResponse()"">SKIP</button><p style=""font-size: 2.4rem""><u><b>Current Answer:</b></u></p><br><br><div id=echoed_txt style=""font-size: 5rem; color:blue;""><b></b></div></div>",enter,ospan,retrieval,3UMG47G6CWeflJDOUUzu20nwImc2,html-keyboard-response,173,1752258,0.0-46.0-5.0-1.0-2.0,28,21,10,7.0,"[""Y"",""Y"",""L"",""S"",""Q"",""J""]","[""J"",""Y"",""L"",""S"",""Q"",""C"",""G""]",0.0,4.0,,,,,,,659817d80a3213cd1b4dced3,14:18:04,03/04/2024
1970.1000000238419,[''],0,ospan,feedback,3UMG47G6CWeflJDOUUzu20nwImc2,html-button-response,174,1754746,0.0-46.0-5.0-1.0-3.0,,,,,,,,,,,,100.0,0.0,,659817d80a3213cd1b4dced3,14:18:04,03/04/2024
,"<p style=""font-size:75px;"">...</p>",,ospan,iti,3UMG47G6CWeflJDOUUzu20nwImc2,html-keyboard-response,175,1755760,0.0-46.0-6.0-0.0-0.0,,,,,,,,,,,,,,,659817d80a3213cd1b4dced3,14:18:04,03/04/2024
5814.0,,,ospan,symmetry,3UMG47G6CWeflJDOUUzu20nwImc2,symmetry-judgement-task,176,1762726,0.0-46.0-6.0-0.0-1.0-0.0,,,,,,,,,,1.0,1.0,,,,659817d80a3213cd1b4dced3,14:18:04,03/04/2024
,"<div style=""font-size: 10rem; color: #0000FF"">Y</div>",,ospan,letter,3UMG47G6CWeflJDOUUzu20nwImc2,html-keyboard-response,177,1763740,0.0-46.0-6.0-0.0-1.0-1.0,,,,,,,,,,,,,,,659817d80a3213cd1b4dced3,14:18:04,03/04/2024
5528.0,,,ospan,symmetry,3UMG47G6CWeflJDOUUzu20nwImc2,symmetry-judgement-task,178,1771493,0.0-46.0-6.0-0.0-1.0-2.0,,,,,,,,,,1.0,1.0,,,,659817d80a3213cd1b4dced3,14:18:04,03/04/2024
,"<div style=""font-size: 10rem; color: #0000FF"">R</div>",,ospan,letter,3UMG47G6CWeflJDOUUzu20nwImc2,html-keyboard-response,179,1772504,0.0-46.0-6.0-0.0-1.0-3.0,,,,,,,,,,,,,,,659817d80a3213cd1b4dced3,14:18:04,03/04/2024
4681.0,,,ospan,symmetry,3UMG47G6CWeflJDOUUzu20nwImc2,symmetry-judgement-task,180,1779449,0.0-46.0-6.0-0.0-1.0-4.0,,,,,,,,,,1.0,1.0,,,,659817d80a3213cd1b4dced3,14:18:04,03/04/2024
,"<div style=""font-size: 10rem; color: #0000FF"">C</div>",,ospan,letter,3UMG47G6CWeflJDOUUzu20nwImc2,html-keyboard-response,181,1780466,0.0-46.0-6.0-0.0-1.0-5.0,,,,,,,,,,,,,,,659817d80a3213cd1b4dced3,14:18:04,03/04/2024
8166.0,,,ospan,symmetry,3UMG47G6CWeflJDOUUzu20nwImc2,symmetry-judgement-task,182,1790814,0.0-46.0-6.0-0.0-1.0-6.0,,,,,,,,,,1.0,1.0,,,,659817d80a3213cd1b4dced3,14:18:04,03/04/2024
,"<div style=""font-size: 10rem; color: #0000FF"">H</div>",,ospan,letter,3UMG47G6CWeflJDOUUzu20nwImc2,html-keyboard-response,183,1791826,0.0-46.0-6.0-0.0-1.0-7.0,,,,,,,,,,,,,,,659817d80a3213cd1b4dced3,14:18:04,03/04/2024
2952.0,,,ospan,symmetry,3UMG47G6CWeflJDOUUzu20nwImc2,symmetry-judgement-task,184,1796980,0.0-46.0-6.0-0.0-1.0-8.0,,,,,,,,,,1.0,1.0,,,,659817d80a3213cd1b4dced3,14:18:04,03/04/2024
,"<div style=""font-size: 10rem; color: #0000FF"">K</div>",,ospan,letter,3UMG47G6CWeflJDOUUzu20nwImc2,html-keyboard-response,185,1797994,0.0-46.0-6.0-0.0-1.0-9.0,,,,,,,,,,,,,,,659817d80a3213cd1b4dced3,14:18:04,03/04/2024
9996.5,"<div class = numbox><p style=""font-size: 2.4rem"">Please recall the letters you saw to the best of your ability. If you do not remember a particular letter, use the SKIP button.<br><b>(When you are ready to lock in your answer, press ENTER)</b></p><button id = button_1 class = ""square num-button"" onclick = ""recordClick(this)""><div class = content><div class = numbers>C</div></div></button><button id = button_2 class = ""square num-button"" onclick = ""recordClick(this)""><div class = content><div class = numbers>G</div></div></button><button id = button_3 class = ""square num-button"" onclick = ""recordClick(this)""><div class = content><div class = numbers>H</div></div></button><button id = button_4 class = ""square num-button"" onclick = ""recordClick(this)""><div class = content><div class = numbers>J</div></div></button><button id = button_5 class = ""square num-button"" onclick = ""recordClick(this)""><div class = content><div class = numbers>K</div></div></button><button id = button_6 class = ""square num-button"" onclick = ""recordClick(this)""><div class = content><div class = numbers>L</div></div></button><button id = button_7 class = ""square num-button"" onclick = ""recordClick(this)""><div class = content><div class = numbers>N</div></div></button><button id = button_8 class = ""square num-button"" onclick = ""recordClick(this)""><div class = content><div class = numbers>P</div></div></button><button id = button_9 class = ""square num-button"" onclick = ""recordClick(this)""><div class = content><div class = numbers>Q</div></div></button><button id = button_10 class = ""square num-button"" onclick = ""recordClick(this)""><div class = content><div class = numbers>R</div></div></button><button id = button_11 class = ""square num-button"" onclick = ""recordClick(this)""><div class = content><div class = numbers>S</div></div></button><button id = button_12 class = ""square num-button"" onclick = ""recordClick(this)""><div class = content><div class = numbers>Y</div></div></button><button class = clear_button id = ""ClearButton"" onclick = ""clearResponse()"">BACKSPACE</button><button class = blank_button id = ""BlankButton"" onclick = ""blankResponse()"">SKIP</button><p style=""font-size: 2.4rem""><u><b>Current Answer:</b></u></p><br><br><div id=echoed_txt style=""font-size: 5rem; color:blue;""><b></b></div></div>",enter,ospan,retrieval,3UMG47G6CWeflJDOUUzu20nwImc2,html-keyboard-response,186,1808758,0.0-46.0-6.0-0.0-2.0,33,26,15,5.0,"[""Y"",""R"",""C"",""H"",""K""]","[""Y"",""R"",""C"",""H"",""K""]",1.0,5.0,,,,,,,659817d80a3213cd1b4dced3,14:18:04,03/04/2024
2231.1999999284744,[''],0,ospan,feedback,3UMG47G6CWeflJDOUUzu20nwImc2,html-button-response,187,1811497,0.0-46.0-6.0-0.0-3.0,,,,,,,,,,,,100.0,0.0,,659817d80a3213cd1b4dced3,14:18:04,03/04/2024
,"<p style=""font-size:75px;"">...</p>",,ospan,iti,3UMG47G6CWeflJDOUUzu20nwImc2,html-keyboard-response,188,1812514,0.0-46.0-6.0-1.0-0.0,,,,,,,,,,,,,,,659817d80a3213cd1b4dced3,14:18:04,03/04/2024
5449.0,,,ospan,symmetry,3UMG47G6CWeflJDOUUzu20nwImc2,symmetry-judgement-task,189,1819382,0.0-46.0-6.0-1.0-1.0-0.0,,,,,,,,,,1.0,1.0,,,,659817d80a3213cd1b4dced3,14:18:04,03/04/2024
,"<div style=""font-size: 10rem; color: #0000FF"">Q</div>",,ospan,letter,3UMG47G6CWeflJDOUUzu20nwImc2,html-keyboard-response,190,1820398,0.0-46.0-6.0-1.0-1.0-1.0,,,,,,,,,,,,,,,659817d80a3213cd1b4dced3,14:18:04,03/04/2024
4950.0,,,ospan,symmetry,3UMG47G6CWeflJDOUUzu20nwImc2,symmetry-judgement-task,191,1827740,0.0-46.0-6.0-1.0-1.0-2.0,,,,,,,,,,1.0,1.0,,,,659817d80a3213cd1b4dced3,14:18:04,03/04/2024
,"<div style=""font-size: 10rem; color: #0000FF"">N</div>",,ospan,letter,3UMG47G6CWeflJDOUUzu20nwImc2,html-keyboard-response,192,1828746,0.0-46.0-6.0-1.0-1.0-3.0,,,,,,,,,,,,,,,659817d80a3213cd1b4dced3,14:18:04,03/04/2024
5931.0,,,ospan,symmetry,3UMG47G6CWeflJDOUUzu20nwImc2,symmetry-judgement-task,193,1836884,0.0-46.0-6.0-1.0-1.0-4.0,,,,,,,,,,1.0,1.0,,,,659817d80a3213cd1b4dced3,14:18:04,03/04/2024
,"<div style=""font-size: 10rem; color: #0000FF"">J</div>",,ospan,letter,3UMG47G6CWeflJDOUUzu20nwImc2,html-keyboard-response,194,1837898,0.0-46.0-6.0-1.0-1.0-5.0,,,,,,,,,,,,,,,659817d80a3213cd1b4dced3,14:18:04,03/04/2024
5207.0,,,ospan,symmetry,3UMG47G6CWeflJDOUUzu20nwImc2,symmetry-judgement-task,195,1845288,0.0-46.0-6.0-1.0-1.0-6.0,,,,,,,,,,1.0,1.0,,,,659817d80a3213cd1b4dced3,14:18:04,03/04/2024
,"<div style=""font-size: 10rem; color: #0000FF"">P</div>",,ospan,letter,3UMG47G6CWeflJDOUUzu20nwImc2,html-keyboard-response,196,1846298,0.0-46.0-6.0-1.0-1.0-7.0,,,,,,,,,,,,,,,659817d80a3213cd1b4dced3,14:18:04,03/04/2024
3886.0,,,ospan,symmetry,3UMG47G6CWeflJDOUUzu20nwImc2,symmetry-judgement-task,197,1852386,0.0-46.0-6.0-1.0-1.0-8.0,,,,,,,,,,1.0,1.0,,,,659817d80a3213cd1b4dced3,14:18:04,03/04/2024
,"<div style=""font-size: 10rem; color: #0000FF"">S</div>",,ospan,letter,3UMG47G6CWeflJDOUUzu20nwImc2,html-keyboard-response,198,1853399,0.0-46.0-6.0-1.0-1.0-9.0,,,,,,,,,,,,,,,659817d80a3213cd1b4dced3,14:18:04,03/04/2024
4991.0,,,ospan,symmetry,3UMG47G6CWeflJDOUUzu20nwImc2,symmetry-judgement-task,199,1860652,0.0-46.0-6.0-1.0-1.0-10.0,,,,,,,,,,1.0,1.0,,,,659817d80a3213cd1b4dced3,14:18:04,03/04/2024
,"<div style=""font-size: 10rem; color: #0000FF"">G</div>",,ospan,letter,3UMG47G6CWeflJDOUUzu20nwImc2,html-keyboard-response,200,1861666,0.0-46.0-6.0-1.0-1.0-11.0,,,,,,,,,,,,,,,659817d80a3213cd1b4dced3,14:18:04,03/04/2024
8706.0,,,ospan,symmetry,3UMG47G6CWeflJDOUUzu20nwImc2,symmetry-judgement-task,201,1872638,0.0-46.0-6.0-1.0-1.0-12.0,,,,,,,,,,1.0,1.0,,,,659817d80a3213cd1b4dced3,14:18:04,03/04/2024
,"<div style=""font-size: 10rem; color: #0000FF"">L</div>",,ospan,letter,3UMG47G6CWeflJDOUUzu20nwImc2,html-keyboard-response,202,1873647,0.0-46.0-6.0-1.0-1.0-13.0,,,,,,,,,,,,,,,659817d80a3213cd1b4dced3,14:18:04,03/04/2024
3739.0,,,ospan,symmetry,3UMG47G6CWeflJDOUUzu20nwImc2,symmetry-judgement-task,203,1879564,0.0-46.0-6.0-1.0-1.0-14.0,,,,,,,,,,1.0,1.0,,,,659817d80a3213cd1b4dced3,14:18:04,03/04/2024
,"<div style=""font-size: 10rem; color: #0000FF"">K</div>",,ospan,letter,3UMG47G6CWeflJDOUUzu20nwImc2,html-keyboard-response,204,1880570,0.0-46.0-6.0-1.0-1.0-15.0,,,,,,,,,,,,,,,659817d80a3213cd1b4dced3,14:18:04,03/04/2024
18572.399999976158,"<div class = numbox><p style=""font-size: 2.4rem"">Please recall the letters you saw to the best of your ability. If you do not remember a particular letter, use the SKIP button.<br><b>(When you are ready to lock in your answer, press ENTER)</b></p><button id = button_1 class = ""square num-button"" onclick = ""recordClick(this)""><div class = content><div class = numbers>C</div></div></button><button id = button_2 class = ""square num-button"" onclick = ""recordClick(this)""><div class = content><div class = numbers>G</div></div></button><button id = button_3 class = ""square num-button"" onclick = ""recordClick(this)""><div class = content><div class = numbers>H</div></div></button><button id = button_4 class = ""square num-button"" onclick = ""recordClick(this)""><div class = content><div class = numbers>J</div></div></button><button id = button_5 class = ""square num-button"" onclick = ""recordClick(this)""><div class = content><div class = numbers>K</div></div></button><button id = button_6 class = ""square num-button"" onclick = ""recordClick(this)""><div class = content><div class = numbers>L</div></div></button><button id = button_7 class = ""square num-button"" onclick = ""recordClick(this)""><div class = content><div class = numbers>N</div></div></button><button id = button_8 class = ""square num-button"" onclick = ""recordClick(this)""><div class = content><div class = numbers>P</div></div></button><button id = button_9 class = ""square num-button"" onclick = ""recordClick(this)""><div class = content><div class = numbers>Q</div></div></button><button id = button_10 class = ""square num-button"" onclick = ""recordClick(this)""><div class = content><div class = numbers>R</div></div></button><button id = button_11 class = ""square num-button"" onclick = ""recordClick(this)""><div class = content><div class = numbers>S</div></div></button><button id = button_12 class = ""square num-button"" onclick = ""recordClick(this)""><div class = content><div class = numbers>Y</div></div></button><button class = clear_button id = ""ClearButton"" onclick = ""clearResponse()"">BACKSPACE</button><button class = blank_button id = ""BlankButton"" onclick = ""blankResponse()"">SKIP</button><p style=""font-size: 2.4rem""><u><b>Current Answer:</b></u></p><br><br><div id=echoed_txt style=""font-size: 5rem; color:blue;""><b></b></div></div>",enter,ospan,retrieval,3UMG47G6CWeflJDOUUzu20nwImc2,html-keyboard-response,205,1899903,0.0-46.0-6.0-1.0-2.0,41,31,15,8.0,"[""Q"",""N"",""J"",""P"",""S"",""K""]","[""Q"",""N"",""J"",""P"",""S"",""G"",""L"",""K""]",0.0,5.0,,,,,,,659817d80a3213cd1b4dced3,14:18:04,03/04/2024
1944.3000000715256,[''],0,ospan,feedback,3UMG47G6CWeflJDOUUzu20nwImc2,html-button-response,206,1902353,0.0-46.0-6.0-1.0-3.0,,,,,,,,,,,,100.0,0.0,,659817d80a3213cd1b4dced3,14:18:04,03/04/2024
81286.39999997616,,"{'Q0': 'I enjoyed the challenge of remembering all the letters in the correct order, especially when the sequence of letters was quite long.'}",ospan,survey_ospan,3UMG47G6CWeflJDOUUzu20nwImc2,lmdlab-survey-text,207,1984412,0.0-46.0-7.0,,,,,,,,,,,,,,3UMG47G6CWeflJDOUUzu20nwImc2,659817d80a3213cd1b4dced3,14:18:04,03/04/2024
5036.100000023842,<p><p style='font-size: 3rem'>Great work!<br><br>This completes the symmetry and memory task.</p><br><br><br>,0,ospan,finish,3UMG47G6CWeflJDOUUzu20nwImc2,html-button-response,208,1989455,0.0-46.0-8.0,41,31,15,,,,,,,,,100.0,,,659817d80a3213cd1b4dced3,14:18:04,03/04/2024
