rt,stimulus,response,exp_name,exp_stage,subjectID,trial_type,trial_index,time_elapsed,internal_node_id,ospan_shown,ospan_total,ospan_abs,length,resp_actual,resp_correct,full_correct,num_correct,feedback,accuracy,correct,math_acc,math_warning,databaseID,prolificID,start_time,date
1679.199999988079,<div class = 'left_align' style='font-size: 3.25rem; line-height: 1.3;'><p class = 'center_align'><b>Welcome to the Symmetry and Memory Task</b><br><br><br><br></p>Press 'continue' to show the instructions.<br><br><br><br></div>,0,ospan,instruct,w82roJV6jOMKDwwEII4KGxpOYPx2,html-button-response,54,443130,0.0-46.0-0.0-0.0-0.0,,,,,,,,,,,,,,,6012d4f3e68e2209e7e53679,17:25:03,03/04/2024
4957.800000011921,"<div class = 'left_align' style='font-size: 3.25rem; line-height: 1.3;'><p class = 'center_align'><b>Symmetry and Memory Task</b><br><br></p>In this task, you will try to memorize letters you see on the screen<br>while you also view black and white grid pictures.<br><br>In the next few minutes, you will have some practice to get you familiar<br>with how the task works.<br><br>It may be difficult sometimes, but please do not worry about making mistakes!<br><br>We will begin by practicing the letter part of the task.<br><br><br><br></div>",0,ospan,instruct,w82roJV6jOMKDwwEII4KGxpOYPx2,html-button-response,55,448346,0.0-46.0-0.0-0.0-1.0,,,,,,,,,,,,,,,6012d4f3e68e2209e7e53679,17:25:03,03/04/2024
5906.199999988079,"<div class = 'left_align' style='font-size: 3.25rem; line-height: 1.3;'>For this practice part, letters will appear on the screen one at a time.<br><br>Try to remember each letter in the order presented.<br><br>After some letters have been shown, you will see a response screen. Your<br>goal is to report the letters you saw <b>in order</b>. If you do not remember<br>a particular letter, you will have the option to leave it blank.<br><br><br><br></div>",0,ospan,instruct,w82roJV6jOMKDwwEII4KGxpOYPx2,html-button-response,56,454516,0.0-46.0-0.0-0.0-2.0,,,,,,,,,,,,,,,6012d4f3e68e2209e7e53679,17:25:03,03/04/2024
2384.199999988079,"<div class = 'left_align' style='font-size: 3.25rem; line-height: 1.3;'>Remember, it is very important to get the letters in the same<br>order as you see them.<br><br>When you are ready, you may begin the letter practice.</div><br><br><br><br>",0,ospan,instruct,w82roJV6jOMKDwwEII4KGxpOYPx2,html-button-response,57,457154,0.0-46.0-0.0-0.0-3.0,,,,,,,,,,,,,,,6012d4f3e68e2209e7e53679,17:25:03,03/04/2024
,"<p style=""font-size:75px;"">...</p>",,ospan,iti,w82roJV6jOMKDwwEII4KGxpOYPx2,html-keyboard-response,58,458420,0.0-46.0-0.0-1.0-0.0,,,,,,,,,,,,,,,6012d4f3e68e2209e7e53679,17:25:03,03/04/2024
,"<div style=""font-size: 10rem; color: #0000FF"">Y</div>",,ospan,letter,w82roJV6jOMKDwwEII4KGxpOYPx2,html-keyboard-response,59,459425,0.0-46.0-0.0-1.0-1.0,,,,,,,,,,,,,,,6012d4f3e68e2209e7e53679,17:25:03,03/04/2024
,"<div style=""font-size: 10rem; color: #0000FF"">N</div>",,ospan,letter,w82roJV6jOMKDwwEII4KGxpOYPx2,html-keyboard-response,60,461194,0.0-46.0-0.0-1.0-2.0,,,,,,,,,,,,,,,6012d4f3e68e2209e7e53679,17:25:03,03/04/2024
8824.600000023842,"<div class = numbox><p style=""font-size: 2.4rem"">Please recall the letters you saw to the best of your ability. If you do not remember a particular letter, use the SKIP button.<br><b>(When you are ready to lock in your answer, press ENTER)</b></p><button id = button_1 class = ""square num-button"" onclick = ""recordClick(this)""><div class = content><div class = numbers>C</div></div></button><button id = button_2 class = ""square num-button"" onclick = ""recordClick(this)""><div class = content><div class = numbers>G</div></div></button><button id = button_3 class = ""square num-button"" onclick = ""recordClick(this)""><div class = content><div class = numbers>H</div></div></button><button id = button_4 class = ""square num-button"" onclick = ""recordClick(this)""><div class = content><div class = numbers>J</div></div></button><button id = button_5 class = ""square num-button"" onclick = ""recordClick(this)""><div class = content><div class = numbers>K</div></div></button><button id = button_6 class = ""square num-button"" onclick = ""recordClick(this)""><div class = content><div class = numbers>L</div></div></button><button id = button_7 class = ""square num-button"" onclick = ""recordClick(this)""><div class = content><div class = numbers>N</div></div></button><button id = button_8 class = ""square num-button"" onclick = ""recordClick(this)""><div class = content><div class = numbers>P</div></div></button><button id = button_9 class = ""square num-button"" onclick = ""recordClick(this)""><div class = content><div class = numbers>Q</div></div></button><button id = button_10 class = ""square num-button"" onclick = ""recordClick(this)""><div class = content><div class = numbers>R</div></div></button><button id = button_11 class = ""square num-button"" onclick = ""recordClick(this)""><div class = content><div class = numbers>S</div></div></button><button id = button_12 class = ""square num-button"" onclick = ""recordClick(this)""><div class = content><div class = numbers>Y</div></div></button><button class = clear_button id = ""ClearButton"" onclick = ""clearResponse()"">BACKSPACE</button><button class = blank_button id = ""BlankButton"" onclick = ""blankResponse()"">SKIP</button><p style=""font-size: 2.4rem""><u><b>Current Answer:</b></u></p><br><br><div id=echoed_txt style=""font-size: 5rem; color:blue;""><b></b></div></div>",enter,ospan,retrieval,w82roJV6jOMKDwwEII4KGxpOYPx2,html-keyboard-response,61,470774,0.0-46.0-0.0-1.0-3.0,NA,NA,NA,2.0,"[""Y"",""N""]","[""Y"",""N""]",1.0,2.0,"['<font color=""green"">Y</font>', '<font color=""green"">N</font>']",,,,,,6012d4f3e68e2209e7e53679,17:25:03,03/04/2024
1277.1000000238419,"['<p style=""font-size:44px"">Letters:<br><br><br><font color=""green"">Y</font> <font color=""green"">N</font></p><br><br>']",0,ospan,practice_feedback,w82roJV6jOMKDwwEII4KGxpOYPx2,html-button-response,62,472568,0.0-46.0-0.0-1.0-4.0,,,,,,,,,,,,,,,6012d4f3e68e2209e7e53679,17:25:03,03/04/2024
,"<p style=""font-size:75px;"">...</p>",,ospan,iti,w82roJV6jOMKDwwEII4KGxpOYPx2,html-keyboard-response,63,473578,0.0-46.0-0.0-2.0-0.0,,,,,,,,,,,,,,,6012d4f3e68e2209e7e53679,17:25:03,03/04/2024
,"<div style=""font-size: 10rem; color: #0000FF"">H</div>",,ospan,letter,w82roJV6jOMKDwwEII4KGxpOYPx2,html-keyboard-response,64,474593,0.0-46.0-0.0-2.0-1.0,,,,,,,,,,,,,,,6012d4f3e68e2209e7e53679,17:25:03,03/04/2024
,"<div style=""font-size: 10rem; color: #0000FF"">K</div>",,ospan,letter,w82roJV6jOMKDwwEII4KGxpOYPx2,html-keyboard-response,65,476358,0.0-46.0-0.0-2.0-2.0,,,,,,,,,,,,,,,6012d4f3e68e2209e7e53679,17:25:03,03/04/2024
,"<div style=""font-size: 10rem; color: #0000FF"">L</div>",,ospan,letter,w82roJV6jOMKDwwEII4KGxpOYPx2,html-keyboard-response,66,478123,0.0-46.0-0.0-2.0-3.0,,,,,,,,,,,,,,,6012d4f3e68e2209e7e53679,17:25:03,03/04/2024
3589.800000011921,"<div class = numbox><p style=""font-size: 2.4rem"">Please recall the letters you saw to the best of your ability. If you do not remember a particular letter, use the SKIP button.<br><b>(When you are ready to lock in your answer, press ENTER)</b></p><button id = button_1 class = ""square num-button"" onclick = ""recordClick(this)""><div class = content><div class = numbers>C</div></div></button><button id = button_2 class = ""square num-button"" onclick = ""recordClick(this)""><div class = content><div class = numbers>G</div></div></button><button id = button_3 class = ""square num-button"" onclick = ""recordClick(this)""><div class = content><div class = numbers>H</div></div></button><button id = button_4 class = ""square num-button"" onclick = ""recordClick(this)""><div class = content><div class = numbers>J</div></div></button><button id = button_5 class = ""square num-button"" onclick = ""recordClick(this)""><div class = content><div class = numbers>K</div></div></button><button id = button_6 class = ""square num-button"" onclick = ""recordClick(this)""><div class = content><div class = numbers>L</div></div></button><button id = button_7 class = ""square num-button"" onclick = ""recordClick(this)""><div class = content><div class = numbers>N</div></div></button><button id = button_8 class = ""square num-button"" onclick = ""recordClick(this)""><div class = content><div class = numbers>P</div></div></button><button id = button_9 class = ""square num-button"" onclick = ""recordClick(this)""><div class = content><div class = numbers>Q</div></div></button><button id = button_10 class = ""square num-button"" onclick = ""recordClick(this)""><div class = content><div class = numbers>R</div></div></button><button id = button_11 class = ""square num-button"" onclick = ""recordClick(this)""><div class = content><div class = numbers>S</div></div></button><button id = button_12 class = ""square num-button"" onclick = ""recordClick(this)""><div class = content><div class = numbers>Y</div></div></button><button class = clear_button id = ""ClearButton"" onclick = ""clearResponse()"">BACKSPACE</button><button class = blank_button id = ""BlankButton"" onclick = ""blankResponse()"">SKIP</button><p style=""font-size: 2.4rem""><u><b>Current Answer:</b></u></p><br><br><div id=echoed_txt style=""font-size: 5rem; color:blue;""><b></b></div></div>",enter,ospan,retrieval,w82roJV6jOMKDwwEII4KGxpOYPx2,html-keyboard-response,67,482470,0.0-46.0-0.0-2.0-4.0,NA,NA,NA,3.0,"[""H"",""K"",""L""]","[""H"",""K"",""L""]",1.0,3.0,"['<font color=""green"">H</font>', '<font color=""green"">K</font>', '<font color=""green"">L</font>']",,,,,,6012d4f3e68e2209e7e53679,17:25:03,03/04/2024
810.1999999880791,"['<p style=""font-size:44px"">Letters:<br><br><br><font color=""green"">H</font> <font color=""green"">K</font> <font color=""green"">L</font></p><br><br>']",0,ospan,practice_feedback,w82roJV6jOMKDwwEII4KGxpOYPx2,html-button-response,68,483794,0.0-46.0-0.0-2.0-5.0,,,,,,,,,,,,,,,6012d4f3e68e2209e7e53679,17:25:03,03/04/2024
7329.300000011921,"<div class = 'left_align' style='font-size: 3.25rem; line-height: 1.3;'>Now you will practice doing the <b>symmetry judgment part</b> of the experiment.<br><br>A black and white grid picture will appear on the screen and you have to judge if it is <br>symmetrical or asymetrical.<br><br>A picture is 'mirror' symmetrical if its left half is identical to the right half when flipped.<br>Here are examples of a symmetrical and an asymetrical picture:<br><br><center><img src='Stimuli/img/symm_instructions_extra.png' style='height:420px; width:900'></img></center><br>To judge symmetry, imagine you were to fold each picture down the middle, like a book –<br>would the left half match the right half when folded onto each other?<br><br></div><br>",0,ospan,instruct,w82roJV6jOMKDwwEII4KGxpOYPx2,html-button-response,69,491125,0.0-46.0-1.0-0.0-0.0,,,,,,,,,,,,,,,6012d4f3e68e2209e7e53679,17:25:03,03/04/2024
1525.6000000238419,"<div class = 'left_align' style='font-size: 3.25rem; line-height: 1.3;'>When you have viewed the picture and determined whether it is symmetrical or not,<br>you can <b>click the Yes or No button</b> below to answer.<br><br>If you take longer than 15 seconds, it will continue automatically<br>and record the answer as an error.</div><br>",0,ospan,instruct,w82roJV6jOMKDwwEII4KGxpOYPx2,html-button-response,70,492909,0.0-46.0-1.0-0.0-1.0,,,,,,,,,,,,,,,6012d4f3e68e2209e7e53679,17:25:03,03/04/2024
2552.0,"<div class = 'left_align' style='font-size: 3.25rem; line-height: 1.3;'>It is <b>very</b> important that you make the symmetry judgment correctly.<br><br>It is also important that you try and judge the picture as quickly as you can.<br><br>When you are ready, click on the button below to try some practice problems.</div><br><br><br><br>",0,ospan,instruct,w82roJV6jOMKDwwEII4KGxpOYPx2,html-button-response,71,495717,0.0-46.0-1.0-0.0-2.0,,,,,,,,,,,,,,,6012d4f3e68e2209e7e53679,17:25:03,03/04/2024
2641.0,,,ospan,symmetry,w82roJV6jOMKDwwEII4KGxpOYPx2,symmetry-judgement-task,72,499194,0.0-46.0-1.0-1.0-0.0,,,,,,,,,,1.0,1.0,,,,6012d4f3e68e2209e7e53679,17:25:03,03/04/2024
,"<p style=""color:green; font-size: 35px"">Correct</p>",,ospan,feedback,w82roJV6jOMKDwwEII4KGxpOYPx2,html-keyboard-response,73,499946,0.0-46.0-1.0-1.0-1.0,,,,,,,,,,,,,,,6012d4f3e68e2209e7e53679,17:25:03,03/04/2024
1835.0,,,ospan,symmetry,w82roJV6jOMKDwwEII4KGxpOYPx2,symmetry-judgement-task,74,504542,0.0-46.0-1.0-1.0-2.0,,,,,,,,,,1.0,1.0,,,,6012d4f3e68e2209e7e53679,17:25:03,03/04/2024
,"<p style=""color:green; font-size: 35px"">Correct</p>",,ospan,feedback,w82roJV6jOMKDwwEII4KGxpOYPx2,html-keyboard-response,75,505298,0.0-46.0-1.0-1.0-3.0,,,,,,,,,,,,,,,6012d4f3e68e2209e7e53679,17:25:03,03/04/2024
1728.0,,,ospan,symmetry,w82roJV6jOMKDwwEII4KGxpOYPx2,symmetry-judgement-task,76,509811,0.0-46.0-1.0-1.0-4.0,,,,,,,,,,1.0,1.0,,,,6012d4f3e68e2209e7e53679,17:25:03,03/04/2024
,"<p style=""color:green; font-size: 35px"">Correct</p>",,ospan,feedback,w82roJV6jOMKDwwEII4KGxpOYPx2,html-keyboard-response,77,510563,0.0-46.0-1.0-1.0-5.0,,,,,,,,,,,,,,,6012d4f3e68e2209e7e53679,17:25:03,03/04/2024
1070.8999999761581,"<p style=""font-size: 3rem;"">You responded correctly on 3 of 3 symmetry judgments. Good job!</p><br><br>",0,ospan,practice,w82roJV6jOMKDwwEII4KGxpOYPx2,html-button-response,78,513642,0.0-46.0-1.0-2.0,,,,,,,,,,,,,,,6012d4f3e68e2209e7e53679,17:25:03,03/04/2024
2715.199999988079,"<div class = 'left_align' style='font-size: 3.25rem; line-height: 1.3;'>Now you will practice doing both parts of the experiment at the same time.<br><br>In the next practice set, you will be given one grid picture to judge.<br>Then letter will appear on the screen. Try to remember the letter.<br><br>It is <b>very important</b> to make the symmetry judgment as quickly and accurately as possible.<br><br>Just as before, once you have make the symmetry judgment, you can click Yes or No.<br><b>Note that you will no longer see Correct or Incorrect feedback.</div><br><br><br><br>",0,ospan,instruct,w82roJV6jOMKDwwEII4KGxpOYPx2,html-button-response,79,516615,0.0-46.0-2.0-0.0-0.0,,,,,,,,,,,,,,,6012d4f3e68e2209e7e53679,17:25:03,03/04/2024
1484.0,"<div class = 'left_align' style='font-size: 3.25rem; line-height: 1.3;'>After the letter goes away, another grid picture will appear, and then<br>another letter.<br><br>At the end of each set of letters and grids, you will recall the letters to the best<br>of your ability. Remember, try your best to get the letters in the correct order.<br><br>It is important to <b>quickly</b> and <b>accurately</b> make the symmetry judgments.</div><br><br><br><br>",0,ospan,instruct,w82roJV6jOMKDwwEII4KGxpOYPx2,html-button-response,80,518355,0.0-46.0-2.0-0.0-1.0,,,,,,,,,,,,,,,6012d4f3e68e2209e7e53679,17:25:03,03/04/2024
4038.300000011921,"<div class = 'left_align' style='font-size: 3.25rem; line-height: 1.3;'>On the feedback screen, if you are not doing well at the symmetry judgments,<br>you will also see a warning in the middle. This indicates your percent <br>correct for the grid pictures for the entire experiment.<br><br>It is <b>very</b> important for you to keep accuracy at least at 85%: <u>We can only use<br>data where the participant was at least 85% accurate on the judgments.</u> Therefore,<br> please try your best to perform well on the symmetry judgments, <b>at the same time</b><br>doing your best to recall as many letters as possible.<br><br>Click the button to try some practice problems.</div><br><br><br><br>",0,ospan,instruct,w82roJV6jOMKDwwEII4KGxpOYPx2,html-button-response,81,522659,0.0-46.0-2.0-0.0-2.0,,,,,,,,,,,,,,,6012d4f3e68e2209e7e53679,17:25:03,03/04/2024
,"<p style=""font-size:75px;"">...</p>",,ospan,iti,w82roJV6jOMKDwwEII4KGxpOYPx2,html-keyboard-response,82,523927,0.0-46.0-2.0-1.0-0.0,,,,,,,,,,,,,,,6012d4f3e68e2209e7e53679,17:25:03,03/04/2024
1823.0,,,ospan,symmetry,w82roJV6jOMKDwwEII4KGxpOYPx2,symmetry-judgement-task,83,527010,0.0-46.0-2.0-1.0-1.0-0.0,,,,,,,,,,1.0,1.0,,,,6012d4f3e68e2209e7e53679,17:25:03,03/04/2024
,"<div style=""font-size: 10rem; color: #0000FF"">G</div>",,ospan,letter,w82roJV6jOMKDwwEII4KGxpOYPx2,html-keyboard-response,84,528024,0.0-46.0-2.0-1.0-1.0-1.0,,,,,,,,,,,,,,,6012d4f3e68e2209e7e53679,17:25:03,03/04/2024
2188.0,,,ospan,symmetry,w82roJV6jOMKDwwEII4KGxpOYPx2,symmetry-judgement-task,85,532253,0.0-46.0-2.0-1.0-1.0-2.0,,,,,,,,,,1.0,1.0,,,,6012d4f3e68e2209e7e53679,17:25:03,03/04/2024
,"<div style=""font-size: 10rem; color: #0000FF"">C</div>",,ospan,letter,w82roJV6jOMKDwwEII4KGxpOYPx2,html-keyboard-response,86,533261,0.0-46.0-2.0-1.0-1.0-3.0,,,,,,,,,,,,,,,6012d4f3e68e2209e7e53679,17:25:03,03/04/2024
1742.0,,,ospan,symmetry,w82roJV6jOMKDwwEII4KGxpOYPx2,symmetry-judgement-task,87,537041,0.0-46.0-2.0-1.0-1.0-4.0,,,,,,,,,,1.0,1.0,,,,6012d4f3e68e2209e7e53679,17:25:03,03/04/2024
,"<div style=""font-size: 10rem; color: #0000FF"">Q</div>",,ospan,letter,w82roJV6jOMKDwwEII4KGxpOYPx2,html-keyboard-response,88,538045,0.0-46.0-2.0-1.0-1.0-5.0,,,,,,,,,,,,,,,6012d4f3e68e2209e7e53679,17:25:03,03/04/2024
3181.2999999523163,"<div class = numbox><p style=""font-size: 2.4rem"">Please recall the letters you saw to the best of your ability. If you do not remember a particular letter, use the SKIP button.<br><b>(When you are ready to lock in your answer, press ENTER)</b></p><button id = button_1 class = ""square num-button"" onclick = ""recordClick(this)""><div class = content><div class = numbers>C</div></div></button><button id = button_2 class = ""square num-button"" onclick = ""recordClick(this)""><div class = content><div class = numbers>G</div></div></button><button id = button_3 class = ""square num-button"" onclick = ""recordClick(this)""><div class = content><div class = numbers>H</div></div></button><button id = button_4 class = ""square num-button"" onclick = ""recordClick(this)""><div class = content><div class = numbers>J</div></div></button><button id = button_5 class = ""square num-button"" onclick = ""recordClick(this)""><div class = content><div class = numbers>K</div></div></button><button id = button_6 class = ""square num-button"" onclick = ""recordClick(this)""><div class = content><div class = numbers>L</div></div></button><button id = button_7 class = ""square num-button"" onclick = ""recordClick(this)""><div class = content><div class = numbers>N</div></div></button><button id = button_8 class = ""square num-button"" onclick = ""recordClick(this)""><div class = content><div class = numbers>P</div></div></button><button id = button_9 class = ""square num-button"" onclick = ""recordClick(this)""><div class = content><div class = numbers>Q</div></div></button><button id = button_10 class = ""square num-button"" onclick = ""recordClick(this)""><div class = content><div class = numbers>R</div></div></button><button id = button_11 class = ""square num-button"" onclick = ""recordClick(this)""><div class = content><div class = numbers>S</div></div></button><button id = button_12 class = ""square num-button"" onclick = ""recordClick(this)""><div class = content><div class = numbers>Y</div></div></button><button class = clear_button id = ""ClearButton"" onclick = ""clearResponse()"">BACKSPACE</button><button class = blank_button id = ""BlankButton"" onclick = ""blankResponse()"">SKIP</button><p style=""font-size: 2.4rem""><u><b>Current Answer:</b></u></p><br><br><div id=echoed_txt style=""font-size: 5rem; color:blue;""><b></b></div></div>",enter,ospan,retrieval,w82roJV6jOMKDwwEII4KGxpOYPx2,html-keyboard-response,89,541984,0.0-46.0-2.0-1.0-2.0-0.0,NA,NA,NA,3.0,"[""G"",""C"",""Q""]","[""G"",""C"",""Q""]",1.0,3.0,"['<font color=""green"">G</font>', '<font color=""green"">C</font>', '<font color=""green"">Q</font>']",,,,,,6012d4f3e68e2209e7e53679,17:25:03,03/04/2024
862.3000000119209,"['<p style=""font-size:44px"">Letters:<br><br><br><font color=""green"">G</font> <font color=""green"">C</font> <font color=""green"">Q</font></p><br><br><p style=""font-size:30px"">Symmetry:<br><br><font color=""green"">100%</font></p><br><br>']",0,ospan,practice_feedback,w82roJV6jOMKDwwEII4KGxpOYPx2,html-button-response,90,543363,0.0-46.0-2.0-1.0-2.0-1.0,,,,,,,,,,,,,,,6012d4f3e68e2209e7e53679,17:25:03,03/04/2024
,"<p style=""font-size:75px;"">...</p>",,ospan,iti,w82roJV6jOMKDwwEII4KGxpOYPx2,html-keyboard-response,91,544374,0.0-46.0-2.0-2.0-0.0,,,,,,,,,,,,,,,6012d4f3e68e2209e7e53679,17:25:03,03/04/2024
1756.0,,,ospan,symmetry,w82roJV6jOMKDwwEII4KGxpOYPx2,symmetry-judgement-task,92,547417,0.0-46.0-2.0-2.0-1.0-0.0,,,,,,,,,,1.0,1.0,,,,6012d4f3e68e2209e7e53679,17:25:03,03/04/2024
,"<div style=""font-size: 10rem; color: #0000FF"">J</div>",,ospan,letter,w82roJV6jOMKDwwEII4KGxpOYPx2,html-keyboard-response,93,548423,0.0-46.0-2.0-2.0-1.0-1.0,,,,,,,,,,,,,,,6012d4f3e68e2209e7e53679,17:25:03,03/04/2024
1273.0,,,ospan,symmetry,w82roJV6jOMKDwwEII4KGxpOYPx2,symmetry-judgement-task,94,551699,0.0-46.0-2.0-2.0-1.0-2.0,,,,,,,,,,1.0,1.0,,,,6012d4f3e68e2209e7e53679,17:25:03,03/04/2024
,"<div style=""font-size: 10rem; color: #0000FF"">R</div>",,ospan,letter,w82roJV6jOMKDwwEII4KGxpOYPx2,html-keyboard-response,95,552712,0.0-46.0-2.0-2.0-1.0-3.0,,,,,,,,,,,,,,,6012d4f3e68e2209e7e53679,17:25:03,03/04/2024
2550.0,,,ospan,symmetry,w82roJV6jOMKDwwEII4KGxpOYPx2,symmetry-judgement-task,96,557317,0.0-46.0-2.0-2.0-1.0-4.0,,,,,,,,,,1.0,1.0,,,,6012d4f3e68e2209e7e53679,17:25:03,03/04/2024
,"<div style=""font-size: 10rem; color: #0000FF"">Y</div>",,ospan,letter,w82roJV6jOMKDwwEII4KGxpOYPx2,html-keyboard-response,97,558328,0.0-46.0-2.0-2.0-1.0-5.0,,,,,,,,,,,,,,,6012d4f3e68e2209e7e53679,17:25:03,03/04/2024
3976.699999988079,"<div class = numbox><p style=""font-size: 2.4rem"">Please recall the letters you saw to the best of your ability. If you do not remember a particular letter, use the SKIP button.<br><b>(When you are ready to lock in your answer, press ENTER)</b></p><button id = button_1 class = ""square num-button"" onclick = ""recordClick(this)""><div class = content><div class = numbers>C</div></div></button><button id = button_2 class = ""square num-button"" onclick = ""recordClick(this)""><div class = content><div class = numbers>G</div></div></button><button id = button_3 class = ""square num-button"" onclick = ""recordClick(this)""><div class = content><div class = numbers>H</div></div></button><button id = button_4 class = ""square num-button"" onclick = ""recordClick(this)""><div class = content><div class = numbers>J</div></div></button><button id = button_5 class = ""square num-button"" onclick = ""recordClick(this)""><div class = content><div class = numbers>K</div></div></button><button id = button_6 class = ""square num-button"" onclick = ""recordClick(this)""><div class = content><div class = numbers>L</div></div></button><button id = button_7 class = ""square num-button"" onclick = ""recordClick(this)""><div class = content><div class = numbers>N</div></div></button><button id = button_8 class = ""square num-button"" onclick = ""recordClick(this)""><div class = content><div class = numbers>P</div></div></button><button id = button_9 class = ""square num-button"" onclick = ""recordClick(this)""><div class = content><div class = numbers>Q</div></div></button><button id = button_10 class = ""square num-button"" onclick = ""recordClick(this)""><div class = content><div class = numbers>R</div></div></button><button id = button_11 class = ""square num-button"" onclick = ""recordClick(this)""><div class = content><div class = numbers>S</div></div></button><button id = button_12 class = ""square num-button"" onclick = ""recordClick(this)""><div class = content><div class = numbers>Y</div></div></button><button class = clear_button id = ""ClearButton"" onclick = ""clearResponse()"">BACKSPACE</button><button class = blank_button id = ""BlankButton"" onclick = ""blankResponse()"">SKIP</button><p style=""font-size: 2.4rem""><u><b>Current Answer:</b></u></p><br><br><div id=echoed_txt style=""font-size: 5rem; color:blue;""><b></b></div></div>",enter,ospan,retrieval,w82roJV6jOMKDwwEII4KGxpOYPx2,html-keyboard-response,98,563066,0.0-46.0-2.0-2.0-2.0-0.0,NA,NA,NA,3.0,"[""J"",""R"",""Y""]","[""J"",""R"",""Y""]",1.0,3.0,"['<font color=""green"">J</font>', '<font color=""green"">R</font>', '<font color=""green"">Y</font>']",,,,,,6012d4f3e68e2209e7e53679,17:25:03,03/04/2024
996.5,"['<p style=""font-size:44px"">Letters:<br><br><br><font color=""green"">J</font> <font color=""green"">R</font> <font color=""green"">Y</font></p><br><br><p style=""font-size:30px"">Symmetry:<br><br><font color=""green"">100%</font></p><br><br>']",0,ospan,practice_feedback,w82roJV6jOMKDwwEII4KGxpOYPx2,html-button-response,99,564567,0.0-46.0-2.0-2.0-2.0-1.0,,,,,,,,,,,,,,,6012d4f3e68e2209e7e53679,17:25:03,03/04/2024
3307.399999976158,"<div class = 'left_align' style='font-size: 3rem; line-height: 1.3;'><b>Great work! That is the end of practice.</b><br><br>The real trials will look just like the practice trials you just completed.<br><br><u>Here, you will not see feedback</u>. First, you will see an grid picture to judge,<br>then a letter to remember. When the recall screen appears, report the letters in the<br>order presented. If you forget a letter, remember to use the <b>blank</b> button to move to the<br>next letter. Some of the sets will have more symmetry grids and letters than others.<br><br>It is important that you do your best on both the symmetry judgments and the letter recall<br>parts of the experiment. For for the symmetry judgments, try to work as <b>quickly</b> and <br>as <b>accurately</b> as possible. Remember to keep your symmetry accuracy at 85% or above.<br><br><b>For the letters, do NOT use any external aid (e.g., writing on paper, electronic device).</b><br><br>It is <u>very important</u> to our experiment to have a <b>true</b> view of your real performance.<br><br>Do not worry if you miss some when it gets hard! This task is meant to be very challenging!<br><br>Click the button to begin.</div><br><br><br><br>",0,ospan,starting_real_here,w82roJV6jOMKDwwEII4KGxpOYPx2,html-button-response,100,567876,0.0-46.0-2.0-3.0,,,,,,,,,,,,,,,6012d4f3e68e2209e7e53679,17:25:03,03/04/2024
,"<p style=""font-size:75px;"">...</p>",,ospan,iti,w82roJV6jOMKDwwEII4KGxpOYPx2,html-keyboard-response,101,569144,0.0-46.0-3.0-0.0-0.0,,,,,,,,,,,,,,,6012d4f3e68e2209e7e53679,17:25:03,03/04/2024
1254.0,,,ospan,symmetry,w82roJV6jOMKDwwEII4KGxpOYPx2,symmetry-judgement-task,102,571699,0.0-46.0-3.0-0.0-1.0-0.0,,,,,,,,,,1.0,1.0,,,,6012d4f3e68e2209e7e53679,17:25:03,03/04/2024
,"<div style=""font-size: 10rem; color: #0000FF"">H</div>",,ospan,letter,w82roJV6jOMKDwwEII4KGxpOYPx2,html-keyboard-response,103,572710,0.0-46.0-3.0-0.0-1.0-1.0,,,,,,,,,,,,,,,6012d4f3e68e2209e7e53679,17:25:03,03/04/2024
919.0,,,ospan,symmetry,w82roJV6jOMKDwwEII4KGxpOYPx2,symmetry-judgement-task,104,575663,0.0-46.0-3.0-0.0-1.0-2.0,,,,,,,,,,1.0,1.0,,,,6012d4f3e68e2209e7e53679,17:25:03,03/04/2024
,"<div style=""font-size: 10rem; color: #0000FF"">N</div>",,ospan,letter,w82roJV6jOMKDwwEII4KGxpOYPx2,html-keyboard-response,105,576669,0.0-46.0-3.0-0.0-1.0-3.0,,,,,,,,,,,,,,,6012d4f3e68e2209e7e53679,17:25:03,03/04/2024
876.0,,,ospan,symmetry,w82roJV6jOMKDwwEII4KGxpOYPx2,symmetry-judgement-task,106,579567,0.0-46.0-3.0-0.0-1.0-4.0,,,,,,,,,,1.0,1.0,,,,6012d4f3e68e2209e7e53679,17:25:03,03/04/2024
,"<div style=""font-size: 10rem; color: #0000FF"">Y</div>",,ospan,letter,w82roJV6jOMKDwwEII4KGxpOYPx2,html-keyboard-response,107,580574,0.0-46.0-3.0-0.0-1.0-5.0,,,,,,,,,,,,,,,6012d4f3e68e2209e7e53679,17:25:03,03/04/2024
2605.5,"<div class = numbox><p style=""font-size: 2.4rem"">Please recall the letters you saw to the best of your ability. If you do not remember a particular letter, use the SKIP button.<br><b>(When you are ready to lock in your answer, press ENTER)</b></p><button id = button_1 class = ""square num-button"" onclick = ""recordClick(this)""><div class = content><div class = numbers>C</div></div></button><button id = button_2 class = ""square num-button"" onclick = ""recordClick(this)""><div class = content><div class = numbers>G</div></div></button><button id = button_3 class = ""square num-button"" onclick = ""recordClick(this)""><div class = content><div class = numbers>H</div></div></button><button id = button_4 class = ""square num-button"" onclick = ""recordClick(this)""><div class = content><div class = numbers>J</div></div></button><button id = button_5 class = ""square num-button"" onclick = ""recordClick(this)""><div class = content><div class = numbers>K</div></div></button><button id = button_6 class = ""square num-button"" onclick = ""recordClick(this)""><div class = content><div class = numbers>L</div></div></button><button id = button_7 class = ""square num-button"" onclick = ""recordClick(this)""><div class = content><div class = numbers>N</div></div></button><button id = button_8 class = ""square num-button"" onclick = ""recordClick(this)""><div class = content><div class = numbers>P</div></div></button><button id = button_9 class = ""square num-button"" onclick = ""recordClick(this)""><div class = content><div class = numbers>Q</div></div></button><button id = button_10 class = ""square num-button"" onclick = ""recordClick(this)""><div class = content><div class = numbers>R</div></div></button><button id = button_11 class = ""square num-button"" onclick = ""recordClick(this)""><div class = content><div class = numbers>S</div></div></button><button id = button_12 class = ""square num-button"" onclick = ""recordClick(this)""><div class = content><div class = numbers>Y</div></div></button><button class = clear_button id = ""ClearButton"" onclick = ""clearResponse()"">BACKSPACE</button><button class = blank_button id = ""BlankButton"" onclick = ""blankResponse()"">SKIP</button><p style=""font-size: 2.4rem""><u><b>Current Answer:</b></u></p><br><br><div id=echoed_txt style=""font-size: 5rem; color:blue;""><b></b></div></div>",enter,ospan,retrieval,w82roJV6jOMKDwwEII4KGxpOYPx2,html-keyboard-response,108,583943,0.0-46.0-3.0-0.0-2.0,3,3,3,3.0,"[""H"",""N"",""Y""]","[""H"",""N"",""Y""]",1.0,3.0,,,,,,,6012d4f3e68e2209e7e53679,17:25:03,03/04/2024
936.5,[''],0,ospan,feedback,w82roJV6jOMKDwwEII4KGxpOYPx2,html-button-response,109,585397,0.0-46.0-3.0-0.0-3.0,,,,,,,,,,,,100.0,0.0,,6012d4f3e68e2209e7e53679,17:25:03,03/04/2024
,"<p style=""font-size:75px;"">...</p>",,ospan,iti,w82roJV6jOMKDwwEII4KGxpOYPx2,html-keyboard-response,110,586403,0.0-46.0-4.0-0.0-0.0,,,,,,,,,,,,,,,6012d4f3e68e2209e7e53679,17:25:03,03/04/2024
1582.0,,,ospan,symmetry,w82roJV6jOMKDwwEII4KGxpOYPx2,symmetry-judgement-task,111,589061,0.0-46.0-4.0-0.0-1.0-0.0,,,,,,,,,,1.0,1.0,,,,6012d4f3e68e2209e7e53679,17:25:03,03/04/2024
,"<div style=""font-size: 10rem; color: #0000FF"">Q</div>",,ospan,letter,w82roJV6jOMKDwwEII4KGxpOYPx2,html-keyboard-response,112,590066,0.0-46.0-4.0-0.0-1.0-1.0,,,,,,,,,,,,,,,6012d4f3e68e2209e7e53679,17:25:03,03/04/2024
930.0,,,ospan,symmetry,w82roJV6jOMKDwwEII4KGxpOYPx2,symmetry-judgement-task,113,593015,0.0-46.0-4.0-0.0-1.0-2.0,,,,,,,,,,1.0,1.0,,,,6012d4f3e68e2209e7e53679,17:25:03,03/04/2024
,"<div style=""font-size: 10rem; color: #0000FF"">S</div>",,ospan,letter,w82roJV6jOMKDwwEII4KGxpOYPx2,html-keyboard-response,114,594031,0.0-46.0-4.0-0.0-1.0-3.0,,,,,,,,,,,,,,,6012d4f3e68e2209e7e53679,17:25:03,03/04/2024
1423.0,,,ospan,symmetry,w82roJV6jOMKDwwEII4KGxpOYPx2,symmetry-judgement-task,115,597483,0.0-46.0-4.0-0.0-1.0-4.0,,,,,,,,,,1.0,1.0,,,,6012d4f3e68e2209e7e53679,17:25:03,03/04/2024
,"<div style=""font-size: 10rem; color: #0000FF"">H</div>",,ospan,letter,w82roJV6jOMKDwwEII4KGxpOYPx2,html-keyboard-response,116,598489,0.0-46.0-4.0-0.0-1.0-5.0,,,,,,,,,,,,,,,6012d4f3e68e2209e7e53679,17:25:03,03/04/2024
2402.0,,,ospan,symmetry,w82roJV6jOMKDwwEII4KGxpOYPx2,symmetry-judgement-task,117,602904,0.0-46.0-4.0-0.0-1.0-6.0,,,,,,,,,,1.0,1.0,,,,6012d4f3e68e2209e7e53679,17:25:03,03/04/2024
,"<div style=""font-size: 10rem; color: #0000FF"">G</div>",,ospan,letter,w82roJV6jOMKDwwEII4KGxpOYPx2,html-keyboard-response,118,603913,0.0-46.0-4.0-0.0-1.0-7.0,,,,,,,,,,,,,,,6012d4f3e68e2209e7e53679,17:25:03,03/04/2024
4422.800000011921,"<div class = numbox><p style=""font-size: 2.4rem"">Please recall the letters you saw to the best of your ability. If you do not remember a particular letter, use the SKIP button.<br><b>(When you are ready to lock in your answer, press ENTER)</b></p><button id = button_1 class = ""square num-button"" onclick = ""recordClick(this)""><div class = content><div class = numbers>C</div></div></button><button id = button_2 class = ""square num-button"" onclick = ""recordClick(this)""><div class = content><div class = numbers>G</div></div></button><button id = button_3 class = ""square num-button"" onclick = ""recordClick(this)""><div class = content><div class = numbers>H</div></div></button><button id = button_4 class = ""square num-button"" onclick = ""recordClick(this)""><div class = content><div class = numbers>J</div></div></button><button id = button_5 class = ""square num-button"" onclick = ""recordClick(this)""><div class = content><div class = numbers>K</div></div></button><button id = button_6 class = ""square num-button"" onclick = ""recordClick(this)""><div class = content><div class = numbers>L</div></div></button><button id = button_7 class = ""square num-button"" onclick = ""recordClick(this)""><div class = content><div class = numbers>N</div></div></button><button id = button_8 class = ""square num-button"" onclick = ""recordClick(this)""><div class = content><div class = numbers>P</div></div></button><button id = button_9 class = ""square num-button"" onclick = ""recordClick(this)""><div class = content><div class = numbers>Q</div></div></button><button id = button_10 class = ""square num-button"" onclick = ""recordClick(this)""><div class = content><div class = numbers>R</div></div></button><button id = button_11 class = ""square num-button"" onclick = ""recordClick(this)""><div class = content><div class = numbers>S</div></div></button><button id = button_12 class = ""square num-button"" onclick = ""recordClick(this)""><div class = content><div class = numbers>Y</div></div></button><button class = clear_button id = ""ClearButton"" onclick = ""clearResponse()"">BACKSPACE</button><button class = blank_button id = ""BlankButton"" onclick = ""blankResponse()"">SKIP</button><p style=""font-size: 2.4rem""><u><b>Current Answer:</b></u></p><br><br><div id=echoed_txt style=""font-size: 5rem; color:blue;""><b></b></div></div>",enter,ospan,retrieval,w82roJV6jOMKDwwEII4KGxpOYPx2,html-keyboard-response,119,609095,0.0-46.0-4.0-0.0-2.0,7,7,7,4.0,"[""Q"",""S"",""H"",""G""]","[""Q"",""S"",""H"",""G""]",1.0,4.0,,,,,,,6012d4f3e68e2209e7e53679,17:25:03,03/04/2024
844.8000000119209,[''],0,ospan,feedback,w82roJV6jOMKDwwEII4KGxpOYPx2,html-button-response,120,610446,0.0-46.0-4.0-0.0-3.0,,,,,,,,,,,,100.0,0.0,,6012d4f3e68e2209e7e53679,17:25:03,03/04/2024
,"<p style=""font-size:75px;"">...</p>",,ospan,iti,w82roJV6jOMKDwwEII4KGxpOYPx2,html-keyboard-response,121,611454,0.0-46.0-4.0-1.0-0.0,,,,,,,,,,,,,,,6012d4f3e68e2209e7e53679,17:25:03,03/04/2024
1248.0,,,ospan,symmetry,w82roJV6jOMKDwwEII4KGxpOYPx2,symmetry-judgement-task,122,614000,0.0-46.0-4.0-1.0-1.0-0.0,,,,,,,,,,1.0,1.0,,,,6012d4f3e68e2209e7e53679,17:25:03,03/04/2024
,"<div style=""font-size: 10rem; color: #0000FF"">N</div>",,ospan,letter,w82roJV6jOMKDwwEII4KGxpOYPx2,html-keyboard-response,123,615001,0.0-46.0-4.0-1.0-1.0-1.0,,,,,,,,,,,,,,,6012d4f3e68e2209e7e53679,17:25:03,03/04/2024
1208.0,,,ospan,symmetry,w82roJV6jOMKDwwEII4KGxpOYPx2,symmetry-judgement-task,124,618223,0.0-46.0-4.0-1.0-1.0-2.0,,,,,,,,,,1.0,1.0,,,,6012d4f3e68e2209e7e53679,17:25:03,03/04/2024
,"<div style=""font-size: 10rem; color: #0000FF"">Q</div>",,ospan,letter,w82roJV6jOMKDwwEII4KGxpOYPx2,html-keyboard-response,125,619233,0.0-46.0-4.0-1.0-1.0-3.0,,,,,,,,,,,,,,,6012d4f3e68e2209e7e53679,17:25:03,03/04/2024
1141.0,,,ospan,symmetry,w82roJV6jOMKDwwEII4KGxpOYPx2,symmetry-judgement-task,126,622418,0.0-46.0-4.0-1.0-1.0-4.0,,,,,,,,,,1.0,1.0,,,,6012d4f3e68e2209e7e53679,17:25:03,03/04/2024
,"<div style=""font-size: 10rem; color: #0000FF"">Y</div>",,ospan,letter,w82roJV6jOMKDwwEII4KGxpOYPx2,html-keyboard-response,127,623424,0.0-46.0-4.0-1.0-1.0-5.0,,,,,,,,,,,,,,,6012d4f3e68e2209e7e53679,17:25:03,03/04/2024
1001.0,,,ospan,symmetry,w82roJV6jOMKDwwEII4KGxpOYPx2,symmetry-judgement-task,128,626454,0.0-46.0-4.0-1.0-1.0-6.0,,,,,,,,,,1.0,1.0,,,,6012d4f3e68e2209e7e53679,17:25:03,03/04/2024
,"<div style=""font-size: 10rem; color: #0000FF"">H</div>",,ospan,letter,w82roJV6jOMKDwwEII4KGxpOYPx2,html-keyboard-response,129,627470,0.0-46.0-4.0-1.0-1.0-7.0,,,,,,,,,,,,,,,6012d4f3e68e2209e7e53679,17:25:03,03/04/2024
1500.0,,,ospan,symmetry,w82roJV6jOMKDwwEII4KGxpOYPx2,symmetry-judgement-task,130,631066,0.0-46.0-4.0-1.0-1.0-8.0,,,,,,,,,,1.0,1.0,,,,6012d4f3e68e2209e7e53679,17:25:03,03/04/2024
,"<div style=""font-size: 10rem; color: #0000FF"">R</div>",,ospan,letter,w82roJV6jOMKDwwEII4KGxpOYPx2,html-keyboard-response,131,632077,0.0-46.0-4.0-1.0-1.0-9.0,,,,,,,,,,,,,,,6012d4f3e68e2209e7e53679,17:25:03,03/04/2024
5836.199999988079,"<div class = numbox><p style=""font-size: 2.4rem"">Please recall the letters you saw to the best of your ability. If you do not remember a particular letter, use the SKIP button.<br><b>(When you are ready to lock in your answer, press ENTER)</b></p><button id = button_1 class = ""square num-button"" onclick = ""recordClick(this)""><div class = content><div class = numbers>C</div></div></button><button id = button_2 class = ""square num-button"" onclick = ""recordClick(this)""><div class = content><div class = numbers>G</div></div></button><button id = button_3 class = ""square num-button"" onclick = ""recordClick(this)""><div class = content><div class = numbers>H</div></div></button><button id = button_4 class = ""square num-button"" onclick = ""recordClick(this)""><div class = content><div class = numbers>J</div></div></button><button id = button_5 class = ""square num-button"" onclick = ""recordClick(this)""><div class = content><div class = numbers>K</div></div></button><button id = button_6 class = ""square num-button"" onclick = ""recordClick(this)""><div class = content><div class = numbers>L</div></div></button><button id = button_7 class = ""square num-button"" onclick = ""recordClick(this)""><div class = content><div class = numbers>N</div></div></button><button id = button_8 class = ""square num-button"" onclick = ""recordClick(this)""><div class = content><div class = numbers>P</div></div></button><button id = button_9 class = ""square num-button"" onclick = ""recordClick(this)""><div class = content><div class = numbers>Q</div></div></button><button id = button_10 class = ""square num-button"" onclick = ""recordClick(this)""><div class = content><div class = numbers>R</div></div></button><button id = button_11 class = ""square num-button"" onclick = ""recordClick(this)""><div class = content><div class = numbers>S</div></div></button><button id = button_12 class = ""square num-button"" onclick = ""recordClick(this)""><div class = content><div class = numbers>Y</div></div></button><button class = clear_button id = ""ClearButton"" onclick = ""clearResponse()"">BACKSPACE</button><button class = blank_button id = ""BlankButton"" onclick = ""blankResponse()"">SKIP</button><p style=""font-size: 2.4rem""><u><b>Current Answer:</b></u></p><br><br><div id=echoed_txt style=""font-size: 5rem; color:blue;""><b></b></div></div>",enter,ospan,retrieval,w82roJV6jOMKDwwEII4KGxpOYPx2,html-keyboard-response,132,638667,0.0-46.0-4.0-1.0-2.0,12,12,12,5.0,"[""N"",""Q"",""Y"",""H"",""R""]","[""N"",""Q"",""Y"",""H"",""R""]",1.0,5.0,,,,,,,6012d4f3e68e2209e7e53679,17:25:03,03/04/2024
912.0,[''],0,ospan,feedback,w82roJV6jOMKDwwEII4KGxpOYPx2,html-button-response,133,640090,0.0-46.0-4.0-1.0-3.0,,,,,,,,,,,,100.0,0.0,,6012d4f3e68e2209e7e53679,17:25:03,03/04/2024
,"<p style=""font-size:75px;"">...</p>",,ospan,iti,w82roJV6jOMKDwwEII4KGxpOYPx2,html-keyboard-response,134,641099,0.0-46.0-4.0-2.0-0.0,,,,,,,,,,,,,,,6012d4f3e68e2209e7e53679,17:25:03,03/04/2024
1093.0,,,ospan,symmetry,w82roJV6jOMKDwwEII4KGxpOYPx2,symmetry-judgement-task,135,643449,0.0-46.0-4.0-2.0-1.0-0.0,,,,,,,,,,1.0,1.0,,,,6012d4f3e68e2209e7e53679,17:25:03,03/04/2024
,"<div style=""font-size: 10rem; color: #0000FF"">Y</div>",,ospan,letter,w82roJV6jOMKDwwEII4KGxpOYPx2,html-keyboard-response,136,644459,0.0-46.0-4.0-2.0-1.0-1.0,,,,,,,,,,,,,,,6012d4f3e68e2209e7e53679,17:25:03,03/04/2024
1614.0,,,ospan,symmetry,w82roJV6jOMKDwwEII4KGxpOYPx2,symmetry-judgement-task,137,648093,0.0-46.0-4.0-2.0-1.0-2.0,,,,,,,,,,1.0,1.0,,,,6012d4f3e68e2209e7e53679,17:25:03,03/04/2024
,"<div style=""font-size: 10rem; color: #0000FF"">P</div>",,ospan,letter,w82roJV6jOMKDwwEII4KGxpOYPx2,html-keyboard-response,138,649095,0.0-46.0-4.0-2.0-1.0-3.0,,,,,,,,,,,,,,,6012d4f3e68e2209e7e53679,17:25:03,03/04/2024
938.0,,,ospan,symmetry,w82roJV6jOMKDwwEII4KGxpOYPx2,symmetry-judgement-task,139,652028,0.0-46.0-4.0-2.0-1.0-4.0,,,,,,,,,,1.0,1.0,,,,6012d4f3e68e2209e7e53679,17:25:03,03/04/2024
,"<div style=""font-size: 10rem; color: #0000FF"">G</div>",,ospan,letter,w82roJV6jOMKDwwEII4KGxpOYPx2,html-keyboard-response,140,653044,0.0-46.0-4.0-2.0-1.0-5.0,,,,,,,,,,,,,,,6012d4f3e68e2209e7e53679,17:25:03,03/04/2024
3448.300000011921,"<div class = numbox><p style=""font-size: 2.4rem"">Please recall the letters you saw to the best of your ability. If you do not remember a particular letter, use the SKIP button.<br><b>(When you are ready to lock in your answer, press ENTER)</b></p><button id = button_1 class = ""square num-button"" onclick = ""recordClick(this)""><div class = content><div class = numbers>C</div></div></button><button id = button_2 class = ""square num-button"" onclick = ""recordClick(this)""><div class = content><div class = numbers>G</div></div></button><button id = button_3 class = ""square num-button"" onclick = ""recordClick(this)""><div class = content><div class = numbers>H</div></div></button><button id = button_4 class = ""square num-button"" onclick = ""recordClick(this)""><div class = content><div class = numbers>J</div></div></button><button id = button_5 class = ""square num-button"" onclick = ""recordClick(this)""><div class = content><div class = numbers>K</div></div></button><button id = button_6 class = ""square num-button"" onclick = ""recordClick(this)""><div class = content><div class = numbers>L</div></div></button><button id = button_7 class = ""square num-button"" onclick = ""recordClick(this)""><div class = content><div class = numbers>N</div></div></button><button id = button_8 class = ""square num-button"" onclick = ""recordClick(this)""><div class = content><div class = numbers>P</div></div></button><button id = button_9 class = ""square num-button"" onclick = ""recordClick(this)""><div class = content><div class = numbers>Q</div></div></button><button id = button_10 class = ""square num-button"" onclick = ""recordClick(this)""><div class = content><div class = numbers>R</div></div></button><button id = button_11 class = ""square num-button"" onclick = ""recordClick(this)""><div class = content><div class = numbers>S</div></div></button><button id = button_12 class = ""square num-button"" onclick = ""recordClick(this)""><div class = content><div class = numbers>Y</div></div></button><button class = clear_button id = ""ClearButton"" onclick = ""clearResponse()"">BACKSPACE</button><button class = blank_button id = ""BlankButton"" onclick = ""blankResponse()"">SKIP</button><p style=""font-size: 2.4rem""><u><b>Current Answer:</b></u></p><br><br><div id=echoed_txt style=""font-size: 5rem; color:blue;""><b></b></div></div>",enter,ospan,retrieval,w82roJV6jOMKDwwEII4KGxpOYPx2,html-keyboard-response,141,657256,0.0-46.0-4.0-2.0-2.0,15,15,15,3.0,"[""Y"",""P"",""G""]","[""Y"",""P"",""G""]",1.0,3.0,,,,,,,6012d4f3e68e2209e7e53679,17:25:03,03/04/2024
672.6999999880791,[''],0,ospan,feedback,w82roJV6jOMKDwwEII4KGxpOYPx2,html-button-response,142,658435,0.0-46.0-4.0-2.0-3.0,,,,,,,,,,,,100.0,0.0,,6012d4f3e68e2209e7e53679,17:25:03,03/04/2024
,"<p style=""font-size:75px;"">...</p>",,ospan,iti,w82roJV6jOMKDwwEII4KGxpOYPx2,html-keyboard-response,143,659442,0.0-46.0-5.0-0.0-0.0,,,,,,,,,,,,,,,6012d4f3e68e2209e7e53679,17:25:03,03/04/2024
1465.0,,,ospan,symmetry,w82roJV6jOMKDwwEII4KGxpOYPx2,symmetry-judgement-task,144,662188,0.0-46.0-5.0-0.0-1.0-0.0,,,,,,,,,,1.0,1.0,,,,6012d4f3e68e2209e7e53679,17:25:03,03/04/2024
,"<div style=""font-size: 10rem; color: #0000FF"">R</div>",,ospan,letter,w82roJV6jOMKDwwEII4KGxpOYPx2,html-keyboard-response,145,663196,0.0-46.0-5.0-0.0-1.0-1.0,,,,,,,,,,,,,,,6012d4f3e68e2209e7e53679,17:25:03,03/04/2024
1428.0,,,ospan,symmetry,w82roJV6jOMKDwwEII4KGxpOYPx2,symmetry-judgement-task,146,666645,0.0-46.0-5.0-0.0-1.0-2.0,,,,,,,,,,1.0,1.0,,,,6012d4f3e68e2209e7e53679,17:25:03,03/04/2024
,"<div style=""font-size: 10rem; color: #0000FF"">P</div>",,ospan,letter,w82roJV6jOMKDwwEII4KGxpOYPx2,html-keyboard-response,147,667655,0.0-46.0-5.0-0.0-1.0-3.0,,,,,,,,,,,,,,,6012d4f3e68e2209e7e53679,17:25:03,03/04/2024
1189.0,,,ospan,symmetry,w82roJV6jOMKDwwEII4KGxpOYPx2,symmetry-judgement-task,148,670944,0.0-46.0-5.0-0.0-1.0-4.0,,,,,,,,,,1.0,1.0,,,,6012d4f3e68e2209e7e53679,17:25:03,03/04/2024
,"<div style=""font-size: 10rem; color: #0000FF"">J</div>",,ospan,letter,w82roJV6jOMKDwwEII4KGxpOYPx2,html-keyboard-response,149,671947,0.0-46.0-5.0-0.0-1.0-5.0,,,,,,,,,,,,,,,6012d4f3e68e2209e7e53679,17:25:03,03/04/2024
1057.0,,,ospan,symmetry,w82roJV6jOMKDwwEII4KGxpOYPx2,symmetry-judgement-task,150,675072,0.0-46.0-5.0-0.0-1.0-6.0,,,,,,,,,,1.0,1.0,,,,6012d4f3e68e2209e7e53679,17:25:03,03/04/2024
,"<div style=""font-size: 10rem; color: #0000FF"">K</div>",,ospan,letter,w82roJV6jOMKDwwEII4KGxpOYPx2,html-keyboard-response,151,676081,0.0-46.0-5.0-0.0-1.0-7.0,,,,,,,,,,,,,,,6012d4f3e68e2209e7e53679,17:25:03,03/04/2024
1076.0,,,ospan,symmetry,w82roJV6jOMKDwwEII4KGxpOYPx2,symmetry-judgement-task,152,679228,0.0-46.0-5.0-0.0-1.0-8.0,,,,,,,,,,1.0,1.0,,,,6012d4f3e68e2209e7e53679,17:25:03,03/04/2024
,"<div style=""font-size: 10rem; color: #0000FF"">L</div>",,ospan,letter,w82roJV6jOMKDwwEII4KGxpOYPx2,html-keyboard-response,153,680235,0.0-46.0-5.0-0.0-1.0-9.0,,,,,,,,,,,,,,,6012d4f3e68e2209e7e53679,17:25:03,03/04/2024
1074.0,,,ospan,symmetry,w82roJV6jOMKDwwEII4KGxpOYPx2,symmetry-judgement-task,154,683348,0.0-46.0-5.0-0.0-1.0-10.0,,,,,,,,,,1.0,1.0,,,,6012d4f3e68e2209e7e53679,17:25:03,03/04/2024
,"<div style=""font-size: 10rem; color: #0000FF"">H</div>",,ospan,letter,w82roJV6jOMKDwwEII4KGxpOYPx2,html-keyboard-response,155,684357,0.0-46.0-5.0-0.0-1.0-11.0,,,,,,,,,,,,,,,6012d4f3e68e2209e7e53679,17:25:03,03/04/2024
8209.300000011921,"<div class = numbox><p style=""font-size: 2.4rem"">Please recall the letters you saw to the best of your ability. If you do not remember a particular letter, use the SKIP button.<br><b>(When you are ready to lock in your answer, press ENTER)</b></p><button id = button_1 class = ""square num-button"" onclick = ""recordClick(this)""><div class = content><div class = numbers>C</div></div></button><button id = button_2 class = ""square num-button"" onclick = ""recordClick(this)""><div class = content><div class = numbers>G</div></div></button><button id = button_3 class = ""square num-button"" onclick = ""recordClick(this)""><div class = content><div class = numbers>H</div></div></button><button id = button_4 class = ""square num-button"" onclick = ""recordClick(this)""><div class = content><div class = numbers>J</div></div></button><button id = button_5 class = ""square num-button"" onclick = ""recordClick(this)""><div class = content><div class = numbers>K</div></div></button><button id = button_6 class = ""square num-button"" onclick = ""recordClick(this)""><div class = content><div class = numbers>L</div></div></button><button id = button_7 class = ""square num-button"" onclick = ""recordClick(this)""><div class = content><div class = numbers>N</div></div></button><button id = button_8 class = ""square num-button"" onclick = ""recordClick(this)""><div class = content><div class = numbers>P</div></div></button><button id = button_9 class = ""square num-button"" onclick = ""recordClick(this)""><div class = content><div class = numbers>Q</div></div></button><button id = button_10 class = ""square num-button"" onclick = ""recordClick(this)""><div class = content><div class = numbers>R</div></div></button><button id = button_11 class = ""square num-button"" onclick = ""recordClick(this)""><div class = content><div class = numbers>S</div></div></button><button id = button_12 class = ""square num-button"" onclick = ""recordClick(this)""><div class = content><div class = numbers>Y</div></div></button><button class = clear_button id = ""ClearButton"" onclick = ""clearResponse()"">BACKSPACE</button><button class = blank_button id = ""BlankButton"" onclick = ""blankResponse()"">SKIP</button><p style=""font-size: 2.4rem""><u><b>Current Answer:</b></u></p><br><br><div id=echoed_txt style=""font-size: 5rem; color:blue;""><b></b></div></div>",enter,ospan,retrieval,w82roJV6jOMKDwwEII4KGxpOYPx2,html-keyboard-response,156,693326,0.0-46.0-5.0-0.0-2.0,21,20,15,6.0,"[""R"",""P"",""G"",""K"",""L"",""H""]","[""R"",""P"",""J"",""K"",""L"",""H""]",0.0,5.0,,,,,,,6012d4f3e68e2209e7e53679,17:25:03,03/04/2024
983.0999999642372,[''],0,ospan,feedback,w82roJV6jOMKDwwEII4KGxpOYPx2,html-button-response,157,694813,0.0-46.0-5.0-0.0-3.0,,,,,,,,,,,,100.0,0.0,,6012d4f3e68e2209e7e53679,17:25:03,03/04/2024
,"<p style=""font-size:75px;"">...</p>",,ospan,iti,w82roJV6jOMKDwwEII4KGxpOYPx2,html-keyboard-response,158,695818,0.0-46.0-5.0-1.0-0.0,,,,,,,,,,,,,,,6012d4f3e68e2209e7e53679,17:25:03,03/04/2024
1804.0,,,ospan,symmetry,w82roJV6jOMKDwwEII4KGxpOYPx2,symmetry-judgement-task,159,698920,0.0-46.0-5.0-1.0-1.0-0.0,,,,,,,,,,1.0,1.0,,,,6012d4f3e68e2209e7e53679,17:25:03,03/04/2024
,"<div style=""font-size: 10rem; color: #0000FF"">G</div>",,ospan,letter,w82roJV6jOMKDwwEII4KGxpOYPx2,html-keyboard-response,160,699931,0.0-46.0-5.0-1.0-1.0-1.0,,,,,,,,,,,,,,,6012d4f3e68e2209e7e53679,17:25:03,03/04/2024
1244.0,,,ospan,symmetry,w82roJV6jOMKDwwEII4KGxpOYPx2,symmetry-judgement-task,161,703210,0.0-46.0-5.0-1.0-1.0-2.0,,,,,,,,,,1.0,1.0,,,,6012d4f3e68e2209e7e53679,17:25:03,03/04/2024
,"<div style=""font-size: 10rem; color: #0000FF"">C</div>",,ospan,letter,w82roJV6jOMKDwwEII4KGxpOYPx2,html-keyboard-response,162,704213,0.0-46.0-5.0-1.0-1.0-3.0,,,,,,,,,,,,,,,6012d4f3e68e2209e7e53679,17:25:03,03/04/2024
1468.0,,,ospan,symmetry,w82roJV6jOMKDwwEII4KGxpOYPx2,symmetry-judgement-task,163,707738,0.0-46.0-5.0-1.0-1.0-4.0,,,,,,,,,,1.0,1.0,,,,6012d4f3e68e2209e7e53679,17:25:03,03/04/2024
,"<div style=""font-size: 10rem; color: #0000FF"">H</div>",,ospan,letter,w82roJV6jOMKDwwEII4KGxpOYPx2,html-keyboard-response,164,708743,0.0-46.0-5.0-1.0-1.0-5.0,,,,,,,,,,,,,,,6012d4f3e68e2209e7e53679,17:25:03,03/04/2024
1269.0,,,ospan,symmetry,w82roJV6jOMKDwwEII4KGxpOYPx2,symmetry-judgement-task,165,712053,0.0-46.0-5.0-1.0-1.0-6.0,,,,,,,,,,1.0,1.0,,,,6012d4f3e68e2209e7e53679,17:25:03,03/04/2024
,"<div style=""font-size: 10rem; color: #0000FF"">R</div>",,ospan,letter,w82roJV6jOMKDwwEII4KGxpOYPx2,html-keyboard-response,166,713069,0.0-46.0-5.0-1.0-1.0-7.0,,,,,,,,,,,,,,,6012d4f3e68e2209e7e53679,17:25:03,03/04/2024
1077.0,,,ospan,symmetry,w82roJV6jOMKDwwEII4KGxpOYPx2,symmetry-judgement-task,167,716212,0.0-46.0-5.0-1.0-1.0-8.0,,,,,,,,,,1.0,1.0,,,,6012d4f3e68e2209e7e53679,17:25:03,03/04/2024
,"<div style=""font-size: 10rem; color: #0000FF"">N</div>",,ospan,letter,w82roJV6jOMKDwwEII4KGxpOYPx2,html-keyboard-response,168,717225,0.0-46.0-5.0-1.0-1.0-9.0,,,,,,,,,,,,,,,6012d4f3e68e2209e7e53679,17:25:03,03/04/2024
910.0,,,ospan,symmetry,w82roJV6jOMKDwwEII4KGxpOYPx2,symmetry-judgement-task,169,720139,0.0-46.0-5.0-1.0-1.0-10.0,,,,,,,,,,1.0,1.0,,,,6012d4f3e68e2209e7e53679,17:25:03,03/04/2024
,"<div style=""font-size: 10rem; color: #0000FF"">L</div>",,ospan,letter,w82roJV6jOMKDwwEII4KGxpOYPx2,html-keyboard-response,170,721144,0.0-46.0-5.0-1.0-1.0-11.0,,,,,,,,,,,,,,,6012d4f3e68e2209e7e53679,17:25:03,03/04/2024
1337.0,,,ospan,symmetry,w82roJV6jOMKDwwEII4KGxpOYPx2,symmetry-judgement-task,171,724525,0.0-46.0-5.0-1.0-1.0-12.0,,,,,,,,,,1.0,1.0,,,,6012d4f3e68e2209e7e53679,17:25:03,03/04/2024
,"<div style=""font-size: 10rem; color: #0000FF"">Y</div>",,ospan,letter,w82roJV6jOMKDwwEII4KGxpOYPx2,html-keyboard-response,172,725536,0.0-46.0-5.0-1.0-1.0-13.0,,,,,,,,,,,,,,,6012d4f3e68e2209e7e53679,17:25:03,03/04/2024
10389.699999988079,"<div class = numbox><p style=""font-size: 2.4rem"">Please recall the letters you saw to the best of your ability. If you do not remember a particular letter, use the SKIP button.<br><b>(When you are ready to lock in your answer, press ENTER)</b></p><button id = button_1 class = ""square num-button"" onclick = ""recordClick(this)""><div class = content><div class = numbers>C</div></div></button><button id = button_2 class = ""square num-button"" onclick = ""recordClick(this)""><div class = content><div class = numbers>G</div></div></button><button id = button_3 class = ""square num-button"" onclick = ""recordClick(this)""><div class = content><div class = numbers>H</div></div></button><button id = button_4 class = ""square num-button"" onclick = ""recordClick(this)""><div class = content><div class = numbers>J</div></div></button><button id = button_5 class = ""square num-button"" onclick = ""recordClick(this)""><div class = content><div class = numbers>K</div></div></button><button id = button_6 class = ""square num-button"" onclick = ""recordClick(this)""><div class = content><div class = numbers>L</div></div></button><button id = button_7 class = ""square num-button"" onclick = ""recordClick(this)""><div class = content><div class = numbers>N</div></div></button><button id = button_8 class = ""square num-button"" onclick = ""recordClick(this)""><div class = content><div class = numbers>P</div></div></button><button id = button_9 class = ""square num-button"" onclick = ""recordClick(this)""><div class = content><div class = numbers>Q</div></div></button><button id = button_10 class = ""square num-button"" onclick = ""recordClick(this)""><div class = content><div class = numbers>R</div></div></button><button id = button_11 class = ""square num-button"" onclick = ""recordClick(this)""><div class = content><div class = numbers>S</div></div></button><button id = button_12 class = ""square num-button"" onclick = ""recordClick(this)""><div class = content><div class = numbers>Y</div></div></button><button class = clear_button id = ""ClearButton"" onclick = ""clearResponse()"">BACKSPACE</button><button class = blank_button id = ""BlankButton"" onclick = ""blankResponse()"">SKIP</button><p style=""font-size: 2.4rem""><u><b>Current Answer:</b></u></p><br><br><div id=echoed_txt style=""font-size: 5rem; color:blue;""><b></b></div></div>",enter,ospan,retrieval,w82roJV6jOMKDwwEII4KGxpOYPx2,html-keyboard-response,173,736678,0.0-46.0-5.0-1.0-2.0,28,27,22,7.0,"[""G"",""C"",""H"",""R"",""N"",""L"",""Y""]","[""G"",""C"",""H"",""R"",""N"",""L"",""Y""]",1.0,7.0,,,,,,,6012d4f3e68e2209e7e53679,17:25:03,03/04/2024
678.1999999880791,[''],0,ospan,feedback,w82roJV6jOMKDwwEII4KGxpOYPx2,html-button-response,174,737873,0.0-46.0-5.0-1.0-3.0,,,,,,,,,,,,100.0,0.0,,6012d4f3e68e2209e7e53679,17:25:03,03/04/2024
,"<p style=""font-size:75px;"">...</p>",,ospan,iti,w82roJV6jOMKDwwEII4KGxpOYPx2,html-keyboard-response,175,738881,0.0-46.0-6.0-0.0-0.0,,,,,,,,,,,,,,,6012d4f3e68e2209e7e53679,17:25:03,03/04/2024
1927.0,,,ospan,symmetry,w82roJV6jOMKDwwEII4KGxpOYPx2,symmetry-judgement-task,176,742084,0.0-46.0-6.0-0.0-1.0-0.0,,,,,,,,,,1.0,1.0,,,,6012d4f3e68e2209e7e53679,17:25:03,03/04/2024
,"<div style=""font-size: 10rem; color: #0000FF"">N</div>",,ospan,letter,w82roJV6jOMKDwwEII4KGxpOYPx2,html-keyboard-response,177,743086,0.0-46.0-6.0-0.0-1.0-1.0,,,,,,,,,,,,,,,6012d4f3e68e2209e7e53679,17:25:03,03/04/2024
1104.0,,,ospan,symmetry,w82roJV6jOMKDwwEII4KGxpOYPx2,symmetry-judgement-task,178,746217,0.0-46.0-6.0-0.0-1.0-2.0,,,,,,,,,,1.0,1.0,,,,6012d4f3e68e2209e7e53679,17:25:03,03/04/2024
,"<div style=""font-size: 10rem; color: #0000FF"">P</div>",,ospan,letter,w82roJV6jOMKDwwEII4KGxpOYPx2,html-keyboard-response,179,747223,0.0-46.0-6.0-0.0-1.0-3.0,,,,,,,,,,,,,,,6012d4f3e68e2209e7e53679,17:25:03,03/04/2024
1112.0,,,ospan,symmetry,w82roJV6jOMKDwwEII4KGxpOYPx2,symmetry-judgement-task,180,750352,0.0-46.0-6.0-0.0-1.0-4.0,,,,,,,,,,1.0,1.0,,,,6012d4f3e68e2209e7e53679,17:25:03,03/04/2024
,"<div style=""font-size: 10rem; color: #0000FF"">C</div>",,ospan,letter,w82roJV6jOMKDwwEII4KGxpOYPx2,html-keyboard-response,181,751354,0.0-46.0-6.0-0.0-1.0-5.0,,,,,,,,,,,,,,,6012d4f3e68e2209e7e53679,17:25:03,03/04/2024
1133.0,,,ospan,symmetry,w82roJV6jOMKDwwEII4KGxpOYPx2,symmetry-judgement-task,182,754487,0.0-46.0-6.0-0.0-1.0-6.0,,,,,,,,,,1.0,1.0,,,,6012d4f3e68e2209e7e53679,17:25:03,03/04/2024
,"<div style=""font-size: 10rem; color: #0000FF"">S</div>",,ospan,letter,w82roJV6jOMKDwwEII4KGxpOYPx2,html-keyboard-response,183,755488,0.0-46.0-6.0-0.0-1.0-7.0,,,,,,,,,,,,,,,6012d4f3e68e2209e7e53679,17:25:03,03/04/2024
1069.0,,,ospan,symmetry,w82roJV6jOMKDwwEII4KGxpOYPx2,symmetry-judgement-task,184,758565,0.0-46.0-6.0-0.0-1.0-8.0,,,,,,,,,,1.0,1.0,,,,6012d4f3e68e2209e7e53679,17:25:03,03/04/2024
,"<div style=""font-size: 10rem; color: #0000FF"">L</div>",,ospan,letter,w82roJV6jOMKDwwEII4KGxpOYPx2,html-keyboard-response,185,759570,0.0-46.0-6.0-0.0-1.0-9.0,,,,,,,,,,,,,,,6012d4f3e68e2209e7e53679,17:25:03,03/04/2024
6615.199999988079,"<div class = numbox><p style=""font-size: 2.4rem"">Please recall the letters you saw to the best of your ability. If you do not remember a particular letter, use the SKIP button.<br><b>(When you are ready to lock in your answer, press ENTER)</b></p><button id = button_1 class = ""square num-button"" onclick = ""recordClick(this)""><div class = content><div class = numbers>C</div></div></button><button id = button_2 class = ""square num-button"" onclick = ""recordClick(this)""><div class = content><div class = numbers>G</div></div></button><button id = button_3 class = ""square num-button"" onclick = ""recordClick(this)""><div class = content><div class = numbers>H</div></div></button><button id = button_4 class = ""square num-button"" onclick = ""recordClick(this)""><div class = content><div class = numbers>J</div></div></button><button id = button_5 class = ""square num-button"" onclick = ""recordClick(this)""><div class = content><div class = numbers>K</div></div></button><button id = button_6 class = ""square num-button"" onclick = ""recordClick(this)""><div class = content><div class = numbers>L</div></div></button><button id = button_7 class = ""square num-button"" onclick = ""recordClick(this)""><div class = content><div class = numbers>N</div></div></button><button id = button_8 class = ""square num-button"" onclick = ""recordClick(this)""><div class = content><div class = numbers>P</div></div></button><button id = button_9 class = ""square num-button"" onclick = ""recordClick(this)""><div class = content><div class = numbers>Q</div></div></button><button id = button_10 class = ""square num-button"" onclick = ""recordClick(this)""><div class = content><div class = numbers>R</div></div></button><button id = button_11 class = ""square num-button"" onclick = ""recordClick(this)""><div class = content><div class = numbers>S</div></div></button><button id = button_12 class = ""square num-button"" onclick = ""recordClick(this)""><div class = content><div class = numbers>Y</div></div></button><button class = clear_button id = ""ClearButton"" onclick = ""clearResponse()"">BACKSPACE</button><button class = blank_button id = ""BlankButton"" onclick = ""blankResponse()"">SKIP</button><p style=""font-size: 2.4rem""><u><b>Current Answer:</b></u></p><br><br><div id=echoed_txt style=""font-size: 5rem; color:blue;""><b></b></div></div>",enter,ospan,retrieval,w82roJV6jOMKDwwEII4KGxpOYPx2,html-keyboard-response,186,766938,0.0-46.0-6.0-0.0-2.0,33,32,27,5.0,"[""N"",""P"",""C"",""S"",""L""]","[""N"",""P"",""C"",""S"",""L""]",1.0,5.0,,,,,,,6012d4f3e68e2209e7e53679,17:25:03,03/04/2024
883.5,[''],0,ospan,feedback,w82roJV6jOMKDwwEII4KGxpOYPx2,html-button-response,187,768337,0.0-46.0-6.0-0.0-3.0,,,,,,,,,,,,100.0,0.0,,6012d4f3e68e2209e7e53679,17:25:03,03/04/2024
,"<p style=""font-size:75px;"">...</p>",,ospan,iti,w82roJV6jOMKDwwEII4KGxpOYPx2,html-keyboard-response,188,769344,0.0-46.0-6.0-1.0-0.0,,,,,,,,,,,,,,,6012d4f3e68e2209e7e53679,17:25:03,03/04/2024
1300.0,,,ospan,symmetry,w82roJV6jOMKDwwEII4KGxpOYPx2,symmetry-judgement-task,189,771935,0.0-46.0-6.0-1.0-1.0-0.0,,,,,,,,,,1.0,1.0,,,,6012d4f3e68e2209e7e53679,17:25:03,03/04/2024
,"<div style=""font-size: 10rem; color: #0000FF"">H</div>",,ospan,letter,w82roJV6jOMKDwwEII4KGxpOYPx2,html-keyboard-response,190,772937,0.0-46.0-6.0-1.0-1.0-1.0,,,,,,,,,,,,,,,6012d4f3e68e2209e7e53679,17:25:03,03/04/2024
1112.0,,,ospan,symmetry,w82roJV6jOMKDwwEII4KGxpOYPx2,symmetry-judgement-task,191,776090,0.0-46.0-6.0-1.0-1.0-2.0,,,,,,,,,,1.0,1.0,,,,6012d4f3e68e2209e7e53679,17:25:03,03/04/2024
,"<div style=""font-size: 10rem; color: #0000FF"">Q</div>",,ospan,letter,w82roJV6jOMKDwwEII4KGxpOYPx2,html-keyboard-response,192,777100,0.0-46.0-6.0-1.0-1.0-3.0,,,,,,,,,,,,,,,6012d4f3e68e2209e7e53679,17:25:03,03/04/2024
931.0,,,ospan,symmetry,w82roJV6jOMKDwwEII4KGxpOYPx2,symmetry-judgement-task,193,780045,0.0-46.0-6.0-1.0-1.0-4.0,,,,,,,,,,1.0,1.0,,,,6012d4f3e68e2209e7e53679,17:25:03,03/04/2024
,"<div style=""font-size: 10rem; color: #0000FF"">N</div>",,ospan,letter,w82roJV6jOMKDwwEII4KGxpOYPx2,html-keyboard-response,194,781049,0.0-46.0-6.0-1.0-1.0-5.0,,,,,,,,,,,,,,,6012d4f3e68e2209e7e53679,17:25:03,03/04/2024
1177.0,,,ospan,symmetry,w82roJV6jOMKDwwEII4KGxpOYPx2,symmetry-judgement-task,195,784291,0.0-46.0-6.0-1.0-1.0-6.0,,,,,,,,,,1.0,1.0,,,,6012d4f3e68e2209e7e53679,17:25:03,03/04/2024
,"<div style=""font-size: 10rem; color: #0000FF"">J</div>",,ospan,letter,w82roJV6jOMKDwwEII4KGxpOYPx2,html-keyboard-response,196,785292,0.0-46.0-6.0-1.0-1.0-7.0,,,,,,,,,,,,,,,6012d4f3e68e2209e7e53679,17:25:03,03/04/2024
974.0,,,ospan,symmetry,w82roJV6jOMKDwwEII4KGxpOYPx2,symmetry-judgement-task,197,788305,0.0-46.0-6.0-1.0-1.0-8.0,,,,,,,,,,1.0,1.0,,,,6012d4f3e68e2209e7e53679,17:25:03,03/04/2024
,"<div style=""font-size: 10rem; color: #0000FF"">S</div>",,ospan,letter,w82roJV6jOMKDwwEII4KGxpOYPx2,html-keyboard-response,198,789315,0.0-46.0-6.0-1.0-1.0-9.0,,,,,,,,,,,,,,,6012d4f3e68e2209e7e53679,17:25:03,03/04/2024
1101.0,,,ospan,symmetry,w82roJV6jOMKDwwEII4KGxpOYPx2,symmetry-judgement-task,199,792478,0.0-46.0-6.0-1.0-1.0-10.0,,,,,,,,,,1.0,1.0,,,,6012d4f3e68e2209e7e53679,17:25:03,03/04/2024
,"<div style=""font-size: 10rem; color: #0000FF"">L</div>",,ospan,letter,w82roJV6jOMKDwwEII4KGxpOYPx2,html-keyboard-response,200,793483,0.0-46.0-6.0-1.0-1.0-11.0,,,,,,,,,,,,,,,6012d4f3e68e2209e7e53679,17:25:03,03/04/2024
1189.0,,,ospan,symmetry,w82roJV6jOMKDwwEII4KGxpOYPx2,symmetry-judgement-task,201,796720,0.0-46.0-6.0-1.0-1.0-12.0,,,,,,,,,,1.0,1.0,,,,6012d4f3e68e2209e7e53679,17:25:03,03/04/2024
,"<div style=""font-size: 10rem; color: #0000FF"">G</div>",,ospan,letter,w82roJV6jOMKDwwEII4KGxpOYPx2,html-keyboard-response,202,797729,0.0-46.0-6.0-1.0-1.0-13.0,,,,,,,,,,,,,,,6012d4f3e68e2209e7e53679,17:25:03,03/04/2024
1377.0,,,ospan,symmetry,w82roJV6jOMKDwwEII4KGxpOYPx2,symmetry-judgement-task,203,801107,0.0-46.0-6.0-1.0-1.0-14.0,,,,,,,,,,1.0,1.0,,,,6012d4f3e68e2209e7e53679,17:25:03,03/04/2024
,"<div style=""font-size: 10rem; color: #0000FF"">P</div>",,ospan,letter,w82roJV6jOMKDwwEII4KGxpOYPx2,html-keyboard-response,204,802120,0.0-46.0-6.0-1.0-1.0-15.0,,,,,,,,,,,,,,,6012d4f3e68e2209e7e53679,17:25:03,03/04/2024
6744.0,"<div class = numbox><p style=""font-size: 2.4rem"">Please recall the letters you saw to the best of your ability. If you do not remember a particular letter, use the SKIP button.<br><b>(When you are ready to lock in your answer, press ENTER)</b></p><button id = button_1 class = ""square num-button"" onclick = ""recordClick(this)""><div class = content><div class = numbers>C</div></div></button><button id = button_2 class = ""square num-button"" onclick = ""recordClick(this)""><div class = content><div class = numbers>G</div></div></button><button id = button_3 class = ""square num-button"" onclick = ""recordClick(this)""><div class = content><div class = numbers>H</div></div></button><button id = button_4 class = ""square num-button"" onclick = ""recordClick(this)""><div class = content><div class = numbers>J</div></div></button><button id = button_5 class = ""square num-button"" onclick = ""recordClick(this)""><div class = content><div class = numbers>K</div></div></button><button id = button_6 class = ""square num-button"" onclick = ""recordClick(this)""><div class = content><div class = numbers>L</div></div></button><button id = button_7 class = ""square num-button"" onclick = ""recordClick(this)""><div class = content><div class = numbers>N</div></div></button><button id = button_8 class = ""square num-button"" onclick = ""recordClick(this)""><div class = content><div class = numbers>P</div></div></button><button id = button_9 class = ""square num-button"" onclick = ""recordClick(this)""><div class = content><div class = numbers>Q</div></div></button><button id = button_10 class = ""square num-button"" onclick = ""recordClick(this)""><div class = content><div class = numbers>R</div></div></button><button id = button_11 class = ""square num-button"" onclick = ""recordClick(this)""><div class = content><div class = numbers>S</div></div></button><button id = button_12 class = ""square num-button"" onclick = ""recordClick(this)""><div class = content><div class = numbers>Y</div></div></button><button class = clear_button id = ""ClearButton"" onclick = ""clearResponse()"">BACKSPACE</button><button class = blank_button id = ""BlankButton"" onclick = ""blankResponse()"">SKIP</button><p style=""font-size: 2.4rem""><u><b>Current Answer:</b></u></p><br><br><div id=echoed_txt style=""font-size: 5rem; color:blue;""><b></b></div></div>",enter,ospan,retrieval,w82roJV6jOMKDwwEII4KGxpOYPx2,html-keyboard-response,205,809620,0.0-46.0-6.0-1.0-2.0,41,38,27,8.0,"[""H"",""Q"",""N"",""J"",""S"",""L"",""P""]","[""H"",""Q"",""N"",""J"",""S"",""L"",""G"",""P""]",0.0,6.0,,,,,,,6012d4f3e68e2209e7e53679,17:25:03,03/04/2024
678.6999999880791,[''],0,ospan,feedback,w82roJV6jOMKDwwEII4KGxpOYPx2,html-button-response,206,810810,0.0-46.0-6.0-1.0-3.0,,,,,,,,,,,,100.0,0.0,,6012d4f3e68e2209e7e53679,17:25:03,03/04/2024
17771.0,,{'Q0': 'enjoyed it all had to recall it back in my brain'},ospan,survey_ospan,w82roJV6jOMKDwwEII4KGxpOYPx2,lmdlab-survey-text,207,829347,0.0-46.0-7.0,,,,,,,,,,,,,,w82roJV6jOMKDwwEII4KGxpOYPx2,6012d4f3e68e2209e7e53679,17:25:03,03/04/2024
933.4000000357628,<p><p style='font-size: 3rem'>Great work!<br><br>This completes the symmetry and memory task.</p><br><br><br>,0,ospan,finish,w82roJV6jOMKDwwEII4KGxpOYPx2,html-button-response,208,830285,0.0-46.0-8.0,41,38,27,,,,,,,,,100.0,,,6012d4f3e68e2209e7e53679,17:25:03,03/04/2024
