rt,stimulus,response,exp_name,exp_stage,subjectID,trial_type,trial_index,time_elapsed,internal_node_id,ospan_shown,ospan_total,ospan_abs,length,resp_actual,resp_correct,full_correct,num_correct,feedback,accuracy,correct,math_acc,math_warning,databaseID,prolificID,start_time,date
1134.2000000029802,<div class = 'left_align' style='font-size: 3.25rem; line-height: 1.3;'><p class = 'center_align'><b>Welcome to the Symmetry and Memory Task</b><br><br><br><br></p>Press 'continue' to show the instructions.<br><br><br><br></div>,0,ospan,instruct,eyuFSgObNCckTZTw1OPvNERmFaD2,html-button-response,54,556413,0.0-46.0-0.0-0.0-0.0,,,,,,,,,,,,,,,5f0cfeef098f1e53ff201909,20:17:48,02/04/2024
12675.89999999851,"<div class = 'left_align' style='font-size: 3.25rem; line-height: 1.3;'><p class = 'center_align'><b>Symmetry and Memory Task</b><br><br></p>In this task, you will try to memorize letters you see on the screen<br>while you also view black and white grid pictures.<br><br>In the next few minutes, you will have some practice to get you familiar<br>with how the task works.<br><br>It may be difficult sometimes, but please do not worry about making mistakes!<br><br>We will begin by practicing the letter part of the task.<br><br><br><br></div>",0,ospan,instruct,eyuFSgObNCckTZTw1OPvNERmFaD2,html-button-response,55,569354,0.0-46.0-0.0-0.0-1.0,,,,,,,,,,,,,,,5f0cfeef098f1e53ff201909,20:17:48,02/04/2024
9815.80000000447,"<div class = 'left_align' style='font-size: 3.25rem; line-height: 1.3;'>For this practice part, letters will appear on the screen one at a time.<br><br>Try to remember each letter in the order presented.<br><br>After some letters have been shown, you will see a response screen. Your<br>goal is to report the letters you saw <b>in order</b>. If you do not remember<br>a particular letter, you will have the option to leave it blank.<br><br><br><br></div>",0,ospan,instruct,eyuFSgObNCckTZTw1OPvNERmFaD2,html-button-response,56,579426,0.0-46.0-0.0-0.0-2.0,,,,,,,,,,,,,,,5f0cfeef098f1e53ff201909,20:17:48,02/04/2024
2738.89999999851,"<div class = 'left_align' style='font-size: 3.25rem; line-height: 1.3;'>Remember, it is very important to get the letters in the same<br>order as you see them.<br><br>When you are ready, you may begin the letter practice.</div><br><br><br><br>",0,ospan,instruct,eyuFSgObNCckTZTw1OPvNERmFaD2,html-button-response,57,582421,0.0-46.0-0.0-0.0-3.0,,,,,,,,,,,,,,,5f0cfeef098f1e53ff201909,20:17:48,02/04/2024
,"<p style=""font-size:75px;"">...</p>",,ospan,iti,eyuFSgObNCckTZTw1OPvNERmFaD2,html-keyboard-response,58,583688,0.0-46.0-0.0-1.0-0.0,,,,,,,,,,,,,,,5f0cfeef098f1e53ff201909,20:17:48,02/04/2024
,"<div style=""font-size: 10rem; color: #0000FF"">K</div>",,ospan,letter,eyuFSgObNCckTZTw1OPvNERmFaD2,html-keyboard-response,59,584700,0.0-46.0-0.0-1.0-1.0,,,,,,,,,,,,,,,5f0cfeef098f1e53ff201909,20:17:48,02/04/2024
,"<div style=""font-size: 10rem; color: #0000FF"">G</div>",,ospan,letter,eyuFSgObNCckTZTw1OPvNERmFaD2,html-keyboard-response,60,586468,0.0-46.0-0.0-1.0-2.0,,,,,,,,,,,,,,,5f0cfeef098f1e53ff201909,20:17:48,02/04/2024
6005.5,"<div class = numbox><p style=""font-size: 2.4rem"">Please recall the letters you saw to the best of your ability. If you do not remember a particular letter, use the SKIP button.<br><b>(When you are ready to lock in your answer, press ENTER)</b></p><button id = button_1 class = ""square num-button"" onclick = ""recordClick(this)""><div class = content><div class = numbers>C</div></div></button><button id = button_2 class = ""square num-button"" onclick = ""recordClick(this)""><div class = content><div class = numbers>G</div></div></button><button id = button_3 class = ""square num-button"" onclick = ""recordClick(this)""><div class = content><div class = numbers>H</div></div></button><button id = button_4 class = ""square num-button"" onclick = ""recordClick(this)""><div class = content><div class = numbers>J</div></div></button><button id = button_5 class = ""square num-button"" onclick = ""recordClick(this)""><div class = content><div class = numbers>K</div></div></button><button id = button_6 class = ""square num-button"" onclick = ""recordClick(this)""><div class = content><div class = numbers>L</div></div></button><button id = button_7 class = ""square num-button"" onclick = ""recordClick(this)""><div class = content><div class = numbers>N</div></div></button><button id = button_8 class = ""square num-button"" onclick = ""recordClick(this)""><div class = content><div class = numbers>P</div></div></button><button id = button_9 class = ""square num-button"" onclick = ""recordClick(this)""><div class = content><div class = numbers>Q</div></div></button><button id = button_10 class = ""square num-button"" onclick = ""recordClick(this)""><div class = content><div class = numbers>R</div></div></button><button id = button_11 class = ""square num-button"" onclick = ""recordClick(this)""><div class = content><div class = numbers>S</div></div></button><button id = button_12 class = ""square num-button"" onclick = ""recordClick(this)""><div class = content><div class = numbers>Y</div></div></button><button class = clear_button id = ""ClearButton"" onclick = ""clearResponse()"">BACKSPACE</button><button class = blank_button id = ""BlankButton"" onclick = ""blankResponse()"">SKIP</button><p style=""font-size: 2.4rem""><u><b>Current Answer:</b></u></p><br><br><div id=echoed_txt style=""font-size: 5rem; color:blue;""><b></b></div></div>",enter,ospan,retrieval,eyuFSgObNCckTZTw1OPvNERmFaD2,html-keyboard-response,61,593235,0.0-46.0-0.0-1.0-3.0,NA,NA,NA,2.0,"[""K"",""G""]","[""K"",""G""]",1.0,2.0,"['<font color=""green"">K</font>', '<font color=""green"">G</font>']",,,,,,5f0cfeef098f1e53ff201909,20:17:48,02/04/2024
2266.7999999970198,"['<p style=""font-size:44px"">Letters:<br><br><br><font color=""green"">K</font> <font color=""green"">G</font></p><br><br>']",0,ospan,practice_feedback,eyuFSgObNCckTZTw1OPvNERmFaD2,html-button-response,62,596012,0.0-46.0-0.0-1.0-4.0,,,,,,,,,,,,,,,5f0cfeef098f1e53ff201909,20:17:48,02/04/2024
,"<p style=""font-size:75px;"">...</p>",,ospan,iti,eyuFSgObNCckTZTw1OPvNERmFaD2,html-keyboard-response,63,597016,0.0-46.0-0.0-2.0-0.0,,,,,,,,,,,,,,,5f0cfeef098f1e53ff201909,20:17:48,02/04/2024
,"<div style=""font-size: 10rem; color: #0000FF"">S</div>",,ospan,letter,eyuFSgObNCckTZTw1OPvNERmFaD2,html-keyboard-response,64,598028,0.0-46.0-0.0-2.0-1.0,,,,,,,,,,,,,,,5f0cfeef098f1e53ff201909,20:17:48,02/04/2024
,"<div style=""font-size: 10rem; color: #0000FF"">N</div>",,ospan,letter,eyuFSgObNCckTZTw1OPvNERmFaD2,html-keyboard-response,65,599796,0.0-46.0-0.0-2.0-2.0,,,,,,,,,,,,,,,5f0cfeef098f1e53ff201909,20:17:48,02/04/2024
,"<div style=""font-size: 10rem; color: #0000FF"">H</div>",,ospan,letter,eyuFSgObNCckTZTw1OPvNERmFaD2,html-keyboard-response,66,601562,0.0-46.0-0.0-2.0-3.0,,,,,,,,,,,,,,,5f0cfeef098f1e53ff201909,20:17:48,02/04/2024
2982.39999999851,"<div class = numbox><p style=""font-size: 2.4rem"">Please recall the letters you saw to the best of your ability. If you do not remember a particular letter, use the SKIP button.<br><b>(When you are ready to lock in your answer, press ENTER)</b></p><button id = button_1 class = ""square num-button"" onclick = ""recordClick(this)""><div class = content><div class = numbers>C</div></div></button><button id = button_2 class = ""square num-button"" onclick = ""recordClick(this)""><div class = content><div class = numbers>G</div></div></button><button id = button_3 class = ""square num-button"" onclick = ""recordClick(this)""><div class = content><div class = numbers>H</div></div></button><button id = button_4 class = ""square num-button"" onclick = ""recordClick(this)""><div class = content><div class = numbers>J</div></div></button><button id = button_5 class = ""square num-button"" onclick = ""recordClick(this)""><div class = content><div class = numbers>K</div></div></button><button id = button_6 class = ""square num-button"" onclick = ""recordClick(this)""><div class = content><div class = numbers>L</div></div></button><button id = button_7 class = ""square num-button"" onclick = ""recordClick(this)""><div class = content><div class = numbers>N</div></div></button><button id = button_8 class = ""square num-button"" onclick = ""recordClick(this)""><div class = content><div class = numbers>P</div></div></button><button id = button_9 class = ""square num-button"" onclick = ""recordClick(this)""><div class = content><div class = numbers>Q</div></div></button><button id = button_10 class = ""square num-button"" onclick = ""recordClick(this)""><div class = content><div class = numbers>R</div></div></button><button id = button_11 class = ""square num-button"" onclick = ""recordClick(this)""><div class = content><div class = numbers>S</div></div></button><button id = button_12 class = ""square num-button"" onclick = ""recordClick(this)""><div class = content><div class = numbers>Y</div></div></button><button class = clear_button id = ""ClearButton"" onclick = ""clearResponse()"">BACKSPACE</button><button class = blank_button id = ""BlankButton"" onclick = ""blankResponse()"">SKIP</button><p style=""font-size: 2.4rem""><u><b>Current Answer:</b></u></p><br><br><div id=echoed_txt style=""font-size: 5rem; color:blue;""><b></b></div></div>",enter,ospan,retrieval,eyuFSgObNCckTZTw1OPvNERmFaD2,html-keyboard-response,67,605309,0.0-46.0-0.0-2.0-4.0,NA,NA,NA,3.0,"[""S"",""N"",""H""]","[""S"",""N"",""H""]",1.0,3.0,"['<font color=""green"">S</font>', '<font color=""green"">N</font>', '<font color=""green"">H</font>']",,,,,,5f0cfeef098f1e53ff201909,20:17:48,02/04/2024
1409.3999999985099,"['<p style=""font-size:44px"">Letters:<br><br><br><font color=""green"">S</font> <font color=""green"">N</font> <font color=""green"">H</font></p><br><br>']",0,ospan,practice_feedback,eyuFSgObNCckTZTw1OPvNERmFaD2,html-button-response,68,607232,0.0-46.0-0.0-2.0-5.0,,,,,,,,,,,,,,,5f0cfeef098f1e53ff201909,20:17:48,02/04/2024
12654.80000000447,"<div class = 'left_align' style='font-size: 3.25rem; line-height: 1.3;'>Now you will practice doing the <b>symmetry judgment part</b> of the experiment.<br><br>A black and white grid picture will appear on the screen and you have to judge if it is <br>symmetrical or asymetrical.<br><br>A picture is 'mirror' symmetrical if its left half is identical to the right half when flipped.<br>Here are examples of a symmetrical and an asymetrical picture:<br><br><center><img src='Stimuli/img/symm_instructions_extra.png' style='height:420px; width:900'></img></center><br>To judge symmetry, imagine you were to fold each picture down the middle, like a book –<br>would the left half match the right half when folded onto each other?<br><br></div><br>",0,ospan,instruct,eyuFSgObNCckTZTw1OPvNERmFaD2,html-button-response,69,619889,0.0-46.0-1.0-0.0-0.0,,,,,,,,,,,,,,,5f0cfeef098f1e53ff201909,20:17:48,02/04/2024
2926.2999999970198,"<div class = 'left_align' style='font-size: 3.25rem; line-height: 1.3;'>When you have viewed the picture and determined whether it is symmetrical or not,<br>you can <b>click the Yes or No button</b> below to answer.<br><br>If you take longer than 15 seconds, it will continue automatically<br>and record the answer as an error.</div><br>",0,ospan,instruct,eyuFSgObNCckTZTw1OPvNERmFaD2,html-button-response,70,623076,0.0-46.0-1.0-0.0-1.0,,,,,,,,,,,,,,,5f0cfeef098f1e53ff201909,20:17:48,02/04/2024
3117.0,"<div class = 'left_align' style='font-size: 3.25rem; line-height: 1.3;'>It is <b>very</b> important that you make the symmetry judgment correctly.<br><br>It is also important that you try and judge the picture as quickly as you can.<br><br>When you are ready, click on the button below to try some practice problems.</div><br><br><br><br>",0,ospan,instruct,eyuFSgObNCckTZTw1OPvNERmFaD2,html-button-response,71,626448,0.0-46.0-1.0-0.0-2.0,,,,,,,,,,,,,,,5f0cfeef098f1e53ff201909,20:17:48,02/04/2024
5016.0,,,ospan,symmetry,eyuFSgObNCckTZTw1OPvNERmFaD2,symmetry-judgement-task,72,632269,0.0-46.0-1.0-1.0-0.0,,,,,,,,,,1.0,1.0,,,,5f0cfeef098f1e53ff201909,20:17:48,02/04/2024
,"<p style=""color:green; font-size: 35px"">Correct</p>",,ospan,feedback,eyuFSgObNCckTZTw1OPvNERmFaD2,html-keyboard-response,73,633029,0.0-46.0-1.0-1.0-1.0,,,,,,,,,,,,,,,5f0cfeef098f1e53ff201909,20:17:48,02/04/2024
1375.0,,,ospan,symmetry,eyuFSgObNCckTZTw1OPvNERmFaD2,symmetry-judgement-task,74,637141,0.0-46.0-1.0-1.0-2.0,,,,,,,,,,1.0,1.0,,,,5f0cfeef098f1e53ff201909,20:17:48,02/04/2024
,"<p style=""color:green; font-size: 35px"">Correct</p>",,ospan,feedback,eyuFSgObNCckTZTw1OPvNERmFaD2,html-keyboard-response,75,637900,0.0-46.0-1.0-1.0-3.0,,,,,,,,,,,,,,,5f0cfeef098f1e53ff201909,20:17:48,02/04/2024
2316.0,,,ospan,symmetry,eyuFSgObNCckTZTw1OPvNERmFaD2,symmetry-judgement-task,76,642949,0.0-46.0-1.0-1.0-4.0,,,,,,,,,,1.0,1.0,,,,5f0cfeef098f1e53ff201909,20:17:48,02/04/2024
,"<p style=""color:green; font-size: 35px"">Correct</p>",,ospan,feedback,eyuFSgObNCckTZTw1OPvNERmFaD2,html-keyboard-response,77,643709,0.0-46.0-1.0-1.0-5.0,,,,,,,,,,,,,,,5f0cfeef098f1e53ff201909,20:17:48,02/04/2024
1387.2000000029802,"<p style=""font-size: 3rem;"">You responded correctly on 3 of 3 symmetry judgments. Good job!</p><br><br>",0,ospan,practice,eyuFSgObNCckTZTw1OPvNERmFaD2,html-button-response,78,647106,0.0-46.0-1.0-2.0,,,,,,,,,,,,,,,5f0cfeef098f1e53ff201909,20:17:48,02/04/2024
4894.5,"<div class = 'left_align' style='font-size: 3.25rem; line-height: 1.3;'>Now you will practice doing both parts of the experiment at the same time.<br><br>In the next practice set, you will be given one grid picture to judge.<br>Then letter will appear on the screen. Try to remember the letter.<br><br>It is <b>very important</b> to make the symmetry judgment as quickly and accurately as possible.<br><br>Just as before, once you have make the symmetry judgment, you can click Yes or No.<br><b>Note that you will no longer see Correct or Incorrect feedback.</div><br><br><br><br>",0,ospan,instruct,eyuFSgObNCckTZTw1OPvNERmFaD2,html-button-response,79,652258,0.0-46.0-2.0-0.0-0.0,,,,,,,,,,,,,,,5f0cfeef098f1e53ff201909,20:17:48,02/04/2024
14932.10000000149,"<div class = 'left_align' style='font-size: 3.25rem; line-height: 1.3;'>After the letter goes away, another grid picture will appear, and then<br>another letter.<br><br>At the end of each set of letters and grids, you will recall the letters to the best<br>of your ability. Remember, try your best to get the letters in the correct order.<br><br>It is important to <b>quickly</b> and <b>accurately</b> make the symmetry judgments.</div><br><br><br><br>",0,ospan,instruct,eyuFSgObNCckTZTw1OPvNERmFaD2,html-button-response,80,667447,0.0-46.0-2.0-0.0-1.0,,,,,,,,,,,,,,,5f0cfeef098f1e53ff201909,20:17:48,02/04/2024
8914.5,"<div class = 'left_align' style='font-size: 3.25rem; line-height: 1.3;'>On the feedback screen, if you are not doing well at the symmetry judgments,<br>you will also see a warning in the middle. This indicates your percent <br>correct for the grid pictures for the entire experiment.<br><br>It is <b>very</b> important for you to keep accuracy at least at 85%: <u>We can only use<br>data where the participant was at least 85% accurate on the judgments.</u> Therefore,<br> please try your best to perform well on the symmetry judgments, <b>at the same time</b><br>doing your best to recall as many letters as possible.<br><br>Click the button to try some practice problems.</div><br><br><br><br>",0,ospan,instruct,eyuFSgObNCckTZTw1OPvNERmFaD2,html-button-response,81,676621,0.0-46.0-2.0-0.0-2.0,,,,,,,,,,,,,,,5f0cfeef098f1e53ff201909,20:17:48,02/04/2024
,"<p style=""font-size:75px;"">...</p>",,ospan,iti,eyuFSgObNCckTZTw1OPvNERmFaD2,html-keyboard-response,82,677886,0.0-46.0-2.0-1.0-0.0,,,,,,,,,,,,,,,5f0cfeef098f1e53ff201909,20:17:48,02/04/2024
2436.0,,,ospan,symmetry,eyuFSgObNCckTZTw1OPvNERmFaD2,symmetry-judgement-task,83,681557,0.0-46.0-2.0-1.0-1.0-0.0,,,,,,,,,,1.0,1.0,,,,5f0cfeef098f1e53ff201909,20:17:48,02/04/2024
,"<div style=""font-size: 10rem; color: #0000FF"">J</div>",,ospan,letter,eyuFSgObNCckTZTw1OPvNERmFaD2,html-keyboard-response,84,682563,0.0-46.0-2.0-1.0-1.0-1.0,,,,,,,,,,,,,,,5f0cfeef098f1e53ff201909,20:17:48,02/04/2024
2199.0,,,ospan,symmetry,eyuFSgObNCckTZTw1OPvNERmFaD2,symmetry-judgement-task,85,686737,0.0-46.0-2.0-1.0-1.0-2.0,,,,,,,,,,1.0,1.0,,,,5f0cfeef098f1e53ff201909,20:17:48,02/04/2024
,"<div style=""font-size: 10rem; color: #0000FF"">C</div>",,ospan,letter,eyuFSgObNCckTZTw1OPvNERmFaD2,html-keyboard-response,86,687750,0.0-46.0-2.0-1.0-1.0-3.0,,,,,,,,,,,,,,,5f0cfeef098f1e53ff201909,20:17:48,02/04/2024
1522.0,,,ospan,symmetry,eyuFSgObNCckTZTw1OPvNERmFaD2,symmetry-judgement-task,87,691278,0.0-46.0-2.0-1.0-1.0-4.0,,,,,,,,,,1.0,1.0,,,,5f0cfeef098f1e53ff201909,20:17:48,02/04/2024
,"<div style=""font-size: 10rem; color: #0000FF"">Y</div>",,ospan,letter,eyuFSgObNCckTZTw1OPvNERmFaD2,html-keyboard-response,88,692284,0.0-46.0-2.0-1.0-1.0-5.0,,,,,,,,,,,,,,,5f0cfeef098f1e53ff201909,20:17:48,02/04/2024
4960.5,"<div class = numbox><p style=""font-size: 2.4rem"">Please recall the letters you saw to the best of your ability. If you do not remember a particular letter, use the SKIP button.<br><b>(When you are ready to lock in your answer, press ENTER)</b></p><button id = button_1 class = ""square num-button"" onclick = ""recordClick(this)""><div class = content><div class = numbers>C</div></div></button><button id = button_2 class = ""square num-button"" onclick = ""recordClick(this)""><div class = content><div class = numbers>G</div></div></button><button id = button_3 class = ""square num-button"" onclick = ""recordClick(this)""><div class = content><div class = numbers>H</div></div></button><button id = button_4 class = ""square num-button"" onclick = ""recordClick(this)""><div class = content><div class = numbers>J</div></div></button><button id = button_5 class = ""square num-button"" onclick = ""recordClick(this)""><div class = content><div class = numbers>K</div></div></button><button id = button_6 class = ""square num-button"" onclick = ""recordClick(this)""><div class = content><div class = numbers>L</div></div></button><button id = button_7 class = ""square num-button"" onclick = ""recordClick(this)""><div class = content><div class = numbers>N</div></div></button><button id = button_8 class = ""square num-button"" onclick = ""recordClick(this)""><div class = content><div class = numbers>P</div></div></button><button id = button_9 class = ""square num-button"" onclick = ""recordClick(this)""><div class = content><div class = numbers>Q</div></div></button><button id = button_10 class = ""square num-button"" onclick = ""recordClick(this)""><div class = content><div class = numbers>R</div></div></button><button id = button_11 class = ""square num-button"" onclick = ""recordClick(this)""><div class = content><div class = numbers>S</div></div></button><button id = button_12 class = ""square num-button"" onclick = ""recordClick(this)""><div class = content><div class = numbers>Y</div></div></button><button class = clear_button id = ""ClearButton"" onclick = ""clearResponse()"">BACKSPACE</button><button class = blank_button id = ""BlankButton"" onclick = ""blankResponse()"">SKIP</button><p style=""font-size: 2.4rem""><u><b>Current Answer:</b></u></p><br><br><div id=echoed_txt style=""font-size: 5rem; color:blue;""><b></b></div></div>",enter,ospan,retrieval,eyuFSgObNCckTZTw1OPvNERmFaD2,html-keyboard-response,89,698007,0.0-46.0-2.0-1.0-2.0-0.0,NA,NA,NA,3.0,"[""J"",""C"",""Y""]","[""J"",""C"",""Y""]",1.0,3.0,"['<font color=""green"">J</font>', '<font color=""green"">C</font>', '<font color=""green"">Y</font>']",,,,,,5f0cfeef098f1e53ff201909,20:17:48,02/04/2024
1112.1000000014901,"['<p style=""font-size:44px"">Letters:<br><br><br><font color=""green"">J</font> <font color=""green"">C</font> <font color=""green"">Y</font></p><br><br><p style=""font-size:30px"">Symmetry:<br><br><font color=""green"">100%</font></p><br><br>']",0,ospan,practice_feedback,eyuFSgObNCckTZTw1OPvNERmFaD2,html-button-response,90,699630,0.0-46.0-2.0-1.0-2.0-1.0,,,,,,,,,,,,,,,5f0cfeef098f1e53ff201909,20:17:48,02/04/2024
,"<p style=""font-size:75px;"">...</p>",,ospan,iti,eyuFSgObNCckTZTw1OPvNERmFaD2,html-keyboard-response,91,700638,0.0-46.0-2.0-2.0-0.0,,,,,,,,,,,,,,,5f0cfeef098f1e53ff201909,20:17:48,02/04/2024
1576.0,,,ospan,symmetry,eyuFSgObNCckTZTw1OPvNERmFaD2,symmetry-judgement-task,92,703426,0.0-46.0-2.0-2.0-1.0-0.0,,,,,,,,,,1.0,1.0,,,,5f0cfeef098f1e53ff201909,20:17:48,02/04/2024
,"<div style=""font-size: 10rem; color: #0000FF"">R</div>",,ospan,letter,eyuFSgObNCckTZTw1OPvNERmFaD2,html-keyboard-response,93,704439,0.0-46.0-2.0-2.0-1.0-1.0,,,,,,,,,,,,,,,5f0cfeef098f1e53ff201909,20:17:48,02/04/2024
1077.0,,,ospan,symmetry,eyuFSgObNCckTZTw1OPvNERmFaD2,symmetry-judgement-task,94,707502,0.0-46.0-2.0-2.0-1.0-2.0,,,,,,,,,,1.0,1.0,,,,5f0cfeef098f1e53ff201909,20:17:48,02/04/2024
,"<div style=""font-size: 10rem; color: #0000FF"">K</div>",,ospan,letter,eyuFSgObNCckTZTw1OPvNERmFaD2,html-keyboard-response,95,708509,0.0-46.0-2.0-2.0-1.0-3.0,,,,,,,,,,,,,,,5f0cfeef098f1e53ff201909,20:17:48,02/04/2024
724.0,,,ospan,symmetry,eyuFSgObNCckTZTw1OPvNERmFaD2,symmetry-judgement-task,96,711234,0.0-46.0-2.0-2.0-1.0-4.0,,,,,,,,,,1.0,1.0,,,,5f0cfeef098f1e53ff201909,20:17:48,02/04/2024
,"<div style=""font-size: 10rem; color: #0000FF"">H</div>",,ospan,letter,eyuFSgObNCckTZTw1OPvNERmFaD2,html-keyboard-response,97,712247,0.0-46.0-2.0-2.0-1.0-5.0,,,,,,,,,,,,,,,5f0cfeef098f1e53ff201909,20:17:48,02/04/2024
4312.10000000149,"<div class = numbox><p style=""font-size: 2.4rem"">Please recall the letters you saw to the best of your ability. If you do not remember a particular letter, use the SKIP button.<br><b>(When you are ready to lock in your answer, press ENTER)</b></p><button id = button_1 class = ""square num-button"" onclick = ""recordClick(this)""><div class = content><div class = numbers>C</div></div></button><button id = button_2 class = ""square num-button"" onclick = ""recordClick(this)""><div class = content><div class = numbers>G</div></div></button><button id = button_3 class = ""square num-button"" onclick = ""recordClick(this)""><div class = content><div class = numbers>H</div></div></button><button id = button_4 class = ""square num-button"" onclick = ""recordClick(this)""><div class = content><div class = numbers>J</div></div></button><button id = button_5 class = ""square num-button"" onclick = ""recordClick(this)""><div class = content><div class = numbers>K</div></div></button><button id = button_6 class = ""square num-button"" onclick = ""recordClick(this)""><div class = content><div class = numbers>L</div></div></button><button id = button_7 class = ""square num-button"" onclick = ""recordClick(this)""><div class = content><div class = numbers>N</div></div></button><button id = button_8 class = ""square num-button"" onclick = ""recordClick(this)""><div class = content><div class = numbers>P</div></div></button><button id = button_9 class = ""square num-button"" onclick = ""recordClick(this)""><div class = content><div class = numbers>Q</div></div></button><button id = button_10 class = ""square num-button"" onclick = ""recordClick(this)""><div class = content><div class = numbers>R</div></div></button><button id = button_11 class = ""square num-button"" onclick = ""recordClick(this)""><div class = content><div class = numbers>S</div></div></button><button id = button_12 class = ""square num-button"" onclick = ""recordClick(this)""><div class = content><div class = numbers>Y</div></div></button><button class = clear_button id = ""ClearButton"" onclick = ""clearResponse()"">BACKSPACE</button><button class = blank_button id = ""BlankButton"" onclick = ""blankResponse()"">SKIP</button><p style=""font-size: 2.4rem""><u><b>Current Answer:</b></u></p><br><br><div id=echoed_txt style=""font-size: 5rem; color:blue;""><b></b></div></div>",enter,ospan,retrieval,eyuFSgObNCckTZTw1OPvNERmFaD2,html-keyboard-response,98,717316,0.0-46.0-2.0-2.0-2.0-0.0,NA,NA,NA,3.0,"[""R"",""K"",""H""]","[""R"",""K"",""H""]",1.0,3.0,"['<font color=""green"">R</font>', '<font color=""green"">K</font>', '<font color=""green"">H</font>']",,,,,,5f0cfeef098f1e53ff201909,20:17:48,02/04/2024
1219.7999999970198,"['<p style=""font-size:44px"">Letters:<br><br><br><font color=""green"">R</font> <font color=""green"">K</font> <font color=""green"">H</font></p><br><br><p style=""font-size:30px"">Symmetry:<br><br><font color=""green"">100%</font></p><br><br>']",0,ospan,practice_feedback,eyuFSgObNCckTZTw1OPvNERmFaD2,html-button-response,99,719044,0.0-46.0-2.0-2.0-2.0-1.0,,,,,,,,,,,,,,,5f0cfeef098f1e53ff201909,20:17:48,02/04/2024
24182.5,"<div class = 'left_align' style='font-size: 3rem; line-height: 1.3;'><b>Great work! That is the end of practice.</b><br><br>The real trials will look just like the practice trials you just completed.<br><br><u>Here, you will not see feedback</u>. First, you will see an grid picture to judge,<br>then a letter to remember. When the recall screen appears, report the letters in the<br>order presented. If you forget a letter, remember to use the <b>blank</b> button to move to the<br>next letter. Some of the sets will have more symmetry grids and letters than others.<br><br>It is important that you do your best on both the symmetry judgments and the letter recall<br>parts of the experiment. For for the symmetry judgments, try to work as <b>quickly</b> and <br>as <b>accurately</b> as possible. Remember to keep your symmetry accuracy at 85% or above.<br><br><b>For the letters, do NOT use any external aid (e.g., writing on paper, electronic device).</b><br><br>It is <u>very important</u> to our experiment to have a <b>true</b> view of your real performance.<br><br>Do not worry if you miss some when it gets hard! This task is meant to be very challenging!<br><br>Click the button to begin.</div><br><br><br><br>",0,ospan,starting_real_here,eyuFSgObNCckTZTw1OPvNERmFaD2,html-button-response,100,743230,0.0-46.0-2.0-3.0,,,,,,,,,,,,,,,5f0cfeef098f1e53ff201909,20:17:48,02/04/2024
,"<p style=""font-size:75px;"">...</p>",,ospan,iti,eyuFSgObNCckTZTw1OPvNERmFaD2,html-keyboard-response,101,744495,0.0-46.0-3.0-0.0-0.0,,,,,,,,,,,,,,,5f0cfeef098f1e53ff201909,20:17:48,02/04/2024
2057.0,,,ospan,symmetry,eyuFSgObNCckTZTw1OPvNERmFaD2,symmetry-judgement-task,102,747782,0.0-46.0-3.0-0.0-1.0-0.0,,,,,,,,,,1.0,1.0,,,,5f0cfeef098f1e53ff201909,20:17:48,02/04/2024
,"<div style=""font-size: 10rem; color: #0000FF"">K</div>",,ospan,letter,eyuFSgObNCckTZTw1OPvNERmFaD2,html-keyboard-response,103,748788,0.0-46.0-3.0-0.0-1.0-1.0,,,,,,,,,,,,,,,5f0cfeef098f1e53ff201909,20:17:48,02/04/2024
1210.0,,,ospan,symmetry,eyuFSgObNCckTZTw1OPvNERmFaD2,symmetry-judgement-task,104,751975,0.0-46.0-3.0-0.0-1.0-2.0,,,,,,,,,,1.0,1.0,,,,5f0cfeef098f1e53ff201909,20:17:48,02/04/2024
,"<div style=""font-size: 10rem; color: #0000FF"">Y</div>",,ospan,letter,eyuFSgObNCckTZTw1OPvNERmFaD2,html-keyboard-response,105,752982,0.0-46.0-3.0-0.0-1.0-3.0,,,,,,,,,,,,,,,5f0cfeef098f1e53ff201909,20:17:48,02/04/2024
1165.0,,,ospan,symmetry,eyuFSgObNCckTZTw1OPvNERmFaD2,symmetry-judgement-task,106,756156,0.0-46.0-3.0-0.0-1.0-4.0,,,,,,,,,,1.0,1.0,,,,5f0cfeef098f1e53ff201909,20:17:48,02/04/2024
,"<div style=""font-size: 10rem; color: #0000FF"">L</div>",,ospan,letter,eyuFSgObNCckTZTw1OPvNERmFaD2,html-keyboard-response,107,757162,0.0-46.0-3.0-0.0-1.0-5.0,,,,,,,,,,,,,,,5f0cfeef098f1e53ff201909,20:17:48,02/04/2024
5369.0,"<div class = numbox><p style=""font-size: 2.4rem"">Please recall the letters you saw to the best of your ability. If you do not remember a particular letter, use the SKIP button.<br><b>(When you are ready to lock in your answer, press ENTER)</b></p><button id = button_1 class = ""square num-button"" onclick = ""recordClick(this)""><div class = content><div class = numbers>C</div></div></button><button id = button_2 class = ""square num-button"" onclick = ""recordClick(this)""><div class = content><div class = numbers>G</div></div></button><button id = button_3 class = ""square num-button"" onclick = ""recordClick(this)""><div class = content><div class = numbers>H</div></div></button><button id = button_4 class = ""square num-button"" onclick = ""recordClick(this)""><div class = content><div class = numbers>J</div></div></button><button id = button_5 class = ""square num-button"" onclick = ""recordClick(this)""><div class = content><div class = numbers>K</div></div></button><button id = button_6 class = ""square num-button"" onclick = ""recordClick(this)""><div class = content><div class = numbers>L</div></div></button><button id = button_7 class = ""square num-button"" onclick = ""recordClick(this)""><div class = content><div class = numbers>N</div></div></button><button id = button_8 class = ""square num-button"" onclick = ""recordClick(this)""><div class = content><div class = numbers>P</div></div></button><button id = button_9 class = ""square num-button"" onclick = ""recordClick(this)""><div class = content><div class = numbers>Q</div></div></button><button id = button_10 class = ""square num-button"" onclick = ""recordClick(this)""><div class = content><div class = numbers>R</div></div></button><button id = button_11 class = ""square num-button"" onclick = ""recordClick(this)""><div class = content><div class = numbers>S</div></div></button><button id = button_12 class = ""square num-button"" onclick = ""recordClick(this)""><div class = content><div class = numbers>Y</div></div></button><button class = clear_button id = ""ClearButton"" onclick = ""clearResponse()"">BACKSPACE</button><button class = blank_button id = ""BlankButton"" onclick = ""blankResponse()"">SKIP</button><p style=""font-size: 2.4rem""><u><b>Current Answer:</b></u></p><br><br><div id=echoed_txt style=""font-size: 5rem; color:blue;""><b></b></div></div>",enter,ospan,retrieval,eyuFSgObNCckTZTw1OPvNERmFaD2,html-keyboard-response,108,763290,0.0-46.0-3.0-0.0-2.0,3,3,3,3.0,"[""K"",""Y"",""L""]","[""K"",""Y"",""L""]",1.0,3.0,,,,,,,5f0cfeef098f1e53ff201909,20:17:48,02/04/2024
1008.6000000014901,[''],0,ospan,feedback,eyuFSgObNCckTZTw1OPvNERmFaD2,html-button-response,109,764810,0.0-46.0-3.0-0.0-3.0,,,,,,,,,,,,100.0,0.0,,5f0cfeef098f1e53ff201909,20:17:48,02/04/2024
,"<p style=""font-size:75px;"">...</p>",,ospan,iti,eyuFSgObNCckTZTw1OPvNERmFaD2,html-keyboard-response,110,765821,0.0-46.0-4.0-0.0-0.0,,,,,,,,,,,,,,,5f0cfeef098f1e53ff201909,20:17:48,02/04/2024
1573.0,,,ospan,symmetry,eyuFSgObNCckTZTw1OPvNERmFaD2,symmetry-judgement-task,111,768619,0.0-46.0-4.0-0.0-1.0-0.0,,,,,,,,,,1.0,1.0,,,,5f0cfeef098f1e53ff201909,20:17:48,02/04/2024
,"<div style=""font-size: 10rem; color: #0000FF"">S</div>",,ospan,letter,eyuFSgObNCckTZTw1OPvNERmFaD2,html-keyboard-response,112,769631,0.0-46.0-4.0-0.0-1.0-1.0,,,,,,,,,,,,,,,5f0cfeef098f1e53ff201909,20:17:48,02/04/2024
1281.0,,,ospan,symmetry,eyuFSgObNCckTZTw1OPvNERmFaD2,symmetry-judgement-task,113,772896,0.0-46.0-4.0-0.0-1.0-2.0,,,,,,,,,,1.0,1.0,,,,5f0cfeef098f1e53ff201909,20:17:48,02/04/2024
,"<div style=""font-size: 10rem; color: #0000FF"">P</div>",,ospan,letter,eyuFSgObNCckTZTw1OPvNERmFaD2,html-keyboard-response,114,773903,0.0-46.0-4.0-0.0-1.0-3.0,,,,,,,,,,,,,,,5f0cfeef098f1e53ff201909,20:17:48,02/04/2024
1384.0,,,ospan,symmetry,eyuFSgObNCckTZTw1OPvNERmFaD2,symmetry-judgement-task,115,777300,0.0-46.0-4.0-0.0-1.0-4.0,,,,,,,,,,1.0,1.0,,,,5f0cfeef098f1e53ff201909,20:17:48,02/04/2024
,"<div style=""font-size: 10rem; color: #0000FF"">N</div>",,ospan,letter,eyuFSgObNCckTZTw1OPvNERmFaD2,html-keyboard-response,116,778307,0.0-46.0-4.0-0.0-1.0-5.0,,,,,,,,,,,,,,,5f0cfeef098f1e53ff201909,20:17:48,02/04/2024
1587.0,,,ospan,symmetry,eyuFSgObNCckTZTw1OPvNERmFaD2,symmetry-judgement-task,117,781883,0.0-46.0-4.0-0.0-1.0-6.0,,,,,,,,,,1.0,1.0,,,,5f0cfeef098f1e53ff201909,20:17:48,02/04/2024
,"<div style=""font-size: 10rem; color: #0000FF"">C</div>",,ospan,letter,eyuFSgObNCckTZTw1OPvNERmFaD2,html-keyboard-response,118,782896,0.0-46.0-4.0-0.0-1.0-7.0,,,,,,,,,,,,,,,5f0cfeef098f1e53ff201909,20:17:48,02/04/2024
5290.29999999702,"<div class = numbox><p style=""font-size: 2.4rem"">Please recall the letters you saw to the best of your ability. If you do not remember a particular letter, use the SKIP button.<br><b>(When you are ready to lock in your answer, press ENTER)</b></p><button id = button_1 class = ""square num-button"" onclick = ""recordClick(this)""><div class = content><div class = numbers>C</div></div></button><button id = button_2 class = ""square num-button"" onclick = ""recordClick(this)""><div class = content><div class = numbers>G</div></div></button><button id = button_3 class = ""square num-button"" onclick = ""recordClick(this)""><div class = content><div class = numbers>H</div></div></button><button id = button_4 class = ""square num-button"" onclick = ""recordClick(this)""><div class = content><div class = numbers>J</div></div></button><button id = button_5 class = ""square num-button"" onclick = ""recordClick(this)""><div class = content><div class = numbers>K</div></div></button><button id = button_6 class = ""square num-button"" onclick = ""recordClick(this)""><div class = content><div class = numbers>L</div></div></button><button id = button_7 class = ""square num-button"" onclick = ""recordClick(this)""><div class = content><div class = numbers>N</div></div></button><button id = button_8 class = ""square num-button"" onclick = ""recordClick(this)""><div class = content><div class = numbers>P</div></div></button><button id = button_9 class = ""square num-button"" onclick = ""recordClick(this)""><div class = content><div class = numbers>Q</div></div></button><button id = button_10 class = ""square num-button"" onclick = ""recordClick(this)""><div class = content><div class = numbers>R</div></div></button><button id = button_11 class = ""square num-button"" onclick = ""recordClick(this)""><div class = content><div class = numbers>S</div></div></button><button id = button_12 class = ""square num-button"" onclick = ""recordClick(this)""><div class = content><div class = numbers>Y</div></div></button><button class = clear_button id = ""ClearButton"" onclick = ""clearResponse()"">BACKSPACE</button><button class = blank_button id = ""BlankButton"" onclick = ""blankResponse()"">SKIP</button><p style=""font-size: 2.4rem""><u><b>Current Answer:</b></u></p><br><br><div id=echoed_txt style=""font-size: 5rem; color:blue;""><b></b></div></div>",enter,ospan,retrieval,eyuFSgObNCckTZTw1OPvNERmFaD2,html-keyboard-response,119,788948,0.0-46.0-4.0-0.0-2.0,7,7,7,4.0,"[""S"",""P"",""N"",""C""]","[""S"",""P"",""N"",""C""]",1.0,4.0,,,,,,,5f0cfeef098f1e53ff201909,20:17:48,02/04/2024
1005.0,[''],0,ospan,feedback,eyuFSgObNCckTZTw1OPvNERmFaD2,html-button-response,120,790455,0.0-46.0-4.0-0.0-3.0,,,,,,,,,,,,100.0,0.0,,5f0cfeef098f1e53ff201909,20:17:48,02/04/2024
,"<p style=""font-size:75px;"">...</p>",,ospan,iti,eyuFSgObNCckTZTw1OPvNERmFaD2,html-keyboard-response,121,791464,0.0-46.0-4.0-1.0-0.0,,,,,,,,,,,,,,,5f0cfeef098f1e53ff201909,20:17:48,02/04/2024
1923.0,,,ospan,symmetry,eyuFSgObNCckTZTw1OPvNERmFaD2,symmetry-judgement-task,122,794440,0.0-46.0-4.0-1.0-1.0-0.0,,,,,,,,,,1.0,1.0,,,,5f0cfeef098f1e53ff201909,20:17:48,02/04/2024
,"<div style=""font-size: 10rem; color: #0000FF"">K</div>",,ospan,letter,eyuFSgObNCckTZTw1OPvNERmFaD2,html-keyboard-response,123,795441,0.0-46.0-4.0-1.0-1.0-1.0,,,,,,,,,,,,,,,5f0cfeef098f1e53ff201909,20:17:48,02/04/2024
1454.0,,,ospan,symmetry,eyuFSgObNCckTZTw1OPvNERmFaD2,symmetry-judgement-task,124,798883,0.0-46.0-4.0-1.0-1.0-2.0,,,,,,,,,,1.0,1.0,,,,5f0cfeef098f1e53ff201909,20:17:48,02/04/2024
,"<div style=""font-size: 10rem; color: #0000FF"">Q</div>",,ospan,letter,eyuFSgObNCckTZTw1OPvNERmFaD2,html-keyboard-response,125,799892,0.0-46.0-4.0-1.0-1.0-3.0,,,,,,,,,,,,,,,5f0cfeef098f1e53ff201909,20:17:48,02/04/2024
1807.0,,,ospan,symmetry,eyuFSgObNCckTZTw1OPvNERmFaD2,symmetry-judgement-task,126,803669,0.0-46.0-4.0-1.0-1.0-4.0,,,,,,,,,,1.0,1.0,,,,5f0cfeef098f1e53ff201909,20:17:48,02/04/2024
,"<div style=""font-size: 10rem; color: #0000FF"">J</div>",,ospan,letter,eyuFSgObNCckTZTw1OPvNERmFaD2,html-keyboard-response,127,804676,0.0-46.0-4.0-1.0-1.0-5.0,,,,,,,,,,,,,,,5f0cfeef098f1e53ff201909,20:17:48,02/04/2024
1972.0,,,ospan,symmetry,eyuFSgObNCckTZTw1OPvNERmFaD2,symmetry-judgement-task,128,808637,0.0-46.0-4.0-1.0-1.0-6.0,,,,,,,,,,1.0,1.0,,,,5f0cfeef098f1e53ff201909,20:17:48,02/04/2024
,"<div style=""font-size: 10rem; color: #0000FF"">P</div>",,ospan,letter,eyuFSgObNCckTZTw1OPvNERmFaD2,html-keyboard-response,129,809649,0.0-46.0-4.0-1.0-1.0-7.0,,,,,,,,,,,,,,,5f0cfeef098f1e53ff201909,20:17:48,02/04/2024
2190.0,,,ospan,symmetry,eyuFSgObNCckTZTw1OPvNERmFaD2,symmetry-judgement-task,130,813806,0.0-46.0-4.0-1.0-1.0-8.0,,,,,,,,,,1.0,1.0,,,,5f0cfeef098f1e53ff201909,20:17:48,02/04/2024
,"<div style=""font-size: 10rem; color: #0000FF"">C</div>",,ospan,letter,eyuFSgObNCckTZTw1OPvNERmFaD2,html-keyboard-response,131,814817,0.0-46.0-4.0-1.0-1.0-9.0,,,,,,,,,,,,,,,5f0cfeef098f1e53ff201909,20:17:48,02/04/2024
6405.20000000298,"<div class = numbox><p style=""font-size: 2.4rem"">Please recall the letters you saw to the best of your ability. If you do not remember a particular letter, use the SKIP button.<br><b>(When you are ready to lock in your answer, press ENTER)</b></p><button id = button_1 class = ""square num-button"" onclick = ""recordClick(this)""><div class = content><div class = numbers>C</div></div></button><button id = button_2 class = ""square num-button"" onclick = ""recordClick(this)""><div class = content><div class = numbers>G</div></div></button><button id = button_3 class = ""square num-button"" onclick = ""recordClick(this)""><div class = content><div class = numbers>H</div></div></button><button id = button_4 class = ""square num-button"" onclick = ""recordClick(this)""><div class = content><div class = numbers>J</div></div></button><button id = button_5 class = ""square num-button"" onclick = ""recordClick(this)""><div class = content><div class = numbers>K</div></div></button><button id = button_6 class = ""square num-button"" onclick = ""recordClick(this)""><div class = content><div class = numbers>L</div></div></button><button id = button_7 class = ""square num-button"" onclick = ""recordClick(this)""><div class = content><div class = numbers>N</div></div></button><button id = button_8 class = ""square num-button"" onclick = ""recordClick(this)""><div class = content><div class = numbers>P</div></div></button><button id = button_9 class = ""square num-button"" onclick = ""recordClick(this)""><div class = content><div class = numbers>Q</div></div></button><button id = button_10 class = ""square num-button"" onclick = ""recordClick(this)""><div class = content><div class = numbers>R</div></div></button><button id = button_11 class = ""square num-button"" onclick = ""recordClick(this)""><div class = content><div class = numbers>S</div></div></button><button id = button_12 class = ""square num-button"" onclick = ""recordClick(this)""><div class = content><div class = numbers>Y</div></div></button><button class = clear_button id = ""ClearButton"" onclick = ""clearResponse()"">BACKSPACE</button><button class = blank_button id = ""BlankButton"" onclick = ""blankResponse()"">SKIP</button><p style=""font-size: 2.4rem""><u><b>Current Answer:</b></u></p><br><br><div id=echoed_txt style=""font-size: 5rem; color:blue;""><b></b></div></div>",enter,ospan,retrieval,eyuFSgObNCckTZTw1OPvNERmFaD2,html-keyboard-response,132,821979,0.0-46.0-4.0-1.0-2.0,12,12,12,5.0,"[""K"",""Q"",""J"",""P"",""C""]","[""K"",""Q"",""J"",""P"",""C""]",1.0,5.0,,,,,,,5f0cfeef098f1e53ff201909,20:17:48,02/04/2024
1036.6000000014901,[''],0,ospan,feedback,eyuFSgObNCckTZTw1OPvNERmFaD2,html-button-response,133,823527,0.0-46.0-4.0-1.0-3.0,,,,,,,,,,,,100.0,0.0,,5f0cfeef098f1e53ff201909,20:17:48,02/04/2024
,"<p style=""font-size:75px;"">...</p>",,ospan,iti,eyuFSgObNCckTZTw1OPvNERmFaD2,html-keyboard-response,134,824537,0.0-46.0-4.0-2.0-0.0,,,,,,,,,,,,,,,5f0cfeef098f1e53ff201909,20:17:48,02/04/2024
1334.0,,,ospan,symmetry,eyuFSgObNCckTZTw1OPvNERmFaD2,symmetry-judgement-task,135,827104,0.0-46.0-4.0-2.0-1.0-0.0,,,,,,,,,,1.0,1.0,,,,5f0cfeef098f1e53ff201909,20:17:48,02/04/2024
,"<div style=""font-size: 10rem; color: #0000FF"">N</div>",,ospan,letter,eyuFSgObNCckTZTw1OPvNERmFaD2,html-keyboard-response,136,828110,0.0-46.0-4.0-2.0-1.0-1.0,,,,,,,,,,,,,,,5f0cfeef098f1e53ff201909,20:17:48,02/04/2024
1747.0,,,ospan,symmetry,eyuFSgObNCckTZTw1OPvNERmFaD2,symmetry-judgement-task,137,831825,0.0-46.0-4.0-2.0-1.0-2.0,,,,,,,,,,1.0,1.0,,,,5f0cfeef098f1e53ff201909,20:17:48,02/04/2024
,"<div style=""font-size: 10rem; color: #0000FF"">L</div>",,ospan,letter,eyuFSgObNCckTZTw1OPvNERmFaD2,html-keyboard-response,138,832826,0.0-46.0-4.0-2.0-1.0-3.0,,,,,,,,,,,,,,,5f0cfeef098f1e53ff201909,20:17:48,02/04/2024
1578.0,,,ospan,symmetry,eyuFSgObNCckTZTw1OPvNERmFaD2,symmetry-judgement-task,139,836413,0.0-46.0-4.0-2.0-1.0-4.0,,,,,,,,,,1.0,1.0,,,,5f0cfeef098f1e53ff201909,20:17:48,02/04/2024
,"<div style=""font-size: 10rem; color: #0000FF"">J</div>",,ospan,letter,eyuFSgObNCckTZTw1OPvNERmFaD2,html-keyboard-response,140,837425,0.0-46.0-4.0-2.0-1.0-5.0,,,,,,,,,,,,,,,5f0cfeef098f1e53ff201909,20:17:48,02/04/2024
3776.3000000044703,"<div class = numbox><p style=""font-size: 2.4rem"">Please recall the letters you saw to the best of your ability. If you do not remember a particular letter, use the SKIP button.<br><b>(When you are ready to lock in your answer, press ENTER)</b></p><button id = button_1 class = ""square num-button"" onclick = ""recordClick(this)""><div class = content><div class = numbers>C</div></div></button><button id = button_2 class = ""square num-button"" onclick = ""recordClick(this)""><div class = content><div class = numbers>G</div></div></button><button id = button_3 class = ""square num-button"" onclick = ""recordClick(this)""><div class = content><div class = numbers>H</div></div></button><button id = button_4 class = ""square num-button"" onclick = ""recordClick(this)""><div class = content><div class = numbers>J</div></div></button><button id = button_5 class = ""square num-button"" onclick = ""recordClick(this)""><div class = content><div class = numbers>K</div></div></button><button id = button_6 class = ""square num-button"" onclick = ""recordClick(this)""><div class = content><div class = numbers>L</div></div></button><button id = button_7 class = ""square num-button"" onclick = ""recordClick(this)""><div class = content><div class = numbers>N</div></div></button><button id = button_8 class = ""square num-button"" onclick = ""recordClick(this)""><div class = content><div class = numbers>P</div></div></button><button id = button_9 class = ""square num-button"" onclick = ""recordClick(this)""><div class = content><div class = numbers>Q</div></div></button><button id = button_10 class = ""square num-button"" onclick = ""recordClick(this)""><div class = content><div class = numbers>R</div></div></button><button id = button_11 class = ""square num-button"" onclick = ""recordClick(this)""><div class = content><div class = numbers>S</div></div></button><button id = button_12 class = ""square num-button"" onclick = ""recordClick(this)""><div class = content><div class = numbers>Y</div></div></button><button class = clear_button id = ""ClearButton"" onclick = ""clearResponse()"">BACKSPACE</button><button class = blank_button id = ""BlankButton"" onclick = ""blankResponse()"">SKIP</button><p style=""font-size: 2.4rem""><u><b>Current Answer:</b></u></p><br><br><div id=echoed_txt style=""font-size: 5rem; color:blue;""><b></b></div></div>",enter,ospan,retrieval,eyuFSgObNCckTZTw1OPvNERmFaD2,html-keyboard-response,141,841963,0.0-46.0-4.0-2.0-2.0,15,15,15,3.0,"[""N"",""L"",""J""]","[""N"",""L"",""J""]",1.0,3.0,,,,,,,5f0cfeef098f1e53ff201909,20:17:48,02/04/2024
836.2999999970198,[''],0,ospan,feedback,eyuFSgObNCckTZTw1OPvNERmFaD2,html-button-response,142,843308,0.0-46.0-4.0-2.0-3.0,,,,,,,,,,,,100.0,0.0,,5f0cfeef098f1e53ff201909,20:17:48,02/04/2024
,"<p style=""font-size:75px;"">...</p>",,ospan,iti,eyuFSgObNCckTZTw1OPvNERmFaD2,html-keyboard-response,143,844320,0.0-46.0-5.0-0.0-0.0,,,,,,,,,,,,,,,5f0cfeef098f1e53ff201909,20:17:48,02/04/2024
1700.0,,,ospan,symmetry,eyuFSgObNCckTZTw1OPvNERmFaD2,symmetry-judgement-task,144,847249,0.0-46.0-5.0-0.0-1.0-0.0,,,,,,,,,,1.0,1.0,,,,5f0cfeef098f1e53ff201909,20:17:48,02/04/2024
,"<div style=""font-size: 10rem; color: #0000FF"">G</div>",,ospan,letter,eyuFSgObNCckTZTw1OPvNERmFaD2,html-keyboard-response,145,848254,0.0-46.0-5.0-0.0-1.0-1.0,,,,,,,,,,,,,,,5f0cfeef098f1e53ff201909,20:17:48,02/04/2024
1124.0,,,ospan,symmetry,eyuFSgObNCckTZTw1OPvNERmFaD2,symmetry-judgement-task,146,851353,0.0-46.0-5.0-0.0-1.0-2.0,,,,,,,,,,1.0,1.0,,,,5f0cfeef098f1e53ff201909,20:17:48,02/04/2024
,"<div style=""font-size: 10rem; color: #0000FF"">Y</div>",,ospan,letter,eyuFSgObNCckTZTw1OPvNERmFaD2,html-keyboard-response,147,852361,0.0-46.0-5.0-0.0-1.0-3.0,,,,,,,,,,,,,,,5f0cfeef098f1e53ff201909,20:17:48,02/04/2024
1069.0,,,ospan,symmetry,eyuFSgObNCckTZTw1OPvNERmFaD2,symmetry-judgement-task,148,855433,0.0-46.0-5.0-0.0-1.0-4.0,,,,,,,,,,1.0,1.0,,,,5f0cfeef098f1e53ff201909,20:17:48,02/04/2024
,"<div style=""font-size: 10rem; color: #0000FF"">H</div>",,ospan,letter,eyuFSgObNCckTZTw1OPvNERmFaD2,html-keyboard-response,149,856440,0.0-46.0-5.0-0.0-1.0-5.0,,,,,,,,,,,,,,,5f0cfeef098f1e53ff201909,20:17:48,02/04/2024
1388.0,,,ospan,symmetry,eyuFSgObNCckTZTw1OPvNERmFaD2,symmetry-judgement-task,150,859818,0.0-46.0-5.0-0.0-1.0-6.0,,,,,,,,,,1.0,1.0,,,,5f0cfeef098f1e53ff201909,20:17:48,02/04/2024
,"<div style=""font-size: 10rem; color: #0000FF"">J</div>",,ospan,letter,eyuFSgObNCckTZTw1OPvNERmFaD2,html-keyboard-response,151,860825,0.0-46.0-5.0-0.0-1.0-7.0,,,,,,,,,,,,,,,5f0cfeef098f1e53ff201909,20:17:48,02/04/2024
1189.0,,,ospan,symmetry,eyuFSgObNCckTZTw1OPvNERmFaD2,symmetry-judgement-task,152,864021,0.0-46.0-5.0-0.0-1.0-8.0,,,,,,,,,,1.0,1.0,,,,5f0cfeef098f1e53ff201909,20:17:48,02/04/2024
,"<div style=""font-size: 10rem; color: #0000FF"">R</div>",,ospan,letter,eyuFSgObNCckTZTw1OPvNERmFaD2,html-keyboard-response,153,865029,0.0-46.0-5.0-0.0-1.0-9.0,,,,,,,,,,,,,,,5f0cfeef098f1e53ff201909,20:17:48,02/04/2024
2209.0,,,ospan,symmetry,eyuFSgObNCckTZTw1OPvNERmFaD2,symmetry-judgement-task,154,869221,0.0-46.0-5.0-0.0-1.0-10.0,,,,,,,,,,1.0,1.0,,,,5f0cfeef098f1e53ff201909,20:17:48,02/04/2024
,"<div style=""font-size: 10rem; color: #0000FF"">L</div>",,ospan,letter,eyuFSgObNCckTZTw1OPvNERmFaD2,html-keyboard-response,155,870230,0.0-46.0-5.0-0.0-1.0-11.0,,,,,,,,,,,,,,,5f0cfeef098f1e53ff201909,20:17:48,02/04/2024
10436.29999999702,"<div class = numbox><p style=""font-size: 2.4rem"">Please recall the letters you saw to the best of your ability. If you do not remember a particular letter, use the SKIP button.<br><b>(When you are ready to lock in your answer, press ENTER)</b></p><button id = button_1 class = ""square num-button"" onclick = ""recordClick(this)""><div class = content><div class = numbers>C</div></div></button><button id = button_2 class = ""square num-button"" onclick = ""recordClick(this)""><div class = content><div class = numbers>G</div></div></button><button id = button_3 class = ""square num-button"" onclick = ""recordClick(this)""><div class = content><div class = numbers>H</div></div></button><button id = button_4 class = ""square num-button"" onclick = ""recordClick(this)""><div class = content><div class = numbers>J</div></div></button><button id = button_5 class = ""square num-button"" onclick = ""recordClick(this)""><div class = content><div class = numbers>K</div></div></button><button id = button_6 class = ""square num-button"" onclick = ""recordClick(this)""><div class = content><div class = numbers>L</div></div></button><button id = button_7 class = ""square num-button"" onclick = ""recordClick(this)""><div class = content><div class = numbers>N</div></div></button><button id = button_8 class = ""square num-button"" onclick = ""recordClick(this)""><div class = content><div class = numbers>P</div></div></button><button id = button_9 class = ""square num-button"" onclick = ""recordClick(this)""><div class = content><div class = numbers>Q</div></div></button><button id = button_10 class = ""square num-button"" onclick = ""recordClick(this)""><div class = content><div class = numbers>R</div></div></button><button id = button_11 class = ""square num-button"" onclick = ""recordClick(this)""><div class = content><div class = numbers>S</div></div></button><button id = button_12 class = ""square num-button"" onclick = ""recordClick(this)""><div class = content><div class = numbers>Y</div></div></button><button class = clear_button id = ""ClearButton"" onclick = ""clearResponse()"">BACKSPACE</button><button class = blank_button id = ""BlankButton"" onclick = ""blankResponse()"">SKIP</button><p style=""font-size: 2.4rem""><u><b>Current Answer:</b></u></p><br><br><div id=echoed_txt style=""font-size: 5rem; color:blue;""><b></b></div></div>",enter,ospan,retrieval,eyuFSgObNCckTZTw1OPvNERmFaD2,html-keyboard-response,156,881420,0.0-46.0-5.0-0.0-2.0,21,21,21,6.0,"[""G"",""Y"",""H"",""J"",""R"",""L""]","[""G"",""Y"",""H"",""J"",""R"",""L""]",1.0,6.0,,,,,,,5f0cfeef098f1e53ff201909,20:17:48,02/04/2024
1082.0,[''],0,ospan,feedback,eyuFSgObNCckTZTw1OPvNERmFaD2,html-button-response,157,883010,0.0-46.0-5.0-0.0-3.0,,,,,,,,,,,,100.0,0.0,,5f0cfeef098f1e53ff201909,20:17:48,02/04/2024
,"<p style=""font-size:75px;"">...</p>",,ospan,iti,eyuFSgObNCckTZTw1OPvNERmFaD2,html-keyboard-response,158,884018,0.0-46.0-5.0-1.0-0.0,,,,,,,,,,,,,,,5f0cfeef098f1e53ff201909,20:17:48,02/04/2024
1525.0,,,ospan,symmetry,eyuFSgObNCckTZTw1OPvNERmFaD2,symmetry-judgement-task,159,886602,0.0-46.0-5.0-1.0-1.0-0.0,,,,,,,,,,1.0,1.0,,,,5f0cfeef098f1e53ff201909,20:17:48,02/04/2024
,"<div style=""font-size: 10rem; color: #0000FF"">C</div>",,ospan,letter,eyuFSgObNCckTZTw1OPvNERmFaD2,html-keyboard-response,160,887608,0.0-46.0-5.0-1.0-1.0-1.0,,,,,,,,,,,,,,,5f0cfeef098f1e53ff201909,20:17:48,02/04/2024
1353.0,,,ospan,symmetry,eyuFSgObNCckTZTw1OPvNERmFaD2,symmetry-judgement-task,161,890942,0.0-46.0-5.0-1.0-1.0-2.0,,,,,,,,,,1.0,1.0,,,,5f0cfeef098f1e53ff201909,20:17:48,02/04/2024
,"<div style=""font-size: 10rem; color: #0000FF"">K</div>",,ospan,letter,eyuFSgObNCckTZTw1OPvNERmFaD2,html-keyboard-response,162,891953,0.0-46.0-5.0-1.0-1.0-3.0,,,,,,,,,,,,,,,5f0cfeef098f1e53ff201909,20:17:48,02/04/2024
1436.0,,,ospan,symmetry,eyuFSgObNCckTZTw1OPvNERmFaD2,symmetry-judgement-task,163,895386,0.0-46.0-5.0-1.0-1.0-4.0,,,,,,,,,,1.0,1.0,,,,5f0cfeef098f1e53ff201909,20:17:48,02/04/2024
,"<div style=""font-size: 10rem; color: #0000FF"">H</div>",,ospan,letter,eyuFSgObNCckTZTw1OPvNERmFaD2,html-keyboard-response,164,896392,0.0-46.0-5.0-1.0-1.0-5.0,,,,,,,,,,,,,,,5f0cfeef098f1e53ff201909,20:17:48,02/04/2024
1413.0,,,ospan,symmetry,eyuFSgObNCckTZTw1OPvNERmFaD2,symmetry-judgement-task,165,899787,0.0-46.0-5.0-1.0-1.0-6.0,,,,,,,,,,1.0,1.0,,,,5f0cfeef098f1e53ff201909,20:17:48,02/04/2024
,"<div style=""font-size: 10rem; color: #0000FF"">S</div>",,ospan,letter,eyuFSgObNCckTZTw1OPvNERmFaD2,html-keyboard-response,166,900793,0.0-46.0-5.0-1.0-1.0-7.0,,,,,,,,,,,,,,,5f0cfeef098f1e53ff201909,20:17:48,02/04/2024
1325.0,,,ospan,symmetry,eyuFSgObNCckTZTw1OPvNERmFaD2,symmetry-judgement-task,167,904138,0.0-46.0-5.0-1.0-1.0-8.0,,,,,,,,,,1.0,1.0,,,,5f0cfeef098f1e53ff201909,20:17:48,02/04/2024
,"<div style=""font-size: 10rem; color: #0000FF"">L</div>",,ospan,letter,eyuFSgObNCckTZTw1OPvNERmFaD2,html-keyboard-response,168,905144,0.0-46.0-5.0-1.0-1.0-9.0,,,,,,,,,,,,,,,5f0cfeef098f1e53ff201909,20:17:48,02/04/2024
1404.0,,,ospan,symmetry,eyuFSgObNCckTZTw1OPvNERmFaD2,symmetry-judgement-task,169,908543,0.0-46.0-5.0-1.0-1.0-10.0,,,,,,,,,,1.0,1.0,,,,5f0cfeef098f1e53ff201909,20:17:48,02/04/2024
,"<div style=""font-size: 10rem; color: #0000FF"">Q</div>",,ospan,letter,eyuFSgObNCckTZTw1OPvNERmFaD2,html-keyboard-response,170,909554,0.0-46.0-5.0-1.0-1.0-11.0,,,,,,,,,,,,,,,5f0cfeef098f1e53ff201909,20:17:48,02/04/2024
1445.0,,,ospan,symmetry,eyuFSgObNCckTZTw1OPvNERmFaD2,symmetry-judgement-task,171,912975,0.0-46.0-5.0-1.0-1.0-12.0,,,,,,,,,,1.0,1.0,,,,5f0cfeef098f1e53ff201909,20:17:48,02/04/2024
,"<div style=""font-size: 10rem; color: #0000FF"">G</div>",,ospan,letter,eyuFSgObNCckTZTw1OPvNERmFaD2,html-keyboard-response,172,913986,0.0-46.0-5.0-1.0-1.0-13.0,,,,,,,,,,,,,,,5f0cfeef098f1e53ff201909,20:17:48,02/04/2024
19326.39999999851,"<div class = numbox><p style=""font-size: 2.4rem"">Please recall the letters you saw to the best of your ability. If you do not remember a particular letter, use the SKIP button.<br><b>(When you are ready to lock in your answer, press ENTER)</b></p><button id = button_1 class = ""square num-button"" onclick = ""recordClick(this)""><div class = content><div class = numbers>C</div></div></button><button id = button_2 class = ""square num-button"" onclick = ""recordClick(this)""><div class = content><div class = numbers>G</div></div></button><button id = button_3 class = ""square num-button"" onclick = ""recordClick(this)""><div class = content><div class = numbers>H</div></div></button><button id = button_4 class = ""square num-button"" onclick = ""recordClick(this)""><div class = content><div class = numbers>J</div></div></button><button id = button_5 class = ""square num-button"" onclick = ""recordClick(this)""><div class = content><div class = numbers>K</div></div></button><button id = button_6 class = ""square num-button"" onclick = ""recordClick(this)""><div class = content><div class = numbers>L</div></div></button><button id = button_7 class = ""square num-button"" onclick = ""recordClick(this)""><div class = content><div class = numbers>N</div></div></button><button id = button_8 class = ""square num-button"" onclick = ""recordClick(this)""><div class = content><div class = numbers>P</div></div></button><button id = button_9 class = ""square num-button"" onclick = ""recordClick(this)""><div class = content><div class = numbers>Q</div></div></button><button id = button_10 class = ""square num-button"" onclick = ""recordClick(this)""><div class = content><div class = numbers>R</div></div></button><button id = button_11 class = ""square num-button"" onclick = ""recordClick(this)""><div class = content><div class = numbers>S</div></div></button><button id = button_12 class = ""square num-button"" onclick = ""recordClick(this)""><div class = content><div class = numbers>Y</div></div></button><button class = clear_button id = ""ClearButton"" onclick = ""clearResponse()"">BACKSPACE</button><button class = blank_button id = ""BlankButton"" onclick = ""blankResponse()"">SKIP</button><p style=""font-size: 2.4rem""><u><b>Current Answer:</b></u></p><br><br><div id=echoed_txt style=""font-size: 5rem; color:blue;""><b></b></div></div>",enter,ospan,retrieval,eyuFSgObNCckTZTw1OPvNERmFaD2,html-keyboard-response,173,934070,0.0-46.0-5.0-1.0-2.0,28,26,21,7.0,"[""C"",""K"",""H"",""S"",""L"",""_""]","[""C"",""K"",""H"",""S"",""L"",""Q"",""G""]",0.0,5.0,,,,,,,5f0cfeef098f1e53ff201909,20:17:48,02/04/2024
2156.5,[''],0,ospan,feedback,eyuFSgObNCckTZTw1OPvNERmFaD2,html-button-response,174,936735,0.0-46.0-5.0-1.0-3.0,,,,,,,,,,,,100.0,0.0,,5f0cfeef098f1e53ff201909,20:17:48,02/04/2024
,"<p style=""font-size:75px;"">...</p>",,ospan,iti,eyuFSgObNCckTZTw1OPvNERmFaD2,html-keyboard-response,175,937747,0.0-46.0-6.0-0.0-0.0,,,,,,,,,,,,,,,5f0cfeef098f1e53ff201909,20:17:48,02/04/2024
1696.0,,,ospan,symmetry,eyuFSgObNCckTZTw1OPvNERmFaD2,symmetry-judgement-task,176,940488,0.0-46.0-6.0-0.0-1.0-0.0,,,,,,,,,,1.0,1.0,,,,5f0cfeef098f1e53ff201909,20:17:48,02/04/2024
,"<div style=""font-size: 10rem; color: #0000FF"">L</div>",,ospan,letter,eyuFSgObNCckTZTw1OPvNERmFaD2,html-keyboard-response,177,941499,0.0-46.0-6.0-0.0-1.0-1.0,,,,,,,,,,,,,,,5f0cfeef098f1e53ff201909,20:17:48,02/04/2024
1365.0,,,ospan,symmetry,eyuFSgObNCckTZTw1OPvNERmFaD2,symmetry-judgement-task,178,944873,0.0-46.0-6.0-0.0-1.0-2.0,,,,,,,,,,1.0,1.0,,,,5f0cfeef098f1e53ff201909,20:17:48,02/04/2024
,"<div style=""font-size: 10rem; color: #0000FF"">R</div>",,ospan,letter,eyuFSgObNCckTZTw1OPvNERmFaD2,html-keyboard-response,179,945879,0.0-46.0-6.0-0.0-1.0-3.0,,,,,,,,,,,,,,,5f0cfeef098f1e53ff201909,20:17:48,02/04/2024
1548.0,,,ospan,symmetry,eyuFSgObNCckTZTw1OPvNERmFaD2,symmetry-judgement-task,180,949411,0.0-46.0-6.0-0.0-1.0-4.0,,,,,,,,,,1.0,1.0,,,,5f0cfeef098f1e53ff201909,20:17:48,02/04/2024
,"<div style=""font-size: 10rem; color: #0000FF"">S</div>",,ospan,letter,eyuFSgObNCckTZTw1OPvNERmFaD2,html-keyboard-response,181,950415,0.0-46.0-6.0-0.0-1.0-5.0,,,,,,,,,,,,,,,5f0cfeef098f1e53ff201909,20:17:48,02/04/2024
1691.0,,,ospan,symmetry,eyuFSgObNCckTZTw1OPvNERmFaD2,symmetry-judgement-task,182,954110,0.0-46.0-6.0-0.0-1.0-6.0,,,,,,,,,,1.0,1.0,,,,5f0cfeef098f1e53ff201909,20:17:48,02/04/2024
,"<div style=""font-size: 10rem; color: #0000FF"">P</div>",,ospan,letter,eyuFSgObNCckTZTw1OPvNERmFaD2,html-keyboard-response,183,955124,0.0-46.0-6.0-0.0-1.0-7.0,,,,,,,,,,,,,,,5f0cfeef098f1e53ff201909,20:17:48,02/04/2024
1210.0,,,ospan,symmetry,eyuFSgObNCckTZTw1OPvNERmFaD2,symmetry-judgement-task,184,958303,0.0-46.0-6.0-0.0-1.0-8.0,,,,,,,,,,1.0,1.0,,,,5f0cfeef098f1e53ff201909,20:17:48,02/04/2024
,"<div style=""font-size: 10rem; color: #0000FF"">G</div>",,ospan,letter,eyuFSgObNCckTZTw1OPvNERmFaD2,html-keyboard-response,185,959316,0.0-46.0-6.0-0.0-1.0-9.0,,,,,,,,,,,,,,,5f0cfeef098f1e53ff201909,20:17:48,02/04/2024
4556.39999999851,"<div class = numbox><p style=""font-size: 2.4rem"">Please recall the letters you saw to the best of your ability. If you do not remember a particular letter, use the SKIP button.<br><b>(When you are ready to lock in your answer, press ENTER)</b></p><button id = button_1 class = ""square num-button"" onclick = ""recordClick(this)""><div class = content><div class = numbers>C</div></div></button><button id = button_2 class = ""square num-button"" onclick = ""recordClick(this)""><div class = content><div class = numbers>G</div></div></button><button id = button_3 class = ""square num-button"" onclick = ""recordClick(this)""><div class = content><div class = numbers>H</div></div></button><button id = button_4 class = ""square num-button"" onclick = ""recordClick(this)""><div class = content><div class = numbers>J</div></div></button><button id = button_5 class = ""square num-button"" onclick = ""recordClick(this)""><div class = content><div class = numbers>K</div></div></button><button id = button_6 class = ""square num-button"" onclick = ""recordClick(this)""><div class = content><div class = numbers>L</div></div></button><button id = button_7 class = ""square num-button"" onclick = ""recordClick(this)""><div class = content><div class = numbers>N</div></div></button><button id = button_8 class = ""square num-button"" onclick = ""recordClick(this)""><div class = content><div class = numbers>P</div></div></button><button id = button_9 class = ""square num-button"" onclick = ""recordClick(this)""><div class = content><div class = numbers>Q</div></div></button><button id = button_10 class = ""square num-button"" onclick = ""recordClick(this)""><div class = content><div class = numbers>R</div></div></button><button id = button_11 class = ""square num-button"" onclick = ""recordClick(this)""><div class = content><div class = numbers>S</div></div></button><button id = button_12 class = ""square num-button"" onclick = ""recordClick(this)""><div class = content><div class = numbers>Y</div></div></button><button class = clear_button id = ""ClearButton"" onclick = ""clearResponse()"">BACKSPACE</button><button class = blank_button id = ""BlankButton"" onclick = ""blankResponse()"">SKIP</button><p style=""font-size: 2.4rem""><u><b>Current Answer:</b></u></p><br><br><div id=echoed_txt style=""font-size: 5rem; color:blue;""><b></b></div></div>",enter,ospan,retrieval,eyuFSgObNCckTZTw1OPvNERmFaD2,html-keyboard-response,186,964629,0.0-46.0-6.0-0.0-2.0,33,31,26,5.0,"[""L"",""R"",""S"",""P"",""G""]","[""L"",""R"",""S"",""P"",""G""]",1.0,5.0,,,,,,,5f0cfeef098f1e53ff201909,20:17:48,02/04/2024
758.0,[''],0,ospan,feedback,eyuFSgObNCckTZTw1OPvNERmFaD2,html-button-response,187,965900,0.0-46.0-6.0-0.0-3.0,,,,,,,,,,,,100.0,0.0,,5f0cfeef098f1e53ff201909,20:17:48,02/04/2024
,"<p style=""font-size:75px;"">...</p>",,ospan,iti,eyuFSgObNCckTZTw1OPvNERmFaD2,html-keyboard-response,188,966908,0.0-46.0-6.0-1.0-0.0,,,,,,,,,,,,,,,5f0cfeef098f1e53ff201909,20:17:48,02/04/2024
1453.0,,,ospan,symmetry,eyuFSgObNCckTZTw1OPvNERmFaD2,symmetry-judgement-task,189,969632,0.0-46.0-6.0-1.0-1.0-0.0,,,,,,,,,,1.0,1.0,,,,5f0cfeef098f1e53ff201909,20:17:48,02/04/2024
,"<div style=""font-size: 10rem; color: #0000FF"">H</div>",,ospan,letter,eyuFSgObNCckTZTw1OPvNERmFaD2,html-keyboard-response,190,970639,0.0-46.0-6.0-1.0-1.0-1.0,,,,,,,,,,,,,,,5f0cfeef098f1e53ff201909,20:17:48,02/04/2024
1014.0,,,ospan,symmetry,eyuFSgObNCckTZTw1OPvNERmFaD2,symmetry-judgement-task,191,973616,0.0-46.0-6.0-1.0-1.0-2.0,,,,,,,,,,1.0,1.0,,,,5f0cfeef098f1e53ff201909,20:17:48,02/04/2024
,"<div style=""font-size: 10rem; color: #0000FF"">P</div>",,ospan,letter,eyuFSgObNCckTZTw1OPvNERmFaD2,html-keyboard-response,192,974623,0.0-46.0-6.0-1.0-1.0-3.0,,,,,,,,,,,,,,,5f0cfeef098f1e53ff201909,20:17:48,02/04/2024
1950.0,,,ospan,symmetry,eyuFSgObNCckTZTw1OPvNERmFaD2,symmetry-judgement-task,193,978553,0.0-46.0-6.0-1.0-1.0-4.0,,,,,,,,,,1.0,1.0,,,,5f0cfeef098f1e53ff201909,20:17:48,02/04/2024
,"<div style=""font-size: 10rem; color: #0000FF"">Y</div>",,ospan,letter,eyuFSgObNCckTZTw1OPvNERmFaD2,html-keyboard-response,194,979564,0.0-46.0-6.0-1.0-1.0-5.0,,,,,,,,,,,,,,,5f0cfeef098f1e53ff201909,20:17:48,02/04/2024
1414.0,,,ospan,symmetry,eyuFSgObNCckTZTw1OPvNERmFaD2,symmetry-judgement-task,195,982996,0.0-46.0-6.0-1.0-1.0-6.0,,,,,,,,,,1.0,1.0,,,,5f0cfeef098f1e53ff201909,20:17:48,02/04/2024
,"<div style=""font-size: 10rem; color: #0000FF"">S</div>",,ospan,letter,eyuFSgObNCckTZTw1OPvNERmFaD2,html-keyboard-response,196,984003,0.0-46.0-6.0-1.0-1.0-7.0,,,,,,,,,,,,,,,5f0cfeef098f1e53ff201909,20:17:48,02/04/2024
1078.0,,,ospan,symmetry,eyuFSgObNCckTZTw1OPvNERmFaD2,symmetry-judgement-task,197,987068,0.0-46.0-6.0-1.0-1.0-8.0,,,,,,,,,,1.0,1.0,,,,5f0cfeef098f1e53ff201909,20:17:48,02/04/2024
,"<div style=""font-size: 10rem; color: #0000FF"">K</div>",,ospan,letter,eyuFSgObNCckTZTw1OPvNERmFaD2,html-keyboard-response,198,988075,0.0-46.0-6.0-1.0-1.0-9.0,,,,,,,,,,,,,,,5f0cfeef098f1e53ff201909,20:17:48,02/04/2024
1465.0,,,ospan,symmetry,eyuFSgObNCckTZTw1OPvNERmFaD2,symmetry-judgement-task,199,991505,0.0-46.0-6.0-1.0-1.0-10.0,,,,,,,,,,1.0,1.0,,,,5f0cfeef098f1e53ff201909,20:17:48,02/04/2024
,"<div style=""font-size: 10rem; color: #0000FF"">G</div>",,ospan,letter,eyuFSgObNCckTZTw1OPvNERmFaD2,html-keyboard-response,200,992516,0.0-46.0-6.0-1.0-1.0-11.0,,,,,,,,,,,,,,,5f0cfeef098f1e53ff201909,20:17:48,02/04/2024
1363.0,,,ospan,symmetry,eyuFSgObNCckTZTw1OPvNERmFaD2,symmetry-judgement-task,201,995883,0.0-46.0-6.0-1.0-1.0-12.0,,,,,,,,,,1.0,1.0,,,,5f0cfeef098f1e53ff201909,20:17:48,02/04/2024
,"<div style=""font-size: 10rem; color: #0000FF"">Q</div>",,ospan,letter,eyuFSgObNCckTZTw1OPvNERmFaD2,html-keyboard-response,202,996890,0.0-46.0-6.0-1.0-1.0-13.0,,,,,,,,,,,,,,,5f0cfeef098f1e53ff201909,20:17:48,02/04/2024
1651.0,,,ospan,symmetry,eyuFSgObNCckTZTw1OPvNERmFaD2,symmetry-judgement-task,203,1000521,0.0-46.0-6.0-1.0-1.0-14.0,,,,,,,,,,1.0,1.0,,,,5f0cfeef098f1e53ff201909,20:17:48,02/04/2024
,"<div style=""font-size: 10rem; color: #0000FF"">R</div>",,ospan,letter,eyuFSgObNCckTZTw1OPvNERmFaD2,html-keyboard-response,204,1001527,0.0-46.0-6.0-1.0-1.0-15.0,,,,,,,,,,,,,,,5f0cfeef098f1e53ff201909,20:17:48,02/04/2024
9314.60000000149,"<div class = numbox><p style=""font-size: 2.4rem"">Please recall the letters you saw to the best of your ability. If you do not remember a particular letter, use the SKIP button.<br><b>(When you are ready to lock in your answer, press ENTER)</b></p><button id = button_1 class = ""square num-button"" onclick = ""recordClick(this)""><div class = content><div class = numbers>C</div></div></button><button id = button_2 class = ""square num-button"" onclick = ""recordClick(this)""><div class = content><div class = numbers>G</div></div></button><button id = button_3 class = ""square num-button"" onclick = ""recordClick(this)""><div class = content><div class = numbers>H</div></div></button><button id = button_4 class = ""square num-button"" onclick = ""recordClick(this)""><div class = content><div class = numbers>J</div></div></button><button id = button_5 class = ""square num-button"" onclick = ""recordClick(this)""><div class = content><div class = numbers>K</div></div></button><button id = button_6 class = ""square num-button"" onclick = ""recordClick(this)""><div class = content><div class = numbers>L</div></div></button><button id = button_7 class = ""square num-button"" onclick = ""recordClick(this)""><div class = content><div class = numbers>N</div></div></button><button id = button_8 class = ""square num-button"" onclick = ""recordClick(this)""><div class = content><div class = numbers>P</div></div></button><button id = button_9 class = ""square num-button"" onclick = ""recordClick(this)""><div class = content><div class = numbers>Q</div></div></button><button id = button_10 class = ""square num-button"" onclick = ""recordClick(this)""><div class = content><div class = numbers>R</div></div></button><button id = button_11 class = ""square num-button"" onclick = ""recordClick(this)""><div class = content><div class = numbers>S</div></div></button><button id = button_12 class = ""square num-button"" onclick = ""recordClick(this)""><div class = content><div class = numbers>Y</div></div></button><button class = clear_button id = ""ClearButton"" onclick = ""clearResponse()"">BACKSPACE</button><button class = blank_button id = ""BlankButton"" onclick = ""blankResponse()"">SKIP</button><p style=""font-size: 2.4rem""><u><b>Current Answer:</b></u></p><br><br><div id=echoed_txt style=""font-size: 5rem; color:blue;""><b></b></div></div>",enter,ospan,retrieval,eyuFSgObNCckTZTw1OPvNERmFaD2,html-keyboard-response,205,1011597,0.0-46.0-6.0-1.0-2.0,41,38,26,8.0,"[""H"",""P"",""Y"",""S"",""K"",""G"",""Q""]","[""H"",""P"",""Y"",""S"",""K"",""G"",""Q"",""R""]",0.0,7.0,,,,,,,5f0cfeef098f1e53ff201909,20:17:48,02/04/2024
67707.59999999404,[''],0,ospan,feedback,eyuFSgObNCckTZTw1OPvNERmFaD2,html-button-response,206,1079823,0.0-46.0-6.0-1.0-3.0,,,,,,,,,,,,100.0,0.0,,5f0cfeef098f1e53ff201909,20:17:48,02/04/2024
24243.60000000149,,{'Q0': 'i enjoyed judging the symmetry'},ospan,survey_ospan,eyuFSgObNCckTZTw1OPvNERmFaD2,lmdlab-survey-text,207,1104832,0.0-46.0-7.0,,,,,,,,,,,,,,eyuFSgObNCckTZTw1OPvNERmFaD2,5f0cfeef098f1e53ff201909,20:17:48,02/04/2024
1881.5,<p><p style='font-size: 3rem'>Great work!<br><br>This completes the symmetry and memory task.</p><br><br><br>,0,ospan,finish,eyuFSgObNCckTZTw1OPvNERmFaD2,html-button-response,208,1106716,0.0-46.0-8.0,41,38,26,,,,,,,,,100.0,,,5f0cfeef098f1e53ff201909,20:17:48,02/04/2024
