rt,stimulus,response,exp_name,exp_stage,subjectID,trial_type,trial_index,time_elapsed,internal_node_id,ospan_shown,ospan_total,ospan_abs,length,resp_actual,resp_correct,full_correct,num_correct,feedback,accuracy,correct,math_acc,math_warning,databaseID,prolificID,start_time,date
2626.899999976158,<div class = 'left_align' style='font-size: 3.25rem; line-height: 1.3;'><p class = 'center_align'><b>Welcome to the Symmetry and Memory Task</b><br><br><br><br></p>Press 'continue' to show the instructions.<br><br><br><br></div>,0,ospan,instruct,QnEctNfOOXMKWuCSCk9M92tIk4z1,html-button-response,54,496298,0.0-46.0-0.0-0.0-0.0,,,,,,,,,,,,,,,60feca9223aed7b785e6018d,13:25:35,03/04/2024
12244.899999976158,"<div class = 'left_align' style='font-size: 3.25rem; line-height: 1.3;'><p class = 'center_align'><b>Symmetry and Memory Task</b><br><br></p>In this task, you will try to memorize letters you see on the screen<br>while you also view black and white grid pictures.<br><br>In the next few minutes, you will have some practice to get you familiar<br>with how the task works.<br><br>It may be difficult sometimes, but please do not worry about making mistakes!<br><br>We will begin by practicing the letter part of the task.<br><br><br><br></div>",0,ospan,instruct,QnEctNfOOXMKWuCSCk9M92tIk4z1,html-button-response,55,508800,0.0-46.0-0.0-0.0-1.0,,,,,,,,,,,,,,,60feca9223aed7b785e6018d,13:25:35,03/04/2024
14872.300000011921,"<div class = 'left_align' style='font-size: 3.25rem; line-height: 1.3;'>For this practice part, letters will appear on the screen one at a time.<br><br>Try to remember each letter in the order presented.<br><br>After some letters have been shown, you will see a response screen. Your<br>goal is to report the letters you saw <b>in order</b>. If you do not remember<br>a particular letter, you will have the option to leave it blank.<br><br><br><br></div>",0,ospan,instruct,QnEctNfOOXMKWuCSCk9M92tIk4z1,html-button-response,56,523931,0.0-46.0-0.0-0.0-2.0,,,,,,,,,,,,,,,60feca9223aed7b785e6018d,13:25:35,03/04/2024
4108.700000047684,"<div class = 'left_align' style='font-size: 3.25rem; line-height: 1.3;'>Remember, it is very important to get the letters in the same<br>order as you see them.<br><br>When you are ready, you may begin the letter practice.</div><br><br><br><br>",0,ospan,instruct,QnEctNfOOXMKWuCSCk9M92tIk4z1,html-button-response,57,528301,0.0-46.0-0.0-0.0-3.0,,,,,,,,,,,,,,,60feca9223aed7b785e6018d,13:25:35,03/04/2024
,"<p style=""font-size:75px;"">...</p>",,ospan,iti,QnEctNfOOXMKWuCSCk9M92tIk4z1,html-keyboard-response,58,529563,0.0-46.0-0.0-1.0-0.0,,,,,,,,,,,,,,,60feca9223aed7b785e6018d,13:25:35,03/04/2024
,"<div style=""font-size: 10rem; color: #0000FF"">K</div>",,ospan,letter,QnEctNfOOXMKWuCSCk9M92tIk4z1,html-keyboard-response,59,530573,0.0-46.0-0.0-1.0-1.0,,,,,,,,,,,,,,,60feca9223aed7b785e6018d,13:25:35,03/04/2024
,"<div style=""font-size: 10rem; color: #0000FF"">P</div>",,ospan,letter,QnEctNfOOXMKWuCSCk9M92tIk4z1,html-keyboard-response,60,532336,0.0-46.0-0.0-1.0-2.0,,,,,,,,,,,,,,,60feca9223aed7b785e6018d,13:25:35,03/04/2024
5890.800000011921,"<div class = numbox><p style=""font-size: 2.4rem"">Please recall the letters you saw to the best of your ability. If you do not remember a particular letter, use the SKIP button.<br><b>(When you are ready to lock in your answer, press ENTER)</b></p><button id = button_1 class = ""square num-button"" onclick = ""recordClick(this)""><div class = content><div class = numbers>C</div></div></button><button id = button_2 class = ""square num-button"" onclick = ""recordClick(this)""><div class = content><div class = numbers>G</div></div></button><button id = button_3 class = ""square num-button"" onclick = ""recordClick(this)""><div class = content><div class = numbers>H</div></div></button><button id = button_4 class = ""square num-button"" onclick = ""recordClick(this)""><div class = content><div class = numbers>J</div></div></button><button id = button_5 class = ""square num-button"" onclick = ""recordClick(this)""><div class = content><div class = numbers>K</div></div></button><button id = button_6 class = ""square num-button"" onclick = ""recordClick(this)""><div class = content><div class = numbers>L</div></div></button><button id = button_7 class = ""square num-button"" onclick = ""recordClick(this)""><div class = content><div class = numbers>N</div></div></button><button id = button_8 class = ""square num-button"" onclick = ""recordClick(this)""><div class = content><div class = numbers>P</div></div></button><button id = button_9 class = ""square num-button"" onclick = ""recordClick(this)""><div class = content><div class = numbers>Q</div></div></button><button id = button_10 class = ""square num-button"" onclick = ""recordClick(this)""><div class = content><div class = numbers>R</div></div></button><button id = button_11 class = ""square num-button"" onclick = ""recordClick(this)""><div class = content><div class = numbers>S</div></div></button><button id = button_12 class = ""square num-button"" onclick = ""recordClick(this)""><div class = content><div class = numbers>Y</div></div></button><button class = clear_button id = ""ClearButton"" onclick = ""clearResponse()"">BACKSPACE</button><button class = blank_button id = ""BlankButton"" onclick = ""blankResponse()"">SKIP</button><p style=""font-size: 2.4rem""><u><b>Current Answer:</b></u></p><br><br><div id=echoed_txt style=""font-size: 5rem; color:blue;""><b></b></div></div>",enter,ospan,retrieval,QnEctNfOOXMKWuCSCk9M92tIk4z1,html-keyboard-response,61,538985,0.0-46.0-0.0-1.0-3.0,NA,NA,NA,2.0,"[""K"",""P""]","[""K"",""P""]",1.0,2.0,"['<font color=""green"">K</font>', '<font color=""green"">P</font>']",,,,,,60feca9223aed7b785e6018d,13:25:35,03/04/2024
1493.8999999761581,"['<p style=""font-size:44px"">Letters:<br><br><br><font color=""green"">K</font> <font color=""green"">P</font></p><br><br>']",0,ospan,practice_feedback,QnEctNfOOXMKWuCSCk9M92tIk4z1,html-button-response,62,540984,0.0-46.0-0.0-1.0-4.0,,,,,,,,,,,,,,,60feca9223aed7b785e6018d,13:25:35,03/04/2024
,"<p style=""font-size:75px;"">...</p>",,ospan,iti,QnEctNfOOXMKWuCSCk9M92tIk4z1,html-keyboard-response,63,541989,0.0-46.0-0.0-2.0-0.0,,,,,,,,,,,,,,,60feca9223aed7b785e6018d,13:25:35,03/04/2024
,"<div style=""font-size: 10rem; color: #0000FF"">G</div>",,ospan,letter,QnEctNfOOXMKWuCSCk9M92tIk4z1,html-keyboard-response,64,542996,0.0-46.0-0.0-2.0-1.0,,,,,,,,,,,,,,,60feca9223aed7b785e6018d,13:25:35,03/04/2024
,"<div style=""font-size: 10rem; color: #0000FF"">Y</div>",,ospan,letter,QnEctNfOOXMKWuCSCk9M92tIk4z1,html-keyboard-response,65,544754,0.0-46.0-0.0-2.0-2.0,,,,,,,,,,,,,,,60feca9223aed7b785e6018d,13:25:35,03/04/2024
,"<div style=""font-size: 10rem; color: #0000FF"">L</div>",,ospan,letter,QnEctNfOOXMKWuCSCk9M92tIk4z1,html-keyboard-response,66,546516,0.0-46.0-0.0-2.0-3.0,,,,,,,,,,,,,,,60feca9223aed7b785e6018d,13:25:35,03/04/2024
3066.300000011921,"<div class = numbox><p style=""font-size: 2.4rem"">Please recall the letters you saw to the best of your ability. If you do not remember a particular letter, use the SKIP button.<br><b>(When you are ready to lock in your answer, press ENTER)</b></p><button id = button_1 class = ""square num-button"" onclick = ""recordClick(this)""><div class = content><div class = numbers>C</div></div></button><button id = button_2 class = ""square num-button"" onclick = ""recordClick(this)""><div class = content><div class = numbers>G</div></div></button><button id = button_3 class = ""square num-button"" onclick = ""recordClick(this)""><div class = content><div class = numbers>H</div></div></button><button id = button_4 class = ""square num-button"" onclick = ""recordClick(this)""><div class = content><div class = numbers>J</div></div></button><button id = button_5 class = ""square num-button"" onclick = ""recordClick(this)""><div class = content><div class = numbers>K</div></div></button><button id = button_6 class = ""square num-button"" onclick = ""recordClick(this)""><div class = content><div class = numbers>L</div></div></button><button id = button_7 class = ""square num-button"" onclick = ""recordClick(this)""><div class = content><div class = numbers>N</div></div></button><button id = button_8 class = ""square num-button"" onclick = ""recordClick(this)""><div class = content><div class = numbers>P</div></div></button><button id = button_9 class = ""square num-button"" onclick = ""recordClick(this)""><div class = content><div class = numbers>Q</div></div></button><button id = button_10 class = ""square num-button"" onclick = ""recordClick(this)""><div class = content><div class = numbers>R</div></div></button><button id = button_11 class = ""square num-button"" onclick = ""recordClick(this)""><div class = content><div class = numbers>S</div></div></button><button id = button_12 class = ""square num-button"" onclick = ""recordClick(this)""><div class = content><div class = numbers>Y</div></div></button><button class = clear_button id = ""ClearButton"" onclick = ""clearResponse()"">BACKSPACE</button><button class = blank_button id = ""BlankButton"" onclick = ""blankResponse()"">SKIP</button><p style=""font-size: 2.4rem""><u><b>Current Answer:</b></u></p><br><br><div id=echoed_txt style=""font-size: 5rem; color:blue;""><b></b></div></div>",enter,ospan,retrieval,QnEctNfOOXMKWuCSCk9M92tIk4z1,html-keyboard-response,67,550340,0.0-46.0-0.0-2.0-4.0,NA,NA,NA,3.0,"[""G"",""Y"",""L""]","[""G"",""Y"",""L""]",1.0,3.0,"['<font color=""green"">G</font>', '<font color=""green"">Y</font>', '<font color=""green"">L</font>']",,,,,,60feca9223aed7b785e6018d,13:25:35,03/04/2024
869.9000000357628,"['<p style=""font-size:44px"">Letters:<br><br><br><font color=""green"">G</font> <font color=""green"">Y</font> <font color=""green"">L</font></p><br><br>']",0,ospan,practice_feedback,QnEctNfOOXMKWuCSCk9M92tIk4z1,html-button-response,68,551714,0.0-46.0-0.0-2.0-5.0,,,,,,,,,,,,,,,60feca9223aed7b785e6018d,13:25:35,03/04/2024
24384.100000023842,"<div class = 'left_align' style='font-size: 3.25rem; line-height: 1.3;'>Now you will practice doing the <b>symmetry judgment part</b> of the experiment.<br><br>A black and white grid picture will appear on the screen and you have to judge if it is <br>symmetrical or asymetrical.<br><br>A picture is 'mirror' symmetrical if its left half is identical to the right half when flipped.<br>Here are examples of a symmetrical and an asymetrical picture:<br><br><center><img src='Stimuli/img/symm_instructions_extra.png' style='height:420px; width:900'></img></center><br>To judge symmetry, imagine you were to fold each picture down the middle, like a book –<br>would the left half match the right half when folded onto each other?<br><br></div><br>",0,ospan,instruct,QnEctNfOOXMKWuCSCk9M92tIk4z1,html-button-response,69,576102,0.0-46.0-1.0-0.0-0.0,,,,,,,,,,,,,,,60feca9223aed7b785e6018d,13:25:35,03/04/2024
6491.899999976158,"<div class = 'left_align' style='font-size: 3.25rem; line-height: 1.3;'>When you have viewed the picture and determined whether it is symmetrical or not,<br>you can <b>click the Yes or No button</b> below to answer.<br><br>If you take longer than 15 seconds, it will continue automatically<br>and record the answer as an error.</div><br>",0,ospan,instruct,QnEctNfOOXMKWuCSCk9M92tIk4z1,html-button-response,70,582848,0.0-46.0-1.0-0.0-1.0,,,,,,,,,,,,,,,60feca9223aed7b785e6018d,13:25:35,03/04/2024
7246.399999976158,"<div class = 'left_align' style='font-size: 3.25rem; line-height: 1.3;'>It is <b>very</b> important that you make the symmetry judgment correctly.<br><br>It is also important that you try and judge the picture as quickly as you can.<br><br>When you are ready, click on the button below to try some practice problems.</div><br><br><br><br>",0,ospan,instruct,QnEctNfOOXMKWuCSCk9M92tIk4z1,html-button-response,71,590352,0.0-46.0-1.0-0.0-2.0,,,,,,,,,,,,,,,60feca9223aed7b785e6018d,13:25:35,03/04/2024
1147.0,,,ospan,symmetry,QnEctNfOOXMKWuCSCk9M92tIk4z1,symmetry-judgement-task,72,592300,0.0-46.0-1.0-1.0-0.0,,,,,,,,,,1.0,1.0,,,,60feca9223aed7b785e6018d,13:25:35,03/04/2024
,"<p style=""color:green; font-size: 35px"">Correct</p>",,ospan,feedback,QnEctNfOOXMKWuCSCk9M92tIk4z1,html-keyboard-response,73,593057,0.0-46.0-1.0-1.0-1.0,,,,,,,,,,,,,,,60feca9223aed7b785e6018d,13:25:35,03/04/2024
1056.0,,,ospan,symmetry,QnEctNfOOXMKWuCSCk9M92tIk4z1,symmetry-judgement-task,74,596738,0.0-46.0-1.0-1.0-2.0,,,,,,,,,,1.0,1.0,,,,60feca9223aed7b785e6018d,13:25:35,03/04/2024
,"<p style=""color:green; font-size: 35px"">Correct</p>",,ospan,feedback,QnEctNfOOXMKWuCSCk9M92tIk4z1,html-keyboard-response,75,597494,0.0-46.0-1.0-1.0-3.0,,,,,,,,,,,,,,,60feca9223aed7b785e6018d,13:25:35,03/04/2024
1062.0,,,ospan,symmetry,QnEctNfOOXMKWuCSCk9M92tIk4z1,symmetry-judgement-task,76,601184,0.0-46.0-1.0-1.0-4.0,,,,,,,,,,1.0,1.0,,,,60feca9223aed7b785e6018d,13:25:35,03/04/2024
,"<p style=""color:green; font-size: 35px"">Correct</p>",,ospan,feedback,QnEctNfOOXMKWuCSCk9M92tIk4z1,html-keyboard-response,77,601937,0.0-46.0-1.0-1.0-5.0,,,,,,,,,,,,,,,60feca9223aed7b785e6018d,13:25:35,03/04/2024
1840.1000000238419,"<p style=""font-size: 3rem;"">You responded correctly on 3 of 3 symmetry judgments. Good job!</p><br><br>",0,ospan,practice,QnEctNfOOXMKWuCSCk9M92tIk4z1,html-button-response,78,605782,0.0-46.0-1.0-2.0,,,,,,,,,,,,,,,60feca9223aed7b785e6018d,13:25:35,03/04/2024
62641.60000002384,"<div class = 'left_align' style='font-size: 3.25rem; line-height: 1.3;'>Now you will practice doing both parts of the experiment at the same time.<br><br>In the next practice set, you will be given one grid picture to judge.<br>Then letter will appear on the screen. Try to remember the letter.<br><br>It is <b>very important</b> to make the symmetry judgment as quickly and accurately as possible.<br><br>Just as before, once you have make the symmetry judgment, you can click Yes or No.<br><b>Note that you will no longer see Correct or Incorrect feedback.</div><br><br><br><br>",0,ospan,instruct,QnEctNfOOXMKWuCSCk9M92tIk4z1,html-button-response,79,668682,0.0-46.0-2.0-0.0-0.0,,,,,,,,,,,,,,,60feca9223aed7b785e6018d,13:25:35,03/04/2024
13857.100000023842,"<div class = 'left_align' style='font-size: 3.25rem; line-height: 1.3;'>After the letter goes away, another grid picture will appear, and then<br>another letter.<br><br>At the end of each set of letters and grids, you will recall the letters to the best<br>of your ability. Remember, try your best to get the letters in the correct order.<br><br>It is important to <b>quickly</b> and <b>accurately</b> make the symmetry judgments.</div><br><br><br><br>",0,ospan,instruct,QnEctNfOOXMKWuCSCk9M92tIk4z1,html-button-response,80,682800,0.0-46.0-2.0-0.0-1.0,,,,,,,,,,,,,,,60feca9223aed7b785e6018d,13:25:35,03/04/2024
17012.399999976158,"<div class = 'left_align' style='font-size: 3.25rem; line-height: 1.3;'>On the feedback screen, if you are not doing well at the symmetry judgments,<br>you will also see a warning in the middle. This indicates your percent <br>correct for the grid pictures for the entire experiment.<br><br>It is <b>very</b> important for you to keep accuracy at least at 85%: <u>We can only use<br>data where the participant was at least 85% accurate on the judgments.</u> Therefore,<br> please try your best to perform well on the symmetry judgments, <b>at the same time</b><br>doing your best to recall as many letters as possible.<br><br>Click the button to try some practice problems.</div><br><br><br><br>",0,ospan,instruct,QnEctNfOOXMKWuCSCk9M92tIk4z1,html-button-response,81,700069,0.0-46.0-2.0-0.0-2.0,,,,,,,,,,,,,,,60feca9223aed7b785e6018d,13:25:35,03/04/2024
,"<p style=""font-size:75px;"">...</p>",,ospan,iti,QnEctNfOOXMKWuCSCk9M92tIk4z1,html-keyboard-response,82,701329,0.0-46.0-2.0-1.0-0.0,,,,,,,,,,,,,,,60feca9223aed7b785e6018d,13:25:35,03/04/2024
1386.0,,,ospan,symmetry,QnEctNfOOXMKWuCSCk9M92tIk4z1,symmetry-judgement-task,83,703839,0.0-46.0-2.0-1.0-1.0-0.0,,,,,,,,,,1.0,1.0,,,,60feca9223aed7b785e6018d,13:25:35,03/04/2024
,"<div style=""font-size: 10rem; color: #0000FF"">R</div>",,ospan,letter,QnEctNfOOXMKWuCSCk9M92tIk4z1,html-keyboard-response,84,704842,0.0-46.0-2.0-1.0-1.0-1.0,,,,,,,,,,,,,,,60feca9223aed7b785e6018d,13:25:35,03/04/2024
1292.0,,,ospan,symmetry,QnEctNfOOXMKWuCSCk9M92tIk4z1,symmetry-judgement-task,85,708007,0.0-46.0-2.0-1.0-1.0-2.0,,,,,,,,,,1.0,1.0,,,,60feca9223aed7b785e6018d,13:25:35,03/04/2024
,"<div style=""font-size: 10rem; color: #0000FF"">J</div>",,ospan,letter,QnEctNfOOXMKWuCSCk9M92tIk4z1,html-keyboard-response,86,709015,0.0-46.0-2.0-1.0-1.0-3.0,,,,,,,,,,,,,,,60feca9223aed7b785e6018d,13:25:35,03/04/2024
1589.0,,,ospan,symmetry,QnEctNfOOXMKWuCSCk9M92tIk4z1,symmetry-judgement-task,87,712472,0.0-46.0-2.0-1.0-1.0-4.0,,,,,,,,,,1.0,1.0,,,,60feca9223aed7b785e6018d,13:25:35,03/04/2024
,"<div style=""font-size: 10rem; color: #0000FF"">L</div>",,ospan,letter,QnEctNfOOXMKWuCSCk9M92tIk4z1,html-keyboard-response,88,713479,0.0-46.0-2.0-1.0-1.0-5.0,,,,,,,,,,,,,,,60feca9223aed7b785e6018d,13:25:35,03/04/2024
3743.899999976158,"<div class = numbox><p style=""font-size: 2.4rem"">Please recall the letters you saw to the best of your ability. If you do not remember a particular letter, use the SKIP button.<br><b>(When you are ready to lock in your answer, press ENTER)</b></p><button id = button_1 class = ""square num-button"" onclick = ""recordClick(this)""><div class = content><div class = numbers>C</div></div></button><button id = button_2 class = ""square num-button"" onclick = ""recordClick(this)""><div class = content><div class = numbers>G</div></div></button><button id = button_3 class = ""square num-button"" onclick = ""recordClick(this)""><div class = content><div class = numbers>H</div></div></button><button id = button_4 class = ""square num-button"" onclick = ""recordClick(this)""><div class = content><div class = numbers>J</div></div></button><button id = button_5 class = ""square num-button"" onclick = ""recordClick(this)""><div class = content><div class = numbers>K</div></div></button><button id = button_6 class = ""square num-button"" onclick = ""recordClick(this)""><div class = content><div class = numbers>L</div></div></button><button id = button_7 class = ""square num-button"" onclick = ""recordClick(this)""><div class = content><div class = numbers>N</div></div></button><button id = button_8 class = ""square num-button"" onclick = ""recordClick(this)""><div class = content><div class = numbers>P</div></div></button><button id = button_9 class = ""square num-button"" onclick = ""recordClick(this)""><div class = content><div class = numbers>Q</div></div></button><button id = button_10 class = ""square num-button"" onclick = ""recordClick(this)""><div class = content><div class = numbers>R</div></div></button><button id = button_11 class = ""square num-button"" onclick = ""recordClick(this)""><div class = content><div class = numbers>S</div></div></button><button id = button_12 class = ""square num-button"" onclick = ""recordClick(this)""><div class = content><div class = numbers>Y</div></div></button><button class = clear_button id = ""ClearButton"" onclick = ""clearResponse()"">BACKSPACE</button><button class = blank_button id = ""BlankButton"" onclick = ""blankResponse()"">SKIP</button><p style=""font-size: 2.4rem""><u><b>Current Answer:</b></u></p><br><br><div id=echoed_txt style=""font-size: 5rem; color:blue;""><b></b></div></div>",enter,ospan,retrieval,QnEctNfOOXMKWuCSCk9M92tIk4z1,html-keyboard-response,89,717976,0.0-46.0-2.0-1.0-2.0-0.0,NA,NA,NA,3.0,"[""R"",""J"",""L""]","[""R"",""J"",""L""]",1.0,3.0,"['<font color=""green"">R</font>', '<font color=""green"">J</font>', '<font color=""green"">L</font>']",,,,,,60feca9223aed7b785e6018d,13:25:35,03/04/2024
1217.8999999761581,"['<p style=""font-size:44px"">Letters:<br><br><br><font color=""green"">R</font> <font color=""green"">J</font> <font color=""green"">L</font></p><br><br><p style=""font-size:30px"">Symmetry:<br><br><font color=""green"">100%</font></p><br><br>']",0,ospan,practice_feedback,QnEctNfOOXMKWuCSCk9M92tIk4z1,html-button-response,90,719700,0.0-46.0-2.0-1.0-2.0-1.0,,,,,,,,,,,,,,,60feca9223aed7b785e6018d,13:25:35,03/04/2024
,"<p style=""font-size:75px;"">...</p>",,ospan,iti,QnEctNfOOXMKWuCSCk9M92tIk4z1,html-keyboard-response,91,720708,0.0-46.0-2.0-2.0-0.0,,,,,,,,,,,,,,,60feca9223aed7b785e6018d,13:25:35,03/04/2024
1110.0,,,ospan,symmetry,QnEctNfOOXMKWuCSCk9M92tIk4z1,symmetry-judgement-task,92,722939,0.0-46.0-2.0-2.0-1.0-0.0,,,,,,,,,,1.0,1.0,,,,60feca9223aed7b785e6018d,13:25:35,03/04/2024
,"<div style=""font-size: 10rem; color: #0000FF"">H</div>",,ospan,letter,QnEctNfOOXMKWuCSCk9M92tIk4z1,html-keyboard-response,93,723943,0.0-46.0-2.0-2.0-1.0-1.0,,,,,,,,,,,,,,,60feca9223aed7b785e6018d,13:25:35,03/04/2024
999.0,,,ospan,symmetry,QnEctNfOOXMKWuCSCk9M92tIk4z1,symmetry-judgement-task,94,726821,0.0-46.0-2.0-2.0-1.0-2.0,,,,,,,,,,1.0,1.0,,,,60feca9223aed7b785e6018d,13:25:35,03/04/2024
,"<div style=""font-size: 10rem; color: #0000FF"">R</div>",,ospan,letter,QnEctNfOOXMKWuCSCk9M92tIk4z1,html-keyboard-response,95,727825,0.0-46.0-2.0-2.0-1.0-3.0,,,,,,,,,,,,,,,60feca9223aed7b785e6018d,13:25:35,03/04/2024
855.0,,,ospan,symmetry,QnEctNfOOXMKWuCSCk9M92tIk4z1,symmetry-judgement-task,96,730555,0.0-46.0-2.0-2.0-1.0-4.0,,,,,,,,,,1.0,1.0,,,,60feca9223aed7b785e6018d,13:25:35,03/04/2024
,"<div style=""font-size: 10rem; color: #0000FF"">Q</div>",,ospan,letter,QnEctNfOOXMKWuCSCk9M92tIk4z1,html-keyboard-response,97,731558,0.0-46.0-2.0-2.0-1.0-5.0,,,,,,,,,,,,,,,60feca9223aed7b785e6018d,13:25:35,03/04/2024
3488.199999988079,"<div class = numbox><p style=""font-size: 2.4rem"">Please recall the letters you saw to the best of your ability. If you do not remember a particular letter, use the SKIP button.<br><b>(When you are ready to lock in your answer, press ENTER)</b></p><button id = button_1 class = ""square num-button"" onclick = ""recordClick(this)""><div class = content><div class = numbers>C</div></div></button><button id = button_2 class = ""square num-button"" onclick = ""recordClick(this)""><div class = content><div class = numbers>G</div></div></button><button id = button_3 class = ""square num-button"" onclick = ""recordClick(this)""><div class = content><div class = numbers>H</div></div></button><button id = button_4 class = ""square num-button"" onclick = ""recordClick(this)""><div class = content><div class = numbers>J</div></div></button><button id = button_5 class = ""square num-button"" onclick = ""recordClick(this)""><div class = content><div class = numbers>K</div></div></button><button id = button_6 class = ""square num-button"" onclick = ""recordClick(this)""><div class = content><div class = numbers>L</div></div></button><button id = button_7 class = ""square num-button"" onclick = ""recordClick(this)""><div class = content><div class = numbers>N</div></div></button><button id = button_8 class = ""square num-button"" onclick = ""recordClick(this)""><div class = content><div class = numbers>P</div></div></button><button id = button_9 class = ""square num-button"" onclick = ""recordClick(this)""><div class = content><div class = numbers>Q</div></div></button><button id = button_10 class = ""square num-button"" onclick = ""recordClick(this)""><div class = content><div class = numbers>R</div></div></button><button id = button_11 class = ""square num-button"" onclick = ""recordClick(this)""><div class = content><div class = numbers>S</div></div></button><button id = button_12 class = ""square num-button"" onclick = ""recordClick(this)""><div class = content><div class = numbers>Y</div></div></button><button class = clear_button id = ""ClearButton"" onclick = ""clearResponse()"">BACKSPACE</button><button class = blank_button id = ""BlankButton"" onclick = ""blankResponse()"">SKIP</button><p style=""font-size: 2.4rem""><u><b>Current Answer:</b></u></p><br><br><div id=echoed_txt style=""font-size: 5rem; color:blue;""><b></b></div></div>",enter,ospan,retrieval,QnEctNfOOXMKWuCSCk9M92tIk4z1,html-keyboard-response,98,735803,0.0-46.0-2.0-2.0-2.0-0.0,NA,NA,NA,3.0,"[""H"",""R"",""Q""]","[""H"",""R"",""Q""]",1.0,3.0,"['<font color=""green"">H</font>', '<font color=""green"">R</font>', '<font color=""green"">Q</font>']",,,,,,60feca9223aed7b785e6018d,13:25:35,03/04/2024
4641.0,"['<p style=""font-size:44px"">Letters:<br><br><br><font color=""green"">H</font> <font color=""green"">R</font> <font color=""green"">Q</font></p><br><br><p style=""font-size:30px"">Symmetry:<br><br><font color=""green"">100%</font></p><br><br>']",0,ospan,practice_feedback,QnEctNfOOXMKWuCSCk9M92tIk4z1,html-button-response,99,740949,0.0-46.0-2.0-2.0-2.0-1.0,,,,,,,,,,,,,,,60feca9223aed7b785e6018d,13:25:35,03/04/2024
27583.30000001192,"<div class = 'left_align' style='font-size: 3rem; line-height: 1.3;'><b>Great work! That is the end of practice.</b><br><br>The real trials will look just like the practice trials you just completed.<br><br><u>Here, you will not see feedback</u>. First, you will see an grid picture to judge,<br>then a letter to remember. When the recall screen appears, report the letters in the<br>order presented. If you forget a letter, remember to use the <b>blank</b> button to move to the<br>next letter. Some of the sets will have more symmetry grids and letters than others.<br><br>It is important that you do your best on both the symmetry judgments and the letter recall<br>parts of the experiment. For for the symmetry judgments, try to work as <b>quickly</b> and <br>as <b>accurately</b> as possible. Remember to keep your symmetry accuracy at 85% or above.<br><br><b>For the letters, do NOT use any external aid (e.g., writing on paper, electronic device).</b><br><br>It is <u>very important</u> to our experiment to have a <b>true</b> view of your real performance.<br><br>Do not worry if you miss some when it gets hard! This task is meant to be very challenging!<br><br>Click the button to begin.</div><br><br><br><br>",0,ospan,starting_real_here,QnEctNfOOXMKWuCSCk9M92tIk4z1,html-button-response,100,768536,0.0-46.0-2.0-3.0,,,,,,,,,,,,,,,60feca9223aed7b785e6018d,13:25:35,03/04/2024
,"<p style=""font-size:75px;"">...</p>",,ospan,iti,QnEctNfOOXMKWuCSCk9M92tIk4z1,html-keyboard-response,101,769801,0.0-46.0-3.0-0.0-0.0,,,,,,,,,,,,,,,60feca9223aed7b785e6018d,13:25:35,03/04/2024
888.0,,,ospan,symmetry,QnEctNfOOXMKWuCSCk9M92tIk4z1,symmetry-judgement-task,102,771821,0.0-46.0-3.0-0.0-1.0-0.0,,,,,,,,,,1.0,1.0,,,,60feca9223aed7b785e6018d,13:25:35,03/04/2024
,"<div style=""font-size: 10rem; color: #0000FF"">P</div>",,ospan,letter,QnEctNfOOXMKWuCSCk9M92tIk4z1,html-keyboard-response,103,772828,0.0-46.0-3.0-0.0-1.0-1.0,,,,,,,,,,,,,,,60feca9223aed7b785e6018d,13:25:35,03/04/2024
1083.0,,,ospan,symmetry,QnEctNfOOXMKWuCSCk9M92tIk4z1,symmetry-judgement-task,104,775789,0.0-46.0-3.0-0.0-1.0-2.0,,,,,,,,,,1.0,1.0,,,,60feca9223aed7b785e6018d,13:25:35,03/04/2024
,"<div style=""font-size: 10rem; color: #0000FF"">L</div>",,ospan,letter,QnEctNfOOXMKWuCSCk9M92tIk4z1,html-keyboard-response,105,776796,0.0-46.0-3.0-0.0-1.0-3.0,,,,,,,,,,,,,,,60feca9223aed7b785e6018d,13:25:35,03/04/2024
947.0,,,ospan,symmetry,QnEctNfOOXMKWuCSCk9M92tIk4z1,symmetry-judgement-task,106,779623,0.0-46.0-3.0-0.0-1.0-4.0,,,,,,,,,,1.0,1.0,,,,60feca9223aed7b785e6018d,13:25:35,03/04/2024
,"<div style=""font-size: 10rem; color: #0000FF"">N</div>",,ospan,letter,QnEctNfOOXMKWuCSCk9M92tIk4z1,html-keyboard-response,107,780630,0.0-46.0-3.0-0.0-1.0-5.0,,,,,,,,,,,,,,,60feca9223aed7b785e6018d,13:25:35,03/04/2024
2587.2999999523163,"<div class = numbox><p style=""font-size: 2.4rem"">Please recall the letters you saw to the best of your ability. If you do not remember a particular letter, use the SKIP button.<br><b>(When you are ready to lock in your answer, press ENTER)</b></p><button id = button_1 class = ""square num-button"" onclick = ""recordClick(this)""><div class = content><div class = numbers>C</div></div></button><button id = button_2 class = ""square num-button"" onclick = ""recordClick(this)""><div class = content><div class = numbers>G</div></div></button><button id = button_3 class = ""square num-button"" onclick = ""recordClick(this)""><div class = content><div class = numbers>H</div></div></button><button id = button_4 class = ""square num-button"" onclick = ""recordClick(this)""><div class = content><div class = numbers>J</div></div></button><button id = button_5 class = ""square num-button"" onclick = ""recordClick(this)""><div class = content><div class = numbers>K</div></div></button><button id = button_6 class = ""square num-button"" onclick = ""recordClick(this)""><div class = content><div class = numbers>L</div></div></button><button id = button_7 class = ""square num-button"" onclick = ""recordClick(this)""><div class = content><div class = numbers>N</div></div></button><button id = button_8 class = ""square num-button"" onclick = ""recordClick(this)""><div class = content><div class = numbers>P</div></div></button><button id = button_9 class = ""square num-button"" onclick = ""recordClick(this)""><div class = content><div class = numbers>Q</div></div></button><button id = button_10 class = ""square num-button"" onclick = ""recordClick(this)""><div class = content><div class = numbers>R</div></div></button><button id = button_11 class = ""square num-button"" onclick = ""recordClick(this)""><div class = content><div class = numbers>S</div></div></button><button id = button_12 class = ""square num-button"" onclick = ""recordClick(this)""><div class = content><div class = numbers>Y</div></div></button><button class = clear_button id = ""ClearButton"" onclick = ""clearResponse()"">BACKSPACE</button><button class = blank_button id = ""BlankButton"" onclick = ""blankResponse()"">SKIP</button><p style=""font-size: 2.4rem""><u><b>Current Answer:</b></u></p><br><br><div id=echoed_txt style=""font-size: 5rem; color:blue;""><b></b></div></div>",enter,ospan,retrieval,QnEctNfOOXMKWuCSCk9M92tIk4z1,html-keyboard-response,108,783971,0.0-46.0-3.0-0.0-2.0,3,3,3,3.0,"[""P"",""L"",""N""]","[""P"",""L"",""N""]",1.0,3.0,,,,,,,60feca9223aed7b785e6018d,13:25:35,03/04/2024
924.9000000357628,[''],0,ospan,feedback,QnEctNfOOXMKWuCSCk9M92tIk4z1,html-button-response,109,785399,0.0-46.0-3.0-0.0-3.0,,,,,,,,,,,,100.0,0.0,,60feca9223aed7b785e6018d,13:25:35,03/04/2024
,"<p style=""font-size:75px;"">...</p>",,ospan,iti,QnEctNfOOXMKWuCSCk9M92tIk4z1,html-keyboard-response,110,786407,0.0-46.0-4.0-0.0-0.0,,,,,,,,,,,,,,,60feca9223aed7b785e6018d,13:25:35,03/04/2024
1130.0,,,ospan,symmetry,QnEctNfOOXMKWuCSCk9M92tIk4z1,symmetry-judgement-task,111,788655,0.0-46.0-4.0-0.0-1.0-0.0,,,,,,,,,,1.0,1.0,,,,60feca9223aed7b785e6018d,13:25:35,03/04/2024
,"<div style=""font-size: 10rem; color: #0000FF"">G</div>",,ospan,letter,QnEctNfOOXMKWuCSCk9M92tIk4z1,html-keyboard-response,112,789662,0.0-46.0-4.0-0.0-1.0-1.0,,,,,,,,,,,,,,,60feca9223aed7b785e6018d,13:25:35,03/04/2024
866.0,,,ospan,symmetry,QnEctNfOOXMKWuCSCk9M92tIk4z1,symmetry-judgement-task,113,792402,0.0-46.0-4.0-0.0-1.0-2.0,,,,,,,,,,1.0,1.0,,,,60feca9223aed7b785e6018d,13:25:35,03/04/2024
,"<div style=""font-size: 10rem; color: #0000FF"">P</div>",,ospan,letter,QnEctNfOOXMKWuCSCk9M92tIk4z1,html-keyboard-response,114,793405,0.0-46.0-4.0-0.0-1.0-3.0,,,,,,,,,,,,,,,60feca9223aed7b785e6018d,13:25:35,03/04/2024
1065.0,,,ospan,symmetry,QnEctNfOOXMKWuCSCk9M92tIk4z1,symmetry-judgement-task,115,796371,0.0-46.0-4.0-0.0-1.0-4.0,,,,,,,,,,1.0,1.0,,,,60feca9223aed7b785e6018d,13:25:35,03/04/2024
,"<div style=""font-size: 10rem; color: #0000FF"">Y</div>",,ospan,letter,QnEctNfOOXMKWuCSCk9M92tIk4z1,html-keyboard-response,116,797374,0.0-46.0-4.0-0.0-1.0-5.0,,,,,,,,,,,,,,,60feca9223aed7b785e6018d,13:25:35,03/04/2024
1203.0,,,ospan,symmetry,QnEctNfOOXMKWuCSCk9M92tIk4z1,symmetry-judgement-task,117,800435,0.0-46.0-4.0-0.0-1.0-6.0,,,,,,,,,,1.0,1.0,,,,60feca9223aed7b785e6018d,13:25:35,03/04/2024
,"<div style=""font-size: 10rem; color: #0000FF"">Q</div>",,ospan,letter,QnEctNfOOXMKWuCSCk9M92tIk4z1,html-keyboard-response,118,801437,0.0-46.0-4.0-0.0-1.0-7.0,,,,,,,,,,,,,,,60feca9223aed7b785e6018d,13:25:35,03/04/2024
3589.900000035763,"<div class = numbox><p style=""font-size: 2.4rem"">Please recall the letters you saw to the best of your ability. If you do not remember a particular letter, use the SKIP button.<br><b>(When you are ready to lock in your answer, press ENTER)</b></p><button id = button_1 class = ""square num-button"" onclick = ""recordClick(this)""><div class = content><div class = numbers>C</div></div></button><button id = button_2 class = ""square num-button"" onclick = ""recordClick(this)""><div class = content><div class = numbers>G</div></div></button><button id = button_3 class = ""square num-button"" onclick = ""recordClick(this)""><div class = content><div class = numbers>H</div></div></button><button id = button_4 class = ""square num-button"" onclick = ""recordClick(this)""><div class = content><div class = numbers>J</div></div></button><button id = button_5 class = ""square num-button"" onclick = ""recordClick(this)""><div class = content><div class = numbers>K</div></div></button><button id = button_6 class = ""square num-button"" onclick = ""recordClick(this)""><div class = content><div class = numbers>L</div></div></button><button id = button_7 class = ""square num-button"" onclick = ""recordClick(this)""><div class = content><div class = numbers>N</div></div></button><button id = button_8 class = ""square num-button"" onclick = ""recordClick(this)""><div class = content><div class = numbers>P</div></div></button><button id = button_9 class = ""square num-button"" onclick = ""recordClick(this)""><div class = content><div class = numbers>Q</div></div></button><button id = button_10 class = ""square num-button"" onclick = ""recordClick(this)""><div class = content><div class = numbers>R</div></div></button><button id = button_11 class = ""square num-button"" onclick = ""recordClick(this)""><div class = content><div class = numbers>S</div></div></button><button id = button_12 class = ""square num-button"" onclick = ""recordClick(this)""><div class = content><div class = numbers>Y</div></div></button><button class = clear_button id = ""ClearButton"" onclick = ""clearResponse()"">BACKSPACE</button><button class = blank_button id = ""BlankButton"" onclick = ""blankResponse()"">SKIP</button><p style=""font-size: 2.4rem""><u><b>Current Answer:</b></u></p><br><br><div id=echoed_txt style=""font-size: 5rem; color:blue;""><b></b></div></div>",enter,ospan,retrieval,QnEctNfOOXMKWuCSCk9M92tIk4z1,html-keyboard-response,119,805780,0.0-46.0-4.0-0.0-2.0,7,7,7,4.0,"[""G"",""P"",""Y"",""Q""]","[""G"",""P"",""Y"",""Q""]",1.0,4.0,,,,,,,60feca9223aed7b785e6018d,13:25:35,03/04/2024
731.8999999761581,[''],0,ospan,feedback,QnEctNfOOXMKWuCSCk9M92tIk4z1,html-button-response,120,807016,0.0-46.0-4.0-0.0-3.0,,,,,,,,,,,,100.0,0.0,,60feca9223aed7b785e6018d,13:25:35,03/04/2024
,"<p style=""font-size:75px;"">...</p>",,ospan,iti,QnEctNfOOXMKWuCSCk9M92tIk4z1,html-keyboard-response,121,808023,0.0-46.0-4.0-1.0-0.0,,,,,,,,,,,,,,,60feca9223aed7b785e6018d,13:25:35,03/04/2024
1352.0,,,ospan,symmetry,QnEctNfOOXMKWuCSCk9M92tIk4z1,symmetry-judgement-task,122,810504,0.0-46.0-4.0-1.0-1.0-0.0,,,,,,,,,,1.0,1.0,,,,60feca9223aed7b785e6018d,13:25:35,03/04/2024
,"<div style=""font-size: 10rem; color: #0000FF"">C</div>",,ospan,letter,QnEctNfOOXMKWuCSCk9M92tIk4z1,html-keyboard-response,123,811511,0.0-46.0-4.0-1.0-1.0-1.0,,,,,,,,,,,,,,,60feca9223aed7b785e6018d,13:25:35,03/04/2024
921.0,,,ospan,symmetry,QnEctNfOOXMKWuCSCk9M92tIk4z1,symmetry-judgement-task,124,814306,0.0-46.0-4.0-1.0-1.0-2.0,,,,,,,,,,1.0,1.0,,,,60feca9223aed7b785e6018d,13:25:35,03/04/2024
,"<div style=""font-size: 10rem; color: #0000FF"">G</div>",,ospan,letter,QnEctNfOOXMKWuCSCk9M92tIk4z1,html-keyboard-response,125,815313,0.0-46.0-4.0-1.0-1.0-3.0,,,,,,,,,,,,,,,60feca9223aed7b785e6018d,13:25:35,03/04/2024
1099.0,,,ospan,symmetry,QnEctNfOOXMKWuCSCk9M92tIk4z1,symmetry-judgement-task,126,818288,0.0-46.0-4.0-1.0-1.0-4.0,,,,,,,,,,1.0,1.0,,,,60feca9223aed7b785e6018d,13:25:35,03/04/2024
,"<div style=""font-size: 10rem; color: #0000FF"">H</div>",,ospan,letter,QnEctNfOOXMKWuCSCk9M92tIk4z1,html-keyboard-response,127,819296,0.0-46.0-4.0-1.0-1.0-5.0,,,,,,,,,,,,,,,60feca9223aed7b785e6018d,13:25:35,03/04/2024
1262.0,,,ospan,symmetry,QnEctNfOOXMKWuCSCk9M92tIk4z1,symmetry-judgement-task,128,822439,0.0-46.0-4.0-1.0-1.0-6.0,,,,,,,,,,1.0,1.0,,,,60feca9223aed7b785e6018d,13:25:35,03/04/2024
,"<div style=""font-size: 10rem; color: #0000FF"">R</div>",,ospan,letter,QnEctNfOOXMKWuCSCk9M92tIk4z1,html-keyboard-response,129,823446,0.0-46.0-4.0-1.0-1.0-7.0,,,,,,,,,,,,,,,60feca9223aed7b785e6018d,13:25:35,03/04/2024
1267.0,,,ospan,symmetry,QnEctNfOOXMKWuCSCk9M92tIk4z1,symmetry-judgement-task,130,826588,0.0-46.0-4.0-1.0-1.0-8.0,,,,,,,,,,1.0,1.0,,,,60feca9223aed7b785e6018d,13:25:35,03/04/2024
,"<div style=""font-size: 10rem; color: #0000FF"">Q</div>",,ospan,letter,QnEctNfOOXMKWuCSCk9M92tIk4z1,html-keyboard-response,131,827595,0.0-46.0-4.0-1.0-1.0-9.0,,,,,,,,,,,,,,,60feca9223aed7b785e6018d,13:25:35,03/04/2024
4775.599999964237,"<div class = numbox><p style=""font-size: 2.4rem"">Please recall the letters you saw to the best of your ability. If you do not remember a particular letter, use the SKIP button.<br><b>(When you are ready to lock in your answer, press ENTER)</b></p><button id = button_1 class = ""square num-button"" onclick = ""recordClick(this)""><div class = content><div class = numbers>C</div></div></button><button id = button_2 class = ""square num-button"" onclick = ""recordClick(this)""><div class = content><div class = numbers>G</div></div></button><button id = button_3 class = ""square num-button"" onclick = ""recordClick(this)""><div class = content><div class = numbers>H</div></div></button><button id = button_4 class = ""square num-button"" onclick = ""recordClick(this)""><div class = content><div class = numbers>J</div></div></button><button id = button_5 class = ""square num-button"" onclick = ""recordClick(this)""><div class = content><div class = numbers>K</div></div></button><button id = button_6 class = ""square num-button"" onclick = ""recordClick(this)""><div class = content><div class = numbers>L</div></div></button><button id = button_7 class = ""square num-button"" onclick = ""recordClick(this)""><div class = content><div class = numbers>N</div></div></button><button id = button_8 class = ""square num-button"" onclick = ""recordClick(this)""><div class = content><div class = numbers>P</div></div></button><button id = button_9 class = ""square num-button"" onclick = ""recordClick(this)""><div class = content><div class = numbers>Q</div></div></button><button id = button_10 class = ""square num-button"" onclick = ""recordClick(this)""><div class = content><div class = numbers>R</div></div></button><button id = button_11 class = ""square num-button"" onclick = ""recordClick(this)""><div class = content><div class = numbers>S</div></div></button><button id = button_12 class = ""square num-button"" onclick = ""recordClick(this)""><div class = content><div class = numbers>Y</div></div></button><button class = clear_button id = ""ClearButton"" onclick = ""clearResponse()"">BACKSPACE</button><button class = blank_button id = ""BlankButton"" onclick = ""blankResponse()"">SKIP</button><p style=""font-size: 2.4rem""><u><b>Current Answer:</b></u></p><br><br><div id=echoed_txt style=""font-size: 5rem; color:blue;""><b></b></div></div>",enter,ospan,retrieval,QnEctNfOOXMKWuCSCk9M92tIk4z1,html-keyboard-response,132,833129,0.0-46.0-4.0-1.0-2.0,12,12,12,5.0,"[""C"",""G"",""H"",""R"",""Q""]","[""C"",""G"",""H"",""R"",""Q""]",1.0,5.0,,,,,,,60feca9223aed7b785e6018d,13:25:35,03/04/2024
1367.6000000238419,[''],0,ospan,feedback,QnEctNfOOXMKWuCSCk9M92tIk4z1,html-button-response,133,835002,0.0-46.0-4.0-1.0-3.0,,,,,,,,,,,,100.0,0.0,,60feca9223aed7b785e6018d,13:25:35,03/04/2024
,"<p style=""font-size:75px;"">...</p>",,ospan,iti,QnEctNfOOXMKWuCSCk9M92tIk4z1,html-keyboard-response,134,836011,0.0-46.0-4.0-2.0-0.0,,,,,,,,,,,,,,,60feca9223aed7b785e6018d,13:25:35,03/04/2024
958.0,,,ospan,symmetry,QnEctNfOOXMKWuCSCk9M92tIk4z1,symmetry-judgement-task,135,838088,0.0-46.0-4.0-2.0-1.0-0.0,,,,,,,,,,1.0,1.0,,,,60feca9223aed7b785e6018d,13:25:35,03/04/2024
,"<div style=""font-size: 10rem; color: #0000FF"">Q</div>",,ospan,letter,QnEctNfOOXMKWuCSCk9M92tIk4z1,html-keyboard-response,136,839090,0.0-46.0-4.0-2.0-1.0-1.0,,,,,,,,,,,,,,,60feca9223aed7b785e6018d,13:25:35,03/04/2024
1231.0,,,ospan,symmetry,QnEctNfOOXMKWuCSCk9M92tIk4z1,symmetry-judgement-task,137,842206,0.0-46.0-4.0-2.0-1.0-2.0,,,,,,,,,,1.0,1.0,,,,60feca9223aed7b785e6018d,13:25:35,03/04/2024
,"<div style=""font-size: 10rem; color: #0000FF"">L</div>",,ospan,letter,QnEctNfOOXMKWuCSCk9M92tIk4z1,html-keyboard-response,138,843214,0.0-46.0-4.0-2.0-1.0-3.0,,,,,,,,,,,,,,,60feca9223aed7b785e6018d,13:25:35,03/04/2024
1178.0,,,ospan,symmetry,QnEctNfOOXMKWuCSCk9M92tIk4z1,symmetry-judgement-task,139,846272,0.0-46.0-4.0-2.0-1.0-4.0,,,,,,,,,,1.0,1.0,,,,60feca9223aed7b785e6018d,13:25:35,03/04/2024
,"<div style=""font-size: 10rem; color: #0000FF"">C</div>",,ospan,letter,QnEctNfOOXMKWuCSCk9M92tIk4z1,html-keyboard-response,140,847279,0.0-46.0-4.0-2.0-1.0-5.0,,,,,,,,,,,,,,,60feca9223aed7b785e6018d,13:25:35,03/04/2024
3905.800000011921,"<div class = numbox><p style=""font-size: 2.4rem"">Please recall the letters you saw to the best of your ability. If you do not remember a particular letter, use the SKIP button.<br><b>(When you are ready to lock in your answer, press ENTER)</b></p><button id = button_1 class = ""square num-button"" onclick = ""recordClick(this)""><div class = content><div class = numbers>C</div></div></button><button id = button_2 class = ""square num-button"" onclick = ""recordClick(this)""><div class = content><div class = numbers>G</div></div></button><button id = button_3 class = ""square num-button"" onclick = ""recordClick(this)""><div class = content><div class = numbers>H</div></div></button><button id = button_4 class = ""square num-button"" onclick = ""recordClick(this)""><div class = content><div class = numbers>J</div></div></button><button id = button_5 class = ""square num-button"" onclick = ""recordClick(this)""><div class = content><div class = numbers>K</div></div></button><button id = button_6 class = ""square num-button"" onclick = ""recordClick(this)""><div class = content><div class = numbers>L</div></div></button><button id = button_7 class = ""square num-button"" onclick = ""recordClick(this)""><div class = content><div class = numbers>N</div></div></button><button id = button_8 class = ""square num-button"" onclick = ""recordClick(this)""><div class = content><div class = numbers>P</div></div></button><button id = button_9 class = ""square num-button"" onclick = ""recordClick(this)""><div class = content><div class = numbers>Q</div></div></button><button id = button_10 class = ""square num-button"" onclick = ""recordClick(this)""><div class = content><div class = numbers>R</div></div></button><button id = button_11 class = ""square num-button"" onclick = ""recordClick(this)""><div class = content><div class = numbers>S</div></div></button><button id = button_12 class = ""square num-button"" onclick = ""recordClick(this)""><div class = content><div class = numbers>Y</div></div></button><button class = clear_button id = ""ClearButton"" onclick = ""clearResponse()"">BACKSPACE</button><button class = blank_button id = ""BlankButton"" onclick = ""blankResponse()"">SKIP</button><p style=""font-size: 2.4rem""><u><b>Current Answer:</b></u></p><br><br><div id=echoed_txt style=""font-size: 5rem; color:blue;""><b></b></div></div>",enter,ospan,retrieval,QnEctNfOOXMKWuCSCk9M92tIk4z1,html-keyboard-response,141,851942,0.0-46.0-4.0-2.0-2.0,15,15,15,3.0,"[""Q"",""L"",""C""]","[""Q"",""L"",""C""]",1.0,3.0,,,,,,,60feca9223aed7b785e6018d,13:25:35,03/04/2024
1005.9000000357628,[''],0,ospan,feedback,QnEctNfOOXMKWuCSCk9M92tIk4z1,html-button-response,142,853452,0.0-46.0-4.0-2.0-3.0,,,,,,,,,,,,100.0,0.0,,60feca9223aed7b785e6018d,13:25:35,03/04/2024
,"<p style=""font-size:75px;"">...</p>",,ospan,iti,QnEctNfOOXMKWuCSCk9M92tIk4z1,html-keyboard-response,143,854461,0.0-46.0-5.0-0.0-0.0,,,,,,,,,,,,,,,60feca9223aed7b785e6018d,13:25:35,03/04/2024
1282.0,,,ospan,symmetry,QnEctNfOOXMKWuCSCk9M92tIk4z1,symmetry-judgement-task,144,856887,0.0-46.0-5.0-0.0-1.0-0.0,,,,,,,,,,1.0,1.0,,,,60feca9223aed7b785e6018d,13:25:35,03/04/2024
,"<div style=""font-size: 10rem; color: #0000FF"">H</div>",,ospan,letter,QnEctNfOOXMKWuCSCk9M92tIk4z1,html-keyboard-response,145,857894,0.0-46.0-5.0-0.0-1.0-1.0,,,,,,,,,,,,,,,60feca9223aed7b785e6018d,13:25:35,03/04/2024
1102.0,,,ospan,symmetry,QnEctNfOOXMKWuCSCk9M92tIk4z1,symmetry-judgement-task,146,860872,0.0-46.0-5.0-0.0-1.0-2.0,,,,,,,,,,1.0,1.0,,,,60feca9223aed7b785e6018d,13:25:35,03/04/2024
,"<div style=""font-size: 10rem; color: #0000FF"">G</div>",,ospan,letter,QnEctNfOOXMKWuCSCk9M92tIk4z1,html-keyboard-response,147,861879,0.0-46.0-5.0-0.0-1.0-3.0,,,,,,,,,,,,,,,60feca9223aed7b785e6018d,13:25:35,03/04/2024
1031.0,,,ospan,symmetry,QnEctNfOOXMKWuCSCk9M92tIk4z1,symmetry-judgement-task,148,864773,0.0-46.0-5.0-0.0-1.0-4.0,,,,,,,,,,1.0,1.0,,,,60feca9223aed7b785e6018d,13:25:35,03/04/2024
,"<div style=""font-size: 10rem; color: #0000FF"">S</div>",,ospan,letter,QnEctNfOOXMKWuCSCk9M92tIk4z1,html-keyboard-response,149,865780,0.0-46.0-5.0-0.0-1.0-5.0,,,,,,,,,,,,,,,60feca9223aed7b785e6018d,13:25:35,03/04/2024
1162.0,,,ospan,symmetry,QnEctNfOOXMKWuCSCk9M92tIk4z1,symmetry-judgement-task,150,868820,0.0-46.0-5.0-0.0-1.0-6.0,,,,,,,,,,1.0,1.0,,,,60feca9223aed7b785e6018d,13:25:35,03/04/2024
,"<div style=""font-size: 10rem; color: #0000FF"">L</div>",,ospan,letter,QnEctNfOOXMKWuCSCk9M92tIk4z1,html-keyboard-response,151,869823,0.0-46.0-5.0-0.0-1.0-7.0,,,,,,,,,,,,,,,60feca9223aed7b785e6018d,13:25:35,03/04/2024
1031.0,,,ospan,symmetry,QnEctNfOOXMKWuCSCk9M92tIk4z1,symmetry-judgement-task,152,872733,0.0-46.0-5.0-0.0-1.0-8.0,,,,,,,,,,1.0,1.0,,,,60feca9223aed7b785e6018d,13:25:35,03/04/2024
,"<div style=""font-size: 10rem; color: #0000FF"">K</div>",,ospan,letter,QnEctNfOOXMKWuCSCk9M92tIk4z1,html-keyboard-response,153,873740,0.0-46.0-5.0-0.0-1.0-9.0,,,,,,,,,,,,,,,60feca9223aed7b785e6018d,13:25:35,03/04/2024
1286.0,,,ospan,symmetry,QnEctNfOOXMKWuCSCk9M92tIk4z1,symmetry-judgement-task,154,876906,0.0-46.0-5.0-0.0-1.0-10.0,,,,,,,,,,1.0,1.0,,,,60feca9223aed7b785e6018d,13:25:35,03/04/2024
,"<div style=""font-size: 10rem; color: #0000FF"">Q</div>",,ospan,letter,QnEctNfOOXMKWuCSCk9M92tIk4z1,html-keyboard-response,155,877911,0.0-46.0-5.0-0.0-1.0-11.0,,,,,,,,,,,,,,,60feca9223aed7b785e6018d,13:25:35,03/04/2024
9988.0,"<div class = numbox><p style=""font-size: 2.4rem"">Please recall the letters you saw to the best of your ability. If you do not remember a particular letter, use the SKIP button.<br><b>(When you are ready to lock in your answer, press ENTER)</b></p><button id = button_1 class = ""square num-button"" onclick = ""recordClick(this)""><div class = content><div class = numbers>C</div></div></button><button id = button_2 class = ""square num-button"" onclick = ""recordClick(this)""><div class = content><div class = numbers>G</div></div></button><button id = button_3 class = ""square num-button"" onclick = ""recordClick(this)""><div class = content><div class = numbers>H</div></div></button><button id = button_4 class = ""square num-button"" onclick = ""recordClick(this)""><div class = content><div class = numbers>J</div></div></button><button id = button_5 class = ""square num-button"" onclick = ""recordClick(this)""><div class = content><div class = numbers>K</div></div></button><button id = button_6 class = ""square num-button"" onclick = ""recordClick(this)""><div class = content><div class = numbers>L</div></div></button><button id = button_7 class = ""square num-button"" onclick = ""recordClick(this)""><div class = content><div class = numbers>N</div></div></button><button id = button_8 class = ""square num-button"" onclick = ""recordClick(this)""><div class = content><div class = numbers>P</div></div></button><button id = button_9 class = ""square num-button"" onclick = ""recordClick(this)""><div class = content><div class = numbers>Q</div></div></button><button id = button_10 class = ""square num-button"" onclick = ""recordClick(this)""><div class = content><div class = numbers>R</div></div></button><button id = button_11 class = ""square num-button"" onclick = ""recordClick(this)""><div class = content><div class = numbers>S</div></div></button><button id = button_12 class = ""square num-button"" onclick = ""recordClick(this)""><div class = content><div class = numbers>Y</div></div></button><button class = clear_button id = ""ClearButton"" onclick = ""clearResponse()"">BACKSPACE</button><button class = blank_button id = ""BlankButton"" onclick = ""blankResponse()"">SKIP</button><p style=""font-size: 2.4rem""><u><b>Current Answer:</b></u></p><br><br><div id=echoed_txt style=""font-size: 5rem; color:blue;""><b></b></div></div>",enter,ospan,retrieval,QnEctNfOOXMKWuCSCk9M92tIk4z1,html-keyboard-response,156,888657,0.0-46.0-5.0-0.0-2.0,21,19,15,6.0,"[""H"",""G"",""S"",""L"",""Q""]","[""H"",""G"",""S"",""L"",""K"",""Q""]",0.0,4.0,,,,,,,60feca9223aed7b785e6018d,13:25:35,03/04/2024
1590.8999999761581,[''],0,ospan,feedback,QnEctNfOOXMKWuCSCk9M92tIk4z1,html-button-response,157,890753,0.0-46.0-5.0-0.0-3.0,,,,,,,,,,,,100.0,0.0,,60feca9223aed7b785e6018d,13:25:35,03/04/2024
,"<p style=""font-size:75px;"">...</p>",,ospan,iti,QnEctNfOOXMKWuCSCk9M92tIk4z1,html-keyboard-response,158,891764,0.0-46.0-5.0-1.0-0.0,,,,,,,,,,,,,,,60feca9223aed7b785e6018d,13:25:35,03/04/2024
988.0,,,ospan,symmetry,QnEctNfOOXMKWuCSCk9M92tIk4z1,symmetry-judgement-task,159,893873,0.0-46.0-5.0-1.0-1.0-0.0,,,,,,,,,,1.0,1.0,,,,60feca9223aed7b785e6018d,13:25:35,03/04/2024
,"<div style=""font-size: 10rem; color: #0000FF"">R</div>",,ospan,letter,QnEctNfOOXMKWuCSCk9M92tIk4z1,html-keyboard-response,160,894877,0.0-46.0-5.0-1.0-1.0-1.0,,,,,,,,,,,,,,,60feca9223aed7b785e6018d,13:25:35,03/04/2024
1037.0,,,ospan,symmetry,QnEctNfOOXMKWuCSCk9M92tIk4z1,symmetry-judgement-task,161,897789,0.0-46.0-5.0-1.0-1.0-2.0,,,,,,,,,,1.0,1.0,,,,60feca9223aed7b785e6018d,13:25:35,03/04/2024
,"<div style=""font-size: 10rem; color: #0000FF"">Y</div>",,ospan,letter,QnEctNfOOXMKWuCSCk9M92tIk4z1,html-keyboard-response,162,898792,0.0-46.0-5.0-1.0-1.0-3.0,,,,,,,,,,,,,,,60feca9223aed7b785e6018d,13:25:35,03/04/2024
1028.0,,,ospan,symmetry,QnEctNfOOXMKWuCSCk9M92tIk4z1,symmetry-judgement-task,163,901704,0.0-46.0-5.0-1.0-1.0-4.0,,,,,,,,,,1.0,1.0,,,,60feca9223aed7b785e6018d,13:25:35,03/04/2024
,"<div style=""font-size: 10rem; color: #0000FF"">P</div>",,ospan,letter,QnEctNfOOXMKWuCSCk9M92tIk4z1,html-keyboard-response,164,902707,0.0-46.0-5.0-1.0-1.0-5.0,,,,,,,,,,,,,,,60feca9223aed7b785e6018d,13:25:35,03/04/2024
2103.0,,,ospan,symmetry,QnEctNfOOXMKWuCSCk9M92tIk4z1,symmetry-judgement-task,165,906689,0.0-46.0-5.0-1.0-1.0-6.0,,,,,,,,,,1.0,1.0,,,,60feca9223aed7b785e6018d,13:25:35,03/04/2024
,"<div style=""font-size: 10rem; color: #0000FF"">L</div>",,ospan,letter,QnEctNfOOXMKWuCSCk9M92tIk4z1,html-keyboard-response,166,907697,0.0-46.0-5.0-1.0-1.0-7.0,,,,,,,,,,,,,,,60feca9223aed7b785e6018d,13:25:35,03/04/2024
682.0,,,ospan,symmetry,QnEctNfOOXMKWuCSCk9M92tIk4z1,symmetry-judgement-task,167,910253,0.0-46.0-5.0-1.0-1.0-8.0,,,,,,,,,,1.0,1.0,,,,60feca9223aed7b785e6018d,13:25:35,03/04/2024
,"<div style=""font-size: 10rem; color: #0000FF"">K</div>",,ospan,letter,QnEctNfOOXMKWuCSCk9M92tIk4z1,html-keyboard-response,168,911258,0.0-46.0-5.0-1.0-1.0-9.0,,,,,,,,,,,,,,,60feca9223aed7b785e6018d,13:25:35,03/04/2024
992.0,,,ospan,symmetry,QnEctNfOOXMKWuCSCk9M92tIk4z1,symmetry-judgement-task,169,914124,0.0-46.0-5.0-1.0-1.0-10.0,,,,,,,,,,1.0,1.0,,,,60feca9223aed7b785e6018d,13:25:35,03/04/2024
,"<div style=""font-size: 10rem; color: #0000FF"">S</div>",,ospan,letter,QnEctNfOOXMKWuCSCk9M92tIk4z1,html-keyboard-response,170,915141,0.0-46.0-5.0-1.0-1.0-11.0,,,,,,,,,,,,,,,60feca9223aed7b785e6018d,13:25:35,03/04/2024
1110.0,,,ospan,symmetry,QnEctNfOOXMKWuCSCk9M92tIk4z1,symmetry-judgement-task,171,918137,0.0-46.0-5.0-1.0-1.0-12.0,,,,,,,,,,1.0,1.0,,,,60feca9223aed7b785e6018d,13:25:35,03/04/2024
,"<div style=""font-size: 10rem; color: #0000FF"">N</div>",,ospan,letter,QnEctNfOOXMKWuCSCk9M92tIk4z1,html-keyboard-response,172,919140,0.0-46.0-5.0-1.0-1.0-13.0,,,,,,,,,,,,,,,60feca9223aed7b785e6018d,13:25:35,03/04/2024
21578.80000001192,"<div class = numbox><p style=""font-size: 2.4rem"">Please recall the letters you saw to the best of your ability. If you do not remember a particular letter, use the SKIP button.<br><b>(When you are ready to lock in your answer, press ENTER)</b></p><button id = button_1 class = ""square num-button"" onclick = ""recordClick(this)""><div class = content><div class = numbers>C</div></div></button><button id = button_2 class = ""square num-button"" onclick = ""recordClick(this)""><div class = content><div class = numbers>G</div></div></button><button id = button_3 class = ""square num-button"" onclick = ""recordClick(this)""><div class = content><div class = numbers>H</div></div></button><button id = button_4 class = ""square num-button"" onclick = ""recordClick(this)""><div class = content><div class = numbers>J</div></div></button><button id = button_5 class = ""square num-button"" onclick = ""recordClick(this)""><div class = content><div class = numbers>K</div></div></button><button id = button_6 class = ""square num-button"" onclick = ""recordClick(this)""><div class = content><div class = numbers>L</div></div></button><button id = button_7 class = ""square num-button"" onclick = ""recordClick(this)""><div class = content><div class = numbers>N</div></div></button><button id = button_8 class = ""square num-button"" onclick = ""recordClick(this)""><div class = content><div class = numbers>P</div></div></button><button id = button_9 class = ""square num-button"" onclick = ""recordClick(this)""><div class = content><div class = numbers>Q</div></div></button><button id = button_10 class = ""square num-button"" onclick = ""recordClick(this)""><div class = content><div class = numbers>R</div></div></button><button id = button_11 class = ""square num-button"" onclick = ""recordClick(this)""><div class = content><div class = numbers>S</div></div></button><button id = button_12 class = ""square num-button"" onclick = ""recordClick(this)""><div class = content><div class = numbers>Y</div></div></button><button class = clear_button id = ""ClearButton"" onclick = ""clearResponse()"">BACKSPACE</button><button class = blank_button id = ""BlankButton"" onclick = ""blankResponse()"">SKIP</button><p style=""font-size: 2.4rem""><u><b>Current Answer:</b></u></p><br><br><div id=echoed_txt style=""font-size: 5rem; color:blue;""><b></b></div></div>",enter,ospan,retrieval,QnEctNfOOXMKWuCSCk9M92tIk4z1,html-keyboard-response,173,941477,0.0-46.0-5.0-1.0-2.0,28,23,15,7.0,"[""R"",""Y"",""P"",""S"",""K"",""N""]","[""R"",""Y"",""P"",""L"",""K"",""S"",""N""]",0.0,4.0,,,,,,,60feca9223aed7b785e6018d,13:25:35,03/04/2024
2054.400000035763,[''],0,ospan,feedback,QnEctNfOOXMKWuCSCk9M92tIk4z1,html-button-response,174,944036,0.0-46.0-5.0-1.0-3.0,,,,,,,,,,,,100.0,0.0,,60feca9223aed7b785e6018d,13:25:35,03/04/2024
,"<p style=""font-size:75px;"">...</p>",,ospan,iti,QnEctNfOOXMKWuCSCk9M92tIk4z1,html-keyboard-response,175,945047,0.0-46.0-6.0-0.0-0.0,,,,,,,,,,,,,,,60feca9223aed7b785e6018d,13:25:35,03/04/2024
1259.0,,,ospan,symmetry,QnEctNfOOXMKWuCSCk9M92tIk4z1,symmetry-judgement-task,176,947423,0.0-46.0-6.0-0.0-1.0-0.0,,,,,,,,,,1.0,1.0,,,,60feca9223aed7b785e6018d,13:25:35,03/04/2024
,"<div style=""font-size: 10rem; color: #0000FF"">R</div>",,ospan,letter,QnEctNfOOXMKWuCSCk9M92tIk4z1,html-keyboard-response,177,948429,0.0-46.0-6.0-0.0-1.0-1.0,,,,,,,,,,,,,,,60feca9223aed7b785e6018d,13:25:35,03/04/2024
1230.0,,,ospan,symmetry,QnEctNfOOXMKWuCSCk9M92tIk4z1,symmetry-judgement-task,178,951536,0.0-46.0-6.0-0.0-1.0-2.0,,,,,,,,,,1.0,1.0,,,,60feca9223aed7b785e6018d,13:25:35,03/04/2024
,"<div style=""font-size: 10rem; color: #0000FF"">C</div>",,ospan,letter,QnEctNfOOXMKWuCSCk9M92tIk4z1,html-keyboard-response,179,952539,0.0-46.0-6.0-0.0-1.0-3.0,,,,,,,,,,,,,,,60feca9223aed7b785e6018d,13:25:35,03/04/2024
1155.0,,,ospan,symmetry,QnEctNfOOXMKWuCSCk9M92tIk4z1,symmetry-judgement-task,180,955572,0.0-46.0-6.0-0.0-1.0-4.0,,,,,,,,,,1.0,1.0,,,,60feca9223aed7b785e6018d,13:25:35,03/04/2024
,"<div style=""font-size: 10rem; color: #0000FF"">L</div>",,ospan,letter,QnEctNfOOXMKWuCSCk9M92tIk4z1,html-keyboard-response,181,956580,0.0-46.0-6.0-0.0-1.0-5.0,,,,,,,,,,,,,,,60feca9223aed7b785e6018d,13:25:35,03/04/2024
853.0,,,ospan,symmetry,QnEctNfOOXMKWuCSCk9M92tIk4z1,symmetry-judgement-task,182,959304,0.0-46.0-6.0-0.0-1.0-6.0,,,,,,,,,,1.0,1.0,,,,60feca9223aed7b785e6018d,13:25:35,03/04/2024
,"<div style=""font-size: 10rem; color: #0000FF"">N</div>",,ospan,letter,QnEctNfOOXMKWuCSCk9M92tIk4z1,html-keyboard-response,183,960307,0.0-46.0-6.0-0.0-1.0-7.0,,,,,,,,,,,,,,,60feca9223aed7b785e6018d,13:25:35,03/04/2024
1391.0,,,ospan,symmetry,QnEctNfOOXMKWuCSCk9M92tIk4z1,symmetry-judgement-task,184,963573,0.0-46.0-6.0-0.0-1.0-8.0,,,,,,,,,,1.0,1.0,,,,60feca9223aed7b785e6018d,13:25:35,03/04/2024
,"<div style=""font-size: 10rem; color: #0000FF"">Q</div>",,ospan,letter,QnEctNfOOXMKWuCSCk9M92tIk4z1,html-keyboard-response,185,964578,0.0-46.0-6.0-0.0-1.0-9.0,,,,,,,,,,,,,,,60feca9223aed7b785e6018d,13:25:35,03/04/2024
4136.600000023842,"<div class = numbox><p style=""font-size: 2.4rem"">Please recall the letters you saw to the best of your ability. If you do not remember a particular letter, use the SKIP button.<br><b>(When you are ready to lock in your answer, press ENTER)</b></p><button id = button_1 class = ""square num-button"" onclick = ""recordClick(this)""><div class = content><div class = numbers>C</div></div></button><button id = button_2 class = ""square num-button"" onclick = ""recordClick(this)""><div class = content><div class = numbers>G</div></div></button><button id = button_3 class = ""square num-button"" onclick = ""recordClick(this)""><div class = content><div class = numbers>H</div></div></button><button id = button_4 class = ""square num-button"" onclick = ""recordClick(this)""><div class = content><div class = numbers>J</div></div></button><button id = button_5 class = ""square num-button"" onclick = ""recordClick(this)""><div class = content><div class = numbers>K</div></div></button><button id = button_6 class = ""square num-button"" onclick = ""recordClick(this)""><div class = content><div class = numbers>L</div></div></button><button id = button_7 class = ""square num-button"" onclick = ""recordClick(this)""><div class = content><div class = numbers>N</div></div></button><button id = button_8 class = ""square num-button"" onclick = ""recordClick(this)""><div class = content><div class = numbers>P</div></div></button><button id = button_9 class = ""square num-button"" onclick = ""recordClick(this)""><div class = content><div class = numbers>Q</div></div></button><button id = button_10 class = ""square num-button"" onclick = ""recordClick(this)""><div class = content><div class = numbers>R</div></div></button><button id = button_11 class = ""square num-button"" onclick = ""recordClick(this)""><div class = content><div class = numbers>S</div></div></button><button id = button_12 class = ""square num-button"" onclick = ""recordClick(this)""><div class = content><div class = numbers>Y</div></div></button><button class = clear_button id = ""ClearButton"" onclick = ""clearResponse()"">BACKSPACE</button><button class = blank_button id = ""BlankButton"" onclick = ""blankResponse()"">SKIP</button><p style=""font-size: 2.4rem""><u><b>Current Answer:</b></u></p><br><br><div id=echoed_txt style=""font-size: 5rem; color:blue;""><b></b></div></div>",enter,ospan,retrieval,QnEctNfOOXMKWuCSCk9M92tIk4z1,html-keyboard-response,186,969472,0.0-46.0-6.0-0.0-2.0,33,28,20,5.0,"[""R"",""C"",""L"",""N"",""Q""]","[""R"",""C"",""L"",""N"",""Q""]",1.0,5.0,,,,,,,60feca9223aed7b785e6018d,13:25:35,03/04/2024
789.7999999523163,[''],0,ospan,feedback,QnEctNfOOXMKWuCSCk9M92tIk4z1,html-button-response,187,970767,0.0-46.0-6.0-0.0-3.0,,,,,,,,,,,,100.0,0.0,,60feca9223aed7b785e6018d,13:25:35,03/04/2024
,"<p style=""font-size:75px;"">...</p>",,ospan,iti,QnEctNfOOXMKWuCSCk9M92tIk4z1,html-keyboard-response,188,971774,0.0-46.0-6.0-1.0-0.0,,,,,,,,,,,,,,,60feca9223aed7b785e6018d,13:25:35,03/04/2024
919.0,,,ospan,symmetry,QnEctNfOOXMKWuCSCk9M92tIk4z1,symmetry-judgement-task,189,973826,0.0-46.0-6.0-1.0-1.0-0.0,,,,,,,,,,1.0,1.0,,,,60feca9223aed7b785e6018d,13:25:35,03/04/2024
,"<div style=""font-size: 10rem; color: #0000FF"">Y</div>",,ospan,letter,QnEctNfOOXMKWuCSCk9M92tIk4z1,html-keyboard-response,190,974835,0.0-46.0-6.0-1.0-1.0-1.0,,,,,,,,,,,,,,,60feca9223aed7b785e6018d,13:25:35,03/04/2024
1138.0,,,ospan,symmetry,QnEctNfOOXMKWuCSCk9M92tIk4z1,symmetry-judgement-task,191,977839,0.0-46.0-6.0-1.0-1.0-2.0,,,,,,,,,,1.0,1.0,,,,60feca9223aed7b785e6018d,13:25:35,03/04/2024
,"<div style=""font-size: 10rem; color: #0000FF"">L</div>",,ospan,letter,QnEctNfOOXMKWuCSCk9M92tIk4z1,html-keyboard-response,192,978846,0.0-46.0-6.0-1.0-1.0-3.0,,,,,,,,,,,,,,,60feca9223aed7b785e6018d,13:25:35,03/04/2024
1011.0,,,ospan,symmetry,QnEctNfOOXMKWuCSCk9M92tIk4z1,symmetry-judgement-task,193,981739,0.0-46.0-6.0-1.0-1.0-4.0,,,,,,,,,,1.0,1.0,,,,60feca9223aed7b785e6018d,13:25:35,03/04/2024
,"<div style=""font-size: 10rem; color: #0000FF"">Q</div>",,ospan,letter,QnEctNfOOXMKWuCSCk9M92tIk4z1,html-keyboard-response,194,982746,0.0-46.0-6.0-1.0-1.0-5.0,,,,,,,,,,,,,,,60feca9223aed7b785e6018d,13:25:35,03/04/2024
1040.0,,,ospan,symmetry,QnEctNfOOXMKWuCSCk9M92tIk4z1,symmetry-judgement-task,195,985656,0.0-46.0-6.0-1.0-1.0-6.0,,,,,,,,,,1.0,1.0,,,,60feca9223aed7b785e6018d,13:25:35,03/04/2024
,"<div style=""font-size: 10rem; color: #0000FF"">H</div>",,ospan,letter,QnEctNfOOXMKWuCSCk9M92tIk4z1,html-keyboard-response,196,986663,0.0-46.0-6.0-1.0-1.0-7.0,,,,,,,,,,,,,,,60feca9223aed7b785e6018d,13:25:35,03/04/2024
1034.0,,,ospan,symmetry,QnEctNfOOXMKWuCSCk9M92tIk4z1,symmetry-judgement-task,197,989573,0.0-46.0-6.0-1.0-1.0-8.0,,,,,,,,,,1.0,1.0,,,,60feca9223aed7b785e6018d,13:25:35,03/04/2024
,"<div style=""font-size: 10rem; color: #0000FF"">S</div>",,ospan,letter,QnEctNfOOXMKWuCSCk9M92tIk4z1,html-keyboard-response,198,990581,0.0-46.0-6.0-1.0-1.0-9.0,,,,,,,,,,,,,,,60feca9223aed7b785e6018d,13:25:35,03/04/2024
978.0,,,ospan,symmetry,QnEctNfOOXMKWuCSCk9M92tIk4z1,symmetry-judgement-task,199,993440,0.0-46.0-6.0-1.0-1.0-10.0,,,,,,,,,,1.0,1.0,,,,60feca9223aed7b785e6018d,13:25:35,03/04/2024
,"<div style=""font-size: 10rem; color: #0000FF"">K</div>",,ospan,letter,QnEctNfOOXMKWuCSCk9M92tIk4z1,html-keyboard-response,200,994447,0.0-46.0-6.0-1.0-1.0-11.0,,,,,,,,,,,,,,,60feca9223aed7b785e6018d,13:25:35,03/04/2024
1930.0,,,ospan,symmetry,QnEctNfOOXMKWuCSCk9M92tIk4z1,symmetry-judgement-task,201,998257,0.0-46.0-6.0-1.0-1.0-12.0,,,,,,,,,,1.0,1.0,,,,60feca9223aed7b785e6018d,13:25:35,03/04/2024
,"<div style=""font-size: 10rem; color: #0000FF"">J</div>",,ospan,letter,QnEctNfOOXMKWuCSCk9M92tIk4z1,html-keyboard-response,202,999264,0.0-46.0-6.0-1.0-1.0-13.0,,,,,,,,,,,,,,,60feca9223aed7b785e6018d,13:25:35,03/04/2024
932.0,,,ospan,symmetry,QnEctNfOOXMKWuCSCk9M92tIk4z1,symmetry-judgement-task,203,1002074,0.0-46.0-6.0-1.0-1.0-14.0,,,,,,,,,,1.0,1.0,,,,60feca9223aed7b785e6018d,13:25:35,03/04/2024
,"<div style=""font-size: 10rem; color: #0000FF"">G</div>",,ospan,letter,QnEctNfOOXMKWuCSCk9M92tIk4z1,html-keyboard-response,204,1003080,0.0-46.0-6.0-1.0-1.0-15.0,,,,,,,,,,,,,,,60feca9223aed7b785e6018d,13:25:35,03/04/2024
11019.5,"<div class = numbox><p style=""font-size: 2.4rem"">Please recall the letters you saw to the best of your ability. If you do not remember a particular letter, use the SKIP button.<br><b>(When you are ready to lock in your answer, press ENTER)</b></p><button id = button_1 class = ""square num-button"" onclick = ""recordClick(this)""><div class = content><div class = numbers>C</div></div></button><button id = button_2 class = ""square num-button"" onclick = ""recordClick(this)""><div class = content><div class = numbers>G</div></div></button><button id = button_3 class = ""square num-button"" onclick = ""recordClick(this)""><div class = content><div class = numbers>H</div></div></button><button id = button_4 class = ""square num-button"" onclick = ""recordClick(this)""><div class = content><div class = numbers>J</div></div></button><button id = button_5 class = ""square num-button"" onclick = ""recordClick(this)""><div class = content><div class = numbers>K</div></div></button><button id = button_6 class = ""square num-button"" onclick = ""recordClick(this)""><div class = content><div class = numbers>L</div></div></button><button id = button_7 class = ""square num-button"" onclick = ""recordClick(this)""><div class = content><div class = numbers>N</div></div></button><button id = button_8 class = ""square num-button"" onclick = ""recordClick(this)""><div class = content><div class = numbers>P</div></div></button><button id = button_9 class = ""square num-button"" onclick = ""recordClick(this)""><div class = content><div class = numbers>Q</div></div></button><button id = button_10 class = ""square num-button"" onclick = ""recordClick(this)""><div class = content><div class = numbers>R</div></div></button><button id = button_11 class = ""square num-button"" onclick = ""recordClick(this)""><div class = content><div class = numbers>S</div></div></button><button id = button_12 class = ""square num-button"" onclick = ""recordClick(this)""><div class = content><div class = numbers>Y</div></div></button><button class = clear_button id = ""ClearButton"" onclick = ""clearResponse()"">BACKSPACE</button><button class = blank_button id = ""BlankButton"" onclick = ""blankResponse()"">SKIP</button><p style=""font-size: 2.4rem""><u><b>Current Answer:</b></u></p><br><br><div id=echoed_txt style=""font-size: 5rem; color:blue;""><b></b></div></div>",enter,ospan,retrieval,QnEctNfOOXMKWuCSCk9M92tIk4z1,html-keyboard-response,205,1014853,0.0-46.0-6.0-1.0-2.0,41,33,20,8.0,"[""Y"",""L"",""Q"",""L"",""S"",""Q"",""J""]","[""Y"",""L"",""Q"",""H"",""S"",""K"",""J"",""G""]",0.0,5.0,,,,,,,60feca9223aed7b785e6018d,13:25:35,03/04/2024
14677.400000035763,[''],0,ospan,feedback,QnEctNfOOXMKWuCSCk9M92tIk4z1,html-button-response,206,1030035,0.0-46.0-6.0-1.0-3.0,,,,,,,,,,,,100.0,0.0,,60feca9223aed7b785e6018d,13:25:35,03/04/2024
16193.299999952316,,{'Q0': 'enjoyed it but did get challenging towards the end '},ospan,survey_ospan,QnEctNfOOXMKWuCSCk9M92tIk4z1,lmdlab-survey-text,207,1046991,0.0-46.0-7.0,,,,,,,,,,,,,,QnEctNfOOXMKWuCSCk9M92tIk4z1,60feca9223aed7b785e6018d,13:25:35,03/04/2024
1803.1000000238419,<p><p style='font-size: 3rem'>Great work!<br><br>This completes the symmetry and memory task.</p><br><br><br>,0,ospan,finish,QnEctNfOOXMKWuCSCk9M92tIk4z1,html-button-response,208,1048803,0.0-46.0-8.0,41,33,20,,,,,,,,,100.0,,,60feca9223aed7b785e6018d,13:25:35,03/04/2024
