rt,stimulus,response,exp_name,exp_stage,subjectID,trial_type,trial_index,time_elapsed,internal_node_id,ospan_shown,ospan_total,ospan_abs,length,resp_actual,resp_correct,full_correct,num_correct,feedback,accuracy,correct,math_acc,math_warning,databaseID,prolificID,start_time,date
1916.5,<div class = 'left_align' style='font-size: 3.25rem; line-height: 1.3;'><p class = 'center_align'><b>Welcome to the Symmetry and Memory Task</b><br><br><br><br></p>Press 'continue' to show the instructions.<br><br><br><br></div>,0,ospan,instruct,8SdDWkBgvsP4CN0sMkBkXF30ID53,html-button-response,51,376517,0.0-43.0-0.0-0.0-0.0,,,,,,,,,,,,,,,6173c5b0aa4bc2370fd2c1f2,13:49:30,06/03/2024
7984.29999999702,"<div class = 'left_align' style='font-size: 3.25rem; line-height: 1.3;'><p class = 'center_align'><b>Symmetry and Memory Task</b><br><br></p>In this task, you will try to memorize letters you see on the screen<br>while you also view black and white grid pictures.<br><br>In the next few minutes, you will have some practice to get you familiar<br>with how the task works.<br><br>It may be difficult sometimes, but please do not worry about making mistakes!<br><br>We will begin by practicing the letter part of the task.<br><br><br><br></div>",0,ospan,instruct,8SdDWkBgvsP4CN0sMkBkXF30ID53,html-button-response,52,384757,0.0-43.0-0.0-0.0-1.0,,,,,,,,,,,,,,,6173c5b0aa4bc2370fd2c1f2,13:49:30,06/03/2024
6161.0,"<div class = 'left_align' style='font-size: 3.25rem; line-height: 1.3;'>For this practice part, letters will appear on the screen one at a time.<br><br>Try to remember each letter in the order presented.<br><br>After some letters have been shown, you will see a response screen. Your<br>goal is to report the letters you saw <b>in order</b>. If you do not remember<br>a particular letter, you will have the option to leave it blank.<br><br><br><br></div>",0,ospan,instruct,8SdDWkBgvsP4CN0sMkBkXF30ID53,html-button-response,53,391173,0.0-43.0-0.0-0.0-2.0,,,,,,,,,,,,,,,6173c5b0aa4bc2370fd2c1f2,13:49:30,06/03/2024
1479.5,"<div class = 'left_align' style='font-size: 3.25rem; line-height: 1.3;'>Remember, it is very important to get the letters in the same<br>order as you see them.<br><br>When you are ready, you may begin the letter practice.</div><br><br><br><br>",0,ospan,instruct,8SdDWkBgvsP4CN0sMkBkXF30ID53,html-button-response,54,392909,0.0-43.0-0.0-0.0-3.0,,,,,,,,,,,,,,,6173c5b0aa4bc2370fd2c1f2,13:49:30,06/03/2024
,"<p style=""font-size:75px;"">...</p>",,ospan,iti,8SdDWkBgvsP4CN0sMkBkXF30ID53,html-keyboard-response,55,394169,0.0-43.0-0.0-1.0-0.0,,,,,,,,,,,,,,,6173c5b0aa4bc2370fd2c1f2,13:49:30,06/03/2024
,"<div style=""font-size: 10rem; color: #0000FF"">P</div>",,ospan,letter,8SdDWkBgvsP4CN0sMkBkXF30ID53,html-keyboard-response,56,395172,0.0-43.0-0.0-1.0-1.0,,,,,,,,,,,,,,,6173c5b0aa4bc2370fd2c1f2,13:49:30,06/03/2024
,"<div style=""font-size: 10rem; color: #0000FF"">S</div>",,ospan,letter,8SdDWkBgvsP4CN0sMkBkXF30ID53,html-keyboard-response,57,396946,0.0-43.0-0.0-1.0-2.0,,,,,,,,,,,,,,,6173c5b0aa4bc2370fd2c1f2,13:49:30,06/03/2024
4885.0,"<div class = numbox><p style=""font-size: 2.4rem"">Please recall the letters you saw to the best of your ability. If you do not remember a particular letter, use the SKIP button.<br><b>(When you are ready to lock in your answer, press ENTER)</b></p><button id = button_1 class = ""square num-button"" onclick = ""recordClick(this)""><div class = content><div class = numbers>C</div></div></button><button id = button_2 class = ""square num-button"" onclick = ""recordClick(this)""><div class = content><div class = numbers>G</div></div></button><button id = button_3 class = ""square num-button"" onclick = ""recordClick(this)""><div class = content><div class = numbers>H</div></div></button><button id = button_4 class = ""square num-button"" onclick = ""recordClick(this)""><div class = content><div class = numbers>J</div></div></button><button id = button_5 class = ""square num-button"" onclick = ""recordClick(this)""><div class = content><div class = numbers>K</div></div></button><button id = button_6 class = ""square num-button"" onclick = ""recordClick(this)""><div class = content><div class = numbers>L</div></div></button><button id = button_7 class = ""square num-button"" onclick = ""recordClick(this)""><div class = content><div class = numbers>N</div></div></button><button id = button_8 class = ""square num-button"" onclick = ""recordClick(this)""><div class = content><div class = numbers>P</div></div></button><button id = button_9 class = ""square num-button"" onclick = ""recordClick(this)""><div class = content><div class = numbers>Q</div></div></button><button id = button_10 class = ""square num-button"" onclick = ""recordClick(this)""><div class = content><div class = numbers>R</div></div></button><button id = button_11 class = ""square num-button"" onclick = ""recordClick(this)""><div class = content><div class = numbers>S</div></div></button><button id = button_12 class = ""square num-button"" onclick = ""recordClick(this)""><div class = content><div class = numbers>Y</div></div></button><button class = clear_button id = ""ClearButton"" onclick = ""clearResponse()"">BACKSPACE</button><button class = blank_button id = ""BlankButton"" onclick = ""blankResponse()"">SKIP</button><p style=""font-size: 2.4rem""><u><b>Current Answer:</b></u></p><br><br><div id=echoed_txt style=""font-size: 5rem; color:blue;""><b></b></div></div>",enter,ospan,retrieval,8SdDWkBgvsP4CN0sMkBkXF30ID53,html-keyboard-response,58,402598,0.0-43.0-0.0-1.0-3.0,NA,NA,NA,2.0,"[""P"",""S""]","[""P"",""S""]",1.0,2.0,"['<font color=""green"">P</font>', '<font color=""green"">S</font>']",,,,,,6173c5b0aa4bc2370fd2c1f2,13:49:30,06/03/2024
1191.2999999970198,"['<p style=""font-size:44px"">Letters:<br><br><br><font color=""green"">P</font> <font color=""green"">S</font></p><br><br>']",0,ospan,practice_feedback,8SdDWkBgvsP4CN0sMkBkXF30ID53,html-button-response,59,404301,0.0-43.0-0.0-1.0-4.0,,,,,,,,,,,,,,,6173c5b0aa4bc2370fd2c1f2,13:49:30,06/03/2024
,"<p style=""font-size:75px;"">...</p>",,ospan,iti,8SdDWkBgvsP4CN0sMkBkXF30ID53,html-keyboard-response,60,405302,0.0-43.0-0.0-2.0-0.0,,,,,,,,,,,,,,,6173c5b0aa4bc2370fd2c1f2,13:49:30,06/03/2024
,"<div style=""font-size: 10rem; color: #0000FF"">K</div>",,ospan,letter,8SdDWkBgvsP4CN0sMkBkXF30ID53,html-keyboard-response,61,406307,0.0-43.0-0.0-2.0-1.0,,,,,,,,,,,,,,,6173c5b0aa4bc2370fd2c1f2,13:49:30,06/03/2024
,"<div style=""font-size: 10rem; color: #0000FF"">R</div>",,ospan,letter,8SdDWkBgvsP4CN0sMkBkXF30ID53,html-keyboard-response,62,408085,0.0-43.0-0.0-2.0-2.0,,,,,,,,,,,,,,,6173c5b0aa4bc2370fd2c1f2,13:49:30,06/03/2024
,"<div style=""font-size: 10rem; color: #0000FF"">L</div>",,ospan,letter,8SdDWkBgvsP4CN0sMkBkXF30ID53,html-keyboard-response,63,409851,0.0-43.0-0.0-2.0-3.0,,,,,,,,,,,,,,,6173c5b0aa4bc2370fd2c1f2,13:49:30,06/03/2024
2544.5,"<div class = numbox><p style=""font-size: 2.4rem"">Please recall the letters you saw to the best of your ability. If you do not remember a particular letter, use the SKIP button.<br><b>(When you are ready to lock in your answer, press ENTER)</b></p><button id = button_1 class = ""square num-button"" onclick = ""recordClick(this)""><div class = content><div class = numbers>C</div></div></button><button id = button_2 class = ""square num-button"" onclick = ""recordClick(this)""><div class = content><div class = numbers>G</div></div></button><button id = button_3 class = ""square num-button"" onclick = ""recordClick(this)""><div class = content><div class = numbers>H</div></div></button><button id = button_4 class = ""square num-button"" onclick = ""recordClick(this)""><div class = content><div class = numbers>J</div></div></button><button id = button_5 class = ""square num-button"" onclick = ""recordClick(this)""><div class = content><div class = numbers>K</div></div></button><button id = button_6 class = ""square num-button"" onclick = ""recordClick(this)""><div class = content><div class = numbers>L</div></div></button><button id = button_7 class = ""square num-button"" onclick = ""recordClick(this)""><div class = content><div class = numbers>N</div></div></button><button id = button_8 class = ""square num-button"" onclick = ""recordClick(this)""><div class = content><div class = numbers>P</div></div></button><button id = button_9 class = ""square num-button"" onclick = ""recordClick(this)""><div class = content><div class = numbers>Q</div></div></button><button id = button_10 class = ""square num-button"" onclick = ""recordClick(this)""><div class = content><div class = numbers>R</div></div></button><button id = button_11 class = ""square num-button"" onclick = ""recordClick(this)""><div class = content><div class = numbers>S</div></div></button><button id = button_12 class = ""square num-button"" onclick = ""recordClick(this)""><div class = content><div class = numbers>Y</div></div></button><button class = clear_button id = ""ClearButton"" onclick = ""clearResponse()"">BACKSPACE</button><button class = blank_button id = ""BlankButton"" onclick = ""blankResponse()"">SKIP</button><p style=""font-size: 2.4rem""><u><b>Current Answer:</b></u></p><br><br><div id=echoed_txt style=""font-size: 5rem; color:blue;""><b></b></div></div>",enter,ospan,retrieval,8SdDWkBgvsP4CN0sMkBkXF30ID53,html-keyboard-response,64,413151,0.0-43.0-0.0-2.0-4.0,NA,NA,NA,3.0,"[""K"",""R"",""L""]","[""K"",""R"",""L""]",1.0,3.0,"['<font color=""green"">K</font>', '<font color=""green"">R</font>', '<font color=""green"">L</font>']",,,,,,6173c5b0aa4bc2370fd2c1f2,13:49:30,06/03/2024
2078.7000000029802,"['<p style=""font-size:44px"">Letters:<br><br><br><font color=""green"">K</font> <font color=""green"">R</font> <font color=""green"">L</font></p><br><br>']",0,ospan,practice_feedback,8SdDWkBgvsP4CN0sMkBkXF30ID53,html-button-response,65,415733,0.0-43.0-0.0-2.0-5.0,,,,,,,,,,,,,,,6173c5b0aa4bc2370fd2c1f2,13:49:30,06/03/2024
15142.300000011921,"<div class = 'left_align' style='font-size: 3.25rem; line-height: 1.3;'>Now you will practice doing the <b>symmetry judgment part</b> of the experiment.<br><br>A black and white grid picture will appear on the screen and you have to judge if it is <br>symmetrical or asymetrical.<br><br>A picture is 'mirror' symmetrical if its left half is identical to the right half when flipped.<br>Here are examples of a symmetrical and an asymetrical picture:<br><br><center><img src='Stimuli/img/symm_instructions_extra.png' style='height:420px; width:900'></img></center><br>To judge symmetry, imagine you were to fold each picture down the middle, like a book –<br>would the left half match the right half when folded onto each other?<br><br></div><br>",0,ospan,instruct,8SdDWkBgvsP4CN0sMkBkXF30ID53,html-button-response,66,430877,0.0-43.0-1.0-0.0-0.0,,,,,,,,,,,,,,,6173c5b0aa4bc2370fd2c1f2,13:49:30,06/03/2024
2701.7000000029802,"<div class = 'left_align' style='font-size: 3.25rem; line-height: 1.3;'>When you have viewed the picture and determined whether it is symmetrical or not,<br>you can <b>click the Yes or No button</b> below to answer.<br><br>If you take longer than 15 seconds, it will continue automatically<br>and record the answer as an error.</div><br>",0,ospan,instruct,8SdDWkBgvsP4CN0sMkBkXF30ID53,html-button-response,67,433837,0.0-43.0-1.0-0.0-1.0,,,,,,,,,,,,,,,6173c5b0aa4bc2370fd2c1f2,13:49:30,06/03/2024
1582.8999999910593,"<div class = 'left_align' style='font-size: 3.25rem; line-height: 1.3;'>It is <b>very</b> important that you make the symmetry judgment correctly.<br><br>It is also important that you try and judge the picture as quickly as you can.<br><br>When you are ready, click on the button below to try some practice problems.</div><br><br><br><br>",0,ospan,instruct,8SdDWkBgvsP4CN0sMkBkXF30ID53,html-button-response,68,435685,0.0-43.0-1.0-0.0-2.0,,,,,,,,,,,,,,,6173c5b0aa4bc2370fd2c1f2,13:49:30,06/03/2024
3037.0,,,ospan,symmetry,8SdDWkBgvsP4CN0sMkBkXF30ID53,symmetry-judgement-task,69,439533,0.0-43.0-1.0-1.0-0.0,,,,,,,,,,1.0,1.0,,,,6173c5b0aa4bc2370fd2c1f2,13:49:30,06/03/2024
,"<p style=""color:green; font-size: 35px"">Correct</p>",,ospan,feedback,8SdDWkBgvsP4CN0sMkBkXF30ID53,html-keyboard-response,70,440294,0.0-43.0-1.0-1.0-1.0,,,,,,,,,,,,,,,6173c5b0aa4bc2370fd2c1f2,13:49:30,06/03/2024
3812.0,,,ospan,symmetry,8SdDWkBgvsP4CN0sMkBkXF30ID53,symmetry-judgement-task,71,446741,0.0-43.0-1.0-1.0-2.0,,,,,,,,,,1.0,1.0,,,,6173c5b0aa4bc2370fd2c1f2,13:49:30,06/03/2024
,"<p style=""color:green; font-size: 35px"">Correct</p>",,ospan,feedback,8SdDWkBgvsP4CN0sMkBkXF30ID53,html-keyboard-response,72,447509,0.0-43.0-1.0-1.0-3.0,,,,,,,,,,,,,,,6173c5b0aa4bc2370fd2c1f2,13:49:30,06/03/2024
2233.0,,,ospan,symmetry,8SdDWkBgvsP4CN0sMkBkXF30ID53,symmetry-judgement-task,73,452394,0.0-43.0-1.0-1.0-4.0,,,,,,,,,,1.0,1.0,,,,6173c5b0aa4bc2370fd2c1f2,13:49:30,06/03/2024
,"<p style=""color:green; font-size: 35px"">Correct</p>",,ospan,feedback,8SdDWkBgvsP4CN0sMkBkXF30ID53,html-keyboard-response,74,453159,0.0-43.0-1.0-1.0-5.0,,,,,,,,,,,,,,,6173c5b0aa4bc2370fd2c1f2,13:49:30,06/03/2024
7053.600000008941,"<p style=""font-size: 3rem;"">You responded correctly on 3 of 3 symmetry judgments. Good job!</p><br><br>",0,ospan,practice,8SdDWkBgvsP4CN0sMkBkXF30ID53,html-button-response,75,462221,0.0-43.0-1.0-2.0,,,,,,,,,,,,,,,6173c5b0aa4bc2370fd2c1f2,13:49:30,06/03/2024
12462.0,"<div class = 'left_align' style='font-size: 3.25rem; line-height: 1.3;'>Now you will practice doing both parts of the experiment at the same time.<br><br>In the next practice set, you will be given one grid picture to judge.<br>Then letter will appear on the screen. Try to remember the letter.<br><br>It is <b>very important</b> to make the symmetry judgment as quickly and accurately as possible.<br><br>Just as before, once you have make the symmetry judgment, you can click Yes or No.<br><b>Note that you will no longer see Correct or Incorrect feedback.</div><br><br><br><br>",0,ospan,instruct,8SdDWkBgvsP4CN0sMkBkXF30ID53,html-button-response,76,474949,0.0-43.0-2.0-0.0-0.0,,,,,,,,,,,,,,,6173c5b0aa4bc2370fd2c1f2,13:49:30,06/03/2024
3347.0999999940395,"<div class = 'left_align' style='font-size: 3.25rem; line-height: 1.3;'>After the letter goes away, another grid picture will appear, and then<br>another letter.<br><br>At the end of each set of letters and grids, you will recall the letters to the best<br>of your ability. Remember, try your best to get the letters in the correct order.<br><br>It is important to <b>quickly</b> and <b>accurately</b> make the symmetry judgments.</div><br><br><br><br>",0,ospan,instruct,8SdDWkBgvsP4CN0sMkBkXF30ID53,html-button-response,77,478557,0.0-43.0-2.0-0.0-1.0,,,,,,,,,,,,,,,6173c5b0aa4bc2370fd2c1f2,13:49:30,06/03/2024
18453.70000000298,"<div class = 'left_align' style='font-size: 3.25rem; line-height: 1.3;'>On the feedback screen, if you are not doing well at the symmetry judgments,<br>you will also see a warning in the middle. This indicates your percent <br>correct for the grid pictures for the entire experiment.<br><br>It is <b>very</b> important for you to keep accuracy at least at 85%: <u>We can only use<br>data where the participant was at least 85% accurate on the judgments.</u> Therefore,<br> please try your best to perform well on the symmetry judgments, <b>at the same time</b><br>doing your best to recall as many letters as possible.<br><br>Click the button to try some practice problems.</div><br><br><br><br>",0,ospan,instruct,8SdDWkBgvsP4CN0sMkBkXF30ID53,html-button-response,78,497276,0.0-43.0-2.0-0.0-2.0,,,,,,,,,,,,,,,6173c5b0aa4bc2370fd2c1f2,13:49:30,06/03/2024
,"<p style=""font-size:75px;"">...</p>",,ospan,iti,8SdDWkBgvsP4CN0sMkBkXF30ID53,html-keyboard-response,79,498532,0.0-43.0-2.0-1.0-0.0,,,,,,,,,,,,,,,6173c5b0aa4bc2370fd2c1f2,13:49:30,06/03/2024
2139.0,,,ospan,symmetry,8SdDWkBgvsP4CN0sMkBkXF30ID53,symmetry-judgement-task,80,501825,0.0-43.0-2.0-1.0-1.0-0.0,,,,,,,,,,1.0,1.0,,,,6173c5b0aa4bc2370fd2c1f2,13:49:30,06/03/2024
,"<div style=""font-size: 10rem; color: #0000FF"">Q</div>",,ospan,letter,8SdDWkBgvsP4CN0sMkBkXF30ID53,html-keyboard-response,81,502843,0.0-43.0-2.0-1.0-1.0-1.0,,,,,,,,,,,,,,,6173c5b0aa4bc2370fd2c1f2,13:49:30,06/03/2024
1819.0,,,ospan,symmetry,8SdDWkBgvsP4CN0sMkBkXF30ID53,symmetry-judgement-task,82,506569,0.0-43.0-2.0-1.0-1.0-2.0,,,,,,,,,,1.0,1.0,,,,6173c5b0aa4bc2370fd2c1f2,13:49:30,06/03/2024
,"<div style=""font-size: 10rem; color: #0000FF"">Y</div>",,ospan,letter,8SdDWkBgvsP4CN0sMkBkXF30ID53,html-keyboard-response,83,507573,0.0-43.0-2.0-1.0-1.0-3.0,,,,,,,,,,,,,,,6173c5b0aa4bc2370fd2c1f2,13:49:30,06/03/2024
1735.0,,,ospan,symmetry,8SdDWkBgvsP4CN0sMkBkXF30ID53,symmetry-judgement-task,84,511216,0.0-43.0-2.0-1.0-1.0-4.0,,,,,,,,,,1.0,1.0,,,,6173c5b0aa4bc2370fd2c1f2,13:49:30,06/03/2024
,"<div style=""font-size: 10rem; color: #0000FF"">R</div>",,ospan,letter,8SdDWkBgvsP4CN0sMkBkXF30ID53,html-keyboard-response,85,512218,0.0-43.0-2.0-1.0-1.0-5.0,,,,,,,,,,,,,,,6173c5b0aa4bc2370fd2c1f2,13:49:30,06/03/2024
6895.9000000059605,"<div class = numbox><p style=""font-size: 2.4rem"">Please recall the letters you saw to the best of your ability. If you do not remember a particular letter, use the SKIP button.<br><b>(When you are ready to lock in your answer, press ENTER)</b></p><button id = button_1 class = ""square num-button"" onclick = ""recordClick(this)""><div class = content><div class = numbers>C</div></div></button><button id = button_2 class = ""square num-button"" onclick = ""recordClick(this)""><div class = content><div class = numbers>G</div></div></button><button id = button_3 class = ""square num-button"" onclick = ""recordClick(this)""><div class = content><div class = numbers>H</div></div></button><button id = button_4 class = ""square num-button"" onclick = ""recordClick(this)""><div class = content><div class = numbers>J</div></div></button><button id = button_5 class = ""square num-button"" onclick = ""recordClick(this)""><div class = content><div class = numbers>K</div></div></button><button id = button_6 class = ""square num-button"" onclick = ""recordClick(this)""><div class = content><div class = numbers>L</div></div></button><button id = button_7 class = ""square num-button"" onclick = ""recordClick(this)""><div class = content><div class = numbers>N</div></div></button><button id = button_8 class = ""square num-button"" onclick = ""recordClick(this)""><div class = content><div class = numbers>P</div></div></button><button id = button_9 class = ""square num-button"" onclick = ""recordClick(this)""><div class = content><div class = numbers>Q</div></div></button><button id = button_10 class = ""square num-button"" onclick = ""recordClick(this)""><div class = content><div class = numbers>R</div></div></button><button id = button_11 class = ""square num-button"" onclick = ""recordClick(this)""><div class = content><div class = numbers>S</div></div></button><button id = button_12 class = ""square num-button"" onclick = ""recordClick(this)""><div class = content><div class = numbers>Y</div></div></button><button class = clear_button id = ""ClearButton"" onclick = ""clearResponse()"">BACKSPACE</button><button class = blank_button id = ""BlankButton"" onclick = ""blankResponse()"">SKIP</button><p style=""font-size: 2.4rem""><u><b>Current Answer:</b></u></p><br><br><div id=echoed_txt style=""font-size: 5rem; color:blue;""><b></b></div></div>",enter,ospan,retrieval,8SdDWkBgvsP4CN0sMkBkXF30ID53,html-keyboard-response,86,519880,0.0-43.0-2.0-1.0-2.0-0.0,NA,NA,NA,3.0,"[""Q"",""Y"",""R""]","[""Q"",""Y"",""R""]",1.0,3.0,"['<font color=""green"">Q</font>', '<font color=""green"">Y</font>', '<font color=""green"">R</font>']",,,,,,6173c5b0aa4bc2370fd2c1f2,13:49:30,06/03/2024
1582.0999999940395,"['<p style=""font-size:44px"">Letters:<br><br><br><font color=""green"">Q</font> <font color=""green"">Y</font> <font color=""green"">R</font></p><br><br><p style=""font-size:30px"">Symmetry:<br><br><font color=""green"">100%</font></p><br><br>']",0,ospan,practice_feedback,8SdDWkBgvsP4CN0sMkBkXF30ID53,html-button-response,87,521965,0.0-43.0-2.0-1.0-2.0-1.0,,,,,,,,,,,,,,,6173c5b0aa4bc2370fd2c1f2,13:49:30,06/03/2024
,"<p style=""font-size:75px;"">...</p>",,ospan,iti,8SdDWkBgvsP4CN0sMkBkXF30ID53,html-keyboard-response,88,522972,0.0-43.0-2.0-2.0-0.0,,,,,,,,,,,,,,,6173c5b0aa4bc2370fd2c1f2,13:49:30,06/03/2024
2259.0,,,ospan,symmetry,8SdDWkBgvsP4CN0sMkBkXF30ID53,symmetry-judgement-task,89,526365,0.0-43.0-2.0-2.0-1.0-0.0,,,,,,,,,,1.0,1.0,,,,6173c5b0aa4bc2370fd2c1f2,13:49:30,06/03/2024
,"<div style=""font-size: 10rem; color: #0000FF"">S</div>",,ospan,letter,8SdDWkBgvsP4CN0sMkBkXF30ID53,html-keyboard-response,90,527367,0.0-43.0-2.0-2.0-1.0-1.0,,,,,,,,,,,,,,,6173c5b0aa4bc2370fd2c1f2,13:49:30,06/03/2024
1292.0,,,ospan,symmetry,8SdDWkBgvsP4CN0sMkBkXF30ID53,symmetry-judgement-task,91,530550,0.0-43.0-2.0-2.0-1.0-2.0,,,,,,,,,,1.0,1.0,,,,6173c5b0aa4bc2370fd2c1f2,13:49:30,06/03/2024
,"<div style=""font-size: 10rem; color: #0000FF"">L</div>",,ospan,letter,8SdDWkBgvsP4CN0sMkBkXF30ID53,html-keyboard-response,92,531552,0.0-43.0-2.0-2.0-1.0-3.0,,,,,,,,,,,,,,,6173c5b0aa4bc2370fd2c1f2,13:49:30,06/03/2024
2899.0,,,ospan,symmetry,8SdDWkBgvsP4CN0sMkBkXF30ID53,symmetry-judgement-task,93,536367,0.0-43.0-2.0-2.0-1.0-4.0,,,,,,,,,,1.0,1.0,,,,6173c5b0aa4bc2370fd2c1f2,13:49:30,06/03/2024
,"<div style=""font-size: 10rem; color: #0000FF"">K</div>",,ospan,letter,8SdDWkBgvsP4CN0sMkBkXF30ID53,html-keyboard-response,94,537370,0.0-43.0-2.0-2.0-1.0-5.0,,,,,,,,,,,,,,,6173c5b0aa4bc2370fd2c1f2,13:49:30,06/03/2024
3842.2999999970198,"<div class = numbox><p style=""font-size: 2.4rem"">Please recall the letters you saw to the best of your ability. If you do not remember a particular letter, use the SKIP button.<br><b>(When you are ready to lock in your answer, press ENTER)</b></p><button id = button_1 class = ""square num-button"" onclick = ""recordClick(this)""><div class = content><div class = numbers>C</div></div></button><button id = button_2 class = ""square num-button"" onclick = ""recordClick(this)""><div class = content><div class = numbers>G</div></div></button><button id = button_3 class = ""square num-button"" onclick = ""recordClick(this)""><div class = content><div class = numbers>H</div></div></button><button id = button_4 class = ""square num-button"" onclick = ""recordClick(this)""><div class = content><div class = numbers>J</div></div></button><button id = button_5 class = ""square num-button"" onclick = ""recordClick(this)""><div class = content><div class = numbers>K</div></div></button><button id = button_6 class = ""square num-button"" onclick = ""recordClick(this)""><div class = content><div class = numbers>L</div></div></button><button id = button_7 class = ""square num-button"" onclick = ""recordClick(this)""><div class = content><div class = numbers>N</div></div></button><button id = button_8 class = ""square num-button"" onclick = ""recordClick(this)""><div class = content><div class = numbers>P</div></div></button><button id = button_9 class = ""square num-button"" onclick = ""recordClick(this)""><div class = content><div class = numbers>Q</div></div></button><button id = button_10 class = ""square num-button"" onclick = ""recordClick(this)""><div class = content><div class = numbers>R</div></div></button><button id = button_11 class = ""square num-button"" onclick = ""recordClick(this)""><div class = content><div class = numbers>S</div></div></button><button id = button_12 class = ""square num-button"" onclick = ""recordClick(this)""><div class = content><div class = numbers>Y</div></div></button><button class = clear_button id = ""ClearButton"" onclick = ""clearResponse()"">BACKSPACE</button><button class = blank_button id = ""BlankButton"" onclick = ""blankResponse()"">SKIP</button><p style=""font-size: 2.4rem""><u><b>Current Answer:</b></u></p><br><br><div id=echoed_txt style=""font-size: 5rem; color:blue;""><b></b></div></div>",enter,ospan,retrieval,8SdDWkBgvsP4CN0sMkBkXF30ID53,html-keyboard-response,95,541976,0.0-43.0-2.0-2.0-2.0-0.0,NA,NA,NA,3.0,"[""S"",""L"",""K""]","[""S"",""L"",""K""]",1.0,3.0,"['<font color=""green"">S</font>', '<font color=""green"">L</font>', '<font color=""green"">K</font>']",,,,,,6173c5b0aa4bc2370fd2c1f2,13:49:30,06/03/2024
8121.20000000298,"['<p style=""font-size:44px"">Letters:<br><br><br><font color=""green"">S</font> <font color=""green"">L</font> <font color=""green"">K</font></p><br><br><p style=""font-size:30px"">Symmetry:<br><br><font color=""green"">100%</font></p><br><br>']",0,ospan,practice_feedback,8SdDWkBgvsP4CN0sMkBkXF30ID53,html-button-response,96,550605,0.0-43.0-2.0-2.0-2.0-1.0,,,,,,,,,,,,,,,6173c5b0aa4bc2370fd2c1f2,13:49:30,06/03/2024
7213.79999999702,"<div class = 'left_align' style='font-size: 3rem; line-height: 1.3;'><b>Great work! That is the end of practice.</b><br><br>The real trials will look just like the practice trials you just completed.<br><br><u>Here, you will not see feedback</u>. First, you will see an grid picture to judge,<br>then a letter to remember. When the recall screen appears, report the letters in the<br>order presented. If you forget a letter, remember to use the <b>blank</b> button to move to the<br>next letter. Some of the sets will have more symmetry grids and letters than others.<br><br>It is important that you do your best on both the symmetry judgments and the letter recall<br>parts of the experiment. For for the symmetry judgments, try to work as <b>quickly</b> and <br>as <b>accurately</b> as possible. Remember to keep your symmetry accuracy at 85% or above.<br><br><b>For the letters, do NOT use any external aid (e.g., writing on paper, electronic device).</b><br><br>It is <u>very important</u> to our experiment to have a <b>true</b> view of your real performance.<br><br>Do not worry if you miss some when it gets hard! This task is meant to be very challenging!<br><br>Click the button to begin.</div><br><br><br><br>",0,ospan,starting_real_here,8SdDWkBgvsP4CN0sMkBkXF30ID53,html-button-response,97,557820,0.0-43.0-2.0-3.0,,,,,,,,,,,,,,,6173c5b0aa4bc2370fd2c1f2,13:49:30,06/03/2024
,"<p style=""font-size:75px;"">...</p>",,ospan,iti,8SdDWkBgvsP4CN0sMkBkXF30ID53,html-keyboard-response,98,559080,0.0-43.0-3.0-0.0-0.0,,,,,,,,,,,,,,,6173c5b0aa4bc2370fd2c1f2,13:49:30,06/03/2024
3287.0,,,ospan,symmetry,8SdDWkBgvsP4CN0sMkBkXF30ID53,symmetry-judgement-task,99,563502,0.0-43.0-3.0-0.0-1.0-0.0,,,,,,,,,,1.0,1.0,,,,6173c5b0aa4bc2370fd2c1f2,13:49:30,06/03/2024
,"<div style=""font-size: 10rem; color: #0000FF"">Y</div>",,ospan,letter,8SdDWkBgvsP4CN0sMkBkXF30ID53,html-keyboard-response,100,564518,0.0-43.0-3.0-0.0-1.0-1.0,,,,,,,,,,,,,,,6173c5b0aa4bc2370fd2c1f2,13:49:30,06/03/2024
1367.0,,,ospan,symmetry,8SdDWkBgvsP4CN0sMkBkXF30ID53,symmetry-judgement-task,101,567797,0.0-43.0-3.0-0.0-1.0-2.0,,,,,,,,,,1.0,1.0,,,,6173c5b0aa4bc2370fd2c1f2,13:49:30,06/03/2024
,"<div style=""font-size: 10rem; color: #0000FF"">H</div>",,ospan,letter,8SdDWkBgvsP4CN0sMkBkXF30ID53,html-keyboard-response,102,568801,0.0-43.0-3.0-0.0-1.0-3.0,,,,,,,,,,,,,,,6173c5b0aa4bc2370fd2c1f2,13:49:30,06/03/2024
1409.0,,,ospan,symmetry,8SdDWkBgvsP4CN0sMkBkXF30ID53,symmetry-judgement-task,103,572121,0.0-43.0-3.0-0.0-1.0-4.0,,,,,,,,,,1.0,1.0,,,,6173c5b0aa4bc2370fd2c1f2,13:49:30,06/03/2024
,"<div style=""font-size: 10rem; color: #0000FF"">K</div>",,ospan,letter,8SdDWkBgvsP4CN0sMkBkXF30ID53,html-keyboard-response,104,573123,0.0-43.0-3.0-0.0-1.0-5.0,,,,,,,,,,,,,,,6173c5b0aa4bc2370fd2c1f2,13:49:30,06/03/2024
4073.2999999970198,"<div class = numbox><p style=""font-size: 2.4rem"">Please recall the letters you saw to the best of your ability. If you do not remember a particular letter, use the SKIP button.<br><b>(When you are ready to lock in your answer, press ENTER)</b></p><button id = button_1 class = ""square num-button"" onclick = ""recordClick(this)""><div class = content><div class = numbers>C</div></div></button><button id = button_2 class = ""square num-button"" onclick = ""recordClick(this)""><div class = content><div class = numbers>G</div></div></button><button id = button_3 class = ""square num-button"" onclick = ""recordClick(this)""><div class = content><div class = numbers>H</div></div></button><button id = button_4 class = ""square num-button"" onclick = ""recordClick(this)""><div class = content><div class = numbers>J</div></div></button><button id = button_5 class = ""square num-button"" onclick = ""recordClick(this)""><div class = content><div class = numbers>K</div></div></button><button id = button_6 class = ""square num-button"" onclick = ""recordClick(this)""><div class = content><div class = numbers>L</div></div></button><button id = button_7 class = ""square num-button"" onclick = ""recordClick(this)""><div class = content><div class = numbers>N</div></div></button><button id = button_8 class = ""square num-button"" onclick = ""recordClick(this)""><div class = content><div class = numbers>P</div></div></button><button id = button_9 class = ""square num-button"" onclick = ""recordClick(this)""><div class = content><div class = numbers>Q</div></div></button><button id = button_10 class = ""square num-button"" onclick = ""recordClick(this)""><div class = content><div class = numbers>R</div></div></button><button id = button_11 class = ""square num-button"" onclick = ""recordClick(this)""><div class = content><div class = numbers>S</div></div></button><button id = button_12 class = ""square num-button"" onclick = ""recordClick(this)""><div class = content><div class = numbers>Y</div></div></button><button class = clear_button id = ""ClearButton"" onclick = ""clearResponse()"">BACKSPACE</button><button class = blank_button id = ""BlankButton"" onclick = ""blankResponse()"">SKIP</button><p style=""font-size: 2.4rem""><u><b>Current Answer:</b></u></p><br><br><div id=echoed_txt style=""font-size: 5rem; color:blue;""><b></b></div></div>",enter,ospan,retrieval,8SdDWkBgvsP4CN0sMkBkXF30ID53,html-keyboard-response,105,577952,0.0-43.0-3.0-0.0-2.0,3,3,3,3.0,"[""Y"",""H"",""K""]","[""Y"",""H"",""K""]",1.0,3.0,,,,,,,6173c5b0aa4bc2370fd2c1f2,13:49:30,06/03/2024
2245.9000000059605,[''],0,ospan,feedback,8SdDWkBgvsP4CN0sMkBkXF30ID53,html-button-response,106,580709,0.0-43.0-3.0-0.0-3.0,,,,,,,,,,,,100.0,0.0,,6173c5b0aa4bc2370fd2c1f2,13:49:30,06/03/2024
,"<p style=""font-size:75px;"">...</p>",,ospan,iti,8SdDWkBgvsP4CN0sMkBkXF30ID53,html-keyboard-response,107,581714,0.0-43.0-4.0-0.0-0.0,,,,,,,,,,,,,,,6173c5b0aa4bc2370fd2c1f2,13:49:30,06/03/2024
2814.0,,,ospan,symmetry,8SdDWkBgvsP4CN0sMkBkXF30ID53,symmetry-judgement-task,108,585676,0.0-43.0-4.0-0.0-1.0-0.0,,,,,,,,,,1.0,1.0,,,,6173c5b0aa4bc2370fd2c1f2,13:49:30,06/03/2024
,"<div style=""font-size: 10rem; color: #0000FF"">C</div>",,ospan,letter,8SdDWkBgvsP4CN0sMkBkXF30ID53,html-keyboard-response,109,586683,0.0-43.0-4.0-0.0-1.0-1.0,,,,,,,,,,,,,,,6173c5b0aa4bc2370fd2c1f2,13:49:30,06/03/2024
1799.0,,,ospan,symmetry,8SdDWkBgvsP4CN0sMkBkXF30ID53,symmetry-judgement-task,110,590389,0.0-43.0-4.0-0.0-1.0-2.0,,,,,,,,,,1.0,1.0,,,,6173c5b0aa4bc2370fd2c1f2,13:49:30,06/03/2024
,"<div style=""font-size: 10rem; color: #0000FF"">J</div>",,ospan,letter,8SdDWkBgvsP4CN0sMkBkXF30ID53,html-keyboard-response,111,591394,0.0-43.0-4.0-0.0-1.0-3.0,,,,,,,,,,,,,,,6173c5b0aa4bc2370fd2c1f2,13:49:30,06/03/2024
2740.0,,,ospan,symmetry,8SdDWkBgvsP4CN0sMkBkXF30ID53,symmetry-judgement-task,112,596040,0.0-43.0-4.0-0.0-1.0-4.0,,,,,,,,,,1.0,1.0,,,,6173c5b0aa4bc2370fd2c1f2,13:49:30,06/03/2024
,"<div style=""font-size: 10rem; color: #0000FF"">H</div>",,ospan,letter,8SdDWkBgvsP4CN0sMkBkXF30ID53,html-keyboard-response,113,597046,0.0-43.0-4.0-0.0-1.0-5.0,,,,,,,,,,,,,,,6173c5b0aa4bc2370fd2c1f2,13:49:30,06/03/2024
1578.0,,,ospan,symmetry,8SdDWkBgvsP4CN0sMkBkXF30ID53,symmetry-judgement-task,114,600529,0.0-43.0-4.0-0.0-1.0-6.0,,,,,,,,,,1.0,1.0,,,,6173c5b0aa4bc2370fd2c1f2,13:49:30,06/03/2024
,"<div style=""font-size: 10rem; color: #0000FF"">P</div>",,ospan,letter,8SdDWkBgvsP4CN0sMkBkXF30ID53,html-keyboard-response,115,601544,0.0-43.0-4.0-0.0-1.0-7.0,,,,,,,,,,,,,,,6173c5b0aa4bc2370fd2c1f2,13:49:30,06/03/2024
3868.0,"<div class = numbox><p style=""font-size: 2.4rem"">Please recall the letters you saw to the best of your ability. If you do not remember a particular letter, use the SKIP button.<br><b>(When you are ready to lock in your answer, press ENTER)</b></p><button id = button_1 class = ""square num-button"" onclick = ""recordClick(this)""><div class = content><div class = numbers>C</div></div></button><button id = button_2 class = ""square num-button"" onclick = ""recordClick(this)""><div class = content><div class = numbers>G</div></div></button><button id = button_3 class = ""square num-button"" onclick = ""recordClick(this)""><div class = content><div class = numbers>H</div></div></button><button id = button_4 class = ""square num-button"" onclick = ""recordClick(this)""><div class = content><div class = numbers>J</div></div></button><button id = button_5 class = ""square num-button"" onclick = ""recordClick(this)""><div class = content><div class = numbers>K</div></div></button><button id = button_6 class = ""square num-button"" onclick = ""recordClick(this)""><div class = content><div class = numbers>L</div></div></button><button id = button_7 class = ""square num-button"" onclick = ""recordClick(this)""><div class = content><div class = numbers>N</div></div></button><button id = button_8 class = ""square num-button"" onclick = ""recordClick(this)""><div class = content><div class = numbers>P</div></div></button><button id = button_9 class = ""square num-button"" onclick = ""recordClick(this)""><div class = content><div class = numbers>Q</div></div></button><button id = button_10 class = ""square num-button"" onclick = ""recordClick(this)""><div class = content><div class = numbers>R</div></div></button><button id = button_11 class = ""square num-button"" onclick = ""recordClick(this)""><div class = content><div class = numbers>S</div></div></button><button id = button_12 class = ""square num-button"" onclick = ""recordClick(this)""><div class = content><div class = numbers>Y</div></div></button><button class = clear_button id = ""ClearButton"" onclick = ""clearResponse()"">BACKSPACE</button><button class = blank_button id = ""BlankButton"" onclick = ""blankResponse()"">SKIP</button><p style=""font-size: 2.4rem""><u><b>Current Answer:</b></u></p><br><br><div id=echoed_txt style=""font-size: 5rem; color:blue;""><b></b></div></div>",enter,ospan,retrieval,8SdDWkBgvsP4CN0sMkBkXF30ID53,html-keyboard-response,116,606177,0.0-43.0-4.0-0.0-2.0,7,7,7,4.0,"[""C"",""J"",""H"",""P""]","[""C"",""J"",""H"",""P""]",1.0,4.0,,,,,,,6173c5b0aa4bc2370fd2c1f2,13:49:30,06/03/2024
979.8999999910593,[''],0,ospan,feedback,8SdDWkBgvsP4CN0sMkBkXF30ID53,html-button-response,117,607676,0.0-43.0-4.0-0.0-3.0,,,,,,,,,,,,100.0,0.0,,6173c5b0aa4bc2370fd2c1f2,13:49:30,06/03/2024
,"<p style=""font-size:75px;"">...</p>",,ospan,iti,8SdDWkBgvsP4CN0sMkBkXF30ID53,html-keyboard-response,118,608697,0.0-43.0-4.0-1.0-0.0,,,,,,,,,,,,,,,6173c5b0aa4bc2370fd2c1f2,13:49:30,06/03/2024
7765.0,,,ospan,symmetry,8SdDWkBgvsP4CN0sMkBkXF30ID53,symmetry-judgement-task,119,617595,0.0-43.0-4.0-1.0-1.0-0.0,,,,,,,,,,1.0,1.0,,,,6173c5b0aa4bc2370fd2c1f2,13:49:30,06/03/2024
,"<div style=""font-size: 10rem; color: #0000FF"">R</div>",,ospan,letter,8SdDWkBgvsP4CN0sMkBkXF30ID53,html-keyboard-response,120,618615,0.0-43.0-4.0-1.0-1.0-1.0,,,,,,,,,,,,,,,6173c5b0aa4bc2370fd2c1f2,13:49:30,06/03/2024
1968.0,,,ospan,symmetry,8SdDWkBgvsP4CN0sMkBkXF30ID53,symmetry-judgement-task,121,622478,0.0-43.0-4.0-1.0-1.0-2.0,,,,,,,,,,1.0,1.0,,,,6173c5b0aa4bc2370fd2c1f2,13:49:30,06/03/2024
,"<div style=""font-size: 10rem; color: #0000FF"">P</div>",,ospan,letter,8SdDWkBgvsP4CN0sMkBkXF30ID53,html-keyboard-response,122,623493,0.0-43.0-4.0-1.0-1.0-3.0,,,,,,,,,,,,,,,6173c5b0aa4bc2370fd2c1f2,13:49:30,06/03/2024
1465.0,,,ospan,symmetry,8SdDWkBgvsP4CN0sMkBkXF30ID53,symmetry-judgement-task,123,626845,0.0-43.0-4.0-1.0-1.0-4.0,,,,,,,,,,1.0,1.0,,,,6173c5b0aa4bc2370fd2c1f2,13:49:30,06/03/2024
,"<div style=""font-size: 10rem; color: #0000FF"">L</div>",,ospan,letter,8SdDWkBgvsP4CN0sMkBkXF30ID53,html-keyboard-response,124,627855,0.0-43.0-4.0-1.0-1.0-5.0,,,,,,,,,,,,,,,6173c5b0aa4bc2370fd2c1f2,13:49:30,06/03/2024
3326.0,,,ospan,symmetry,8SdDWkBgvsP4CN0sMkBkXF30ID53,symmetry-judgement-task,125,633095,0.0-43.0-4.0-1.0-1.0-6.0,,,,,,,,,,1.0,1.0,,,,6173c5b0aa4bc2370fd2c1f2,13:49:30,06/03/2024
,"<div style=""font-size: 10rem; color: #0000FF"">N</div>",,ospan,letter,8SdDWkBgvsP4CN0sMkBkXF30ID53,html-keyboard-response,126,634110,0.0-43.0-4.0-1.0-1.0-7.0,,,,,,,,,,,,,,,6173c5b0aa4bc2370fd2c1f2,13:49:30,06/03/2024
3432.0,,,ospan,symmetry,8SdDWkBgvsP4CN0sMkBkXF30ID53,symmetry-judgement-task,127,639444,0.0-43.0-4.0-1.0-1.0-8.0,,,,,,,,,,1.0,1.0,,,,6173c5b0aa4bc2370fd2c1f2,13:49:30,06/03/2024
,"<div style=""font-size: 10rem; color: #0000FF"">G</div>",,ospan,letter,8SdDWkBgvsP4CN0sMkBkXF30ID53,html-keyboard-response,128,640460,0.0-43.0-4.0-1.0-1.0-9.0,,,,,,,,,,,,,,,6173c5b0aa4bc2370fd2c1f2,13:49:30,06/03/2024
3383.5,"<div class = numbox><p style=""font-size: 2.4rem"">Please recall the letters you saw to the best of your ability. If you do not remember a particular letter, use the SKIP button.<br><b>(When you are ready to lock in your answer, press ENTER)</b></p><button id = button_1 class = ""square num-button"" onclick = ""recordClick(this)""><div class = content><div class = numbers>C</div></div></button><button id = button_2 class = ""square num-button"" onclick = ""recordClick(this)""><div class = content><div class = numbers>G</div></div></button><button id = button_3 class = ""square num-button"" onclick = ""recordClick(this)""><div class = content><div class = numbers>H</div></div></button><button id = button_4 class = ""square num-button"" onclick = ""recordClick(this)""><div class = content><div class = numbers>J</div></div></button><button id = button_5 class = ""square num-button"" onclick = ""recordClick(this)""><div class = content><div class = numbers>K</div></div></button><button id = button_6 class = ""square num-button"" onclick = ""recordClick(this)""><div class = content><div class = numbers>L</div></div></button><button id = button_7 class = ""square num-button"" onclick = ""recordClick(this)""><div class = content><div class = numbers>N</div></div></button><button id = button_8 class = ""square num-button"" onclick = ""recordClick(this)""><div class = content><div class = numbers>P</div></div></button><button id = button_9 class = ""square num-button"" onclick = ""recordClick(this)""><div class = content><div class = numbers>Q</div></div></button><button id = button_10 class = ""square num-button"" onclick = ""recordClick(this)""><div class = content><div class = numbers>R</div></div></button><button id = button_11 class = ""square num-button"" onclick = ""recordClick(this)""><div class = content><div class = numbers>S</div></div></button><button id = button_12 class = ""square num-button"" onclick = ""recordClick(this)""><div class = content><div class = numbers>Y</div></div></button><button class = clear_button id = ""ClearButton"" onclick = ""clearResponse()"">BACKSPACE</button><button class = blank_button id = ""BlankButton"" onclick = ""blankResponse()"">SKIP</button><p style=""font-size: 2.4rem""><u><b>Current Answer:</b></u></p><br><br><div id=echoed_txt style=""font-size: 5rem; color:blue;""><b></b></div></div>",enter,ospan,retrieval,8SdDWkBgvsP4CN0sMkBkXF30ID53,html-keyboard-response,129,644599,0.0-43.0-4.0-1.0-2.0,12,12,12,5.0,"[""R"",""P"",""L"",""N"",""G""]","[""R"",""P"",""L"",""N"",""G""]",1.0,5.0,,,,,,,6173c5b0aa4bc2370fd2c1f2,13:49:30,06/03/2024
728.7999999970198,[''],0,ospan,feedback,8SdDWkBgvsP4CN0sMkBkXF30ID53,html-button-response,130,645850,0.0-43.0-4.0-1.0-3.0,,,,,,,,,,,,100.0,0.0,,6173c5b0aa4bc2370fd2c1f2,13:49:30,06/03/2024
,"<p style=""font-size:75px;"">...</p>",,ospan,iti,8SdDWkBgvsP4CN0sMkBkXF30ID53,html-keyboard-response,131,646859,0.0-43.0-4.0-2.0-0.0,,,,,,,,,,,,,,,6173c5b0aa4bc2370fd2c1f2,13:49:30,06/03/2024
3263.0,,,ospan,symmetry,8SdDWkBgvsP4CN0sMkBkXF30ID53,symmetry-judgement-task,132,651250,0.0-43.0-4.0-2.0-1.0-0.0,,,,,,,,,,1.0,1.0,,,,6173c5b0aa4bc2370fd2c1f2,13:49:30,06/03/2024
,"<div style=""font-size: 10rem; color: #0000FF"">R</div>",,ospan,letter,8SdDWkBgvsP4CN0sMkBkXF30ID53,html-keyboard-response,133,652252,0.0-43.0-4.0-2.0-1.0-1.0,,,,,,,,,,,,,,,6173c5b0aa4bc2370fd2c1f2,13:49:30,06/03/2024
2433.0,,,ospan,symmetry,8SdDWkBgvsP4CN0sMkBkXF30ID53,symmetry-judgement-task,134,656588,0.0-43.0-4.0-2.0-1.0-2.0,,,,,,,,,,1.0,1.0,,,,6173c5b0aa4bc2370fd2c1f2,13:49:30,06/03/2024
,"<div style=""font-size: 10rem; color: #0000FF"">S</div>",,ospan,letter,8SdDWkBgvsP4CN0sMkBkXF30ID53,html-keyboard-response,135,657590,0.0-43.0-4.0-2.0-1.0-3.0,,,,,,,,,,,,,,,6173c5b0aa4bc2370fd2c1f2,13:49:30,06/03/2024
2096.0,,,ospan,symmetry,8SdDWkBgvsP4CN0sMkBkXF30ID53,symmetry-judgement-task,136,661592,0.0-43.0-4.0-2.0-1.0-4.0,,,,,,,,,,1.0,1.0,,,,6173c5b0aa4bc2370fd2c1f2,13:49:30,06/03/2024
,"<div style=""font-size: 10rem; color: #0000FF"">J</div>",,ospan,letter,8SdDWkBgvsP4CN0sMkBkXF30ID53,html-keyboard-response,137,662605,0.0-43.0-4.0-2.0-1.0-5.0,,,,,,,,,,,,,,,6173c5b0aa4bc2370fd2c1f2,13:49:30,06/03/2024
3412.2000000029802,"<div class = numbox><p style=""font-size: 2.4rem"">Please recall the letters you saw to the best of your ability. If you do not remember a particular letter, use the SKIP button.<br><b>(When you are ready to lock in your answer, press ENTER)</b></p><button id = button_1 class = ""square num-button"" onclick = ""recordClick(this)""><div class = content><div class = numbers>C</div></div></button><button id = button_2 class = ""square num-button"" onclick = ""recordClick(this)""><div class = content><div class = numbers>G</div></div></button><button id = button_3 class = ""square num-button"" onclick = ""recordClick(this)""><div class = content><div class = numbers>H</div></div></button><button id = button_4 class = ""square num-button"" onclick = ""recordClick(this)""><div class = content><div class = numbers>J</div></div></button><button id = button_5 class = ""square num-button"" onclick = ""recordClick(this)""><div class = content><div class = numbers>K</div></div></button><button id = button_6 class = ""square num-button"" onclick = ""recordClick(this)""><div class = content><div class = numbers>L</div></div></button><button id = button_7 class = ""square num-button"" onclick = ""recordClick(this)""><div class = content><div class = numbers>N</div></div></button><button id = button_8 class = ""square num-button"" onclick = ""recordClick(this)""><div class = content><div class = numbers>P</div></div></button><button id = button_9 class = ""square num-button"" onclick = ""recordClick(this)""><div class = content><div class = numbers>Q</div></div></button><button id = button_10 class = ""square num-button"" onclick = ""recordClick(this)""><div class = content><div class = numbers>R</div></div></button><button id = button_11 class = ""square num-button"" onclick = ""recordClick(this)""><div class = content><div class = numbers>S</div></div></button><button id = button_12 class = ""square num-button"" onclick = ""recordClick(this)""><div class = content><div class = numbers>Y</div></div></button><button class = clear_button id = ""ClearButton"" onclick = ""clearResponse()"">BACKSPACE</button><button class = blank_button id = ""BlankButton"" onclick = ""blankResponse()"">SKIP</button><p style=""font-size: 2.4rem""><u><b>Current Answer:</b></u></p><br><br><div id=echoed_txt style=""font-size: 5rem; color:blue;""><b></b></div></div>",enter,ospan,retrieval,8SdDWkBgvsP4CN0sMkBkXF30ID53,html-keyboard-response,138,666773,0.0-43.0-4.0-2.0-2.0,15,15,15,3.0,"[""R"",""S"",""J""]","[""R"",""S"",""J""]",1.0,3.0,,,,,,,6173c5b0aa4bc2370fd2c1f2,13:49:30,06/03/2024
862.7999999970198,[''],0,ospan,feedback,8SdDWkBgvsP4CN0sMkBkXF30ID53,html-button-response,139,668146,0.0-43.0-4.0-2.0-3.0,,,,,,,,,,,,100.0,0.0,,6173c5b0aa4bc2370fd2c1f2,13:49:30,06/03/2024
,"<p style=""font-size:75px;"">...</p>",,ospan,iti,8SdDWkBgvsP4CN0sMkBkXF30ID53,html-keyboard-response,140,669155,0.0-43.0-5.0-0.0-0.0,,,,,,,,,,,,,,,6173c5b0aa4bc2370fd2c1f2,13:49:30,06/03/2024
2182.0,,,ospan,symmetry,8SdDWkBgvsP4CN0sMkBkXF30ID53,symmetry-judgement-task,141,672380,0.0-43.0-5.0-0.0-1.0-0.0,,,,,,,,,,1.0,1.0,,,,6173c5b0aa4bc2370fd2c1f2,13:49:30,06/03/2024
,"<div style=""font-size: 10rem; color: #0000FF"">P</div>",,ospan,letter,8SdDWkBgvsP4CN0sMkBkXF30ID53,html-keyboard-response,142,673391,0.0-43.0-5.0-0.0-1.0-1.0,,,,,,,,,,,,,,,6173c5b0aa4bc2370fd2c1f2,13:49:30,06/03/2024
1714.0,,,ospan,symmetry,8SdDWkBgvsP4CN0sMkBkXF30ID53,symmetry-judgement-task,143,677002,0.0-43.0-5.0-0.0-1.0-2.0,,,,,,,,,,1.0,1.0,,,,6173c5b0aa4bc2370fd2c1f2,13:49:30,06/03/2024
,"<div style=""font-size: 10rem; color: #0000FF"">C</div>",,ospan,letter,8SdDWkBgvsP4CN0sMkBkXF30ID53,html-keyboard-response,144,678003,0.0-43.0-5.0-0.0-1.0-3.0,,,,,,,,,,,,,,,6173c5b0aa4bc2370fd2c1f2,13:49:30,06/03/2024
1362.0,,,ospan,symmetry,8SdDWkBgvsP4CN0sMkBkXF30ID53,symmetry-judgement-task,145,681251,0.0-43.0-5.0-0.0-1.0-4.0,,,,,,,,,,1.0,1.0,,,,6173c5b0aa4bc2370fd2c1f2,13:49:30,06/03/2024
,"<div style=""font-size: 10rem; color: #0000FF"">G</div>",,ospan,letter,8SdDWkBgvsP4CN0sMkBkXF30ID53,html-keyboard-response,146,682255,0.0-43.0-5.0-0.0-1.0-5.0,,,,,,,,,,,,,,,6173c5b0aa4bc2370fd2c1f2,13:49:30,06/03/2024
2371.0,,,ospan,symmetry,8SdDWkBgvsP4CN0sMkBkXF30ID53,symmetry-judgement-task,147,686530,0.0-43.0-5.0-0.0-1.0-6.0,,,,,,,,,,1.0,1.0,,,,6173c5b0aa4bc2370fd2c1f2,13:49:30,06/03/2024
,"<div style=""font-size: 10rem; color: #0000FF"">Y</div>",,ospan,letter,8SdDWkBgvsP4CN0sMkBkXF30ID53,html-keyboard-response,148,687550,0.0-43.0-5.0-0.0-1.0-7.0,,,,,,,,,,,,,,,6173c5b0aa4bc2370fd2c1f2,13:49:30,06/03/2024
2301.0,,,ospan,symmetry,8SdDWkBgvsP4CN0sMkBkXF30ID53,symmetry-judgement-task,149,691757,0.0-43.0-5.0-0.0-1.0-8.0,,,,,,,,,,1.0,1.0,,,,6173c5b0aa4bc2370fd2c1f2,13:49:30,06/03/2024
,"<div style=""font-size: 10rem; color: #0000FF"">K</div>",,ospan,letter,8SdDWkBgvsP4CN0sMkBkXF30ID53,html-keyboard-response,150,692759,0.0-43.0-5.0-0.0-1.0-9.0,,,,,,,,,,,,,,,6173c5b0aa4bc2370fd2c1f2,13:49:30,06/03/2024
2893.0,,,ospan,symmetry,8SdDWkBgvsP4CN0sMkBkXF30ID53,symmetry-judgement-task,151,697553,0.0-43.0-5.0-0.0-1.0-10.0,,,,,,,,,,1.0,1.0,,,,6173c5b0aa4bc2370fd2c1f2,13:49:30,06/03/2024
,"<div style=""font-size: 10rem; color: #0000FF"">L</div>",,ospan,letter,8SdDWkBgvsP4CN0sMkBkXF30ID53,html-keyboard-response,152,698558,0.0-43.0-5.0-0.0-1.0-11.0,,,,,,,,,,,,,,,6173c5b0aa4bc2370fd2c1f2,13:49:30,06/03/2024
6532.20000000298,"<div class = numbox><p style=""font-size: 2.4rem"">Please recall the letters you saw to the best of your ability. If you do not remember a particular letter, use the SKIP button.<br><b>(When you are ready to lock in your answer, press ENTER)</b></p><button id = button_1 class = ""square num-button"" onclick = ""recordClick(this)""><div class = content><div class = numbers>C</div></div></button><button id = button_2 class = ""square num-button"" onclick = ""recordClick(this)""><div class = content><div class = numbers>G</div></div></button><button id = button_3 class = ""square num-button"" onclick = ""recordClick(this)""><div class = content><div class = numbers>H</div></div></button><button id = button_4 class = ""square num-button"" onclick = ""recordClick(this)""><div class = content><div class = numbers>J</div></div></button><button id = button_5 class = ""square num-button"" onclick = ""recordClick(this)""><div class = content><div class = numbers>K</div></div></button><button id = button_6 class = ""square num-button"" onclick = ""recordClick(this)""><div class = content><div class = numbers>L</div></div></button><button id = button_7 class = ""square num-button"" onclick = ""recordClick(this)""><div class = content><div class = numbers>N</div></div></button><button id = button_8 class = ""square num-button"" onclick = ""recordClick(this)""><div class = content><div class = numbers>P</div></div></button><button id = button_9 class = ""square num-button"" onclick = ""recordClick(this)""><div class = content><div class = numbers>Q</div></div></button><button id = button_10 class = ""square num-button"" onclick = ""recordClick(this)""><div class = content><div class = numbers>R</div></div></button><button id = button_11 class = ""square num-button"" onclick = ""recordClick(this)""><div class = content><div class = numbers>S</div></div></button><button id = button_12 class = ""square num-button"" onclick = ""recordClick(this)""><div class = content><div class = numbers>Y</div></div></button><button class = clear_button id = ""ClearButton"" onclick = ""clearResponse()"">BACKSPACE</button><button class = blank_button id = ""BlankButton"" onclick = ""blankResponse()"">SKIP</button><p style=""font-size: 2.4rem""><u><b>Current Answer:</b></u></p><br><br><div id=echoed_txt style=""font-size: 5rem; color:blue;""><b></b></div></div>",enter,ospan,retrieval,8SdDWkBgvsP4CN0sMkBkXF30ID53,html-keyboard-response,153,705847,0.0-43.0-5.0-0.0-2.0,21,21,21,6.0,"[""P"",""C"",""G"",""Y"",""K"",""L""]","[""P"",""C"",""G"",""Y"",""K"",""L""]",1.0,6.0,,,,,,,6173c5b0aa4bc2370fd2c1f2,13:49:30,06/03/2024
6007.0,[''],0,ospan,feedback,8SdDWkBgvsP4CN0sMkBkXF30ID53,html-button-response,154,712357,0.0-43.0-5.0-0.0-3.0,,,,,,,,,,,,100.0,0.0,,6173c5b0aa4bc2370fd2c1f2,13:49:30,06/03/2024
,"<p style=""font-size:75px;"">...</p>",,ospan,iti,8SdDWkBgvsP4CN0sMkBkXF30ID53,html-keyboard-response,155,713360,0.0-43.0-5.0-1.0-0.0,,,,,,,,,,,,,,,6173c5b0aa4bc2370fd2c1f2,13:49:30,06/03/2024
2209.0,,,ospan,symmetry,8SdDWkBgvsP4CN0sMkBkXF30ID53,symmetry-judgement-task,156,716726,0.0-43.0-5.0-1.0-1.0-0.0,,,,,,,,,,1.0,1.0,,,,6173c5b0aa4bc2370fd2c1f2,13:49:30,06/03/2024
,"<div style=""font-size: 10rem; color: #0000FF"">L</div>",,ospan,letter,8SdDWkBgvsP4CN0sMkBkXF30ID53,html-keyboard-response,157,717749,0.0-43.0-5.0-1.0-1.0-1.0,,,,,,,,,,,,,,,6173c5b0aa4bc2370fd2c1f2,13:49:30,06/03/2024
1693.0,,,ospan,symmetry,8SdDWkBgvsP4CN0sMkBkXF30ID53,symmetry-judgement-task,158,721358,0.0-43.0-5.0-1.0-1.0-2.0,,,,,,,,,,1.0,1.0,,,,6173c5b0aa4bc2370fd2c1f2,13:49:30,06/03/2024
,"<div style=""font-size: 10rem; color: #0000FF"">N</div>",,ospan,letter,8SdDWkBgvsP4CN0sMkBkXF30ID53,html-keyboard-response,159,722360,0.0-43.0-5.0-1.0-1.0-3.0,,,,,,,,,,,,,,,6173c5b0aa4bc2370fd2c1f2,13:49:30,06/03/2024
1700.0,,,ospan,symmetry,8SdDWkBgvsP4CN0sMkBkXF30ID53,symmetry-judgement-task,160,725943,0.0-43.0-5.0-1.0-1.0-4.0,,,,,,,,,,1.0,1.0,,,,6173c5b0aa4bc2370fd2c1f2,13:49:30,06/03/2024
,"<div style=""font-size: 10rem; color: #0000FF"">Q</div>",,ospan,letter,8SdDWkBgvsP4CN0sMkBkXF30ID53,html-keyboard-response,161,726949,0.0-43.0-5.0-1.0-1.0-5.0,,,,,,,,,,,,,,,6173c5b0aa4bc2370fd2c1f2,13:49:30,06/03/2024
1271.0,,,ospan,symmetry,8SdDWkBgvsP4CN0sMkBkXF30ID53,symmetry-judgement-task,162,730115,0.0-43.0-5.0-1.0-1.0-6.0,,,,,,,,,,1.0,1.0,,,,6173c5b0aa4bc2370fd2c1f2,13:49:30,06/03/2024
,"<div style=""font-size: 10rem; color: #0000FF"">G</div>",,ospan,letter,8SdDWkBgvsP4CN0sMkBkXF30ID53,html-keyboard-response,163,731117,0.0-43.0-5.0-1.0-1.0-7.0,,,,,,,,,,,,,,,6173c5b0aa4bc2370fd2c1f2,13:49:30,06/03/2024
940.0,,,ospan,symmetry,8SdDWkBgvsP4CN0sMkBkXF30ID53,symmetry-judgement-task,164,733959,0.0-43.0-5.0-1.0-1.0-8.0,,,,,,,,,,1.0,1.0,,,,6173c5b0aa4bc2370fd2c1f2,13:49:30,06/03/2024
,"<div style=""font-size: 10rem; color: #0000FF"">P</div>",,ospan,letter,8SdDWkBgvsP4CN0sMkBkXF30ID53,html-keyboard-response,165,734973,0.0-43.0-5.0-1.0-1.0-9.0,,,,,,,,,,,,,,,6173c5b0aa4bc2370fd2c1f2,13:49:30,06/03/2024
1537.0,,,ospan,symmetry,8SdDWkBgvsP4CN0sMkBkXF30ID53,symmetry-judgement-task,166,738402,0.0-43.0-5.0-1.0-1.0-10.0,,,,,,,,,,1.0,1.0,,,,6173c5b0aa4bc2370fd2c1f2,13:49:30,06/03/2024
,"<div style=""font-size: 10rem; color: #0000FF"">J</div>",,ospan,letter,8SdDWkBgvsP4CN0sMkBkXF30ID53,html-keyboard-response,167,739404,0.0-43.0-5.0-1.0-1.0-11.0,,,,,,,,,,,,,,,6173c5b0aa4bc2370fd2c1f2,13:49:30,06/03/2024
5562.0,,,ospan,symmetry,8SdDWkBgvsP4CN0sMkBkXF30ID53,symmetry-judgement-task,168,746775,0.0-43.0-5.0-1.0-1.0-12.0,,,,,,,,,,1.0,1.0,,,,6173c5b0aa4bc2370fd2c1f2,13:49:30,06/03/2024
,"<div style=""font-size: 10rem; color: #0000FF"">Y</div>",,ospan,letter,8SdDWkBgvsP4CN0sMkBkXF30ID53,html-keyboard-response,169,747777,0.0-43.0-5.0-1.0-1.0-13.0,,,,,,,,,,,,,,,6173c5b0aa4bc2370fd2c1f2,13:49:30,06/03/2024
9487.09999999404,"<div class = numbox><p style=""font-size: 2.4rem"">Please recall the letters you saw to the best of your ability. If you do not remember a particular letter, use the SKIP button.<br><b>(When you are ready to lock in your answer, press ENTER)</b></p><button id = button_1 class = ""square num-button"" onclick = ""recordClick(this)""><div class = content><div class = numbers>C</div></div></button><button id = button_2 class = ""square num-button"" onclick = ""recordClick(this)""><div class = content><div class = numbers>G</div></div></button><button id = button_3 class = ""square num-button"" onclick = ""recordClick(this)""><div class = content><div class = numbers>H</div></div></button><button id = button_4 class = ""square num-button"" onclick = ""recordClick(this)""><div class = content><div class = numbers>J</div></div></button><button id = button_5 class = ""square num-button"" onclick = ""recordClick(this)""><div class = content><div class = numbers>K</div></div></button><button id = button_6 class = ""square num-button"" onclick = ""recordClick(this)""><div class = content><div class = numbers>L</div></div></button><button id = button_7 class = ""square num-button"" onclick = ""recordClick(this)""><div class = content><div class = numbers>N</div></div></button><button id = button_8 class = ""square num-button"" onclick = ""recordClick(this)""><div class = content><div class = numbers>P</div></div></button><button id = button_9 class = ""square num-button"" onclick = ""recordClick(this)""><div class = content><div class = numbers>Q</div></div></button><button id = button_10 class = ""square num-button"" onclick = ""recordClick(this)""><div class = content><div class = numbers>R</div></div></button><button id = button_11 class = ""square num-button"" onclick = ""recordClick(this)""><div class = content><div class = numbers>S</div></div></button><button id = button_12 class = ""square num-button"" onclick = ""recordClick(this)""><div class = content><div class = numbers>Y</div></div></button><button class = clear_button id = ""ClearButton"" onclick = ""clearResponse()"">BACKSPACE</button><button class = blank_button id = ""BlankButton"" onclick = ""blankResponse()"">SKIP</button><p style=""font-size: 2.4rem""><u><b>Current Answer:</b></u></p><br><br><div id=echoed_txt style=""font-size: 5rem; color:blue;""><b></b></div></div>",enter,ospan,retrieval,8SdDWkBgvsP4CN0sMkBkXF30ID53,html-keyboard-response,170,758021,0.0-43.0-5.0-1.0-2.0,28,25,21,7.0,"[""L"",""N"",""Q"",""J"",""G"",""P"",""Y""]","[""L"",""N"",""Q"",""G"",""P"",""J"",""Y""]",0.0,4.0,,,,,,,6173c5b0aa4bc2370fd2c1f2,13:49:30,06/03/2024
11365.40000000596,[''],0,ospan,feedback,8SdDWkBgvsP4CN0sMkBkXF30ID53,html-button-response,171,769900,0.0-43.0-5.0-1.0-3.0,,,,,,,,,,,,100.0,0.0,,6173c5b0aa4bc2370fd2c1f2,13:49:30,06/03/2024
,"<p style=""font-size:75px;"">...</p>",,ospan,iti,8SdDWkBgvsP4CN0sMkBkXF30ID53,html-keyboard-response,172,770911,0.0-43.0-6.0-0.0-0.0,,,,,,,,,,,,,,,6173c5b0aa4bc2370fd2c1f2,13:49:30,06/03/2024
3654.0,,,ospan,symmetry,8SdDWkBgvsP4CN0sMkBkXF30ID53,symmetry-judgement-task,173,775708,0.0-43.0-6.0-0.0-1.0-0.0,,,,,,,,,,1.0,1.0,,,,6173c5b0aa4bc2370fd2c1f2,13:49:30,06/03/2024
,"<div style=""font-size: 10rem; color: #0000FF"">Q</div>",,ospan,letter,8SdDWkBgvsP4CN0sMkBkXF30ID53,html-keyboard-response,174,776711,0.0-43.0-6.0-0.0-1.0-1.0,,,,,,,,,,,,,,,6173c5b0aa4bc2370fd2c1f2,13:49:30,06/03/2024
5192.0,,,ospan,symmetry,8SdDWkBgvsP4CN0sMkBkXF30ID53,symmetry-judgement-task,175,783809,0.0-43.0-6.0-0.0-1.0-2.0,,,,,,,,,,1.0,1.0,,,,6173c5b0aa4bc2370fd2c1f2,13:49:30,06/03/2024
,"<div style=""font-size: 10rem; color: #0000FF"">N</div>",,ospan,letter,8SdDWkBgvsP4CN0sMkBkXF30ID53,html-keyboard-response,176,784813,0.0-43.0-6.0-0.0-1.0-3.0,,,,,,,,,,,,,,,6173c5b0aa4bc2370fd2c1f2,13:49:30,06/03/2024
863.0,,,ospan,symmetry,8SdDWkBgvsP4CN0sMkBkXF30ID53,symmetry-judgement-task,177,787575,0.0-43.0-6.0-0.0-1.0-4.0,,,,,,,,,,1.0,1.0,,,,6173c5b0aa4bc2370fd2c1f2,13:49:30,06/03/2024
,"<div style=""font-size: 10rem; color: #0000FF"">K</div>",,ospan,letter,8SdDWkBgvsP4CN0sMkBkXF30ID53,html-keyboard-response,178,788587,0.0-43.0-6.0-0.0-1.0-5.0,,,,,,,,,,,,,,,6173c5b0aa4bc2370fd2c1f2,13:49:30,06/03/2024
1619.0,,,ospan,symmetry,8SdDWkBgvsP4CN0sMkBkXF30ID53,symmetry-judgement-task,179,792115,0.0-43.0-6.0-0.0-1.0-6.0,,,,,,,,,,1.0,1.0,,,,6173c5b0aa4bc2370fd2c1f2,13:49:30,06/03/2024
,"<div style=""font-size: 10rem; color: #0000FF"">C</div>",,ospan,letter,8SdDWkBgvsP4CN0sMkBkXF30ID53,html-keyboard-response,180,793118,0.0-43.0-6.0-0.0-1.0-7.0,,,,,,,,,,,,,,,6173c5b0aa4bc2370fd2c1f2,13:49:30,06/03/2024
3767.0,,,ospan,symmetry,8SdDWkBgvsP4CN0sMkBkXF30ID53,symmetry-judgement-task,181,798804,0.0-43.0-6.0-0.0-1.0-8.0,,,,,,,,,,1.0,1.0,,,,6173c5b0aa4bc2370fd2c1f2,13:49:30,06/03/2024
,"<div style=""font-size: 10rem; color: #0000FF"">G</div>",,ospan,letter,8SdDWkBgvsP4CN0sMkBkXF30ID53,html-keyboard-response,182,799807,0.0-43.0-6.0-0.0-1.0-9.0,,,,,,,,,,,,,,,6173c5b0aa4bc2370fd2c1f2,13:49:30,06/03/2024
5465.29999999702,"<div class = numbox><p style=""font-size: 2.4rem"">Please recall the letters you saw to the best of your ability. If you do not remember a particular letter, use the SKIP button.<br><b>(When you are ready to lock in your answer, press ENTER)</b></p><button id = button_1 class = ""square num-button"" onclick = ""recordClick(this)""><div class = content><div class = numbers>C</div></div></button><button id = button_2 class = ""square num-button"" onclick = ""recordClick(this)""><div class = content><div class = numbers>G</div></div></button><button id = button_3 class = ""square num-button"" onclick = ""recordClick(this)""><div class = content><div class = numbers>H</div></div></button><button id = button_4 class = ""square num-button"" onclick = ""recordClick(this)""><div class = content><div class = numbers>J</div></div></button><button id = button_5 class = ""square num-button"" onclick = ""recordClick(this)""><div class = content><div class = numbers>K</div></div></button><button id = button_6 class = ""square num-button"" onclick = ""recordClick(this)""><div class = content><div class = numbers>L</div></div></button><button id = button_7 class = ""square num-button"" onclick = ""recordClick(this)""><div class = content><div class = numbers>N</div></div></button><button id = button_8 class = ""square num-button"" onclick = ""recordClick(this)""><div class = content><div class = numbers>P</div></div></button><button id = button_9 class = ""square num-button"" onclick = ""recordClick(this)""><div class = content><div class = numbers>Q</div></div></button><button id = button_10 class = ""square num-button"" onclick = ""recordClick(this)""><div class = content><div class = numbers>R</div></div></button><button id = button_11 class = ""square num-button"" onclick = ""recordClick(this)""><div class = content><div class = numbers>S</div></div></button><button id = button_12 class = ""square num-button"" onclick = ""recordClick(this)""><div class = content><div class = numbers>Y</div></div></button><button class = clear_button id = ""ClearButton"" onclick = ""clearResponse()"">BACKSPACE</button><button class = blank_button id = ""BlankButton"" onclick = ""blankResponse()"">SKIP</button><p style=""font-size: 2.4rem""><u><b>Current Answer:</b></u></p><br><br><div id=echoed_txt style=""font-size: 5rem; color:blue;""><b></b></div></div>",enter,ospan,retrieval,8SdDWkBgvsP4CN0sMkBkXF30ID53,html-keyboard-response,183,806037,0.0-43.0-6.0-0.0-2.0,33,30,26,5.0,"[""Q"",""N"",""K"",""C"",""G""]","[""Q"",""N"",""K"",""C"",""G""]",1.0,5.0,,,,,,,6173c5b0aa4bc2370fd2c1f2,13:49:30,06/03/2024
13692.39999999106,[''],0,ospan,feedback,8SdDWkBgvsP4CN0sMkBkXF30ID53,html-button-response,184,820244,0.0-43.0-6.0-0.0-3.0,,,,,,,,,,,,100.0,0.0,,6173c5b0aa4bc2370fd2c1f2,13:49:30,06/03/2024
,"<p style=""font-size:75px;"">...</p>",,ospan,iti,8SdDWkBgvsP4CN0sMkBkXF30ID53,html-keyboard-response,185,821251,0.0-43.0-6.0-1.0-0.0,,,,,,,,,,,,,,,6173c5b0aa4bc2370fd2c1f2,13:49:30,06/03/2024
1588.0,,,ospan,symmetry,8SdDWkBgvsP4CN0sMkBkXF30ID53,symmetry-judgement-task,186,823988,0.0-43.0-6.0-1.0-1.0-0.0,,,,,,,,,,1.0,1.0,,,,6173c5b0aa4bc2370fd2c1f2,13:49:30,06/03/2024
,"<div style=""font-size: 10rem; color: #0000FF"">H</div>",,ospan,letter,8SdDWkBgvsP4CN0sMkBkXF30ID53,html-keyboard-response,187,824991,0.0-43.0-6.0-1.0-1.0-1.0,,,,,,,,,,,,,,,6173c5b0aa4bc2370fd2c1f2,13:49:30,06/03/2024
1708.0,,,ospan,symmetry,8SdDWkBgvsP4CN0sMkBkXF30ID53,symmetry-judgement-task,188,828590,0.0-43.0-6.0-1.0-1.0-2.0,,,,,,,,,,1.0,1.0,,,,6173c5b0aa4bc2370fd2c1f2,13:49:30,06/03/2024
,"<div style=""font-size: 10rem; color: #0000FF"">J</div>",,ospan,letter,8SdDWkBgvsP4CN0sMkBkXF30ID53,html-keyboard-response,189,829593,0.0-43.0-6.0-1.0-1.0-3.0,,,,,,,,,,,,,,,6173c5b0aa4bc2370fd2c1f2,13:49:30,06/03/2024
1205.0,,,ospan,symmetry,8SdDWkBgvsP4CN0sMkBkXF30ID53,symmetry-judgement-task,190,832689,0.0-43.0-6.0-1.0-1.0-4.0,,,,,,,,,,1.0,1.0,,,,6173c5b0aa4bc2370fd2c1f2,13:49:30,06/03/2024
,"<div style=""font-size: 10rem; color: #0000FF"">R</div>",,ospan,letter,8SdDWkBgvsP4CN0sMkBkXF30ID53,html-keyboard-response,191,833695,0.0-43.0-6.0-1.0-1.0-5.0,,,,,,,,,,,,,,,6173c5b0aa4bc2370fd2c1f2,13:49:30,06/03/2024
1165.0,,,ospan,symmetry,8SdDWkBgvsP4CN0sMkBkXF30ID53,symmetry-judgement-task,192,836768,0.0-43.0-6.0-1.0-1.0-6.0,,,,,,,,,,1.0,1.0,,,,6173c5b0aa4bc2370fd2c1f2,13:49:30,06/03/2024
,"<div style=""font-size: 10rem; color: #0000FF"">G</div>",,ospan,letter,8SdDWkBgvsP4CN0sMkBkXF30ID53,html-keyboard-response,193,837785,0.0-43.0-6.0-1.0-1.0-7.0,,,,,,,,,,,,,,,6173c5b0aa4bc2370fd2c1f2,13:49:30,06/03/2024
1955.0,,,ospan,symmetry,8SdDWkBgvsP4CN0sMkBkXF30ID53,symmetry-judgement-task,194,841640,0.0-43.0-6.0-1.0-1.0-8.0,,,,,,,,,,1.0,1.0,,,,6173c5b0aa4bc2370fd2c1f2,13:49:30,06/03/2024
,"<div style=""font-size: 10rem; color: #0000FF"">L</div>",,ospan,letter,8SdDWkBgvsP4CN0sMkBkXF30ID53,html-keyboard-response,195,842645,0.0-43.0-6.0-1.0-1.0-9.0,,,,,,,,,,,,,,,6173c5b0aa4bc2370fd2c1f2,13:49:30,06/03/2024
4876.0,,,ospan,symmetry,8SdDWkBgvsP4CN0sMkBkXF30ID53,symmetry-judgement-task,196,849426,0.0-43.0-6.0-1.0-1.0-10.0,,,,,,,,,,1.0,1.0,,,,6173c5b0aa4bc2370fd2c1f2,13:49:30,06/03/2024
,"<div style=""font-size: 10rem; color: #0000FF"">K</div>",,ospan,letter,8SdDWkBgvsP4CN0sMkBkXF30ID53,html-keyboard-response,197,850443,0.0-43.0-6.0-1.0-1.0-11.0,,,,,,,,,,,,,,,6173c5b0aa4bc2370fd2c1f2,13:49:30,06/03/2024
5431.0,,,ospan,symmetry,8SdDWkBgvsP4CN0sMkBkXF30ID53,symmetry-judgement-task,198,857773,0.0-43.0-6.0-1.0-1.0-12.0,,,,,,,,,,1.0,1.0,,,,6173c5b0aa4bc2370fd2c1f2,13:49:30,06/03/2024
,"<div style=""font-size: 10rem; color: #0000FF"">S</div>",,ospan,letter,8SdDWkBgvsP4CN0sMkBkXF30ID53,html-keyboard-response,199,858786,0.0-43.0-6.0-1.0-1.0-13.0,,,,,,,,,,,,,,,6173c5b0aa4bc2370fd2c1f2,13:49:30,06/03/2024
4028.0,,,ospan,symmetry,8SdDWkBgvsP4CN0sMkBkXF30ID53,symmetry-judgement-task,200,864720,0.0-43.0-6.0-1.0-1.0-14.0,,,,,,,,,,1.0,1.0,,,,6173c5b0aa4bc2370fd2c1f2,13:49:30,06/03/2024
,"<div style=""font-size: 10rem; color: #0000FF"">Q</div>",,ospan,letter,8SdDWkBgvsP4CN0sMkBkXF30ID53,html-keyboard-response,201,865731,0.0-43.0-6.0-1.0-1.0-15.0,,,,,,,,,,,,,,,6173c5b0aa4bc2370fd2c1f2,13:49:30,06/03/2024
17591.09999999404,"<div class = numbox><p style=""font-size: 2.4rem"">Please recall the letters you saw to the best of your ability. If you do not remember a particular letter, use the SKIP button.<br><b>(When you are ready to lock in your answer, press ENTER)</b></p><button id = button_1 class = ""square num-button"" onclick = ""recordClick(this)""><div class = content><div class = numbers>C</div></div></button><button id = button_2 class = ""square num-button"" onclick = ""recordClick(this)""><div class = content><div class = numbers>G</div></div></button><button id = button_3 class = ""square num-button"" onclick = ""recordClick(this)""><div class = content><div class = numbers>H</div></div></button><button id = button_4 class = ""square num-button"" onclick = ""recordClick(this)""><div class = content><div class = numbers>J</div></div></button><button id = button_5 class = ""square num-button"" onclick = ""recordClick(this)""><div class = content><div class = numbers>K</div></div></button><button id = button_6 class = ""square num-button"" onclick = ""recordClick(this)""><div class = content><div class = numbers>L</div></div></button><button id = button_7 class = ""square num-button"" onclick = ""recordClick(this)""><div class = content><div class = numbers>N</div></div></button><button id = button_8 class = ""square num-button"" onclick = ""recordClick(this)""><div class = content><div class = numbers>P</div></div></button><button id = button_9 class = ""square num-button"" onclick = ""recordClick(this)""><div class = content><div class = numbers>Q</div></div></button><button id = button_10 class = ""square num-button"" onclick = ""recordClick(this)""><div class = content><div class = numbers>R</div></div></button><button id = button_11 class = ""square num-button"" onclick = ""recordClick(this)""><div class = content><div class = numbers>S</div></div></button><button id = button_12 class = ""square num-button"" onclick = ""recordClick(this)""><div class = content><div class = numbers>Y</div></div></button><button class = clear_button id = ""ClearButton"" onclick = ""clearResponse()"">BACKSPACE</button><button class = blank_button id = ""BlankButton"" onclick = ""blankResponse()"">SKIP</button><p style=""font-size: 2.4rem""><u><b>Current Answer:</b></u></p><br><br><div id=echoed_txt style=""font-size: 5rem; color:blue;""><b></b></div></div>",enter,ospan,retrieval,8SdDWkBgvsP4CN0sMkBkXF30ID53,html-keyboard-response,202,884079,0.0-43.0-6.0-1.0-2.0,41,35,26,8.0,"[""H"",""J"",""R"",""G"",""Q"",""C"",""S"",""Y""]","[""H"",""J"",""R"",""G"",""L"",""K"",""S"",""Q""]",0.0,5.0,,,,,,,6173c5b0aa4bc2370fd2c1f2,13:49:30,06/03/2024
4867.4000000059605,[''],0,ospan,feedback,8SdDWkBgvsP4CN0sMkBkXF30ID53,html-button-response,203,889452,0.0-43.0-6.0-1.0-3.0,,,,,,,,,,,,100.0,0.0,,6173c5b0aa4bc2370fd2c1f2,13:49:30,06/03/2024
6805.0,,{'Q0': 'harder towards the end'},ospan,survey_ospan,8SdDWkBgvsP4CN0sMkBkXF30ID53,lmdlab-survey-text,204,897021,0.0-43.0-7.0,,,,,,,,,,,,,,8SdDWkBgvsP4CN0sMkBkXF30ID53,6173c5b0aa4bc2370fd2c1f2,13:49:30,06/03/2024
2037.7000000029802,<p><p style='font-size: 3rem'>Great work!<br><br>This completes the symmetry and memory task.</p><br><br><br>,0,ospan,finish,8SdDWkBgvsP4CN0sMkBkXF30ID53,html-button-response,205,899061,0.0-43.0-8.0,41,35,26,,,,,,,,,100.0,,,6173c5b0aa4bc2370fd2c1f2,13:49:30,06/03/2024
