rt,stimulus,response,exp_name,exp_stage,subjectID,trial_type,trial_index,time_elapsed,internal_node_id,ospan_shown,ospan_total,ospan_abs,length,resp_actual,resp_correct,full_correct,num_correct,feedback,accuracy,correct,math_acc,math_warning,databaseID,prolificID,start_time,date
78947.0,<div class = 'left_align' style='font-size: 3.25rem; line-height: 1.3;'><p class = 'center_align'><b>Welcome to the Symmetry and Memory Task</b><br><br><br><br></p>Press 'continue' to show the instructions.<br><br><br><br></div>,0,ospan,instruct,fZ8DCpxJYdZe68Xk8SikmwPvHcn1,html-button-response,54,499382,0.0-46.0-0.0-0.0-0.0,,,,,,,,,,,,,,,638526640404d47424e281ff,08:53:59,03/04/2024
5775.399999999907,"<div class = 'left_align' style='font-size: 3.25rem; line-height: 1.3;'><p class = 'center_align'><b>Symmetry and Memory Task</b><br><br></p>In this task, you will try to memorize letters you see on the screen<br>while you also view black and white grid pictures.<br><br>In the next few minutes, you will have some practice to get you familiar<br>with how the task works.<br><br>It may be difficult sometimes, but please do not worry about making mistakes!<br><br>We will begin by practicing the letter part of the task.<br><br><br><br></div>",0,ospan,instruct,fZ8DCpxJYdZe68Xk8SikmwPvHcn1,html-button-response,55,505423,0.0-46.0-0.0-0.0-1.0,,,,,,,,,,,,,,,638526640404d47424e281ff,08:53:59,03/04/2024
5758.900000000023,"<div class = 'left_align' style='font-size: 3.25rem; line-height: 1.3;'>For this practice part, letters will appear on the screen one at a time.<br><br>Try to remember each letter in the order presented.<br><br>After some letters have been shown, you will see a response screen. Your<br>goal is to report the letters you saw <b>in order</b>. If you do not remember<br>a particular letter, you will have the option to leave it blank.<br><br><br><br></div>",0,ospan,instruct,fZ8DCpxJYdZe68Xk8SikmwPvHcn1,html-button-response,56,511446,0.0-46.0-0.0-0.0-2.0,,,,,,,,,,,,,,,638526640404d47424e281ff,08:53:59,03/04/2024
792.5999999999767,"<div class = 'left_align' style='font-size: 3.25rem; line-height: 1.3;'>Remember, it is very important to get the letters in the same<br>order as you see them.<br><br>When you are ready, you may begin the letter practice.</div><br><br><br><br>",0,ospan,instruct,fZ8DCpxJYdZe68Xk8SikmwPvHcn1,html-button-response,57,512502,0.0-46.0-0.0-0.0-3.0,,,,,,,,,,,,,,,638526640404d47424e281ff,08:53:59,03/04/2024
,"<p style=""font-size:75px;"">...</p>",,ospan,iti,fZ8DCpxJYdZe68Xk8SikmwPvHcn1,html-keyboard-response,58,513767,0.0-46.0-0.0-1.0-0.0,,,,,,,,,,,,,,,638526640404d47424e281ff,08:53:59,03/04/2024
,"<div style=""font-size: 10rem; color: #0000FF"">C</div>",,ospan,letter,fZ8DCpxJYdZe68Xk8SikmwPvHcn1,html-keyboard-response,59,514780,0.0-46.0-0.0-1.0-1.0,,,,,,,,,,,,,,,638526640404d47424e281ff,08:53:59,03/04/2024
,"<div style=""font-size: 10rem; color: #0000FF"">S</div>",,ospan,letter,fZ8DCpxJYdZe68Xk8SikmwPvHcn1,html-keyboard-response,60,516554,0.0-46.0-0.0-1.0-2.0,,,,,,,,,,,,,,,638526640404d47424e281ff,08:53:59,03/04/2024
8570.199999999953,"<div class = numbox><p style=""font-size: 2.4rem"">Please recall the letters you saw to the best of your ability. If you do not remember a particular letter, use the SKIP button.<br><b>(When you are ready to lock in your answer, press ENTER)</b></p><button id = button_1 class = ""square num-button"" onclick = ""recordClick(this)""><div class = content><div class = numbers>C</div></div></button><button id = button_2 class = ""square num-button"" onclick = ""recordClick(this)""><div class = content><div class = numbers>G</div></div></button><button id = button_3 class = ""square num-button"" onclick = ""recordClick(this)""><div class = content><div class = numbers>H</div></div></button><button id = button_4 class = ""square num-button"" onclick = ""recordClick(this)""><div class = content><div class = numbers>J</div></div></button><button id = button_5 class = ""square num-button"" onclick = ""recordClick(this)""><div class = content><div class = numbers>K</div></div></button><button id = button_6 class = ""square num-button"" onclick = ""recordClick(this)""><div class = content><div class = numbers>L</div></div></button><button id = button_7 class = ""square num-button"" onclick = ""recordClick(this)""><div class = content><div class = numbers>N</div></div></button><button id = button_8 class = ""square num-button"" onclick = ""recordClick(this)""><div class = content><div class = numbers>P</div></div></button><button id = button_9 class = ""square num-button"" onclick = ""recordClick(this)""><div class = content><div class = numbers>Q</div></div></button><button id = button_10 class = ""square num-button"" onclick = ""recordClick(this)""><div class = content><div class = numbers>R</div></div></button><button id = button_11 class = ""square num-button"" onclick = ""recordClick(this)""><div class = content><div class = numbers>S</div></div></button><button id = button_12 class = ""square num-button"" onclick = ""recordClick(this)""><div class = content><div class = numbers>Y</div></div></button><button class = clear_button id = ""ClearButton"" onclick = ""clearResponse()"">BACKSPACE</button><button class = blank_button id = ""BlankButton"" onclick = ""blankResponse()"">SKIP</button><p style=""font-size: 2.4rem""><u><b>Current Answer:</b></u></p><br><br><div id=echoed_txt style=""font-size: 5rem; color:blue;""><b></b></div></div>",enter,ospan,retrieval,fZ8DCpxJYdZe68Xk8SikmwPvHcn1,html-keyboard-response,61,525890,0.0-46.0-0.0-1.0-3.0,NA,NA,NA,2.0,"[""S""]","[""C"",""S""]",0.0,0.0,"['<font color=""red"">C</font>', '<font color=""red"">S</font>']",,,,,,638526640404d47424e281ff,08:53:59,03/04/2024
2432.3000000000466,"['<p style=""font-size:44px"">Letters:<br><br><br><font color=""red"">C</font> <font color=""red"">S</font></p><br><br>']",0,ospan,practice_feedback,fZ8DCpxJYdZe68Xk8SikmwPvHcn1,html-button-response,62,528830,0.0-46.0-0.0-1.0-4.0,,,,,,,,,,,,,,,638526640404d47424e281ff,08:53:59,03/04/2024
,"<p style=""font-size:75px;"">...</p>",,ospan,iti,fZ8DCpxJYdZe68Xk8SikmwPvHcn1,html-keyboard-response,63,529832,0.0-46.0-0.0-2.0-0.0,,,,,,,,,,,,,,,638526640404d47424e281ff,08:53:59,03/04/2024
,"<div style=""font-size: 10rem; color: #0000FF"">P</div>",,ospan,letter,fZ8DCpxJYdZe68Xk8SikmwPvHcn1,html-keyboard-response,64,530845,0.0-46.0-0.0-2.0-1.0,,,,,,,,,,,,,,,638526640404d47424e281ff,08:53:59,03/04/2024
,"<div style=""font-size: 10rem; color: #0000FF"">R</div>",,ospan,letter,fZ8DCpxJYdZe68Xk8SikmwPvHcn1,html-keyboard-response,65,532622,0.0-46.0-0.0-2.0-2.0,,,,,,,,,,,,,,,638526640404d47424e281ff,08:53:59,03/04/2024
,"<div style=""font-size: 10rem; color: #0000FF"">S</div>",,ospan,letter,fZ8DCpxJYdZe68Xk8SikmwPvHcn1,html-keyboard-response,66,534390,0.0-46.0-0.0-2.0-3.0,,,,,,,,,,,,,,,638526640404d47424e281ff,08:53:59,03/04/2024
3127.5999999999767,"<div class = numbox><p style=""font-size: 2.4rem"">Please recall the letters you saw to the best of your ability. If you do not remember a particular letter, use the SKIP button.<br><b>(When you are ready to lock in your answer, press ENTER)</b></p><button id = button_1 class = ""square num-button"" onclick = ""recordClick(this)""><div class = content><div class = numbers>C</div></div></button><button id = button_2 class = ""square num-button"" onclick = ""recordClick(this)""><div class = content><div class = numbers>G</div></div></button><button id = button_3 class = ""square num-button"" onclick = ""recordClick(this)""><div class = content><div class = numbers>H</div></div></button><button id = button_4 class = ""square num-button"" onclick = ""recordClick(this)""><div class = content><div class = numbers>J</div></div></button><button id = button_5 class = ""square num-button"" onclick = ""recordClick(this)""><div class = content><div class = numbers>K</div></div></button><button id = button_6 class = ""square num-button"" onclick = ""recordClick(this)""><div class = content><div class = numbers>L</div></div></button><button id = button_7 class = ""square num-button"" onclick = ""recordClick(this)""><div class = content><div class = numbers>N</div></div></button><button id = button_8 class = ""square num-button"" onclick = ""recordClick(this)""><div class = content><div class = numbers>P</div></div></button><button id = button_9 class = ""square num-button"" onclick = ""recordClick(this)""><div class = content><div class = numbers>Q</div></div></button><button id = button_10 class = ""square num-button"" onclick = ""recordClick(this)""><div class = content><div class = numbers>R</div></div></button><button id = button_11 class = ""square num-button"" onclick = ""recordClick(this)""><div class = content><div class = numbers>S</div></div></button><button id = button_12 class = ""square num-button"" onclick = ""recordClick(this)""><div class = content><div class = numbers>Y</div></div></button><button class = clear_button id = ""ClearButton"" onclick = ""clearResponse()"">BACKSPACE</button><button class = blank_button id = ""BlankButton"" onclick = ""blankResponse()"">SKIP</button><p style=""font-size: 2.4rem""><u><b>Current Answer:</b></u></p><br><br><div id=echoed_txt style=""font-size: 5rem; color:blue;""><b></b></div></div>",enter,ospan,retrieval,fZ8DCpxJYdZe68Xk8SikmwPvHcn1,html-keyboard-response,67,538280,0.0-46.0-0.0-2.0-4.0,NA,NA,NA,3.0,"[""P"",""R"",""S""]","[""P"",""R"",""S""]",1.0,3.0,"['<font color=""green"">P</font>', '<font color=""green"">R</font>', '<font color=""green"">S</font>']",,,,,,638526640404d47424e281ff,08:53:59,03/04/2024
1015.6999999999534,"['<p style=""font-size:44px"">Letters:<br><br><br><font color=""green"">P</font> <font color=""green"">R</font> <font color=""green"">S</font></p><br><br>']",0,ospan,practice_feedback,fZ8DCpxJYdZe68Xk8SikmwPvHcn1,html-button-response,68,539814,0.0-46.0-0.0-2.0-5.0,,,,,,,,,,,,,,,638526640404d47424e281ff,08:53:59,03/04/2024
14442.79999999993,"<div class = 'left_align' style='font-size: 3.25rem; line-height: 1.3;'>Now you will practice doing the <b>symmetry judgment part</b> of the experiment.<br><br>A black and white grid picture will appear on the screen and you have to judge if it is <br>symmetrical or asymetrical.<br><br>A picture is 'mirror' symmetrical if its left half is identical to the right half when flipped.<br>Here are examples of a symmetrical and an asymetrical picture:<br><br><center><img src='Stimuli/img/symm_instructions_extra.png' style='height:420px; width:900'></img></center><br>To judge symmetry, imagine you were to fold each picture down the middle, like a book –<br>would the left half match the right half when folded onto each other?<br><br></div><br>",0,ospan,instruct,fZ8DCpxJYdZe68Xk8SikmwPvHcn1,html-button-response,69,554262,0.0-46.0-1.0-0.0-0.0,,,,,,,,,,,,,,,638526640404d47424e281ff,08:53:59,03/04/2024
4335.199999999953,"<div class = 'left_align' style='font-size: 3.25rem; line-height: 1.3;'>When you have viewed the picture and determined whether it is symmetrical or not,<br>you can <b>click the Yes or No button</b> below to answer.<br><br>If you take longer than 15 seconds, it will continue automatically<br>and record the answer as an error.</div><br>",0,ospan,instruct,fZ8DCpxJYdZe68Xk8SikmwPvHcn1,html-button-response,70,558863,0.0-46.0-1.0-0.0-1.0,,,,,,,,,,,,,,,638526640404d47424e281ff,08:53:59,03/04/2024
3773.8000000000466,"<div class = 'left_align' style='font-size: 3.25rem; line-height: 1.3;'>It is <b>very</b> important that you make the symmetry judgment correctly.<br><br>It is also important that you try and judge the picture as quickly as you can.<br><br>When you are ready, click on the button below to try some practice problems.</div><br><br><br><br>",0,ospan,instruct,fZ8DCpxJYdZe68Xk8SikmwPvHcn1,html-button-response,71,562902,0.0-46.0-1.0-0.0-2.0,,,,,,,,,,,,,,,638526640404d47424e281ff,08:53:59,03/04/2024
4234.0,,,ospan,symmetry,fZ8DCpxJYdZe68Xk8SikmwPvHcn1,symmetry-judgement-task,72,567974,0.0-46.0-1.0-1.0-0.0,,,,,,,,,,1.0,1.0,,,,638526640404d47424e281ff,08:53:59,03/04/2024
,"<p style=""color:green; font-size: 35px"">Correct</p>",,ospan,feedback,fZ8DCpxJYdZe68Xk8SikmwPvHcn1,html-keyboard-response,73,568726,0.0-46.0-1.0-1.0-1.0,,,,,,,,,,,,,,,638526640404d47424e281ff,08:53:59,03/04/2024
1728.0,,,ospan,symmetry,fZ8DCpxJYdZe68Xk8SikmwPvHcn1,symmetry-judgement-task,74,573158,0.0-46.0-1.0-1.0-2.0,,,,,,,,,,0.0,0.0,,,,638526640404d47424e281ff,08:53:59,03/04/2024
,"<p style=""color:red; font-size: 35px"">Incorrect</p>",,ospan,feedback,fZ8DCpxJYdZe68Xk8SikmwPvHcn1,html-keyboard-response,75,573923,0.0-46.0-1.0-1.0-3.0,,,,,,,,,,,,,,,638526640404d47424e281ff,08:53:59,03/04/2024
3645.0,,,ospan,symmetry,fZ8DCpxJYdZe68Xk8SikmwPvHcn1,symmetry-judgement-task,76,580280,0.0-46.0-1.0-1.0-4.0,,,,,,,,,,1.0,1.0,,,,638526640404d47424e281ff,08:53:59,03/04/2024
,"<p style=""color:green; font-size: 35px"">Correct</p>",,ospan,feedback,fZ8DCpxJYdZe68Xk8SikmwPvHcn1,html-keyboard-response,77,581036,0.0-46.0-1.0-1.0-5.0,,,,,,,,,,,,,,,638526640404d47424e281ff,08:53:59,03/04/2024
2203.29999999993,"<p style=""font-size: 3rem;"">You only responded correctly on 2 of 3 symmetry judgments.<br><br><b>In the main task, you must try harder to answer accurately.</b></p><br><br>",0,ospan,practice,fZ8DCpxJYdZe68Xk8SikmwPvHcn1,html-button-response,78,585254,0.0-46.0-1.0-2.0,,,,,,,,,,,,,,,638526640404d47424e281ff,08:53:59,03/04/2024
40190.0,"<div class = 'left_align' style='font-size: 3.25rem; line-height: 1.3;'>Now you will practice doing both parts of the experiment at the same time.<br><br>In the next practice set, you will be given one grid picture to judge.<br>Then letter will appear on the screen. Try to remember the letter.<br><br>It is <b>very important</b> to make the symmetry judgment as quickly and accurately as possible.<br><br>Just as before, once you have make the symmetry judgment, you can click Yes or No.<br><b>Note that you will no longer see Correct or Incorrect feedback.</div><br><br><br><br>",0,ospan,instruct,fZ8DCpxJYdZe68Xk8SikmwPvHcn1,html-button-response,79,625712,0.0-46.0-2.0-0.0-0.0,,,,,,,,,,,,,,,638526640404d47424e281ff,08:53:59,03/04/2024
1388.8999999999069,"<div class = 'left_align' style='font-size: 3.25rem; line-height: 1.3;'>After the letter goes away, another grid picture will appear, and then<br>another letter.<br><br>At the end of each set of letters and grids, you will recall the letters to the best<br>of your ability. Remember, try your best to get the letters in the correct order.<br><br>It is important to <b>quickly</b> and <b>accurately</b> make the symmetry judgments.</div><br><br><br><br>",0,ospan,instruct,fZ8DCpxJYdZe68Xk8SikmwPvHcn1,html-button-response,80,627366,0.0-46.0-2.0-0.0-1.0,,,,,,,,,,,,,,,638526640404d47424e281ff,08:53:59,03/04/2024
5736.90000000014,"<div class = 'left_align' style='font-size: 3.25rem; line-height: 1.3;'>On the feedback screen, if you are not doing well at the symmetry judgments,<br>you will also see a warning in the middle. This indicates your percent <br>correct for the grid pictures for the entire experiment.<br><br>It is <b>very</b> important for you to keep accuracy at least at 85%: <u>We can only use<br>data where the participant was at least 85% accurate on the judgments.</u> Therefore,<br> please try your best to perform well on the symmetry judgments, <b>at the same time</b><br>doing your best to recall as many letters as possible.<br><br>Click the button to try some practice problems.</div><br><br><br><br>",0,ospan,instruct,fZ8DCpxJYdZe68Xk8SikmwPvHcn1,html-button-response,81,633366,0.0-46.0-2.0-0.0-2.0,,,,,,,,,,,,,,,638526640404d47424e281ff,08:53:59,03/04/2024
,"<p style=""font-size:75px;"">...</p>",,ospan,iti,fZ8DCpxJYdZe68Xk8SikmwPvHcn1,html-keyboard-response,82,634640,0.0-46.0-2.0-1.0-0.0,,,,,,,,,,,,,,,638526640404d47424e281ff,08:53:59,03/04/2024
2432.0,,,ospan,symmetry,fZ8DCpxJYdZe68Xk8SikmwPvHcn1,symmetry-judgement-task,83,638264,0.0-46.0-2.0-1.0-1.0-0.0,,,,,,,,,,1.0,1.0,,,,638526640404d47424e281ff,08:53:59,03/04/2024
,"<div style=""font-size: 10rem; color: #0000FF"">Q</div>",,ospan,letter,fZ8DCpxJYdZe68Xk8SikmwPvHcn1,html-keyboard-response,84,639266,0.0-46.0-2.0-1.0-1.0-1.0,,,,,,,,,,,,,,,638526640404d47424e281ff,08:53:59,03/04/2024
2244.0,,,ospan,symmetry,fZ8DCpxJYdZe68Xk8SikmwPvHcn1,symmetry-judgement-task,85,643456,0.0-46.0-2.0-1.0-1.0-2.0,,,,,,,,,,1.0,1.0,,,,638526640404d47424e281ff,08:53:59,03/04/2024
,"<div style=""font-size: 10rem; color: #0000FF"">C</div>",,ospan,letter,fZ8DCpxJYdZe68Xk8SikmwPvHcn1,html-keyboard-response,86,644471,0.0-46.0-2.0-1.0-1.0-3.0,,,,,,,,,,,,,,,638526640404d47424e281ff,08:53:59,03/04/2024
1892.0,,,ospan,symmetry,fZ8DCpxJYdZe68Xk8SikmwPvHcn1,symmetry-judgement-task,87,648320,0.0-46.0-2.0-1.0-1.0-4.0,,,,,,,,,,1.0,1.0,,,,638526640404d47424e281ff,08:53:59,03/04/2024
,"<div style=""font-size: 10rem; color: #0000FF"">K</div>",,ospan,letter,fZ8DCpxJYdZe68Xk8SikmwPvHcn1,html-keyboard-response,88,649333,0.0-46.0-2.0-1.0-1.0-5.0,,,,,,,,,,,,,,,638526640404d47424e281ff,08:53:59,03/04/2024
7474.200000000186,"<div class = numbox><p style=""font-size: 2.4rem"">Please recall the letters you saw to the best of your ability. If you do not remember a particular letter, use the SKIP button.<br><b>(When you are ready to lock in your answer, press ENTER)</b></p><button id = button_1 class = ""square num-button"" onclick = ""recordClick(this)""><div class = content><div class = numbers>C</div></div></button><button id = button_2 class = ""square num-button"" onclick = ""recordClick(this)""><div class = content><div class = numbers>G</div></div></button><button id = button_3 class = ""square num-button"" onclick = ""recordClick(this)""><div class = content><div class = numbers>H</div></div></button><button id = button_4 class = ""square num-button"" onclick = ""recordClick(this)""><div class = content><div class = numbers>J</div></div></button><button id = button_5 class = ""square num-button"" onclick = ""recordClick(this)""><div class = content><div class = numbers>K</div></div></button><button id = button_6 class = ""square num-button"" onclick = ""recordClick(this)""><div class = content><div class = numbers>L</div></div></button><button id = button_7 class = ""square num-button"" onclick = ""recordClick(this)""><div class = content><div class = numbers>N</div></div></button><button id = button_8 class = ""square num-button"" onclick = ""recordClick(this)""><div class = content><div class = numbers>P</div></div></button><button id = button_9 class = ""square num-button"" onclick = ""recordClick(this)""><div class = content><div class = numbers>Q</div></div></button><button id = button_10 class = ""square num-button"" onclick = ""recordClick(this)""><div class = content><div class = numbers>R</div></div></button><button id = button_11 class = ""square num-button"" onclick = ""recordClick(this)""><div class = content><div class = numbers>S</div></div></button><button id = button_12 class = ""square num-button"" onclick = ""recordClick(this)""><div class = content><div class = numbers>Y</div></div></button><button class = clear_button id = ""ClearButton"" onclick = ""clearResponse()"">BACKSPACE</button><button class = blank_button id = ""BlankButton"" onclick = ""blankResponse()"">SKIP</button><p style=""font-size: 2.4rem""><u><b>Current Answer:</b></u></p><br><br><div id=echoed_txt style=""font-size: 5rem; color:blue;""><b></b></div></div>",enter,ospan,retrieval,fZ8DCpxJYdZe68Xk8SikmwPvHcn1,html-keyboard-response,89,657571,0.0-46.0-2.0-1.0-2.0-0.0,NA,NA,NA,3.0,"[""Q"",""C"",""K""]","[""Q"",""C"",""K""]",1.0,3.0,"['<font color=""green"">Q</font>', '<font color=""green"">C</font>', '<font color=""green"">K</font>']",,,,,,638526640404d47424e281ff,08:53:59,03/04/2024
1142.6000000000931,"['<p style=""font-size:44px"">Letters:<br><br><br><font color=""green"">Q</font> <font color=""green"">C</font> <font color=""green"">K</font></p><br><br><p style=""font-size:30px"">Symmetry:<br><br><font color=""green"">100%</font></p><br><br>']",0,ospan,practice_feedback,fZ8DCpxJYdZe68Xk8SikmwPvHcn1,html-button-response,90,659230,0.0-46.0-2.0-1.0-2.0-1.0,,,,,,,,,,,,,,,638526640404d47424e281ff,08:53:59,03/04/2024
,"<p style=""font-size:75px;"">...</p>",,ospan,iti,fZ8DCpxJYdZe68Xk8SikmwPvHcn1,html-keyboard-response,91,660238,0.0-46.0-2.0-2.0-0.0,,,,,,,,,,,,,,,638526640404d47424e281ff,08:53:59,03/04/2024
1676.0,,,ospan,symmetry,fZ8DCpxJYdZe68Xk8SikmwPvHcn1,symmetry-judgement-task,92,663106,0.0-46.0-2.0-2.0-1.0-0.0,,,,,,,,,,1.0,1.0,,,,638526640404d47424e281ff,08:53:59,03/04/2024
,"<div style=""font-size: 10rem; color: #0000FF"">P</div>",,ospan,letter,fZ8DCpxJYdZe68Xk8SikmwPvHcn1,html-keyboard-response,93,664119,0.0-46.0-2.0-2.0-1.0-1.0,,,,,,,,,,,,,,,638526640404d47424e281ff,08:53:59,03/04/2024
1586.0,,,ospan,symmetry,fZ8DCpxJYdZe68Xk8SikmwPvHcn1,symmetry-judgement-task,94,667679,0.0-46.0-2.0-2.0-1.0-2.0,,,,,,,,,,1.0,1.0,,,,638526640404d47424e281ff,08:53:59,03/04/2024
,"<div style=""font-size: 10rem; color: #0000FF"">Y</div>",,ospan,letter,fZ8DCpxJYdZe68Xk8SikmwPvHcn1,html-keyboard-response,95,668693,0.0-46.0-2.0-2.0-1.0-3.0,,,,,,,,,,,,,,,638526640404d47424e281ff,08:53:59,03/04/2024
1268.0,,,ospan,symmetry,fZ8DCpxJYdZe68Xk8SikmwPvHcn1,symmetry-judgement-task,96,671935,0.0-46.0-2.0-2.0-1.0-4.0,,,,,,,,,,1.0,1.0,,,,638526640404d47424e281ff,08:53:59,03/04/2024
,"<div style=""font-size: 10rem; color: #0000FF"">Q</div>",,ospan,letter,fZ8DCpxJYdZe68Xk8SikmwPvHcn1,html-keyboard-response,97,672951,0.0-46.0-2.0-2.0-1.0-5.0,,,,,,,,,,,,,,,638526640404d47424e281ff,08:53:59,03/04/2024
8126.800000000047,"<div class = numbox><p style=""font-size: 2.4rem"">Please recall the letters you saw to the best of your ability. If you do not remember a particular letter, use the SKIP button.<br><b>(When you are ready to lock in your answer, press ENTER)</b></p><button id = button_1 class = ""square num-button"" onclick = ""recordClick(this)""><div class = content><div class = numbers>C</div></div></button><button id = button_2 class = ""square num-button"" onclick = ""recordClick(this)""><div class = content><div class = numbers>G</div></div></button><button id = button_3 class = ""square num-button"" onclick = ""recordClick(this)""><div class = content><div class = numbers>H</div></div></button><button id = button_4 class = ""square num-button"" onclick = ""recordClick(this)""><div class = content><div class = numbers>J</div></div></button><button id = button_5 class = ""square num-button"" onclick = ""recordClick(this)""><div class = content><div class = numbers>K</div></div></button><button id = button_6 class = ""square num-button"" onclick = ""recordClick(this)""><div class = content><div class = numbers>L</div></div></button><button id = button_7 class = ""square num-button"" onclick = ""recordClick(this)""><div class = content><div class = numbers>N</div></div></button><button id = button_8 class = ""square num-button"" onclick = ""recordClick(this)""><div class = content><div class = numbers>P</div></div></button><button id = button_9 class = ""square num-button"" onclick = ""recordClick(this)""><div class = content><div class = numbers>Q</div></div></button><button id = button_10 class = ""square num-button"" onclick = ""recordClick(this)""><div class = content><div class = numbers>R</div></div></button><button id = button_11 class = ""square num-button"" onclick = ""recordClick(this)""><div class = content><div class = numbers>S</div></div></button><button id = button_12 class = ""square num-button"" onclick = ""recordClick(this)""><div class = content><div class = numbers>Y</div></div></button><button class = clear_button id = ""ClearButton"" onclick = ""clearResponse()"">BACKSPACE</button><button class = blank_button id = ""BlankButton"" onclick = ""blankResponse()"">SKIP</button><p style=""font-size: 2.4rem""><u><b>Current Answer:</b></u></p><br><br><div id=echoed_txt style=""font-size: 5rem; color:blue;""><b></b></div></div>",enter,ospan,retrieval,fZ8DCpxJYdZe68Xk8SikmwPvHcn1,html-keyboard-response,98,681844,0.0-46.0-2.0-2.0-2.0-0.0,NA,NA,NA,3.0,"[""P"",""Y"",""Q""]","[""P"",""Y"",""Q""]",1.0,3.0,"['<font color=""green"">P</font>', '<font color=""green"">Y</font>', '<font color=""green"">Q</font>']",,,,,,638526640404d47424e281ff,08:53:59,03/04/2024
1012.1000000000931,"['<p style=""font-size:44px"">Letters:<br><br><br><font color=""green"">P</font> <font color=""green"">Y</font> <font color=""green"">Q</font></p><br><br><p style=""font-size:30px"">Symmetry:<br><br><font color=""green"">100%</font></p><br><br>']",0,ospan,practice_feedback,fZ8DCpxJYdZe68Xk8SikmwPvHcn1,html-button-response,99,683366,0.0-46.0-2.0-2.0-2.0-1.0,,,,,,,,,,,,,,,638526640404d47424e281ff,08:53:59,03/04/2024
343644.80000000005,"<div class = 'left_align' style='font-size: 3rem; line-height: 1.3;'><b>Great work! That is the end of practice.</b><br><br>The real trials will look just like the practice trials you just completed.<br><br><u>Here, you will not see feedback</u>. First, you will see an grid picture to judge,<br>then a letter to remember. When the recall screen appears, report the letters in the<br>order presented. If you forget a letter, remember to use the <b>blank</b> button to move to the<br>next letter. Some of the sets will have more symmetry grids and letters than others.<br><br>It is important that you do your best on both the symmetry judgments and the letter recall<br>parts of the experiment. For for the symmetry judgments, try to work as <b>quickly</b> and <br>as <b>accurately</b> as possible. Remember to keep your symmetry accuracy at 85% or above.<br><br><b>For the letters, do NOT use any external aid (e.g., writing on paper, electronic device).</b><br><br>It is <u>very important</u> to our experiment to have a <b>true</b> view of your real performance.<br><br>Do not worry if you miss some when it gets hard! This task is meant to be very challenging!<br><br>Click the button to begin.</div><br><br><br><br>",0,ospan,starting_real_here,fZ8DCpxJYdZe68Xk8SikmwPvHcn1,html-button-response,100,1027012,0.0-46.0-2.0-3.0,,,,,,,,,,,,,,,638526640404d47424e281ff,08:53:59,03/04/2024
,"<p style=""font-size:75px;"">...</p>",,ospan,iti,fZ8DCpxJYdZe68Xk8SikmwPvHcn1,html-keyboard-response,101,1028280,0.0-46.0-3.0-0.0-0.0,,,,,,,,,,,,,,,638526640404d47424e281ff,08:53:59,03/04/2024
1248.0,,,ospan,symmetry,fZ8DCpxJYdZe68Xk8SikmwPvHcn1,symmetry-judgement-task,102,1030590,0.0-46.0-3.0-0.0-1.0-0.0,,,,,,,,,,1.0,1.0,,,,638526640404d47424e281ff,08:53:59,03/04/2024
,"<div style=""font-size: 10rem; color: #0000FF"">H</div>",,ospan,letter,fZ8DCpxJYdZe68Xk8SikmwPvHcn1,html-keyboard-response,103,1031605,0.0-46.0-3.0-0.0-1.0-1.0,,,,,,,,,,,,,,,638526640404d47424e281ff,08:53:59,03/04/2024
971.0,,,ospan,symmetry,fZ8DCpxJYdZe68Xk8SikmwPvHcn1,symmetry-judgement-task,104,1034543,0.0-46.0-3.0-0.0-1.0-2.0,,,,,,,,,,1.0,1.0,,,,638526640404d47424e281ff,08:53:59,03/04/2024
,"<div style=""font-size: 10rem; color: #0000FF"">J</div>",,ospan,letter,fZ8DCpxJYdZe68Xk8SikmwPvHcn1,html-keyboard-response,105,1035546,0.0-46.0-3.0-0.0-1.0-3.0,,,,,,,,,,,,,,,638526640404d47424e281ff,08:53:59,03/04/2024
1262.0,,,ospan,symmetry,fZ8DCpxJYdZe68Xk8SikmwPvHcn1,symmetry-judgement-task,106,1038773,0.0-46.0-3.0-0.0-1.0-4.0,,,,,,,,,,1.0,1.0,,,,638526640404d47424e281ff,08:53:59,03/04/2024
,"<div style=""font-size: 10rem; color: #0000FF"">G</div>",,ospan,letter,fZ8DCpxJYdZe68Xk8SikmwPvHcn1,html-keyboard-response,107,1039784,0.0-46.0-3.0-0.0-1.0-5.0,,,,,,,,,,,,,,,638526640404d47424e281ff,08:53:59,03/04/2024
4783.100000000093,"<div class = numbox><p style=""font-size: 2.4rem"">Please recall the letters you saw to the best of your ability. If you do not remember a particular letter, use the SKIP button.<br><b>(When you are ready to lock in your answer, press ENTER)</b></p><button id = button_1 class = ""square num-button"" onclick = ""recordClick(this)""><div class = content><div class = numbers>C</div></div></button><button id = button_2 class = ""square num-button"" onclick = ""recordClick(this)""><div class = content><div class = numbers>G</div></div></button><button id = button_3 class = ""square num-button"" onclick = ""recordClick(this)""><div class = content><div class = numbers>H</div></div></button><button id = button_4 class = ""square num-button"" onclick = ""recordClick(this)""><div class = content><div class = numbers>J</div></div></button><button id = button_5 class = ""square num-button"" onclick = ""recordClick(this)""><div class = content><div class = numbers>K</div></div></button><button id = button_6 class = ""square num-button"" onclick = ""recordClick(this)""><div class = content><div class = numbers>L</div></div></button><button id = button_7 class = ""square num-button"" onclick = ""recordClick(this)""><div class = content><div class = numbers>N</div></div></button><button id = button_8 class = ""square num-button"" onclick = ""recordClick(this)""><div class = content><div class = numbers>P</div></div></button><button id = button_9 class = ""square num-button"" onclick = ""recordClick(this)""><div class = content><div class = numbers>Q</div></div></button><button id = button_10 class = ""square num-button"" onclick = ""recordClick(this)""><div class = content><div class = numbers>R</div></div></button><button id = button_11 class = ""square num-button"" onclick = ""recordClick(this)""><div class = content><div class = numbers>S</div></div></button><button id = button_12 class = ""square num-button"" onclick = ""recordClick(this)""><div class = content><div class = numbers>Y</div></div></button><button class = clear_button id = ""ClearButton"" onclick = ""clearResponse()"">BACKSPACE</button><button class = blank_button id = ""BlankButton"" onclick = ""blankResponse()"">SKIP</button><p style=""font-size: 2.4rem""><u><b>Current Answer:</b></u></p><br><br><div id=echoed_txt style=""font-size: 5rem; color:blue;""><b></b></div></div>",enter,ospan,retrieval,fZ8DCpxJYdZe68Xk8SikmwPvHcn1,html-keyboard-response,108,1045333,0.0-46.0-3.0-0.0-2.0,3,3,3,3.0,"[""H"",""J"",""G""]","[""H"",""J"",""G""]",1.0,3.0,,,,,,,638526640404d47424e281ff,08:53:59,03/04/2024
755.6999999999534,[''],0,ospan,feedback,fZ8DCpxJYdZe68Xk8SikmwPvHcn1,html-button-response,109,1046596,0.0-46.0-3.0-0.0-3.0,,,,,,,,,,,,100.0,0.0,,638526640404d47424e281ff,08:53:59,03/04/2024
,"<p style=""font-size:75px;"">...</p>",,ospan,iti,fZ8DCpxJYdZe68Xk8SikmwPvHcn1,html-keyboard-response,110,1047603,0.0-46.0-4.0-0.0-0.0,,,,,,,,,,,,,,,638526640404d47424e281ff,08:53:59,03/04/2024
1510.0,,,ospan,symmetry,fZ8DCpxJYdZe68Xk8SikmwPvHcn1,symmetry-judgement-task,111,1050173,0.0-46.0-4.0-0.0-1.0-0.0,,,,,,,,,,1.0,1.0,,,,638526640404d47424e281ff,08:53:59,03/04/2024
,"<div style=""font-size: 10rem; color: #0000FF"">Y</div>",,ospan,letter,fZ8DCpxJYdZe68Xk8SikmwPvHcn1,html-keyboard-response,112,1051182,0.0-46.0-4.0-0.0-1.0-1.0,,,,,,,,,,,,,,,638526640404d47424e281ff,08:53:59,03/04/2024
1121.0,,,ospan,symmetry,fZ8DCpxJYdZe68Xk8SikmwPvHcn1,symmetry-judgement-task,113,1054261,0.0-46.0-4.0-0.0-1.0-2.0,,,,,,,,,,1.0,1.0,,,,638526640404d47424e281ff,08:53:59,03/04/2024
,"<div style=""font-size: 10rem; color: #0000FF"">P</div>",,ospan,letter,fZ8DCpxJYdZe68Xk8SikmwPvHcn1,html-keyboard-response,114,1055275,0.0-46.0-4.0-0.0-1.0-3.0,,,,,,,,,,,,,,,638526640404d47424e281ff,08:53:59,03/04/2024
1014.0,,,ospan,symmetry,fZ8DCpxJYdZe68Xk8SikmwPvHcn1,symmetry-judgement-task,115,1058254,0.0-46.0-4.0-0.0-1.0-4.0,,,,,,,,,,1.0,1.0,,,,638526640404d47424e281ff,08:53:59,03/04/2024
,"<div style=""font-size: 10rem; color: #0000FF"">J</div>",,ospan,letter,fZ8DCpxJYdZe68Xk8SikmwPvHcn1,html-keyboard-response,116,1059265,0.0-46.0-4.0-0.0-1.0-5.0,,,,,,,,,,,,,,,638526640404d47424e281ff,08:53:59,03/04/2024
1306.0,,,ospan,symmetry,fZ8DCpxJYdZe68Xk8SikmwPvHcn1,symmetry-judgement-task,117,1062544,0.0-46.0-4.0-0.0-1.0-6.0,,,,,,,,,,1.0,1.0,,,,638526640404d47424e281ff,08:53:59,03/04/2024
,"<div style=""font-size: 10rem; color: #0000FF"">L</div>",,ospan,letter,fZ8DCpxJYdZe68Xk8SikmwPvHcn1,html-keyboard-response,118,1063555,0.0-46.0-4.0-0.0-1.0-7.0,,,,,,,,,,,,,,,638526640404d47424e281ff,08:53:59,03/04/2024
3221.0999999998603,"<div class = numbox><p style=""font-size: 2.4rem"">Please recall the letters you saw to the best of your ability. If you do not remember a particular letter, use the SKIP button.<br><b>(When you are ready to lock in your answer, press ENTER)</b></p><button id = button_1 class = ""square num-button"" onclick = ""recordClick(this)""><div class = content><div class = numbers>C</div></div></button><button id = button_2 class = ""square num-button"" onclick = ""recordClick(this)""><div class = content><div class = numbers>G</div></div></button><button id = button_3 class = ""square num-button"" onclick = ""recordClick(this)""><div class = content><div class = numbers>H</div></div></button><button id = button_4 class = ""square num-button"" onclick = ""recordClick(this)""><div class = content><div class = numbers>J</div></div></button><button id = button_5 class = ""square num-button"" onclick = ""recordClick(this)""><div class = content><div class = numbers>K</div></div></button><button id = button_6 class = ""square num-button"" onclick = ""recordClick(this)""><div class = content><div class = numbers>L</div></div></button><button id = button_7 class = ""square num-button"" onclick = ""recordClick(this)""><div class = content><div class = numbers>N</div></div></button><button id = button_8 class = ""square num-button"" onclick = ""recordClick(this)""><div class = content><div class = numbers>P</div></div></button><button id = button_9 class = ""square num-button"" onclick = ""recordClick(this)""><div class = content><div class = numbers>Q</div></div></button><button id = button_10 class = ""square num-button"" onclick = ""recordClick(this)""><div class = content><div class = numbers>R</div></div></button><button id = button_11 class = ""square num-button"" onclick = ""recordClick(this)""><div class = content><div class = numbers>S</div></div></button><button id = button_12 class = ""square num-button"" onclick = ""recordClick(this)""><div class = content><div class = numbers>Y</div></div></button><button class = clear_button id = ""ClearButton"" onclick = ""clearResponse()"">BACKSPACE</button><button class = blank_button id = ""BlankButton"" onclick = ""blankResponse()"">SKIP</button><p style=""font-size: 2.4rem""><u><b>Current Answer:</b></u></p><br><br><div id=echoed_txt style=""font-size: 5rem; color:blue;""><b></b></div></div>",enter,ospan,retrieval,fZ8DCpxJYdZe68Xk8SikmwPvHcn1,html-keyboard-response,119,1067529,0.0-46.0-4.0-0.0-2.0,7,7,7,4.0,"[""Y"",""P"",""J"",""L""]","[""Y"",""P"",""J"",""L""]",1.0,4.0,,,,,,,638526640404d47424e281ff,08:53:59,03/04/2024
675.6000000000931,[''],0,ospan,feedback,fZ8DCpxJYdZe68Xk8SikmwPvHcn1,html-button-response,120,1068708,0.0-46.0-4.0-0.0-3.0,,,,,,,,,,,,100.0,0.0,,638526640404d47424e281ff,08:53:59,03/04/2024
,"<p style=""font-size:75px;"">...</p>",,ospan,iti,fZ8DCpxJYdZe68Xk8SikmwPvHcn1,html-keyboard-response,121,1069711,0.0-46.0-4.0-1.0-0.0,,,,,,,,,,,,,,,638526640404d47424e281ff,08:53:59,03/04/2024
1041.0,,,ospan,symmetry,fZ8DCpxJYdZe68Xk8SikmwPvHcn1,symmetry-judgement-task,122,1071923,0.0-46.0-4.0-1.0-1.0-0.0,,,,,,,,,,1.0,1.0,,,,638526640404d47424e281ff,08:53:59,03/04/2024
,"<div style=""font-size: 10rem; color: #0000FF"">P</div>",,ospan,letter,fZ8DCpxJYdZe68Xk8SikmwPvHcn1,html-keyboard-response,123,1072938,0.0-46.0-4.0-1.0-1.0-1.0,,,,,,,,,,,,,,,638526640404d47424e281ff,08:53:59,03/04/2024
2042.0,,,ospan,symmetry,fZ8DCpxJYdZe68Xk8SikmwPvHcn1,symmetry-judgement-task,124,1076952,0.0-46.0-4.0-1.0-1.0-2.0,,,,,,,,,,1.0,1.0,,,,638526640404d47424e281ff,08:53:59,03/04/2024
,"<div style=""font-size: 10rem; color: #0000FF"">J</div>",,ospan,letter,fZ8DCpxJYdZe68Xk8SikmwPvHcn1,html-keyboard-response,125,1077963,0.0-46.0-4.0-1.0-1.0-3.0,,,,,,,,,,,,,,,638526640404d47424e281ff,08:53:59,03/04/2024
1923.0,,,ospan,symmetry,fZ8DCpxJYdZe68Xk8SikmwPvHcn1,symmetry-judgement-task,126,1081863,0.0-46.0-4.0-1.0-1.0-4.0,,,,,,,,,,1.0,1.0,,,,638526640404d47424e281ff,08:53:59,03/04/2024
,"<div style=""font-size: 10rem; color: #0000FF"">Y</div>",,ospan,letter,fZ8DCpxJYdZe68Xk8SikmwPvHcn1,html-keyboard-response,127,1082878,0.0-46.0-4.0-1.0-1.0-5.0,,,,,,,,,,,,,,,638526640404d47424e281ff,08:53:59,03/04/2024
2168.0,,,ospan,symmetry,fZ8DCpxJYdZe68Xk8SikmwPvHcn1,symmetry-judgement-task,128,1086989,0.0-46.0-4.0-1.0-1.0-6.0,,,,,,,,,,1.0,1.0,,,,638526640404d47424e281ff,08:53:59,03/04/2024
,"<div style=""font-size: 10rem; color: #0000FF"">N</div>",,ospan,letter,fZ8DCpxJYdZe68Xk8SikmwPvHcn1,html-keyboard-response,129,1088001,0.0-46.0-4.0-1.0-1.0-7.0,,,,,,,,,,,,,,,638526640404d47424e281ff,08:53:59,03/04/2024
998.0,,,ospan,symmetry,fZ8DCpxJYdZe68Xk8SikmwPvHcn1,symmetry-judgement-task,130,1090933,0.0-46.0-4.0-1.0-1.0-8.0,,,,,,,,,,1.0,1.0,,,,638526640404d47424e281ff,08:53:59,03/04/2024
,"<div style=""font-size: 10rem; color: #0000FF"">R</div>",,ospan,letter,fZ8DCpxJYdZe68Xk8SikmwPvHcn1,html-keyboard-response,131,1091936,0.0-46.0-4.0-1.0-1.0-9.0,,,,,,,,,,,,,,,638526640404d47424e281ff,08:53:59,03/04/2024
5289.699999999953,"<div class = numbox><p style=""font-size: 2.4rem"">Please recall the letters you saw to the best of your ability. If you do not remember a particular letter, use the SKIP button.<br><b>(When you are ready to lock in your answer, press ENTER)</b></p><button id = button_1 class = ""square num-button"" onclick = ""recordClick(this)""><div class = content><div class = numbers>C</div></div></button><button id = button_2 class = ""square num-button"" onclick = ""recordClick(this)""><div class = content><div class = numbers>G</div></div></button><button id = button_3 class = ""square num-button"" onclick = ""recordClick(this)""><div class = content><div class = numbers>H</div></div></button><button id = button_4 class = ""square num-button"" onclick = ""recordClick(this)""><div class = content><div class = numbers>J</div></div></button><button id = button_5 class = ""square num-button"" onclick = ""recordClick(this)""><div class = content><div class = numbers>K</div></div></button><button id = button_6 class = ""square num-button"" onclick = ""recordClick(this)""><div class = content><div class = numbers>L</div></div></button><button id = button_7 class = ""square num-button"" onclick = ""recordClick(this)""><div class = content><div class = numbers>N</div></div></button><button id = button_8 class = ""square num-button"" onclick = ""recordClick(this)""><div class = content><div class = numbers>P</div></div></button><button id = button_9 class = ""square num-button"" onclick = ""recordClick(this)""><div class = content><div class = numbers>Q</div></div></button><button id = button_10 class = ""square num-button"" onclick = ""recordClick(this)""><div class = content><div class = numbers>R</div></div></button><button id = button_11 class = ""square num-button"" onclick = ""recordClick(this)""><div class = content><div class = numbers>S</div></div></button><button id = button_12 class = ""square num-button"" onclick = ""recordClick(this)""><div class = content><div class = numbers>Y</div></div></button><button class = clear_button id = ""ClearButton"" onclick = ""clearResponse()"">BACKSPACE</button><button class = blank_button id = ""BlankButton"" onclick = ""blankResponse()"">SKIP</button><p style=""font-size: 2.4rem""><u><b>Current Answer:</b></u></p><br><br><div id=echoed_txt style=""font-size: 5rem; color:blue;""><b></b></div></div>",enter,ospan,retrieval,fZ8DCpxJYdZe68Xk8SikmwPvHcn1,html-keyboard-response,132,1097979,0.0-46.0-4.0-1.0-2.0,12,12,12,5.0,"[""P"",""J"",""Y"",""N"",""R""]","[""P"",""J"",""Y"",""N"",""R""]",1.0,5.0,,,,,,,638526640404d47424e281ff,08:53:59,03/04/2024
6649.799999999814,[''],0,ospan,feedback,fZ8DCpxJYdZe68Xk8SikmwPvHcn1,html-button-response,133,1105131,0.0-46.0-4.0-1.0-3.0,,,,,,,,,,,,100.0,0.0,,638526640404d47424e281ff,08:53:59,03/04/2024
,"<p style=""font-size:75px;"">...</p>",,ospan,iti,fZ8DCpxJYdZe68Xk8SikmwPvHcn1,html-keyboard-response,134,1106140,0.0-46.0-4.0-2.0-0.0,,,,,,,,,,,,,,,638526640404d47424e281ff,08:53:59,03/04/2024
1079.0,,,ospan,symmetry,fZ8DCpxJYdZe68Xk8SikmwPvHcn1,symmetry-judgement-task,135,1108421,0.0-46.0-4.0-2.0-1.0-0.0,,,,,,,,,,1.0,1.0,,,,638526640404d47424e281ff,08:53:59,03/04/2024
,"<div style=""font-size: 10rem; color: #0000FF"">R</div>",,ospan,letter,fZ8DCpxJYdZe68Xk8SikmwPvHcn1,html-keyboard-response,136,1109437,0.0-46.0-4.0-2.0-1.0-1.0,,,,,,,,,,,,,,,638526640404d47424e281ff,08:53:59,03/04/2024
1681.0,,,ospan,symmetry,fZ8DCpxJYdZe68Xk8SikmwPvHcn1,symmetry-judgement-task,137,1113100,0.0-46.0-4.0-2.0-1.0-2.0,,,,,,,,,,1.0,1.0,,,,638526640404d47424e281ff,08:53:59,03/04/2024
,"<div style=""font-size: 10rem; color: #0000FF"">C</div>",,ospan,letter,fZ8DCpxJYdZe68Xk8SikmwPvHcn1,html-keyboard-response,138,1114113,0.0-46.0-4.0-2.0-1.0-3.0,,,,,,,,,,,,,,,638526640404d47424e281ff,08:53:59,03/04/2024
865.0,,,ospan,symmetry,fZ8DCpxJYdZe68Xk8SikmwPvHcn1,symmetry-judgement-task,139,1116956,0.0-46.0-4.0-2.0-1.0-4.0,,,,,,,,,,1.0,1.0,,,,638526640404d47424e281ff,08:53:59,03/04/2024
,"<div style=""font-size: 10rem; color: #0000FF"">L</div>",,ospan,letter,fZ8DCpxJYdZe68Xk8SikmwPvHcn1,html-keyboard-response,140,1117966,0.0-46.0-4.0-2.0-1.0-5.0,,,,,,,,,,,,,,,638526640404d47424e281ff,08:53:59,03/04/2024
5407.899999999907,"<div class = numbox><p style=""font-size: 2.4rem"">Please recall the letters you saw to the best of your ability. If you do not remember a particular letter, use the SKIP button.<br><b>(When you are ready to lock in your answer, press ENTER)</b></p><button id = button_1 class = ""square num-button"" onclick = ""recordClick(this)""><div class = content><div class = numbers>C</div></div></button><button id = button_2 class = ""square num-button"" onclick = ""recordClick(this)""><div class = content><div class = numbers>G</div></div></button><button id = button_3 class = ""square num-button"" onclick = ""recordClick(this)""><div class = content><div class = numbers>H</div></div></button><button id = button_4 class = ""square num-button"" onclick = ""recordClick(this)""><div class = content><div class = numbers>J</div></div></button><button id = button_5 class = ""square num-button"" onclick = ""recordClick(this)""><div class = content><div class = numbers>K</div></div></button><button id = button_6 class = ""square num-button"" onclick = ""recordClick(this)""><div class = content><div class = numbers>L</div></div></button><button id = button_7 class = ""square num-button"" onclick = ""recordClick(this)""><div class = content><div class = numbers>N</div></div></button><button id = button_8 class = ""square num-button"" onclick = ""recordClick(this)""><div class = content><div class = numbers>P</div></div></button><button id = button_9 class = ""square num-button"" onclick = ""recordClick(this)""><div class = content><div class = numbers>Q</div></div></button><button id = button_10 class = ""square num-button"" onclick = ""recordClick(this)""><div class = content><div class = numbers>R</div></div></button><button id = button_11 class = ""square num-button"" onclick = ""recordClick(this)""><div class = content><div class = numbers>S</div></div></button><button id = button_12 class = ""square num-button"" onclick = ""recordClick(this)""><div class = content><div class = numbers>Y</div></div></button><button class = clear_button id = ""ClearButton"" onclick = ""clearResponse()"">BACKSPACE</button><button class = blank_button id = ""BlankButton"" onclick = ""blankResponse()"">SKIP</button><p style=""font-size: 2.4rem""><u><b>Current Answer:</b></u></p><br><br><div id=echoed_txt style=""font-size: 5rem; color:blue;""><b></b></div></div>",enter,ospan,retrieval,fZ8DCpxJYdZe68Xk8SikmwPvHcn1,html-keyboard-response,141,1124130,0.0-46.0-4.0-2.0-2.0,15,15,15,3.0,"[""R"",""C"",""L""]","[""R"",""C"",""L""]",1.0,3.0,,,,,,,638526640404d47424e281ff,08:53:59,03/04/2024
909.6000000000931,[''],0,ospan,feedback,fZ8DCpxJYdZe68Xk8SikmwPvHcn1,html-button-response,142,1125548,0.0-46.0-4.0-2.0-3.0,,,,,,,,,,,,100.0,0.0,,638526640404d47424e281ff,08:53:59,03/04/2024
,"<p style=""font-size:75px;"">...</p>",,ospan,iti,fZ8DCpxJYdZe68Xk8SikmwPvHcn1,html-keyboard-response,143,1126561,0.0-46.0-5.0-0.0-0.0,,,,,,,,,,,,,,,638526640404d47424e281ff,08:53:59,03/04/2024
947.0,,,ospan,symmetry,fZ8DCpxJYdZe68Xk8SikmwPvHcn1,symmetry-judgement-task,144,1128711,0.0-46.0-5.0-0.0-1.0-0.0,,,,,,,,,,1.0,1.0,,,,638526640404d47424e281ff,08:53:59,03/04/2024
,"<div style=""font-size: 10rem; color: #0000FF"">G</div>",,ospan,letter,fZ8DCpxJYdZe68Xk8SikmwPvHcn1,html-keyboard-response,145,1129726,0.0-46.0-5.0-0.0-1.0-1.0,,,,,,,,,,,,,,,638526640404d47424e281ff,08:53:59,03/04/2024
885.0,,,ospan,symmetry,fZ8DCpxJYdZe68Xk8SikmwPvHcn1,symmetry-judgement-task,146,1132561,0.0-46.0-5.0-0.0-1.0-2.0,,,,,,,,,,1.0,1.0,,,,638526640404d47424e281ff,08:53:59,03/04/2024
,"<div style=""font-size: 10rem; color: #0000FF"">P</div>",,ospan,letter,fZ8DCpxJYdZe68Xk8SikmwPvHcn1,html-keyboard-response,147,1133569,0.0-46.0-5.0-0.0-1.0-3.0,,,,,,,,,,,,,,,638526640404d47424e281ff,08:53:59,03/04/2024
765.0,,,ospan,symmetry,fZ8DCpxJYdZe68Xk8SikmwPvHcn1,symmetry-judgement-task,148,1136309,0.0-46.0-5.0-0.0-1.0-4.0,,,,,,,,,,1.0,1.0,,,,638526640404d47424e281ff,08:53:59,03/04/2024
,"<div style=""font-size: 10rem; color: #0000FF"">H</div>",,ospan,letter,fZ8DCpxJYdZe68Xk8SikmwPvHcn1,html-keyboard-response,149,1137321,0.0-46.0-5.0-0.0-1.0-5.0,,,,,,,,,,,,,,,638526640404d47424e281ff,08:53:59,03/04/2024
899.0,,,ospan,symmetry,fZ8DCpxJYdZe68Xk8SikmwPvHcn1,symmetry-judgement-task,150,1140157,0.0-46.0-5.0-0.0-1.0-6.0,,,,,,,,,,1.0,1.0,,,,638526640404d47424e281ff,08:53:59,03/04/2024
,"<div style=""font-size: 10rem; color: #0000FF"">S</div>",,ospan,letter,fZ8DCpxJYdZe68Xk8SikmwPvHcn1,html-keyboard-response,151,1141163,0.0-46.0-5.0-0.0-1.0-7.0,,,,,,,,,,,,,,,638526640404d47424e281ff,08:53:59,03/04/2024
1498.0,,,ospan,symmetry,fZ8DCpxJYdZe68Xk8SikmwPvHcn1,symmetry-judgement-task,152,1144639,0.0-46.0-5.0-0.0-1.0-8.0,,,,,,,,,,1.0,1.0,,,,638526640404d47424e281ff,08:53:59,03/04/2024
,"<div style=""font-size: 10rem; color: #0000FF"">L</div>",,ospan,letter,fZ8DCpxJYdZe68Xk8SikmwPvHcn1,html-keyboard-response,153,1145644,0.0-46.0-5.0-0.0-1.0-9.0,,,,,,,,,,,,,,,638526640404d47424e281ff,08:53:59,03/04/2024
1148.0,,,ospan,symmetry,fZ8DCpxJYdZe68Xk8SikmwPvHcn1,symmetry-judgement-task,154,1148754,0.0-46.0-5.0-0.0-1.0-10.0,,,,,,,,,,1.0,1.0,,,,638526640404d47424e281ff,08:53:59,03/04/2024
,"<div style=""font-size: 10rem; color: #0000FF"">R</div>",,ospan,letter,fZ8DCpxJYdZe68Xk8SikmwPvHcn1,html-keyboard-response,155,1149764,0.0-46.0-5.0-0.0-1.0-11.0,,,,,,,,,,,,,,,638526640404d47424e281ff,08:53:59,03/04/2024
7749.09999999986,"<div class = numbox><p style=""font-size: 2.4rem"">Please recall the letters you saw to the best of your ability. If you do not remember a particular letter, use the SKIP button.<br><b>(When you are ready to lock in your answer, press ENTER)</b></p><button id = button_1 class = ""square num-button"" onclick = ""recordClick(this)""><div class = content><div class = numbers>C</div></div></button><button id = button_2 class = ""square num-button"" onclick = ""recordClick(this)""><div class = content><div class = numbers>G</div></div></button><button id = button_3 class = ""square num-button"" onclick = ""recordClick(this)""><div class = content><div class = numbers>H</div></div></button><button id = button_4 class = ""square num-button"" onclick = ""recordClick(this)""><div class = content><div class = numbers>J</div></div></button><button id = button_5 class = ""square num-button"" onclick = ""recordClick(this)""><div class = content><div class = numbers>K</div></div></button><button id = button_6 class = ""square num-button"" onclick = ""recordClick(this)""><div class = content><div class = numbers>L</div></div></button><button id = button_7 class = ""square num-button"" onclick = ""recordClick(this)""><div class = content><div class = numbers>N</div></div></button><button id = button_8 class = ""square num-button"" onclick = ""recordClick(this)""><div class = content><div class = numbers>P</div></div></button><button id = button_9 class = ""square num-button"" onclick = ""recordClick(this)""><div class = content><div class = numbers>Q</div></div></button><button id = button_10 class = ""square num-button"" onclick = ""recordClick(this)""><div class = content><div class = numbers>R</div></div></button><button id = button_11 class = ""square num-button"" onclick = ""recordClick(this)""><div class = content><div class = numbers>S</div></div></button><button id = button_12 class = ""square num-button"" onclick = ""recordClick(this)""><div class = content><div class = numbers>Y</div></div></button><button class = clear_button id = ""ClearButton"" onclick = ""clearResponse()"">BACKSPACE</button><button class = blank_button id = ""BlankButton"" onclick = ""blankResponse()"">SKIP</button><p style=""font-size: 2.4rem""><u><b>Current Answer:</b></u></p><br><br><div id=echoed_txt style=""font-size: 5rem; color:blue;""><b></b></div></div>",enter,ospan,retrieval,fZ8DCpxJYdZe68Xk8SikmwPvHcn1,html-keyboard-response,156,1158278,0.0-46.0-5.0-0.0-2.0,21,18,15,6.0,"[""G"",""P"",""L"",""S"",""R""]","[""G"",""P"",""H"",""S"",""L"",""R""]",0.0,3.0,,,,,,,638526640404d47424e281ff,08:53:59,03/04/2024
791.3999999999069,[''],0,ospan,feedback,fZ8DCpxJYdZe68Xk8SikmwPvHcn1,html-button-response,157,1159572,0.0-46.0-5.0-0.0-3.0,,,,,,,,,,,,100.0,0.0,,638526640404d47424e281ff,08:53:59,03/04/2024
,"<p style=""font-size:75px;"">...</p>",,ospan,iti,fZ8DCpxJYdZe68Xk8SikmwPvHcn1,html-keyboard-response,158,1160574,0.0-46.0-5.0-1.0-0.0,,,,,,,,,,,,,,,638526640404d47424e281ff,08:53:59,03/04/2024
1095.0,,,ospan,symmetry,fZ8DCpxJYdZe68Xk8SikmwPvHcn1,symmetry-judgement-task,159,1162717,0.0-46.0-5.0-1.0-1.0-0.0,,,,,,,,,,1.0,1.0,,,,638526640404d47424e281ff,08:53:59,03/04/2024
,"<div style=""font-size: 10rem; color: #0000FF"">P</div>",,ospan,letter,fZ8DCpxJYdZe68Xk8SikmwPvHcn1,html-keyboard-response,160,1163724,0.0-46.0-5.0-1.0-1.0-1.0,,,,,,,,,,,,,,,638526640404d47424e281ff,08:53:59,03/04/2024
965.0,,,ospan,symmetry,fZ8DCpxJYdZe68Xk8SikmwPvHcn1,symmetry-judgement-task,161,1166614,0.0-46.0-5.0-1.0-1.0-2.0,,,,,,,,,,1.0,1.0,,,,638526640404d47424e281ff,08:53:59,03/04/2024
,"<div style=""font-size: 10rem; color: #0000FF"">S</div>",,ospan,letter,fZ8DCpxJYdZe68Xk8SikmwPvHcn1,html-keyboard-response,162,1167616,0.0-46.0-5.0-1.0-1.0-3.0,,,,,,,,,,,,,,,638526640404d47424e281ff,08:53:59,03/04/2024
1225.0,,,ospan,symmetry,fZ8DCpxJYdZe68Xk8SikmwPvHcn1,symmetry-judgement-task,163,1170803,0.0-46.0-5.0-1.0-1.0-4.0,,,,,,,,,,1.0,1.0,,,,638526640404d47424e281ff,08:53:59,03/04/2024
,"<div style=""font-size: 10rem; color: #0000FF"">J</div>",,ospan,letter,fZ8DCpxJYdZe68Xk8SikmwPvHcn1,html-keyboard-response,164,1171810,0.0-46.0-5.0-1.0-1.0-5.0,,,,,,,,,,,,,,,638526640404d47424e281ff,08:53:59,03/04/2024
812.0,,,ospan,symmetry,fZ8DCpxJYdZe68Xk8SikmwPvHcn1,symmetry-judgement-task,165,1174574,0.0-46.0-5.0-1.0-1.0-6.0,,,,,,,,,,1.0,1.0,,,,638526640404d47424e281ff,08:53:59,03/04/2024
,"<div style=""font-size: 10rem; color: #0000FF"">C</div>",,ospan,letter,fZ8DCpxJYdZe68Xk8SikmwPvHcn1,html-keyboard-response,166,1175588,0.0-46.0-5.0-1.0-1.0-7.0,,,,,,,,,,,,,,,638526640404d47424e281ff,08:53:59,03/04/2024
795.0,,,ospan,symmetry,fZ8DCpxJYdZe68Xk8SikmwPvHcn1,symmetry-judgement-task,167,1178362,0.0-46.0-5.0-1.0-1.0-8.0,,,,,,,,,,1.0,1.0,,,,638526640404d47424e281ff,08:53:59,03/04/2024
,"<div style=""font-size: 10rem; color: #0000FF"">K</div>",,ospan,letter,fZ8DCpxJYdZe68Xk8SikmwPvHcn1,html-keyboard-response,168,1179376,0.0-46.0-5.0-1.0-1.0-9.0,,,,,,,,,,,,,,,638526640404d47424e281ff,08:53:59,03/04/2024
992.0,,,ospan,symmetry,fZ8DCpxJYdZe68Xk8SikmwPvHcn1,symmetry-judgement-task,169,1182345,0.0-46.0-5.0-1.0-1.0-10.0,,,,,,,,,,1.0,1.0,,,,638526640404d47424e281ff,08:53:59,03/04/2024
,"<div style=""font-size: 10rem; color: #0000FF"">L</div>",,ospan,letter,fZ8DCpxJYdZe68Xk8SikmwPvHcn1,html-keyboard-response,170,1183361,0.0-46.0-5.0-1.0-1.0-11.0,,,,,,,,,,,,,,,638526640404d47424e281ff,08:53:59,03/04/2024
1176.0,,,ospan,symmetry,fZ8DCpxJYdZe68Xk8SikmwPvHcn1,symmetry-judgement-task,171,1186513,0.0-46.0-5.0-1.0-1.0-12.0,,,,,,,,,,1.0,1.0,,,,638526640404d47424e281ff,08:53:59,03/04/2024
,"<div style=""font-size: 10rem; color: #0000FF"">G</div>",,ospan,letter,fZ8DCpxJYdZe68Xk8SikmwPvHcn1,html-keyboard-response,172,1187518,0.0-46.0-5.0-1.0-1.0-13.0,,,,,,,,,,,,,,,638526640404d47424e281ff,08:53:59,03/04/2024
7155.399999999907,"<div class = numbox><p style=""font-size: 2.4rem"">Please recall the letters you saw to the best of your ability. If you do not remember a particular letter, use the SKIP button.<br><b>(When you are ready to lock in your answer, press ENTER)</b></p><button id = button_1 class = ""square num-button"" onclick = ""recordClick(this)""><div class = content><div class = numbers>C</div></div></button><button id = button_2 class = ""square num-button"" onclick = ""recordClick(this)""><div class = content><div class = numbers>G</div></div></button><button id = button_3 class = ""square num-button"" onclick = ""recordClick(this)""><div class = content><div class = numbers>H</div></div></button><button id = button_4 class = ""square num-button"" onclick = ""recordClick(this)""><div class = content><div class = numbers>J</div></div></button><button id = button_5 class = ""square num-button"" onclick = ""recordClick(this)""><div class = content><div class = numbers>K</div></div></button><button id = button_6 class = ""square num-button"" onclick = ""recordClick(this)""><div class = content><div class = numbers>L</div></div></button><button id = button_7 class = ""square num-button"" onclick = ""recordClick(this)""><div class = content><div class = numbers>N</div></div></button><button id = button_8 class = ""square num-button"" onclick = ""recordClick(this)""><div class = content><div class = numbers>P</div></div></button><button id = button_9 class = ""square num-button"" onclick = ""recordClick(this)""><div class = content><div class = numbers>Q</div></div></button><button id = button_10 class = ""square num-button"" onclick = ""recordClick(this)""><div class = content><div class = numbers>R</div></div></button><button id = button_11 class = ""square num-button"" onclick = ""recordClick(this)""><div class = content><div class = numbers>S</div></div></button><button id = button_12 class = ""square num-button"" onclick = ""recordClick(this)""><div class = content><div class = numbers>Y</div></div></button><button class = clear_button id = ""ClearButton"" onclick = ""clearResponse()"">BACKSPACE</button><button class = blank_button id = ""BlankButton"" onclick = ""blankResponse()"">SKIP</button><p style=""font-size: 2.4rem""><u><b>Current Answer:</b></u></p><br><br><div id=echoed_txt style=""font-size: 5rem; color:blue;""><b></b></div></div>",enter,ospan,retrieval,fZ8DCpxJYdZe68Xk8SikmwPvHcn1,html-keyboard-response,173,1195432,0.0-46.0-5.0-1.0-2.0,28,19,15,7.0,"[""P"",""J"",""C"",""K"",""L""]","[""P"",""S"",""J"",""C"",""K"",""L"",""G""]",0.0,1.0,,,,,,,638526640404d47424e281ff,08:53:59,03/04/2024
1283.8000000000466,[''],0,ospan,feedback,fZ8DCpxJYdZe68Xk8SikmwPvHcn1,html-button-response,174,1197228,0.0-46.0-5.0-1.0-3.0,,,,,,,,,,,,100.0,0.0,,638526640404d47424e281ff,08:53:59,03/04/2024
,"<p style=""font-size:75px;"">...</p>",,ospan,iti,fZ8DCpxJYdZe68Xk8SikmwPvHcn1,html-keyboard-response,175,1198231,0.0-46.0-6.0-0.0-0.0,,,,,,,,,,,,,,,638526640404d47424e281ff,08:53:59,03/04/2024
1214.0,,,ospan,symmetry,fZ8DCpxJYdZe68Xk8SikmwPvHcn1,symmetry-judgement-task,176,1200642,0.0-46.0-6.0-0.0-1.0-0.0,,,,,,,,,,1.0,1.0,,,,638526640404d47424e281ff,08:53:59,03/04/2024
,"<div style=""font-size: 10rem; color: #0000FF"">N</div>",,ospan,letter,fZ8DCpxJYdZe68Xk8SikmwPvHcn1,html-keyboard-response,177,1201652,0.0-46.0-6.0-0.0-1.0-1.0,,,,,,,,,,,,,,,638526640404d47424e281ff,08:53:59,03/04/2024
1215.0,,,ospan,symmetry,fZ8DCpxJYdZe68Xk8SikmwPvHcn1,symmetry-judgement-task,178,1204804,0.0-46.0-6.0-0.0-1.0-2.0,,,,,,,,,,1.0,1.0,,,,638526640404d47424e281ff,08:53:59,03/04/2024
,"<div style=""font-size: 10rem; color: #0000FF"">G</div>",,ospan,letter,fZ8DCpxJYdZe68Xk8SikmwPvHcn1,html-keyboard-response,179,1205818,0.0-46.0-6.0-0.0-1.0-3.0,,,,,,,,,,,,,,,638526640404d47424e281ff,08:53:59,03/04/2024
1359.0,,,ospan,symmetry,fZ8DCpxJYdZe68Xk8SikmwPvHcn1,symmetry-judgement-task,180,1209134,0.0-46.0-6.0-0.0-1.0-4.0,,,,,,,,,,1.0,1.0,,,,638526640404d47424e281ff,08:53:59,03/04/2024
,"<div style=""font-size: 10rem; color: #0000FF"">C</div>",,ospan,letter,fZ8DCpxJYdZe68Xk8SikmwPvHcn1,html-keyboard-response,181,1210147,0.0-46.0-6.0-0.0-1.0-5.0,,,,,,,,,,,,,,,638526640404d47424e281ff,08:53:59,03/04/2024
853.0,,,ospan,symmetry,fZ8DCpxJYdZe68Xk8SikmwPvHcn1,symmetry-judgement-task,182,1212951,0.0-46.0-6.0-0.0-1.0-6.0,,,,,,,,,,1.0,1.0,,,,638526640404d47424e281ff,08:53:59,03/04/2024
,"<div style=""font-size: 10rem; color: #0000FF"">K</div>",,ospan,letter,fZ8DCpxJYdZe68Xk8SikmwPvHcn1,html-keyboard-response,183,1213967,0.0-46.0-6.0-0.0-1.0-7.0,,,,,,,,,,,,,,,638526640404d47424e281ff,08:53:59,03/04/2024
1261.0,,,ospan,symmetry,fZ8DCpxJYdZe68Xk8SikmwPvHcn1,symmetry-judgement-task,184,1217196,0.0-46.0-6.0-0.0-1.0-8.0,,,,,,,,,,1.0,1.0,,,,638526640404d47424e281ff,08:53:59,03/04/2024
,"<div style=""font-size: 10rem; color: #0000FF"">J</div>",,ospan,letter,fZ8DCpxJYdZe68Xk8SikmwPvHcn1,html-keyboard-response,185,1218207,0.0-46.0-6.0-0.0-1.0-9.0,,,,,,,,,,,,,,,638526640404d47424e281ff,08:53:59,03/04/2024
7452.40000000014,"<div class = numbox><p style=""font-size: 2.4rem"">Please recall the letters you saw to the best of your ability. If you do not remember a particular letter, use the SKIP button.<br><b>(When you are ready to lock in your answer, press ENTER)</b></p><button id = button_1 class = ""square num-button"" onclick = ""recordClick(this)""><div class = content><div class = numbers>C</div></div></button><button id = button_2 class = ""square num-button"" onclick = ""recordClick(this)""><div class = content><div class = numbers>G</div></div></button><button id = button_3 class = ""square num-button"" onclick = ""recordClick(this)""><div class = content><div class = numbers>H</div></div></button><button id = button_4 class = ""square num-button"" onclick = ""recordClick(this)""><div class = content><div class = numbers>J</div></div></button><button id = button_5 class = ""square num-button"" onclick = ""recordClick(this)""><div class = content><div class = numbers>K</div></div></button><button id = button_6 class = ""square num-button"" onclick = ""recordClick(this)""><div class = content><div class = numbers>L</div></div></button><button id = button_7 class = ""square num-button"" onclick = ""recordClick(this)""><div class = content><div class = numbers>N</div></div></button><button id = button_8 class = ""square num-button"" onclick = ""recordClick(this)""><div class = content><div class = numbers>P</div></div></button><button id = button_9 class = ""square num-button"" onclick = ""recordClick(this)""><div class = content><div class = numbers>Q</div></div></button><button id = button_10 class = ""square num-button"" onclick = ""recordClick(this)""><div class = content><div class = numbers>R</div></div></button><button id = button_11 class = ""square num-button"" onclick = ""recordClick(this)""><div class = content><div class = numbers>S</div></div></button><button id = button_12 class = ""square num-button"" onclick = ""recordClick(this)""><div class = content><div class = numbers>Y</div></div></button><button class = clear_button id = ""ClearButton"" onclick = ""clearResponse()"">BACKSPACE</button><button class = blank_button id = ""BlankButton"" onclick = ""blankResponse()"">SKIP</button><p style=""font-size: 2.4rem""><u><b>Current Answer:</b></u></p><br><br><div id=echoed_txt style=""font-size: 5rem; color:blue;""><b></b></div></div>",enter,ospan,retrieval,fZ8DCpxJYdZe68Xk8SikmwPvHcn1,html-keyboard-response,186,1226427,0.0-46.0-6.0-0.0-2.0,33,24,20,5.0,"[""N"",""G"",""C"",""K"",""J""]","[""N"",""G"",""C"",""K"",""J""]",1.0,5.0,,,,,,,638526640404d47424e281ff,08:53:59,03/04/2024
740.4000000001397,[''],0,ospan,feedback,fZ8DCpxJYdZe68Xk8SikmwPvHcn1,html-button-response,187,1227676,0.0-46.0-6.0-0.0-3.0,,,,,,,,,,,,100.0,0.0,,638526640404d47424e281ff,08:53:59,03/04/2024
,"<p style=""font-size:75px;"">...</p>",,ospan,iti,fZ8DCpxJYdZe68Xk8SikmwPvHcn1,html-keyboard-response,188,1228679,0.0-46.0-6.0-1.0-0.0,,,,,,,,,,,,,,,638526640404d47424e281ff,08:53:59,03/04/2024
1392.0,,,ospan,symmetry,fZ8DCpxJYdZe68Xk8SikmwPvHcn1,symmetry-judgement-task,189,1231262,0.0-46.0-6.0-1.0-1.0-0.0,,,,,,,,,,1.0,1.0,,,,638526640404d47424e281ff,08:53:59,03/04/2024
,"<div style=""font-size: 10rem; color: #0000FF"">C</div>",,ospan,letter,fZ8DCpxJYdZe68Xk8SikmwPvHcn1,html-keyboard-response,190,1232267,0.0-46.0-6.0-1.0-1.0-1.0,,,,,,,,,,,,,,,638526640404d47424e281ff,08:53:59,03/04/2024
805.0,,,ospan,symmetry,fZ8DCpxJYdZe68Xk8SikmwPvHcn1,symmetry-judgement-task,191,1235015,0.0-46.0-6.0-1.0-1.0-2.0,,,,,,,,,,1.0,1.0,,,,638526640404d47424e281ff,08:53:59,03/04/2024
,"<div style=""font-size: 10rem; color: #0000FF"">Y</div>",,ospan,letter,fZ8DCpxJYdZe68Xk8SikmwPvHcn1,html-keyboard-response,192,1236026,0.0-46.0-6.0-1.0-1.0-3.0,,,,,,,,,,,,,,,638526640404d47424e281ff,08:53:59,03/04/2024
4564.0,,,ospan,symmetry,fZ8DCpxJYdZe68Xk8SikmwPvHcn1,symmetry-judgement-task,193,1242572,0.0-46.0-6.0-1.0-1.0-4.0,,,,,,,,,,1.0,1.0,,,,638526640404d47424e281ff,08:53:59,03/04/2024
,"<div style=""font-size: 10rem; color: #0000FF"">G</div>",,ospan,letter,fZ8DCpxJYdZe68Xk8SikmwPvHcn1,html-keyboard-response,194,1243585,0.0-46.0-6.0-1.0-1.0-5.0,,,,,,,,,,,,,,,638526640404d47424e281ff,08:53:59,03/04/2024
1550.0,,,ospan,symmetry,fZ8DCpxJYdZe68Xk8SikmwPvHcn1,symmetry-judgement-task,195,1247087,0.0-46.0-6.0-1.0-1.0-6.0,,,,,,,,,,1.0,1.0,,,,638526640404d47424e281ff,08:53:59,03/04/2024
,"<div style=""font-size: 10rem; color: #0000FF"">S</div>",,ospan,letter,fZ8DCpxJYdZe68Xk8SikmwPvHcn1,html-keyboard-response,196,1248093,0.0-46.0-6.0-1.0-1.0-7.0,,,,,,,,,,,,,,,638526640404d47424e281ff,08:53:59,03/04/2024
1096.0,,,ospan,symmetry,fZ8DCpxJYdZe68Xk8SikmwPvHcn1,symmetry-judgement-task,197,1251163,0.0-46.0-6.0-1.0-1.0-8.0,,,,,,,,,,1.0,1.0,,,,638526640404d47424e281ff,08:53:59,03/04/2024
,"<div style=""font-size: 10rem; color: #0000FF"">H</div>",,ospan,letter,fZ8DCpxJYdZe68Xk8SikmwPvHcn1,html-keyboard-response,198,1252174,0.0-46.0-6.0-1.0-1.0-9.0,,,,,,,,,,,,,,,638526640404d47424e281ff,08:53:59,03/04/2024
810.0,,,ospan,symmetry,fZ8DCpxJYdZe68Xk8SikmwPvHcn1,symmetry-judgement-task,199,1254937,0.0-46.0-6.0-1.0-1.0-10.0,,,,,,,,,,1.0,1.0,,,,638526640404d47424e281ff,08:53:59,03/04/2024
,"<div style=""font-size: 10rem; color: #0000FF"">R</div>",,ospan,letter,fZ8DCpxJYdZe68Xk8SikmwPvHcn1,html-keyboard-response,200,1255945,0.0-46.0-6.0-1.0-1.0-11.0,,,,,,,,,,,,,,,638526640404d47424e281ff,08:53:59,03/04/2024
869.0,,,ospan,symmetry,fZ8DCpxJYdZe68Xk8SikmwPvHcn1,symmetry-judgement-task,201,1258773,0.0-46.0-6.0-1.0-1.0-12.0,,,,,,,,,,1.0,1.0,,,,638526640404d47424e281ff,08:53:59,03/04/2024
,"<div style=""font-size: 10rem; color: #0000FF"">Q</div>",,ospan,letter,fZ8DCpxJYdZe68Xk8SikmwPvHcn1,html-keyboard-response,202,1259778,0.0-46.0-6.0-1.0-1.0-13.0,,,,,,,,,,,,,,,638526640404d47424e281ff,08:53:59,03/04/2024
878.0,,,ospan,symmetry,fZ8DCpxJYdZe68Xk8SikmwPvHcn1,symmetry-judgement-task,203,1262596,0.0-46.0-6.0-1.0-1.0-14.0,,,,,,,,,,1.0,1.0,,,,638526640404d47424e281ff,08:53:59,03/04/2024
,"<div style=""font-size: 10rem; color: #0000FF"">J</div>",,ospan,letter,fZ8DCpxJYdZe68Xk8SikmwPvHcn1,html-keyboard-response,204,1263598,0.0-46.0-6.0-1.0-1.0-15.0,,,,,,,,,,,,,,,638526640404d47424e281ff,08:53:59,03/04/2024
10298.5,"<div class = numbox><p style=""font-size: 2.4rem"">Please recall the letters you saw to the best of your ability. If you do not remember a particular letter, use the SKIP button.<br><b>(When you are ready to lock in your answer, press ENTER)</b></p><button id = button_1 class = ""square num-button"" onclick = ""recordClick(this)""><div class = content><div class = numbers>C</div></div></button><button id = button_2 class = ""square num-button"" onclick = ""recordClick(this)""><div class = content><div class = numbers>G</div></div></button><button id = button_3 class = ""square num-button"" onclick = ""recordClick(this)""><div class = content><div class = numbers>H</div></div></button><button id = button_4 class = ""square num-button"" onclick = ""recordClick(this)""><div class = content><div class = numbers>J</div></div></button><button id = button_5 class = ""square num-button"" onclick = ""recordClick(this)""><div class = content><div class = numbers>K</div></div></button><button id = button_6 class = ""square num-button"" onclick = ""recordClick(this)""><div class = content><div class = numbers>L</div></div></button><button id = button_7 class = ""square num-button"" onclick = ""recordClick(this)""><div class = content><div class = numbers>N</div></div></button><button id = button_8 class = ""square num-button"" onclick = ""recordClick(this)""><div class = content><div class = numbers>P</div></div></button><button id = button_9 class = ""square num-button"" onclick = ""recordClick(this)""><div class = content><div class = numbers>Q</div></div></button><button id = button_10 class = ""square num-button"" onclick = ""recordClick(this)""><div class = content><div class = numbers>R</div></div></button><button id = button_11 class = ""square num-button"" onclick = ""recordClick(this)""><div class = content><div class = numbers>S</div></div></button><button id = button_12 class = ""square num-button"" onclick = ""recordClick(this)""><div class = content><div class = numbers>Y</div></div></button><button class = clear_button id = ""ClearButton"" onclick = ""clearResponse()"">BACKSPACE</button><button class = blank_button id = ""BlankButton"" onclick = ""blankResponse()"">SKIP</button><p style=""font-size: 2.4rem""><u><b>Current Answer:</b></u></p><br><br><div id=echoed_txt style=""font-size: 5rem; color:blue;""><b></b></div></div>",enter,ospan,retrieval,fZ8DCpxJYdZe68Xk8SikmwPvHcn1,html-keyboard-response,205,1274657,0.0-46.0-6.0-1.0-2.0,41,29,20,8.0,"[""C"",""Y"",""G"",""S"",""Q"",""R"",""J""]","[""C"",""Y"",""G"",""S"",""H"",""R"",""Q"",""J""]",0.0,5.0,,,,,,,638526640404d47424e281ff,08:53:59,03/04/2024
884.1000000000931,[''],0,ospan,feedback,fZ8DCpxJYdZe68Xk8SikmwPvHcn1,html-button-response,206,1276051,0.0-46.0-6.0-1.0-3.0,,,,,,,,,,,,100.0,0.0,,638526640404d47424e281ff,08:53:59,03/04/2024
7187.800000000047,,{'Q0': 'Quite engaging!'},ospan,survey_ospan,fZ8DCpxJYdZe68Xk8SikmwPvHcn1,lmdlab-survey-text,207,1284006,0.0-46.0-7.0,,,,,,,,,,,,,,fZ8DCpxJYdZe68Xk8SikmwPvHcn1,638526640404d47424e281ff,08:53:59,03/04/2024
1439.1999999999534,<p><p style='font-size: 3rem'>Great work!<br><br>This completes the symmetry and memory task.</p><br><br><br>,0,ospan,finish,fZ8DCpxJYdZe68Xk8SikmwPvHcn1,html-button-response,208,1285452,0.0-46.0-8.0,41,29,20,,,,,,,,,100.0,,,638526640404d47424e281ff,08:53:59,03/04/2024
