rt,stimulus,response,exp_name,exp_stage,subjectID,trial_type,trial_index,time_elapsed,internal_node_id,ospan_shown,ospan_total,ospan_abs,length,resp_actual,resp_correct,full_correct,num_correct,feedback,accuracy,correct,math_acc,math_warning,databaseID,prolificID,start_time,date
254836.60000014305,<div class = 'left_align' style='font-size: 3.25rem; line-height: 1.3;'><p class = 'center_align'><b>Welcome to the Symmetry and Memory Task</b><br><br><br><br></p>Press 'continue' to show the instructions.<br><br><br><br></div>,0,ospan,instruct,2cEOVeYTJEWluxVipPTjRO50jc72,html-button-response,54,676576,0.0-46.0-0.0-0.0-0.0,,,,,,,,,,,,,,,65ddeb0d1a44628b53924756,08:47:52,03/04/2024
33238.10000014305,"<div class = 'left_align' style='font-size: 3.25rem; line-height: 1.3;'><p class = 'center_align'><b>Symmetry and Memory Task</b><br><br></p>In this task, you will try to memorize letters you see on the screen<br>while you also view black and white grid pictures.<br><br>In the next few minutes, you will have some practice to get you familiar<br>with how the task works.<br><br>It may be difficult sometimes, but please do not worry about making mistakes!<br><br>We will begin by practicing the letter part of the task.<br><br><br><br></div>",0,ospan,instruct,2cEOVeYTJEWluxVipPTjRO50jc72,html-button-response,55,710069,0.0-46.0-0.0-0.0-1.0,,,,,,,,,,,,,,,65ddeb0d1a44628b53924756,08:47:52,03/04/2024
4636.899999856949,"<div class = 'left_align' style='font-size: 3.25rem; line-height: 1.3;'>For this practice part, letters will appear on the screen one at a time.<br><br>Try to remember each letter in the order presented.<br><br>After some letters have been shown, you will see a response screen. Your<br>goal is to report the letters you saw <b>in order</b>. If you do not remember<br>a particular letter, you will have the option to leave it blank.<br><br><br><br></div>",0,ospan,instruct,2cEOVeYTJEWluxVipPTjRO50jc72,html-button-response,56,714963,0.0-46.0-0.0-0.0-2.0,,,,,,,,,,,,,,,65ddeb0d1a44628b53924756,08:47:52,03/04/2024
2397.2999999523163,"<div class = 'left_align' style='font-size: 3.25rem; line-height: 1.3;'>Remember, it is very important to get the letters in the same<br>order as you see them.<br><br>When you are ready, you may begin the letter practice.</div><br><br><br><br>",0,ospan,instruct,2cEOVeYTJEWluxVipPTjRO50jc72,html-button-response,57,717616,0.0-46.0-0.0-0.0-3.0,,,,,,,,,,,,,,,65ddeb0d1a44628b53924756,08:47:52,03/04/2024
,"<p style=""font-size:75px;"">...</p>",,ospan,iti,2cEOVeYTJEWluxVipPTjRO50jc72,html-keyboard-response,58,718874,0.0-46.0-0.0-1.0-0.0,,,,,,,,,,,,,,,65ddeb0d1a44628b53924756,08:47:52,03/04/2024
,"<div style=""font-size: 10rem; color: #0000FF"">P</div>",,ospan,letter,2cEOVeYTJEWluxVipPTjRO50jc72,html-keyboard-response,59,719883,0.0-46.0-0.0-1.0-1.0,,,,,,,,,,,,,,,65ddeb0d1a44628b53924756,08:47:52,03/04/2024
,"<div style=""font-size: 10rem; color: #0000FF"">L</div>",,ospan,letter,2cEOVeYTJEWluxVipPTjRO50jc72,html-keyboard-response,60,721645,0.0-46.0-0.0-1.0-2.0,,,,,,,,,,,,,,,65ddeb0d1a44628b53924756,08:47:52,03/04/2024
5169.900000095367,"<div class = numbox><p style=""font-size: 2.4rem"">Please recall the letters you saw to the best of your ability. If you do not remember a particular letter, use the SKIP button.<br><b>(When you are ready to lock in your answer, press ENTER)</b></p><button id = button_1 class = ""square num-button"" onclick = ""recordClick(this)""><div class = content><div class = numbers>C</div></div></button><button id = button_2 class = ""square num-button"" onclick = ""recordClick(this)""><div class = content><div class = numbers>G</div></div></button><button id = button_3 class = ""square num-button"" onclick = ""recordClick(this)""><div class = content><div class = numbers>H</div></div></button><button id = button_4 class = ""square num-button"" onclick = ""recordClick(this)""><div class = content><div class = numbers>J</div></div></button><button id = button_5 class = ""square num-button"" onclick = ""recordClick(this)""><div class = content><div class = numbers>K</div></div></button><button id = button_6 class = ""square num-button"" onclick = ""recordClick(this)""><div class = content><div class = numbers>L</div></div></button><button id = button_7 class = ""square num-button"" onclick = ""recordClick(this)""><div class = content><div class = numbers>N</div></div></button><button id = button_8 class = ""square num-button"" onclick = ""recordClick(this)""><div class = content><div class = numbers>P</div></div></button><button id = button_9 class = ""square num-button"" onclick = ""recordClick(this)""><div class = content><div class = numbers>Q</div></div></button><button id = button_10 class = ""square num-button"" onclick = ""recordClick(this)""><div class = content><div class = numbers>R</div></div></button><button id = button_11 class = ""square num-button"" onclick = ""recordClick(this)""><div class = content><div class = numbers>S</div></div></button><button id = button_12 class = ""square num-button"" onclick = ""recordClick(this)""><div class = content><div class = numbers>Y</div></div></button><button class = clear_button id = ""ClearButton"" onclick = ""clearResponse()"">BACKSPACE</button><button class = blank_button id = ""BlankButton"" onclick = ""blankResponse()"">SKIP</button><p style=""font-size: 2.4rem""><u><b>Current Answer:</b></u></p><br><br><div id=echoed_txt style=""font-size: 5rem; color:blue;""><b></b></div></div>",enter,ospan,retrieval,2cEOVeYTJEWluxVipPTjRO50jc72,html-keyboard-response,61,727574,0.0-46.0-0.0-1.0-3.0,NA,NA,NA,2.0,"[""P"",""L""]","[""P"",""L""]",1.0,2.0,"['<font color=""green"">P</font>', '<font color=""green"">L</font>']",,,,,,65ddeb0d1a44628b53924756,08:47:52,03/04/2024
1076.7000000476837,"['<p style=""font-size:44px"">Letters:<br><br><br><font color=""green"">P</font> <font color=""green"">L</font></p><br><br>']",0,ospan,practice_feedback,2cEOVeYTJEWluxVipPTjRO50jc72,html-button-response,62,729155,0.0-46.0-0.0-1.0-4.0,,,,,,,,,,,,,,,65ddeb0d1a44628b53924756,08:47:52,03/04/2024
,"<p style=""font-size:75px;"">...</p>",,ospan,iti,2cEOVeYTJEWluxVipPTjRO50jc72,html-keyboard-response,63,730162,0.0-46.0-0.0-2.0-0.0,,,,,,,,,,,,,,,65ddeb0d1a44628b53924756,08:47:52,03/04/2024
,"<div style=""font-size: 10rem; color: #0000FF"">L</div>",,ospan,letter,2cEOVeYTJEWluxVipPTjRO50jc72,html-keyboard-response,64,731169,0.0-46.0-0.0-2.0-1.0,,,,,,,,,,,,,,,65ddeb0d1a44628b53924756,08:47:52,03/04/2024
,"<div style=""font-size: 10rem; color: #0000FF"">P</div>",,ospan,letter,2cEOVeYTJEWluxVipPTjRO50jc72,html-keyboard-response,65,732924,0.0-46.0-0.0-2.0-2.0,,,,,,,,,,,,,,,65ddeb0d1a44628b53924756,08:47:52,03/04/2024
,"<div style=""font-size: 10rem; color: #0000FF"">G</div>",,ospan,letter,2cEOVeYTJEWluxVipPTjRO50jc72,html-keyboard-response,66,734680,0.0-46.0-0.0-2.0-3.0,,,,,,,,,,,,,,,65ddeb0d1a44628b53924756,08:47:52,03/04/2024
2627.7000000476837,"<div class = numbox><p style=""font-size: 2.4rem"">Please recall the letters you saw to the best of your ability. If you do not remember a particular letter, use the SKIP button.<br><b>(When you are ready to lock in your answer, press ENTER)</b></p><button id = button_1 class = ""square num-button"" onclick = ""recordClick(this)""><div class = content><div class = numbers>C</div></div></button><button id = button_2 class = ""square num-button"" onclick = ""recordClick(this)""><div class = content><div class = numbers>G</div></div></button><button id = button_3 class = ""square num-button"" onclick = ""recordClick(this)""><div class = content><div class = numbers>H</div></div></button><button id = button_4 class = ""square num-button"" onclick = ""recordClick(this)""><div class = content><div class = numbers>J</div></div></button><button id = button_5 class = ""square num-button"" onclick = ""recordClick(this)""><div class = content><div class = numbers>K</div></div></button><button id = button_6 class = ""square num-button"" onclick = ""recordClick(this)""><div class = content><div class = numbers>L</div></div></button><button id = button_7 class = ""square num-button"" onclick = ""recordClick(this)""><div class = content><div class = numbers>N</div></div></button><button id = button_8 class = ""square num-button"" onclick = ""recordClick(this)""><div class = content><div class = numbers>P</div></div></button><button id = button_9 class = ""square num-button"" onclick = ""recordClick(this)""><div class = content><div class = numbers>Q</div></div></button><button id = button_10 class = ""square num-button"" onclick = ""recordClick(this)""><div class = content><div class = numbers>R</div></div></button><button id = button_11 class = ""square num-button"" onclick = ""recordClick(this)""><div class = content><div class = numbers>S</div></div></button><button id = button_12 class = ""square num-button"" onclick = ""recordClick(this)""><div class = content><div class = numbers>Y</div></div></button><button class = clear_button id = ""ClearButton"" onclick = ""clearResponse()"">BACKSPACE</button><button class = blank_button id = ""BlankButton"" onclick = ""blankResponse()"">SKIP</button><p style=""font-size: 2.4rem""><u><b>Current Answer:</b></u></p><br><br><div id=echoed_txt style=""font-size: 5rem; color:blue;""><b></b></div></div>",enter,ospan,retrieval,2cEOVeYTJEWluxVipPTjRO50jc72,html-keyboard-response,67,738066,0.0-46.0-0.0-2.0-4.0,NA,NA,NA,3.0,"[""L"",""P"",""G""]","[""L"",""P"",""G""]",1.0,3.0,"['<font color=""green"">L</font>', '<font color=""green"">P</font>', '<font color=""green"">G</font>']",,,,,,65ddeb0d1a44628b53924756,08:47:52,03/04/2024
1371.0,"['<p style=""font-size:44px"">Letters:<br><br><br><font color=""green"">L</font> <font color=""green"">P</font> <font color=""green"">G</font></p><br><br>']",0,ospan,practice_feedback,2cEOVeYTJEWluxVipPTjRO50jc72,html-button-response,68,739940,0.0-46.0-0.0-2.0-5.0,,,,,,,,,,,,,,,65ddeb0d1a44628b53924756,08:47:52,03/04/2024
9079.599999904633,"<div class = 'left_align' style='font-size: 3.25rem; line-height: 1.3;'>Now you will practice doing the <b>symmetry judgment part</b> of the experiment.<br><br>A black and white grid picture will appear on the screen and you have to judge if it is <br>symmetrical or asymetrical.<br><br>A picture is 'mirror' symmetrical if its left half is identical to the right half when flipped.<br>Here are examples of a symmetrical and an asymetrical picture:<br><br><center><img src='Stimuli/img/symm_instructions_extra.png' style='height:420px; width:900'></img></center><br>To judge symmetry, imagine you were to fold each picture down the middle, like a book –<br>would the left half match the right half when folded onto each other?<br><br></div><br>",0,ospan,instruct,2cEOVeYTJEWluxVipPTjRO50jc72,html-button-response,69,749022,0.0-46.0-1.0-0.0-0.0,,,,,,,,,,,,,,,65ddeb0d1a44628b53924756,08:47:52,03/04/2024
5241.900000095367,"<div class = 'left_align' style='font-size: 3.25rem; line-height: 1.3;'>When you have viewed the picture and determined whether it is symmetrical or not,<br>you can <b>click the Yes or No button</b> below to answer.<br><br>If you take longer than 15 seconds, it will continue automatically<br>and record the answer as an error.</div><br>",0,ospan,instruct,2cEOVeYTJEWluxVipPTjRO50jc72,html-button-response,70,754517,0.0-46.0-1.0-0.0-1.0,,,,,,,,,,,,,,,65ddeb0d1a44628b53924756,08:47:52,03/04/2024
2185.7000000476837,"<div class = 'left_align' style='font-size: 3.25rem; line-height: 1.3;'>It is <b>very</b> important that you make the symmetry judgment correctly.<br><br>It is also important that you try and judge the picture as quickly as you can.<br><br>When you are ready, click on the button below to try some practice problems.</div><br><br><br><br>",0,ospan,instruct,2cEOVeYTJEWluxVipPTjRO50jc72,html-button-response,71,756960,0.0-46.0-1.0-0.0-2.0,,,,,,,,,,,,,,,65ddeb0d1a44628b53924756,08:47:52,03/04/2024
2299.0,,,ospan,symmetry,2cEOVeYTJEWluxVipPTjRO50jc72,symmetry-judgement-task,72,760048,0.0-46.0-1.0-1.0-0.0,,,,,,,,,,1.0,1.0,,,,65ddeb0d1a44628b53924756,08:47:52,03/04/2024
,"<p style=""color:green; font-size: 35px"">Correct</p>",,ospan,feedback,2cEOVeYTJEWluxVipPTjRO50jc72,html-keyboard-response,73,760805,0.0-46.0-1.0-1.0-1.0,,,,,,,,,,,,,,,65ddeb0d1a44628b53924756,08:47:52,03/04/2024
1303.0,,,ospan,symmetry,2cEOVeYTJEWluxVipPTjRO50jc72,symmetry-judgement-task,74,764711,0.0-46.0-1.0-1.0-2.0,,,,,,,,,,1.0,1.0,,,,65ddeb0d1a44628b53924756,08:47:52,03/04/2024
,"<p style=""color:green; font-size: 35px"">Correct</p>",,ospan,feedback,2cEOVeYTJEWluxVipPTjRO50jc72,html-keyboard-response,75,765468,0.0-46.0-1.0-1.0-3.0,,,,,,,,,,,,,,,65ddeb0d1a44628b53924756,08:47:52,03/04/2024
2390.0,,,ospan,symmetry,2cEOVeYTJEWluxVipPTjRO50jc72,symmetry-judgement-task,76,770458,0.0-46.0-1.0-1.0-4.0,,,,,,,,,,1.0,1.0,,,,65ddeb0d1a44628b53924756,08:47:52,03/04/2024
,"<p style=""color:green; font-size: 35px"">Correct</p>",,ospan,feedback,2cEOVeYTJEWluxVipPTjRO50jc72,html-keyboard-response,77,771211,0.0-46.0-1.0-1.0-5.0,,,,,,,,,,,,,,,65ddeb0d1a44628b53924756,08:47:52,03/04/2024
3120.399999856949,"<p style=""font-size: 3rem;"">You responded correctly on 3 of 3 symmetry judgments. Good job!</p><br><br>",0,ospan,practice,2cEOVeYTJEWluxVipPTjRO50jc72,html-button-response,78,776339,0.0-46.0-1.0-2.0,,,,,,,,,,,,,,,65ddeb0d1a44628b53924756,08:47:52,03/04/2024
2547.7000000476837,"<div class = 'left_align' style='font-size: 3.25rem; line-height: 1.3;'>Now you will practice doing both parts of the experiment at the same time.<br><br>In the next practice set, you will be given one grid picture to judge.<br>Then letter will appear on the screen. Try to remember the letter.<br><br>It is <b>very important</b> to make the symmetry judgment as quickly and accurately as possible.<br><br>Just as before, once you have make the symmetry judgment, you can click Yes or No.<br><b>Note that you will no longer see Correct or Incorrect feedback.</div><br><br><br><br>",0,ospan,instruct,2cEOVeYTJEWluxVipPTjRO50jc72,html-button-response,79,779144,0.0-46.0-2.0-0.0-0.0,,,,,,,,,,,,,,,65ddeb0d1a44628b53924756,08:47:52,03/04/2024
4484.799999952316,"<div class = 'left_align' style='font-size: 3.25rem; line-height: 1.3;'>After the letter goes away, another grid picture will appear, and then<br>another letter.<br><br>At the end of each set of letters and grids, you will recall the letters to the best<br>of your ability. Remember, try your best to get the letters in the correct order.<br><br>It is important to <b>quickly</b> and <b>accurately</b> make the symmetry judgments.</div><br><br><br><br>",0,ospan,instruct,2cEOVeYTJEWluxVipPTjRO50jc72,html-button-response,80,783886,0.0-46.0-2.0-0.0-1.0,,,,,,,,,,,,,,,65ddeb0d1a44628b53924756,08:47:52,03/04/2024
10101.5,"<div class = 'left_align' style='font-size: 3.25rem; line-height: 1.3;'>On the feedback screen, if you are not doing well at the symmetry judgments,<br>you will also see a warning in the middle. This indicates your percent <br>correct for the grid pictures for the entire experiment.<br><br>It is <b>very</b> important for you to keep accuracy at least at 85%: <u>We can only use<br>data where the participant was at least 85% accurate on the judgments.</u> Therefore,<br> please try your best to perform well on the symmetry judgments, <b>at the same time</b><br>doing your best to recall as many letters as possible.<br><br>Click the button to try some practice problems.</div><br><br><br><br>",0,ospan,instruct,2cEOVeYTJEWluxVipPTjRO50jc72,html-button-response,81,794243,0.0-46.0-2.0-0.0-2.0,,,,,,,,,,,,,,,65ddeb0d1a44628b53924756,08:47:52,03/04/2024
,"<p style=""font-size:75px;"">...</p>",,ospan,iti,2cEOVeYTJEWluxVipPTjRO50jc72,html-keyboard-response,82,795504,0.0-46.0-2.0-1.0-0.0,,,,,,,,,,,,,,,65ddeb0d1a44628b53924756,08:47:52,03/04/2024
2097.0,,,ospan,symmetry,2cEOVeYTJEWluxVipPTjRO50jc72,symmetry-judgement-task,83,798693,0.0-46.0-2.0-1.0-1.0-0.0,,,,,,,,,,1.0,1.0,,,,65ddeb0d1a44628b53924756,08:47:52,03/04/2024
,"<div style=""font-size: 10rem; color: #0000FF"">P</div>",,ospan,letter,2cEOVeYTJEWluxVipPTjRO50jc72,html-keyboard-response,84,799701,0.0-46.0-2.0-1.0-1.0-1.0,,,,,,,,,,,,,,,65ddeb0d1a44628b53924756,08:47:52,03/04/2024
3291.0,,,ospan,symmetry,2cEOVeYTJEWluxVipPTjRO50jc72,symmetry-judgement-task,85,804842,0.0-46.0-2.0-1.0-1.0-2.0,,,,,,,,,,1.0,1.0,,,,65ddeb0d1a44628b53924756,08:47:52,03/04/2024
,"<div style=""font-size: 10rem; color: #0000FF"">N</div>",,ospan,letter,2cEOVeYTJEWluxVipPTjRO50jc72,html-keyboard-response,86,805846,0.0-46.0-2.0-1.0-1.0-3.0,,,,,,,,,,,,,,,65ddeb0d1a44628b53924756,08:47:52,03/04/2024
1285.0,,,ospan,symmetry,2cEOVeYTJEWluxVipPTjRO50jc72,symmetry-judgement-task,87,808968,0.0-46.0-2.0-1.0-1.0-4.0,,,,,,,,,,1.0,1.0,,,,65ddeb0d1a44628b53924756,08:47:52,03/04/2024
,"<div style=""font-size: 10rem; color: #0000FF"">G</div>",,ospan,letter,2cEOVeYTJEWluxVipPTjRO50jc72,html-keyboard-response,88,809975,0.0-46.0-2.0-1.0-1.0-5.0,,,,,,,,,,,,,,,65ddeb0d1a44628b53924756,08:47:52,03/04/2024
4283.600000143051,"<div class = numbox><p style=""font-size: 2.4rem"">Please recall the letters you saw to the best of your ability. If you do not remember a particular letter, use the SKIP button.<br><b>(When you are ready to lock in your answer, press ENTER)</b></p><button id = button_1 class = ""square num-button"" onclick = ""recordClick(this)""><div class = content><div class = numbers>C</div></div></button><button id = button_2 class = ""square num-button"" onclick = ""recordClick(this)""><div class = content><div class = numbers>G</div></div></button><button id = button_3 class = ""square num-button"" onclick = ""recordClick(this)""><div class = content><div class = numbers>H</div></div></button><button id = button_4 class = ""square num-button"" onclick = ""recordClick(this)""><div class = content><div class = numbers>J</div></div></button><button id = button_5 class = ""square num-button"" onclick = ""recordClick(this)""><div class = content><div class = numbers>K</div></div></button><button id = button_6 class = ""square num-button"" onclick = ""recordClick(this)""><div class = content><div class = numbers>L</div></div></button><button id = button_7 class = ""square num-button"" onclick = ""recordClick(this)""><div class = content><div class = numbers>N</div></div></button><button id = button_8 class = ""square num-button"" onclick = ""recordClick(this)""><div class = content><div class = numbers>P</div></div></button><button id = button_9 class = ""square num-button"" onclick = ""recordClick(this)""><div class = content><div class = numbers>Q</div></div></button><button id = button_10 class = ""square num-button"" onclick = ""recordClick(this)""><div class = content><div class = numbers>R</div></div></button><button id = button_11 class = ""square num-button"" onclick = ""recordClick(this)""><div class = content><div class = numbers>S</div></div></button><button id = button_12 class = ""square num-button"" onclick = ""recordClick(this)""><div class = content><div class = numbers>Y</div></div></button><button class = clear_button id = ""ClearButton"" onclick = ""clearResponse()"">BACKSPACE</button><button class = blank_button id = ""BlankButton"" onclick = ""blankResponse()"">SKIP</button><p style=""font-size: 2.4rem""><u><b>Current Answer:</b></u></p><br><br><div id=echoed_txt style=""font-size: 5rem; color:blue;""><b></b></div></div>",enter,ospan,retrieval,2cEOVeYTJEWluxVipPTjRO50jc72,html-keyboard-response,89,815017,0.0-46.0-2.0-1.0-2.0-0.0,NA,NA,NA,3.0,"[""P"",""N"",""G""]","[""P"",""N"",""G""]",1.0,3.0,"['<font color=""green"">P</font>', '<font color=""green"">N</font>', '<font color=""green"">G</font>']",,,,,,65ddeb0d1a44628b53924756,08:47:52,03/04/2024
1131.5999999046326,"['<p style=""font-size:44px"">Letters:<br><br><br><font color=""green"">P</font> <font color=""green"">N</font> <font color=""green"">G</font></p><br><br><p style=""font-size:30px"">Symmetry:<br><br><font color=""green"">100%</font></p><br><br>']",0,ospan,practice_feedback,2cEOVeYTJEWluxVipPTjRO50jc72,html-button-response,90,816652,0.0-46.0-2.0-1.0-2.0-1.0,,,,,,,,,,,,,,,65ddeb0d1a44628b53924756,08:47:52,03/04/2024
,"<p style=""font-size:75px;"">...</p>",,ospan,iti,2cEOVeYTJEWluxVipPTjRO50jc72,html-keyboard-response,91,817656,0.0-46.0-2.0-2.0-0.0,,,,,,,,,,,,,,,65ddeb0d1a44628b53924756,08:47:52,03/04/2024
2547.0,,,ospan,symmetry,2cEOVeYTJEWluxVipPTjRO50jc72,symmetry-judgement-task,92,821293,0.0-46.0-2.0-2.0-1.0-0.0,,,,,,,,,,1.0,1.0,,,,65ddeb0d1a44628b53924756,08:47:52,03/04/2024
,"<div style=""font-size: 10rem; color: #0000FF"">H</div>",,ospan,letter,2cEOVeYTJEWluxVipPTjRO50jc72,html-keyboard-response,93,822298,0.0-46.0-2.0-2.0-1.0-1.0,,,,,,,,,,,,,,,65ddeb0d1a44628b53924756,08:47:52,03/04/2024
1535.0,,,ospan,symmetry,2cEOVeYTJEWluxVipPTjRO50jc72,symmetry-judgement-task,94,825672,0.0-46.0-2.0-2.0-1.0-2.0,,,,,,,,,,1.0,1.0,,,,65ddeb0d1a44628b53924756,08:47:52,03/04/2024
,"<div style=""font-size: 10rem; color: #0000FF"">R</div>",,ospan,letter,2cEOVeYTJEWluxVipPTjRO50jc72,html-keyboard-response,95,826677,0.0-46.0-2.0-2.0-1.0-3.0,,,,,,,,,,,,,,,65ddeb0d1a44628b53924756,08:47:52,03/04/2024
2125.0,,,ospan,symmetry,2cEOVeYTJEWluxVipPTjRO50jc72,symmetry-judgement-task,96,830649,0.0-46.0-2.0-2.0-1.0-4.0,,,,,,,,,,1.0,1.0,,,,65ddeb0d1a44628b53924756,08:47:52,03/04/2024
,"<div style=""font-size: 10rem; color: #0000FF"">L</div>",,ospan,letter,2cEOVeYTJEWluxVipPTjRO50jc72,html-keyboard-response,97,831654,0.0-46.0-2.0-2.0-1.0-5.0,,,,,,,,,,,,,,,65ddeb0d1a44628b53924756,08:47:52,03/04/2024
3140.7999999523163,"<div class = numbox><p style=""font-size: 2.4rem"">Please recall the letters you saw to the best of your ability. If you do not remember a particular letter, use the SKIP button.<br><b>(When you are ready to lock in your answer, press ENTER)</b></p><button id = button_1 class = ""square num-button"" onclick = ""recordClick(this)""><div class = content><div class = numbers>C</div></div></button><button id = button_2 class = ""square num-button"" onclick = ""recordClick(this)""><div class = content><div class = numbers>G</div></div></button><button id = button_3 class = ""square num-button"" onclick = ""recordClick(this)""><div class = content><div class = numbers>H</div></div></button><button id = button_4 class = ""square num-button"" onclick = ""recordClick(this)""><div class = content><div class = numbers>J</div></div></button><button id = button_5 class = ""square num-button"" onclick = ""recordClick(this)""><div class = content><div class = numbers>K</div></div></button><button id = button_6 class = ""square num-button"" onclick = ""recordClick(this)""><div class = content><div class = numbers>L</div></div></button><button id = button_7 class = ""square num-button"" onclick = ""recordClick(this)""><div class = content><div class = numbers>N</div></div></button><button id = button_8 class = ""square num-button"" onclick = ""recordClick(this)""><div class = content><div class = numbers>P</div></div></button><button id = button_9 class = ""square num-button"" onclick = ""recordClick(this)""><div class = content><div class = numbers>Q</div></div></button><button id = button_10 class = ""square num-button"" onclick = ""recordClick(this)""><div class = content><div class = numbers>R</div></div></button><button id = button_11 class = ""square num-button"" onclick = ""recordClick(this)""><div class = content><div class = numbers>S</div></div></button><button id = button_12 class = ""square num-button"" onclick = ""recordClick(this)""><div class = content><div class = numbers>Y</div></div></button><button class = clear_button id = ""ClearButton"" onclick = ""clearResponse()"">BACKSPACE</button><button class = blank_button id = ""BlankButton"" onclick = ""blankResponse()"">SKIP</button><p style=""font-size: 2.4rem""><u><b>Current Answer:</b></u></p><br><br><div id=echoed_txt style=""font-size: 5rem; color:blue;""><b></b></div></div>",enter,ospan,retrieval,2cEOVeYTJEWluxVipPTjRO50jc72,html-keyboard-response,98,835552,0.0-46.0-2.0-2.0-2.0-0.0,NA,NA,NA,3.0,"[""H"",""R"",""L""]","[""H"",""R"",""L""]",1.0,3.0,"['<font color=""green"">H</font>', '<font color=""green"">R</font>', '<font color=""green"">L</font>']",,,,,,65ddeb0d1a44628b53924756,08:47:52,03/04/2024
742.8000001907349,"['<p style=""font-size:44px"">Letters:<br><br><br><font color=""green"">H</font> <font color=""green"">R</font> <font color=""green"">L</font></p><br><br><p style=""font-size:30px"">Symmetry:<br><br><font color=""green"">100%</font></p><br><br>']",0,ospan,practice_feedback,2cEOVeYTJEWluxVipPTjRO50jc72,html-button-response,99,836798,0.0-46.0-2.0-2.0-2.0-1.0,,,,,,,,,,,,,,,65ddeb0d1a44628b53924756,08:47:52,03/04/2024
11558.900000095367,"<div class = 'left_align' style='font-size: 3rem; line-height: 1.3;'><b>Great work! That is the end of practice.</b><br><br>The real trials will look just like the practice trials you just completed.<br><br><u>Here, you will not see feedback</u>. First, you will see an grid picture to judge,<br>then a letter to remember. When the recall screen appears, report the letters in the<br>order presented. If you forget a letter, remember to use the <b>blank</b> button to move to the<br>next letter. Some of the sets will have more symmetry grids and letters than others.<br><br>It is important that you do your best on both the symmetry judgments and the letter recall<br>parts of the experiment. For for the symmetry judgments, try to work as <b>quickly</b> and <br>as <b>accurately</b> as possible. Remember to keep your symmetry accuracy at 85% or above.<br><br><b>For the letters, do NOT use any external aid (e.g., writing on paper, electronic device).</b><br><br>It is <u>very important</u> to our experiment to have a <b>true</b> view of your real performance.<br><br>Do not worry if you miss some when it gets hard! This task is meant to be very challenging!<br><br>Click the button to begin.</div><br><br><br><br>",0,ospan,starting_real_here,2cEOVeYTJEWluxVipPTjRO50jc72,html-button-response,100,848359,0.0-46.0-2.0-3.0,,,,,,,,,,,,,,,65ddeb0d1a44628b53924756,08:47:52,03/04/2024
,"<p style=""font-size:75px;"">...</p>",,ospan,iti,2cEOVeYTJEWluxVipPTjRO50jc72,html-keyboard-response,101,849615,0.0-46.0-3.0-0.0-0.0,,,,,,,,,,,,,,,65ddeb0d1a44628b53924756,08:47:52,03/04/2024
1936.0,,,ospan,symmetry,2cEOVeYTJEWluxVipPTjRO50jc72,symmetry-judgement-task,102,852652,0.0-46.0-3.0-0.0-1.0-0.0,,,,,,,,,,1.0,1.0,,,,65ddeb0d1a44628b53924756,08:47:52,03/04/2024
,"<div style=""font-size: 10rem; color: #0000FF"">H</div>",,ospan,letter,2cEOVeYTJEWluxVipPTjRO50jc72,html-keyboard-response,103,853660,0.0-46.0-3.0-0.0-1.0-1.0,,,,,,,,,,,,,,,65ddeb0d1a44628b53924756,08:47:52,03/04/2024
1556.0,,,ospan,symmetry,2cEOVeYTJEWluxVipPTjRO50jc72,symmetry-judgement-task,104,857067,0.0-46.0-3.0-0.0-1.0-2.0,,,,,,,,,,1.0,1.0,,,,65ddeb0d1a44628b53924756,08:47:52,03/04/2024
,"<div style=""font-size: 10rem; color: #0000FF"">Y</div>",,ospan,letter,2cEOVeYTJEWluxVipPTjRO50jc72,html-keyboard-response,105,858068,0.0-46.0-3.0-0.0-1.0-3.0,,,,,,,,,,,,,,,65ddeb0d1a44628b53924756,08:47:52,03/04/2024
1920.0,,,ospan,symmetry,2cEOVeYTJEWluxVipPTjRO50jc72,symmetry-judgement-task,106,861843,0.0-46.0-3.0-0.0-1.0-4.0,,,,,,,,,,1.0,1.0,,,,65ddeb0d1a44628b53924756,08:47:52,03/04/2024
,"<div style=""font-size: 10rem; color: #0000FF"">K</div>",,ospan,letter,2cEOVeYTJEWluxVipPTjRO50jc72,html-keyboard-response,107,862849,0.0-46.0-3.0-0.0-1.0-5.0,,,,,,,,,,,,,,,65ddeb0d1a44628b53924756,08:47:52,03/04/2024
3093.600000143051,"<div class = numbox><p style=""font-size: 2.4rem"">Please recall the letters you saw to the best of your ability. If you do not remember a particular letter, use the SKIP button.<br><b>(When you are ready to lock in your answer, press ENTER)</b></p><button id = button_1 class = ""square num-button"" onclick = ""recordClick(this)""><div class = content><div class = numbers>C</div></div></button><button id = button_2 class = ""square num-button"" onclick = ""recordClick(this)""><div class = content><div class = numbers>G</div></div></button><button id = button_3 class = ""square num-button"" onclick = ""recordClick(this)""><div class = content><div class = numbers>H</div></div></button><button id = button_4 class = ""square num-button"" onclick = ""recordClick(this)""><div class = content><div class = numbers>J</div></div></button><button id = button_5 class = ""square num-button"" onclick = ""recordClick(this)""><div class = content><div class = numbers>K</div></div></button><button id = button_6 class = ""square num-button"" onclick = ""recordClick(this)""><div class = content><div class = numbers>L</div></div></button><button id = button_7 class = ""square num-button"" onclick = ""recordClick(this)""><div class = content><div class = numbers>N</div></div></button><button id = button_8 class = ""square num-button"" onclick = ""recordClick(this)""><div class = content><div class = numbers>P</div></div></button><button id = button_9 class = ""square num-button"" onclick = ""recordClick(this)""><div class = content><div class = numbers>Q</div></div></button><button id = button_10 class = ""square num-button"" onclick = ""recordClick(this)""><div class = content><div class = numbers>R</div></div></button><button id = button_11 class = ""square num-button"" onclick = ""recordClick(this)""><div class = content><div class = numbers>S</div></div></button><button id = button_12 class = ""square num-button"" onclick = ""recordClick(this)""><div class = content><div class = numbers>Y</div></div></button><button class = clear_button id = ""ClearButton"" onclick = ""clearResponse()"">BACKSPACE</button><button class = blank_button id = ""BlankButton"" onclick = ""blankResponse()"">SKIP</button><p style=""font-size: 2.4rem""><u><b>Current Answer:</b></u></p><br><br><div id=echoed_txt style=""font-size: 5rem; color:blue;""><b></b></div></div>",enter,ospan,retrieval,2cEOVeYTJEWluxVipPTjRO50jc72,html-keyboard-response,108,866700,0.0-46.0-3.0-0.0-2.0,3,3,3,3.0,"[""H"",""Y"",""K""]","[""H"",""Y"",""K""]",1.0,3.0,,,,,,,65ddeb0d1a44628b53924756,08:47:52,03/04/2024
644.0999999046326,[''],0,ospan,feedback,2cEOVeYTJEWluxVipPTjRO50jc72,html-button-response,109,867848,0.0-46.0-3.0-0.0-3.0,,,,,,,,,,,,100.0,0.0,,65ddeb0d1a44628b53924756,08:47:52,03/04/2024
,"<p style=""font-size:75px;"">...</p>",,ospan,iti,2cEOVeYTJEWluxVipPTjRO50jc72,html-keyboard-response,110,868855,0.0-46.0-4.0-0.0-0.0,,,,,,,,,,,,,,,65ddeb0d1a44628b53924756,08:47:52,03/04/2024
2016.0,,,ospan,symmetry,2cEOVeYTJEWluxVipPTjRO50jc72,symmetry-judgement-task,111,871969,0.0-46.0-4.0-0.0-1.0-0.0,,,,,,,,,,1.0,1.0,,,,65ddeb0d1a44628b53924756,08:47:52,03/04/2024
,"<div style=""font-size: 10rem; color: #0000FF"">K</div>",,ospan,letter,2cEOVeYTJEWluxVipPTjRO50jc72,html-keyboard-response,112,872976,0.0-46.0-4.0-0.0-1.0-1.0,,,,,,,,,,,,,,,65ddeb0d1a44628b53924756,08:47:52,03/04/2024
1292.0,,,ospan,symmetry,2cEOVeYTJEWluxVipPTjRO50jc72,symmetry-judgement-task,113,876100,0.0-46.0-4.0-0.0-1.0-2.0,,,,,,,,,,1.0,1.0,,,,65ddeb0d1a44628b53924756,08:47:52,03/04/2024
,"<div style=""font-size: 10rem; color: #0000FF"">C</div>",,ospan,letter,2cEOVeYTJEWluxVipPTjRO50jc72,html-keyboard-response,114,877106,0.0-46.0-4.0-0.0-1.0-3.0,,,,,,,,,,,,,,,65ddeb0d1a44628b53924756,08:47:52,03/04/2024
1973.0,,,ospan,symmetry,2cEOVeYTJEWluxVipPTjRO50jc72,symmetry-judgement-task,115,880921,0.0-46.0-4.0-0.0-1.0-4.0,,,,,,,,,,1.0,1.0,,,,65ddeb0d1a44628b53924756,08:47:52,03/04/2024
,"<div style=""font-size: 10rem; color: #0000FF"">N</div>",,ospan,letter,2cEOVeYTJEWluxVipPTjRO50jc72,html-keyboard-response,116,881925,0.0-46.0-4.0-0.0-1.0-5.0,,,,,,,,,,,,,,,65ddeb0d1a44628b53924756,08:47:52,03/04/2024
1973.0,,,ospan,symmetry,2cEOVeYTJEWluxVipPTjRO50jc72,symmetry-judgement-task,117,885742,0.0-46.0-4.0-0.0-1.0-6.0,,,,,,,,,,1.0,1.0,,,,65ddeb0d1a44628b53924756,08:47:52,03/04/2024
,"<div style=""font-size: 10rem; color: #0000FF"">Q</div>",,ospan,letter,2cEOVeYTJEWluxVipPTjRO50jc72,html-keyboard-response,118,886746,0.0-46.0-4.0-0.0-1.0-7.0,,,,,,,,,,,,,,,65ddeb0d1a44628b53924756,08:47:52,03/04/2024
3592.9000000953674,"<div class = numbox><p style=""font-size: 2.4rem"">Please recall the letters you saw to the best of your ability. If you do not remember a particular letter, use the SKIP button.<br><b>(When you are ready to lock in your answer, press ENTER)</b></p><button id = button_1 class = ""square num-button"" onclick = ""recordClick(this)""><div class = content><div class = numbers>C</div></div></button><button id = button_2 class = ""square num-button"" onclick = ""recordClick(this)""><div class = content><div class = numbers>G</div></div></button><button id = button_3 class = ""square num-button"" onclick = ""recordClick(this)""><div class = content><div class = numbers>H</div></div></button><button id = button_4 class = ""square num-button"" onclick = ""recordClick(this)""><div class = content><div class = numbers>J</div></div></button><button id = button_5 class = ""square num-button"" onclick = ""recordClick(this)""><div class = content><div class = numbers>K</div></div></button><button id = button_6 class = ""square num-button"" onclick = ""recordClick(this)""><div class = content><div class = numbers>L</div></div></button><button id = button_7 class = ""square num-button"" onclick = ""recordClick(this)""><div class = content><div class = numbers>N</div></div></button><button id = button_8 class = ""square num-button"" onclick = ""recordClick(this)""><div class = content><div class = numbers>P</div></div></button><button id = button_9 class = ""square num-button"" onclick = ""recordClick(this)""><div class = content><div class = numbers>Q</div></div></button><button id = button_10 class = ""square num-button"" onclick = ""recordClick(this)""><div class = content><div class = numbers>R</div></div></button><button id = button_11 class = ""square num-button"" onclick = ""recordClick(this)""><div class = content><div class = numbers>S</div></div></button><button id = button_12 class = ""square num-button"" onclick = ""recordClick(this)""><div class = content><div class = numbers>Y</div></div></button><button class = clear_button id = ""ClearButton"" onclick = ""clearResponse()"">BACKSPACE</button><button class = blank_button id = ""BlankButton"" onclick = ""blankResponse()"">SKIP</button><p style=""font-size: 2.4rem""><u><b>Current Answer:</b></u></p><br><br><div id=echoed_txt style=""font-size: 5rem; color:blue;""><b></b></div></div>",enter,ospan,retrieval,2cEOVeYTJEWluxVipPTjRO50jc72,html-keyboard-response,119,891096,0.0-46.0-4.0-0.0-2.0,7,7,7,4.0,"[""K"",""C"",""N"",""Q""]","[""K"",""C"",""N"",""Q""]",1.0,4.0,,,,,,,65ddeb0d1a44628b53924756,08:47:52,03/04/2024
755.0,[''],0,ospan,feedback,2cEOVeYTJEWluxVipPTjRO50jc72,html-button-response,120,892353,0.0-46.0-4.0-0.0-3.0,,,,,,,,,,,,100.0,0.0,,65ddeb0d1a44628b53924756,08:47:52,03/04/2024
,"<p style=""font-size:75px;"">...</p>",,ospan,iti,2cEOVeYTJEWluxVipPTjRO50jc72,html-keyboard-response,121,893357,0.0-46.0-4.0-1.0-0.0,,,,,,,,,,,,,,,65ddeb0d1a44628b53924756,08:47:52,03/04/2024
2198.0,,,ospan,symmetry,2cEOVeYTJEWluxVipPTjRO50jc72,symmetry-judgement-task,122,896594,0.0-46.0-4.0-1.0-1.0-0.0,,,,,,,,,,1.0,1.0,,,,65ddeb0d1a44628b53924756,08:47:52,03/04/2024
,"<div style=""font-size: 10rem; color: #0000FF"">R</div>",,ospan,letter,2cEOVeYTJEWluxVipPTjRO50jc72,html-keyboard-response,123,897602,0.0-46.0-4.0-1.0-1.0-1.0,,,,,,,,,,,,,,,65ddeb0d1a44628b53924756,08:47:52,03/04/2024
2104.0,,,ospan,symmetry,2cEOVeYTJEWluxVipPTjRO50jc72,symmetry-judgement-task,124,901549,0.0-46.0-4.0-1.0-1.0-2.0,,,,,,,,,,1.0,1.0,,,,65ddeb0d1a44628b53924756,08:47:52,03/04/2024
,"<div style=""font-size: 10rem; color: #0000FF"">J</div>",,ospan,letter,2cEOVeYTJEWluxVipPTjRO50jc72,html-keyboard-response,125,902552,0.0-46.0-4.0-1.0-1.0-3.0,,,,,,,,,,,,,,,65ddeb0d1a44628b53924756,08:47:52,03/04/2024
1299.0,,,ospan,symmetry,2cEOVeYTJEWluxVipPTjRO50jc72,symmetry-judgement-task,126,905694,0.0-46.0-4.0-1.0-1.0-4.0,,,,,,,,,,1.0,1.0,,,,65ddeb0d1a44628b53924756,08:47:52,03/04/2024
,"<div style=""font-size: 10rem; color: #0000FF"">Q</div>",,ospan,letter,2cEOVeYTJEWluxVipPTjRO50jc72,html-keyboard-response,127,906698,0.0-46.0-4.0-1.0-1.0-5.0,,,,,,,,,,,,,,,65ddeb0d1a44628b53924756,08:47:52,03/04/2024
1344.0,,,ospan,symmetry,2cEOVeYTJEWluxVipPTjRO50jc72,symmetry-judgement-task,128,909891,0.0-46.0-4.0-1.0-1.0-6.0,,,,,,,,,,1.0,1.0,,,,65ddeb0d1a44628b53924756,08:47:52,03/04/2024
,"<div style=""font-size: 10rem; color: #0000FF"">C</div>",,ospan,letter,2cEOVeYTJEWluxVipPTjRO50jc72,html-keyboard-response,129,910898,0.0-46.0-4.0-1.0-1.0-7.0,,,,,,,,,,,,,,,65ddeb0d1a44628b53924756,08:47:52,03/04/2024
1497.0,,,ospan,symmetry,2cEOVeYTJEWluxVipPTjRO50jc72,symmetry-judgement-task,130,914239,0.0-46.0-4.0-1.0-1.0-8.0,,,,,,,,,,1.0,1.0,,,,65ddeb0d1a44628b53924756,08:47:52,03/04/2024
,"<div style=""font-size: 10rem; color: #0000FF"">Y</div>",,ospan,letter,2cEOVeYTJEWluxVipPTjRO50jc72,html-keyboard-response,131,915243,0.0-46.0-4.0-1.0-1.0-9.0,,,,,,,,,,,,,,,65ddeb0d1a44628b53924756,08:47:52,03/04/2024
4851.100000143051,"<div class = numbox><p style=""font-size: 2.4rem"">Please recall the letters you saw to the best of your ability. If you do not remember a particular letter, use the SKIP button.<br><b>(When you are ready to lock in your answer, press ENTER)</b></p><button id = button_1 class = ""square num-button"" onclick = ""recordClick(this)""><div class = content><div class = numbers>C</div></div></button><button id = button_2 class = ""square num-button"" onclick = ""recordClick(this)""><div class = content><div class = numbers>G</div></div></button><button id = button_3 class = ""square num-button"" onclick = ""recordClick(this)""><div class = content><div class = numbers>H</div></div></button><button id = button_4 class = ""square num-button"" onclick = ""recordClick(this)""><div class = content><div class = numbers>J</div></div></button><button id = button_5 class = ""square num-button"" onclick = ""recordClick(this)""><div class = content><div class = numbers>K</div></div></button><button id = button_6 class = ""square num-button"" onclick = ""recordClick(this)""><div class = content><div class = numbers>L</div></div></button><button id = button_7 class = ""square num-button"" onclick = ""recordClick(this)""><div class = content><div class = numbers>N</div></div></button><button id = button_8 class = ""square num-button"" onclick = ""recordClick(this)""><div class = content><div class = numbers>P</div></div></button><button id = button_9 class = ""square num-button"" onclick = ""recordClick(this)""><div class = content><div class = numbers>Q</div></div></button><button id = button_10 class = ""square num-button"" onclick = ""recordClick(this)""><div class = content><div class = numbers>R</div></div></button><button id = button_11 class = ""square num-button"" onclick = ""recordClick(this)""><div class = content><div class = numbers>S</div></div></button><button id = button_12 class = ""square num-button"" onclick = ""recordClick(this)""><div class = content><div class = numbers>Y</div></div></button><button class = clear_button id = ""ClearButton"" onclick = ""clearResponse()"">BACKSPACE</button><button class = blank_button id = ""BlankButton"" onclick = ""blankResponse()"">SKIP</button><p style=""font-size: 2.4rem""><u><b>Current Answer:</b></u></p><br><br><div id=echoed_txt style=""font-size: 5rem; color:blue;""><b></b></div></div>",enter,ospan,retrieval,2cEOVeYTJEWluxVipPTjRO50jc72,html-keyboard-response,132,920849,0.0-46.0-4.0-1.0-2.0,12,12,12,5.0,"[""R"",""J"",""Q"",""C"",""Y""]","[""R"",""J"",""Q"",""C"",""Y""]",1.0,5.0,,,,,,,65ddeb0d1a44628b53924756,08:47:52,03/04/2024
541.2000000476837,[''],0,ospan,feedback,2cEOVeYTJEWluxVipPTjRO50jc72,html-button-response,133,921893,0.0-46.0-4.0-1.0-3.0,,,,,,,,,,,,100.0,0.0,,65ddeb0d1a44628b53924756,08:47:52,03/04/2024
,"<p style=""font-size:75px;"">...</p>",,ospan,iti,2cEOVeYTJEWluxVipPTjRO50jc72,html-keyboard-response,134,922897,0.0-46.0-4.0-2.0-0.0,,,,,,,,,,,,,,,65ddeb0d1a44628b53924756,08:47:52,03/04/2024
1753.0,,,ospan,symmetry,2cEOVeYTJEWluxVipPTjRO50jc72,symmetry-judgement-task,135,925688,0.0-46.0-4.0-2.0-1.0-0.0,,,,,,,,,,1.0,1.0,,,,65ddeb0d1a44628b53924756,08:47:52,03/04/2024
,"<div style=""font-size: 10rem; color: #0000FF"">J</div>",,ospan,letter,2cEOVeYTJEWluxVipPTjRO50jc72,html-keyboard-response,136,926692,0.0-46.0-4.0-2.0-1.0-1.0,,,,,,,,,,,,,,,65ddeb0d1a44628b53924756,08:47:52,03/04/2024
2194.0,,,ospan,symmetry,2cEOVeYTJEWluxVipPTjRO50jc72,symmetry-judgement-task,137,930738,0.0-46.0-4.0-2.0-1.0-2.0,,,,,,,,,,1.0,1.0,,,,65ddeb0d1a44628b53924756,08:47:52,03/04/2024
,"<div style=""font-size: 10rem; color: #0000FF"">H</div>",,ospan,letter,2cEOVeYTJEWluxVipPTjRO50jc72,html-keyboard-response,138,931742,0.0-46.0-4.0-2.0-1.0-3.0,,,,,,,,,,,,,,,65ddeb0d1a44628b53924756,08:47:52,03/04/2024
1117.0,,,ospan,symmetry,2cEOVeYTJEWluxVipPTjRO50jc72,symmetry-judgement-task,139,934692,0.0-46.0-4.0-2.0-1.0-4.0,,,,,,,,,,1.0,1.0,,,,65ddeb0d1a44628b53924756,08:47:52,03/04/2024
,"<div style=""font-size: 10rem; color: #0000FF"">N</div>",,ospan,letter,2cEOVeYTJEWluxVipPTjRO50jc72,html-keyboard-response,140,935700,0.0-46.0-4.0-2.0-1.0-5.0,,,,,,,,,,,,,,,65ddeb0d1a44628b53924756,08:47:52,03/04/2024
2719.5,"<div class = numbox><p style=""font-size: 2.4rem"">Please recall the letters you saw to the best of your ability. If you do not remember a particular letter, use the SKIP button.<br><b>(When you are ready to lock in your answer, press ENTER)</b></p><button id = button_1 class = ""square num-button"" onclick = ""recordClick(this)""><div class = content><div class = numbers>C</div></div></button><button id = button_2 class = ""square num-button"" onclick = ""recordClick(this)""><div class = content><div class = numbers>G</div></div></button><button id = button_3 class = ""square num-button"" onclick = ""recordClick(this)""><div class = content><div class = numbers>H</div></div></button><button id = button_4 class = ""square num-button"" onclick = ""recordClick(this)""><div class = content><div class = numbers>J</div></div></button><button id = button_5 class = ""square num-button"" onclick = ""recordClick(this)""><div class = content><div class = numbers>K</div></div></button><button id = button_6 class = ""square num-button"" onclick = ""recordClick(this)""><div class = content><div class = numbers>L</div></div></button><button id = button_7 class = ""square num-button"" onclick = ""recordClick(this)""><div class = content><div class = numbers>N</div></div></button><button id = button_8 class = ""square num-button"" onclick = ""recordClick(this)""><div class = content><div class = numbers>P</div></div></button><button id = button_9 class = ""square num-button"" onclick = ""recordClick(this)""><div class = content><div class = numbers>Q</div></div></button><button id = button_10 class = ""square num-button"" onclick = ""recordClick(this)""><div class = content><div class = numbers>R</div></div></button><button id = button_11 class = ""square num-button"" onclick = ""recordClick(this)""><div class = content><div class = numbers>S</div></div></button><button id = button_12 class = ""square num-button"" onclick = ""recordClick(this)""><div class = content><div class = numbers>Y</div></div></button><button class = clear_button id = ""ClearButton"" onclick = ""clearResponse()"">BACKSPACE</button><button class = blank_button id = ""BlankButton"" onclick = ""blankResponse()"">SKIP</button><p style=""font-size: 2.4rem""><u><b>Current Answer:</b></u></p><br><br><div id=echoed_txt style=""font-size: 5rem; color:blue;""><b></b></div></div>",enter,ospan,retrieval,2cEOVeYTJEWluxVipPTjRO50jc72,html-keyboard-response,141,939177,0.0-46.0-4.0-2.0-2.0,15,15,15,3.0,"[""J"",""H"",""N""]","[""J"",""H"",""N""]",1.0,3.0,,,,,,,65ddeb0d1a44628b53924756,08:47:52,03/04/2024
1474.6999998092651,[''],0,ospan,feedback,2cEOVeYTJEWluxVipPTjRO50jc72,html-button-response,142,941156,0.0-46.0-4.0-2.0-3.0,,,,,,,,,,,,100.0,0.0,,65ddeb0d1a44628b53924756,08:47:52,03/04/2024
,"<p style=""font-size:75px;"">...</p>",,ospan,iti,2cEOVeYTJEWluxVipPTjRO50jc72,html-keyboard-response,143,942162,0.0-46.0-5.0-0.0-0.0,,,,,,,,,,,,,,,65ddeb0d1a44628b53924756,08:47:52,03/04/2024
1470.0,,,ospan,symmetry,2cEOVeYTJEWluxVipPTjRO50jc72,symmetry-judgement-task,144,944670,0.0-46.0-5.0-0.0-1.0-0.0,,,,,,,,,,1.0,1.0,,,,65ddeb0d1a44628b53924756,08:47:52,03/04/2024
,"<div style=""font-size: 10rem; color: #0000FF"">G</div>",,ospan,letter,2cEOVeYTJEWluxVipPTjRO50jc72,html-keyboard-response,145,945677,0.0-46.0-5.0-0.0-1.0-1.0,,,,,,,,,,,,,,,65ddeb0d1a44628b53924756,08:47:52,03/04/2024
1839.0,,,ospan,symmetry,2cEOVeYTJEWluxVipPTjRO50jc72,symmetry-judgement-task,146,949365,0.0-46.0-5.0-0.0-1.0-2.0,,,,,,,,,,1.0,1.0,,,,65ddeb0d1a44628b53924756,08:47:52,03/04/2024
,"<div style=""font-size: 10rem; color: #0000FF"">C</div>",,ospan,letter,2cEOVeYTJEWluxVipPTjRO50jc72,html-keyboard-response,147,950373,0.0-46.0-5.0-0.0-1.0-3.0,,,,,,,,,,,,,,,65ddeb0d1a44628b53924756,08:47:52,03/04/2024
967.0,,,ospan,symmetry,2cEOVeYTJEWluxVipPTjRO50jc72,symmetry-judgement-task,148,953189,0.0-46.0-5.0-0.0-1.0-4.0,,,,,,,,,,1.0,1.0,,,,65ddeb0d1a44628b53924756,08:47:52,03/04/2024
,"<div style=""font-size: 10rem; color: #0000FF"">Q</div>",,ospan,letter,2cEOVeYTJEWluxVipPTjRO50jc72,html-keyboard-response,149,954196,0.0-46.0-5.0-0.0-1.0-5.0,,,,,,,,,,,,,,,65ddeb0d1a44628b53924756,08:47:52,03/04/2024
1057.0,,,ospan,symmetry,2cEOVeYTJEWluxVipPTjRO50jc72,symmetry-judgement-task,150,957105,0.0-46.0-5.0-0.0-1.0-6.0,,,,,,,,,,1.0,1.0,,,,65ddeb0d1a44628b53924756,08:47:52,03/04/2024
,"<div style=""font-size: 10rem; color: #0000FF"">K</div>",,ospan,letter,2cEOVeYTJEWluxVipPTjRO50jc72,html-keyboard-response,151,958111,0.0-46.0-5.0-0.0-1.0-7.0,,,,,,,,,,,,,,,65ddeb0d1a44628b53924756,08:47:52,03/04/2024
1868.0,,,ospan,symmetry,2cEOVeYTJEWluxVipPTjRO50jc72,symmetry-judgement-task,152,961833,0.0-46.0-5.0-0.0-1.0-8.0,,,,,,,,,,1.0,1.0,,,,65ddeb0d1a44628b53924756,08:47:52,03/04/2024
,"<div style=""font-size: 10rem; color: #0000FF"">H</div>",,ospan,letter,2cEOVeYTJEWluxVipPTjRO50jc72,html-keyboard-response,153,962836,0.0-46.0-5.0-0.0-1.0-9.0,,,,,,,,,,,,,,,65ddeb0d1a44628b53924756,08:47:52,03/04/2024
1528.0,,,ospan,symmetry,2cEOVeYTJEWluxVipPTjRO50jc72,symmetry-judgement-task,154,966198,0.0-46.0-5.0-0.0-1.0-10.0,,,,,,,,,,1.0,1.0,,,,65ddeb0d1a44628b53924756,08:47:52,03/04/2024
,"<div style=""font-size: 10rem; color: #0000FF"">N</div>",,ospan,letter,2cEOVeYTJEWluxVipPTjRO50jc72,html-keyboard-response,155,967205,0.0-46.0-5.0-0.0-1.0-11.0,,,,,,,,,,,,,,,65ddeb0d1a44628b53924756,08:47:52,03/04/2024
5039.799999952316,"<div class = numbox><p style=""font-size: 2.4rem"">Please recall the letters you saw to the best of your ability. If you do not remember a particular letter, use the SKIP button.<br><b>(When you are ready to lock in your answer, press ENTER)</b></p><button id = button_1 class = ""square num-button"" onclick = ""recordClick(this)""><div class = content><div class = numbers>C</div></div></button><button id = button_2 class = ""square num-button"" onclick = ""recordClick(this)""><div class = content><div class = numbers>G</div></div></button><button id = button_3 class = ""square num-button"" onclick = ""recordClick(this)""><div class = content><div class = numbers>H</div></div></button><button id = button_4 class = ""square num-button"" onclick = ""recordClick(this)""><div class = content><div class = numbers>J</div></div></button><button id = button_5 class = ""square num-button"" onclick = ""recordClick(this)""><div class = content><div class = numbers>K</div></div></button><button id = button_6 class = ""square num-button"" onclick = ""recordClick(this)""><div class = content><div class = numbers>L</div></div></button><button id = button_7 class = ""square num-button"" onclick = ""recordClick(this)""><div class = content><div class = numbers>N</div></div></button><button id = button_8 class = ""square num-button"" onclick = ""recordClick(this)""><div class = content><div class = numbers>P</div></div></button><button id = button_9 class = ""square num-button"" onclick = ""recordClick(this)""><div class = content><div class = numbers>Q</div></div></button><button id = button_10 class = ""square num-button"" onclick = ""recordClick(this)""><div class = content><div class = numbers>R</div></div></button><button id = button_11 class = ""square num-button"" onclick = ""recordClick(this)""><div class = content><div class = numbers>S</div></div></button><button id = button_12 class = ""square num-button"" onclick = ""recordClick(this)""><div class = content><div class = numbers>Y</div></div></button><button class = clear_button id = ""ClearButton"" onclick = ""clearResponse()"">BACKSPACE</button><button class = blank_button id = ""BlankButton"" onclick = ""blankResponse()"">SKIP</button><p style=""font-size: 2.4rem""><u><b>Current Answer:</b></u></p><br><br><div id=echoed_txt style=""font-size: 5rem; color:blue;""><b></b></div></div>",enter,ospan,retrieval,2cEOVeYTJEWluxVipPTjRO50jc72,html-keyboard-response,156,973000,0.0-46.0-5.0-0.0-2.0,21,21,21,6.0,"[""G"",""C"",""Q"",""K"",""H"",""N""]","[""G"",""C"",""Q"",""K"",""H"",""N""]",1.0,6.0,,,,,,,65ddeb0d1a44628b53924756,08:47:52,03/04/2024
734.2000000476837,[''],0,ospan,feedback,2cEOVeYTJEWluxVipPTjRO50jc72,html-button-response,157,974238,0.0-46.0-5.0-0.0-3.0,,,,,,,,,,,,100.0,0.0,,65ddeb0d1a44628b53924756,08:47:52,03/04/2024
,"<p style=""font-size:75px;"">...</p>",,ospan,iti,2cEOVeYTJEWluxVipPTjRO50jc72,html-keyboard-response,158,975241,0.0-46.0-5.0-1.0-0.0,,,,,,,,,,,,,,,65ddeb0d1a44628b53924756,08:47:52,03/04/2024
1851.0,,,ospan,symmetry,2cEOVeYTJEWluxVipPTjRO50jc72,symmetry-judgement-task,159,978184,0.0-46.0-5.0-1.0-1.0-0.0,,,,,,,,,,1.0,1.0,,,,65ddeb0d1a44628b53924756,08:47:52,03/04/2024
,"<div style=""font-size: 10rem; color: #0000FF"">H</div>",,ospan,letter,2cEOVeYTJEWluxVipPTjRO50jc72,html-keyboard-response,160,979191,0.0-46.0-5.0-1.0-1.0-1.0,,,,,,,,,,,,,,,65ddeb0d1a44628b53924756,08:47:52,03/04/2024
1255.0,,,ospan,symmetry,2cEOVeYTJEWluxVipPTjRO50jc72,symmetry-judgement-task,161,982279,0.0-46.0-5.0-1.0-1.0-2.0,,,,,,,,,,1.0,1.0,,,,65ddeb0d1a44628b53924756,08:47:52,03/04/2024
,"<div style=""font-size: 10rem; color: #0000FF"">R</div>",,ospan,letter,2cEOVeYTJEWluxVipPTjRO50jc72,html-keyboard-response,162,983285,0.0-46.0-5.0-1.0-1.0-3.0,,,,,,,,,,,,,,,65ddeb0d1a44628b53924756,08:47:52,03/04/2024
1377.0,,,ospan,symmetry,2cEOVeYTJEWluxVipPTjRO50jc72,symmetry-judgement-task,163,986511,0.0-46.0-5.0-1.0-1.0-4.0,,,,,,,,,,1.0,1.0,,,,65ddeb0d1a44628b53924756,08:47:52,03/04/2024
,"<div style=""font-size: 10rem; color: #0000FF"">K</div>",,ospan,letter,2cEOVeYTJEWluxVipPTjRO50jc72,html-keyboard-response,164,987518,0.0-46.0-5.0-1.0-1.0-5.0,,,,,,,,,,,,,,,65ddeb0d1a44628b53924756,08:47:52,03/04/2024
982.0,,,ospan,symmetry,2cEOVeYTJEWluxVipPTjRO50jc72,symmetry-judgement-task,165,990352,0.0-46.0-5.0-1.0-1.0-6.0,,,,,,,,,,1.0,1.0,,,,65ddeb0d1a44628b53924756,08:47:52,03/04/2024
,"<div style=""font-size: 10rem; color: #0000FF"">Q</div>",,ospan,letter,2cEOVeYTJEWluxVipPTjRO50jc72,html-keyboard-response,166,991359,0.0-46.0-5.0-1.0-1.0-7.0,,,,,,,,,,,,,,,65ddeb0d1a44628b53924756,08:47:52,03/04/2024
1316.0,,,ospan,symmetry,2cEOVeYTJEWluxVipPTjRO50jc72,symmetry-judgement-task,167,994528,0.0-46.0-5.0-1.0-1.0-8.0,,,,,,,,,,1.0,1.0,,,,65ddeb0d1a44628b53924756,08:47:52,03/04/2024
,"<div style=""font-size: 10rem; color: #0000FF"">L</div>",,ospan,letter,2cEOVeYTJEWluxVipPTjRO50jc72,html-keyboard-response,168,995535,0.0-46.0-5.0-1.0-1.0-9.0,,,,,,,,,,,,,,,65ddeb0d1a44628b53924756,08:47:52,03/04/2024
3911.0,,,ospan,symmetry,2cEOVeYTJEWluxVipPTjRO50jc72,symmetry-judgement-task,169,1001294,0.0-46.0-5.0-1.0-1.0-10.0,,,,,,,,,,1.0,1.0,,,,65ddeb0d1a44628b53924756,08:47:52,03/04/2024
,"<div style=""font-size: 10rem; color: #0000FF"">J</div>",,ospan,letter,2cEOVeYTJEWluxVipPTjRO50jc72,html-keyboard-response,170,1002297,0.0-46.0-5.0-1.0-1.0-11.0,,,,,,,,,,,,,,,65ddeb0d1a44628b53924756,08:47:52,03/04/2024
1062.0,,,ospan,symmetry,2cEOVeYTJEWluxVipPTjRO50jc72,symmetry-judgement-task,171,1005204,0.0-46.0-5.0-1.0-1.0-12.0,,,,,,,,,,1.0,1.0,,,,65ddeb0d1a44628b53924756,08:47:52,03/04/2024
,"<div style=""font-size: 10rem; color: #0000FF"">P</div>",,ospan,letter,2cEOVeYTJEWluxVipPTjRO50jc72,html-keyboard-response,172,1006210,0.0-46.0-5.0-1.0-1.0-13.0,,,,,,,,,,,,,,,65ddeb0d1a44628b53924756,08:47:52,03/04/2024
6367.799999952316,"<div class = numbox><p style=""font-size: 2.4rem"">Please recall the letters you saw to the best of your ability. If you do not remember a particular letter, use the SKIP button.<br><b>(When you are ready to lock in your answer, press ENTER)</b></p><button id = button_1 class = ""square num-button"" onclick = ""recordClick(this)""><div class = content><div class = numbers>C</div></div></button><button id = button_2 class = ""square num-button"" onclick = ""recordClick(this)""><div class = content><div class = numbers>G</div></div></button><button id = button_3 class = ""square num-button"" onclick = ""recordClick(this)""><div class = content><div class = numbers>H</div></div></button><button id = button_4 class = ""square num-button"" onclick = ""recordClick(this)""><div class = content><div class = numbers>J</div></div></button><button id = button_5 class = ""square num-button"" onclick = ""recordClick(this)""><div class = content><div class = numbers>K</div></div></button><button id = button_6 class = ""square num-button"" onclick = ""recordClick(this)""><div class = content><div class = numbers>L</div></div></button><button id = button_7 class = ""square num-button"" onclick = ""recordClick(this)""><div class = content><div class = numbers>N</div></div></button><button id = button_8 class = ""square num-button"" onclick = ""recordClick(this)""><div class = content><div class = numbers>P</div></div></button><button id = button_9 class = ""square num-button"" onclick = ""recordClick(this)""><div class = content><div class = numbers>Q</div></div></button><button id = button_10 class = ""square num-button"" onclick = ""recordClick(this)""><div class = content><div class = numbers>R</div></div></button><button id = button_11 class = ""square num-button"" onclick = ""recordClick(this)""><div class = content><div class = numbers>S</div></div></button><button id = button_12 class = ""square num-button"" onclick = ""recordClick(this)""><div class = content><div class = numbers>Y</div></div></button><button class = clear_button id = ""ClearButton"" onclick = ""clearResponse()"">BACKSPACE</button><button class = blank_button id = ""BlankButton"" onclick = ""blankResponse()"">SKIP</button><p style=""font-size: 2.4rem""><u><b>Current Answer:</b></u></p><br><br><div id=echoed_txt style=""font-size: 5rem; color:blue;""><b></b></div></div>",enter,ospan,retrieval,2cEOVeYTJEWluxVipPTjRO50jc72,html-keyboard-response,173,1013335,0.0-46.0-5.0-1.0-2.0,28,25,21,7.0,"[""H"",""R"",""K"",""Q"",""J"",""P""]","[""H"",""R"",""K"",""Q"",""L"",""J"",""P""]",0.0,4.0,,,,,,,65ddeb0d1a44628b53924756,08:47:52,03/04/2024
1292.7000000476837,[''],0,ospan,feedback,2cEOVeYTJEWluxVipPTjRO50jc72,html-button-response,174,1015130,0.0-46.0-5.0-1.0-3.0,,,,,,,,,,,,100.0,0.0,,65ddeb0d1a44628b53924756,08:47:52,03/04/2024
,"<p style=""font-size:75px;"">...</p>",,ospan,iti,2cEOVeYTJEWluxVipPTjRO50jc72,html-keyboard-response,175,1016138,0.0-46.0-6.0-0.0-0.0,,,,,,,,,,,,,,,65ddeb0d1a44628b53924756,08:47:52,03/04/2024
1351.0,,,ospan,symmetry,2cEOVeYTJEWluxVipPTjRO50jc72,symmetry-judgement-task,176,1018527,0.0-46.0-6.0-0.0-1.0-0.0,,,,,,,,,,1.0,1.0,,,,65ddeb0d1a44628b53924756,08:47:52,03/04/2024
,"<div style=""font-size: 10rem; color: #0000FF"">P</div>",,ospan,letter,2cEOVeYTJEWluxVipPTjRO50jc72,html-keyboard-response,177,1019534,0.0-46.0-6.0-0.0-1.0-1.0,,,,,,,,,,,,,,,65ddeb0d1a44628b53924756,08:47:52,03/04/2024
1059.0,,,ospan,symmetry,2cEOVeYTJEWluxVipPTjRO50jc72,symmetry-judgement-task,178,1022437,0.0-46.0-6.0-0.0-1.0-2.0,,,,,,,,,,1.0,1.0,,,,65ddeb0d1a44628b53924756,08:47:52,03/04/2024
,"<div style=""font-size: 10rem; color: #0000FF"">C</div>",,ospan,letter,2cEOVeYTJEWluxVipPTjRO50jc72,html-keyboard-response,179,1023444,0.0-46.0-6.0-0.0-1.0-3.0,,,,,,,,,,,,,,,65ddeb0d1a44628b53924756,08:47:52,03/04/2024
2055.0,,,ospan,symmetry,2cEOVeYTJEWluxVipPTjRO50jc72,symmetry-judgement-task,180,1027327,0.0-46.0-6.0-0.0-1.0-4.0,,,,,,,,,,1.0,1.0,,,,65ddeb0d1a44628b53924756,08:47:52,03/04/2024
,"<div style=""font-size: 10rem; color: #0000FF"">H</div>",,ospan,letter,2cEOVeYTJEWluxVipPTjRO50jc72,html-keyboard-response,181,1028335,0.0-46.0-6.0-0.0-1.0-5.0,,,,,,,,,,,,,,,65ddeb0d1a44628b53924756,08:47:52,03/04/2024
2317.0,,,ospan,symmetry,2cEOVeYTJEWluxVipPTjRO50jc72,symmetry-judgement-task,182,1032504,0.0-46.0-6.0-0.0-1.0-6.0,,,,,,,,,,1.0,1.0,,,,65ddeb0d1a44628b53924756,08:47:52,03/04/2024
,"<div style=""font-size: 10rem; color: #0000FF"">R</div>",,ospan,letter,2cEOVeYTJEWluxVipPTjRO50jc72,html-keyboard-response,183,1033510,0.0-46.0-6.0-0.0-1.0-7.0,,,,,,,,,,,,,,,65ddeb0d1a44628b53924756,08:47:52,03/04/2024
1501.0,,,ospan,symmetry,2cEOVeYTJEWluxVipPTjRO50jc72,symmetry-judgement-task,184,1036858,0.0-46.0-6.0-0.0-1.0-8.0,,,,,,,,,,1.0,1.0,,,,65ddeb0d1a44628b53924756,08:47:52,03/04/2024
,"<div style=""font-size: 10rem; color: #0000FF"">N</div>",,ospan,letter,2cEOVeYTJEWluxVipPTjRO50jc72,html-keyboard-response,185,1037864,0.0-46.0-6.0-0.0-1.0-9.0,,,,,,,,,,,,,,,65ddeb0d1a44628b53924756,08:47:52,03/04/2024
5960.600000143051,"<div class = numbox><p style=""font-size: 2.4rem"">Please recall the letters you saw to the best of your ability. If you do not remember a particular letter, use the SKIP button.<br><b>(When you are ready to lock in your answer, press ENTER)</b></p><button id = button_1 class = ""square num-button"" onclick = ""recordClick(this)""><div class = content><div class = numbers>C</div></div></button><button id = button_2 class = ""square num-button"" onclick = ""recordClick(this)""><div class = content><div class = numbers>G</div></div></button><button id = button_3 class = ""square num-button"" onclick = ""recordClick(this)""><div class = content><div class = numbers>H</div></div></button><button id = button_4 class = ""square num-button"" onclick = ""recordClick(this)""><div class = content><div class = numbers>J</div></div></button><button id = button_5 class = ""square num-button"" onclick = ""recordClick(this)""><div class = content><div class = numbers>K</div></div></button><button id = button_6 class = ""square num-button"" onclick = ""recordClick(this)""><div class = content><div class = numbers>L</div></div></button><button id = button_7 class = ""square num-button"" onclick = ""recordClick(this)""><div class = content><div class = numbers>N</div></div></button><button id = button_8 class = ""square num-button"" onclick = ""recordClick(this)""><div class = content><div class = numbers>P</div></div></button><button id = button_9 class = ""square num-button"" onclick = ""recordClick(this)""><div class = content><div class = numbers>Q</div></div></button><button id = button_10 class = ""square num-button"" onclick = ""recordClick(this)""><div class = content><div class = numbers>R</div></div></button><button id = button_11 class = ""square num-button"" onclick = ""recordClick(this)""><div class = content><div class = numbers>S</div></div></button><button id = button_12 class = ""square num-button"" onclick = ""recordClick(this)""><div class = content><div class = numbers>Y</div></div></button><button class = clear_button id = ""ClearButton"" onclick = ""clearResponse()"">BACKSPACE</button><button class = blank_button id = ""BlankButton"" onclick = ""blankResponse()"">SKIP</button><p style=""font-size: 2.4rem""><u><b>Current Answer:</b></u></p><br><br><div id=echoed_txt style=""font-size: 5rem; color:blue;""><b></b></div></div>",enter,ospan,retrieval,2cEOVeYTJEWluxVipPTjRO50jc72,html-keyboard-response,186,1044583,0.0-46.0-6.0-0.0-2.0,33,29,21,5.0,"[""P"",""C"",""H"",""J"",""N""]","[""P"",""C"",""H"",""R"",""N""]",0.0,4.0,,,,,,,65ddeb0d1a44628b53924756,08:47:52,03/04/2024
16537.099999904633,[''],0,ospan,feedback,2cEOVeYTJEWluxVipPTjRO50jc72,html-button-response,187,1061624,0.0-46.0-6.0-0.0-3.0,,,,,,,,,,,,100.0,0.0,,65ddeb0d1a44628b53924756,08:47:52,03/04/2024
,"<p style=""font-size:75px;"">...</p>",,ospan,iti,2cEOVeYTJEWluxVipPTjRO50jc72,html-keyboard-response,188,1062632,0.0-46.0-6.0-1.0-0.0,,,,,,,,,,,,,,,65ddeb0d1a44628b53924756,08:47:52,03/04/2024
2169.0,,,ospan,symmetry,2cEOVeYTJEWluxVipPTjRO50jc72,symmetry-judgement-task,189,1065840,0.0-46.0-6.0-1.0-1.0-0.0,,,,,,,,,,1.0,1.0,,,,65ddeb0d1a44628b53924756,08:47:52,03/04/2024
,"<div style=""font-size: 10rem; color: #0000FF"">Y</div>",,ospan,letter,2cEOVeYTJEWluxVipPTjRO50jc72,html-keyboard-response,190,1066844,0.0-46.0-6.0-1.0-1.0-1.0,,,,,,,,,,,,,,,65ddeb0d1a44628b53924756,08:47:52,03/04/2024
1285.0,,,ospan,symmetry,2cEOVeYTJEWluxVipPTjRO50jc72,symmetry-judgement-task,191,1069977,0.0-46.0-6.0-1.0-1.0-2.0,,,,,,,,,,1.0,1.0,,,,65ddeb0d1a44628b53924756,08:47:52,03/04/2024
,"<div style=""font-size: 10rem; color: #0000FF"">H</div>",,ospan,letter,2cEOVeYTJEWluxVipPTjRO50jc72,html-keyboard-response,192,1070984,0.0-46.0-6.0-1.0-1.0-3.0,,,,,,,,,,,,,,,65ddeb0d1a44628b53924756,08:47:52,03/04/2024
2589.0,,,ospan,symmetry,2cEOVeYTJEWluxVipPTjRO50jc72,symmetry-judgement-task,193,1075425,0.0-46.0-6.0-1.0-1.0-4.0,,,,,,,,,,1.0,1.0,,,,65ddeb0d1a44628b53924756,08:47:52,03/04/2024
,"<div style=""font-size: 10rem; color: #0000FF"">Q</div>",,ospan,letter,2cEOVeYTJEWluxVipPTjRO50jc72,html-keyboard-response,194,1076428,0.0-46.0-6.0-1.0-1.0-5.0,,,,,,,,,,,,,,,65ddeb0d1a44628b53924756,08:47:52,03/04/2024
2944.0,,,ospan,symmetry,2cEOVeYTJEWluxVipPTjRO50jc72,symmetry-judgement-task,195,1081223,0.0-46.0-6.0-1.0-1.0-6.0,,,,,,,,,,1.0,1.0,,,,65ddeb0d1a44628b53924756,08:47:52,03/04/2024
,"<div style=""font-size: 10rem; color: #0000FF"">R</div>",,ospan,letter,2cEOVeYTJEWluxVipPTjRO50jc72,html-keyboard-response,196,1082227,0.0-46.0-6.0-1.0-1.0-7.0,,,,,,,,,,,,,,,65ddeb0d1a44628b53924756,08:47:52,03/04/2024
2036.0,,,ospan,symmetry,2cEOVeYTJEWluxVipPTjRO50jc72,symmetry-judgement-task,197,1086052,0.0-46.0-6.0-1.0-1.0-8.0,,,,,,,,,,1.0,1.0,,,,65ddeb0d1a44628b53924756,08:47:52,03/04/2024
,"<div style=""font-size: 10rem; color: #0000FF"">J</div>",,ospan,letter,2cEOVeYTJEWluxVipPTjRO50jc72,html-keyboard-response,198,1087059,0.0-46.0-6.0-1.0-1.0-9.0,,,,,,,,,,,,,,,65ddeb0d1a44628b53924756,08:47:52,03/04/2024
3369.0,,,ospan,symmetry,2cEOVeYTJEWluxVipPTjRO50jc72,symmetry-judgement-task,199,1092275,0.0-46.0-6.0-1.0-1.0-10.0,,,,,,,,,,1.0,1.0,,,,65ddeb0d1a44628b53924756,08:47:52,03/04/2024
,"<div style=""font-size: 10rem; color: #0000FF"">L</div>",,ospan,letter,2cEOVeYTJEWluxVipPTjRO50jc72,html-keyboard-response,200,1093283,0.0-46.0-6.0-1.0-1.0-11.0,,,,,,,,,,,,,,,65ddeb0d1a44628b53924756,08:47:52,03/04/2024
2717.0,,,ospan,symmetry,2cEOVeYTJEWluxVipPTjRO50jc72,symmetry-judgement-task,201,1097844,0.0-46.0-6.0-1.0-1.0-12.0,,,,,,,,,,1.0,1.0,,,,65ddeb0d1a44628b53924756,08:47:52,03/04/2024
,"<div style=""font-size: 10rem; color: #0000FF"">S</div>",,ospan,letter,2cEOVeYTJEWluxVipPTjRO50jc72,html-keyboard-response,202,1098851,0.0-46.0-6.0-1.0-1.0-13.0,,,,,,,,,,,,,,,65ddeb0d1a44628b53924756,08:47:52,03/04/2024
2812.0,,,ospan,symmetry,2cEOVeYTJEWluxVipPTjRO50jc72,symmetry-judgement-task,203,1103518,0.0-46.0-6.0-1.0-1.0-14.0,,,,,,,,,,1.0,1.0,,,,65ddeb0d1a44628b53924756,08:47:52,03/04/2024
,"<div style=""font-size: 10rem; color: #0000FF"">N</div>",,ospan,letter,2cEOVeYTJEWluxVipPTjRO50jc72,html-keyboard-response,204,1104525,0.0-46.0-6.0-1.0-1.0-15.0,,,,,,,,,,,,,,,65ddeb0d1a44628b53924756,08:47:52,03/04/2024
12594.200000047684,"<div class = numbox><p style=""font-size: 2.4rem"">Please recall the letters you saw to the best of your ability. If you do not remember a particular letter, use the SKIP button.<br><b>(When you are ready to lock in your answer, press ENTER)</b></p><button id = button_1 class = ""square num-button"" onclick = ""recordClick(this)""><div class = content><div class = numbers>C</div></div></button><button id = button_2 class = ""square num-button"" onclick = ""recordClick(this)""><div class = content><div class = numbers>G</div></div></button><button id = button_3 class = ""square num-button"" onclick = ""recordClick(this)""><div class = content><div class = numbers>H</div></div></button><button id = button_4 class = ""square num-button"" onclick = ""recordClick(this)""><div class = content><div class = numbers>J</div></div></button><button id = button_5 class = ""square num-button"" onclick = ""recordClick(this)""><div class = content><div class = numbers>K</div></div></button><button id = button_6 class = ""square num-button"" onclick = ""recordClick(this)""><div class = content><div class = numbers>L</div></div></button><button id = button_7 class = ""square num-button"" onclick = ""recordClick(this)""><div class = content><div class = numbers>N</div></div></button><button id = button_8 class = ""square num-button"" onclick = ""recordClick(this)""><div class = content><div class = numbers>P</div></div></button><button id = button_9 class = ""square num-button"" onclick = ""recordClick(this)""><div class = content><div class = numbers>Q</div></div></button><button id = button_10 class = ""square num-button"" onclick = ""recordClick(this)""><div class = content><div class = numbers>R</div></div></button><button id = button_11 class = ""square num-button"" onclick = ""recordClick(this)""><div class = content><div class = numbers>S</div></div></button><button id = button_12 class = ""square num-button"" onclick = ""recordClick(this)""><div class = content><div class = numbers>Y</div></div></button><button class = clear_button id = ""ClearButton"" onclick = ""clearResponse()"">BACKSPACE</button><button class = blank_button id = ""BlankButton"" onclick = ""blankResponse()"">SKIP</button><p style=""font-size: 2.4rem""><u><b>Current Answer:</b></u></p><br><br><div id=echoed_txt style=""font-size: 5rem; color:blue;""><b></b></div></div>",enter,ospan,retrieval,2cEOVeYTJEWluxVipPTjRO50jc72,html-keyboard-response,205,1117875,0.0-46.0-6.0-1.0-2.0,41,37,29,8.0,"[""Y"",""H"",""Q"",""R"",""J"",""L"",""S"",""N""]","[""Y"",""H"",""Q"",""R"",""J"",""L"",""S"",""N""]",1.0,8.0,,,,,,,65ddeb0d1a44628b53924756,08:47:52,03/04/2024
1553.6000001430511,[''],0,ospan,feedback,2cEOVeYTJEWluxVipPTjRO50jc72,html-button-response,206,1119933,0.0-46.0-6.0-1.0-3.0,,,,,,,,,,,,100.0,0.0,,65ddeb0d1a44628b53924756,08:47:52,03/04/2024
7333.599999904633,,{'Q0': 'I found it all very clear'},ospan,survey_ospan,2cEOVeYTJEWluxVipPTjRO50jc72,lmdlab-survey-text,207,1128023,0.0-46.0-7.0,,,,,,,,,,,,,,2cEOVeYTJEWluxVipPTjRO50jc72,65ddeb0d1a44628b53924756,08:47:52,03/04/2024
1138.2000000476837,<p><p style='font-size: 3rem'>Great work!<br><br>This completes the symmetry and memory task.</p><br><br><br>,0,ospan,finish,2cEOVeYTJEWluxVipPTjRO50jc72,html-button-response,208,1129166,0.0-46.0-8.0,41,37,29,,,,,,,,,100.0,,,65ddeb0d1a44628b53924756,08:47:52,03/04/2024
