rt,stimulus,response,exp_name,exp_stage,subjectID,trial_type,trial_index,time_elapsed,internal_node_id,ospan_shown,ospan_total,ospan_abs,length,resp_actual,resp_correct,full_correct,num_correct,feedback,accuracy,correct,math_acc,math_warning,databaseID,prolificID,start_time,date
4104.0,<div class = 'left_align' style='font-size: 3.25rem; line-height: 1.3;'><p class = 'center_align'><b>Welcome to the Symmetry and Memory Task</b><br><br><br><br></p>Press 'continue' to show the instructions.<br><br><br><br></div>,0,ospan,instruct,xfPREhE7m9YUmV1EJEcDL4zlHZM2,html-button-response,54,535475,0.0-46.0-0.0-0.0-0.0,,,,,,,,,,,,,,,5bbe9a9570f8df0001c13f11,09:16:47,03/04/2024
12287.0,"<div class = 'left_align' style='font-size: 3.25rem; line-height: 1.3;'><p class = 'center_align'><b>Symmetry and Memory Task</b><br><br></p>In this task, you will try to memorize letters you see on the screen<br>while you also view black and white grid pictures.<br><br>In the next few minutes, you will have some practice to get you familiar<br>with how the task works.<br><br>It may be difficult sometimes, but please do not worry about making mistakes!<br><br>We will begin by practicing the letter part of the task.<br><br><br><br></div>",0,ospan,instruct,xfPREhE7m9YUmV1EJEcDL4zlHZM2,html-button-response,55,548019,0.0-46.0-0.0-0.0-1.0,,,,,,,,,,,,,,,5bbe9a9570f8df0001c13f11,09:16:47,03/04/2024
17680.0,"<div class = 'left_align' style='font-size: 3.25rem; line-height: 1.3;'>For this practice part, letters will appear on the screen one at a time.<br><br>Try to remember each letter in the order presented.<br><br>After some letters have been shown, you will see a response screen. Your<br>goal is to report the letters you saw <b>in order</b>. If you do not remember<br>a particular letter, you will have the option to leave it blank.<br><br><br><br></div>",0,ospan,instruct,xfPREhE7m9YUmV1EJEcDL4zlHZM2,html-button-response,56,565955,0.0-46.0-0.0-0.0-2.0,,,,,,,,,,,,,,,5bbe9a9570f8df0001c13f11,09:16:47,03/04/2024
3947.0,"<div class = 'left_align' style='font-size: 3.25rem; line-height: 1.3;'>Remember, it is very important to get the letters in the same<br>order as you see them.<br><br>When you are ready, you may begin the letter practice.</div><br><br><br><br>",0,ospan,instruct,xfPREhE7m9YUmV1EJEcDL4zlHZM2,html-button-response,57,570163,0.0-46.0-0.0-0.0-3.0,,,,,,,,,,,,,,,5bbe9a9570f8df0001c13f11,09:16:47,03/04/2024
,"<p style=""font-size:75px;"">...</p>",,ospan,iti,xfPREhE7m9YUmV1EJEcDL4zlHZM2,html-keyboard-response,58,571434,0.0-46.0-0.0-1.0-0.0,,,,,,,,,,,,,,,5bbe9a9570f8df0001c13f11,09:16:47,03/04/2024
,"<div style=""font-size: 10rem; color: #0000FF"">Y</div>",,ospan,letter,xfPREhE7m9YUmV1EJEcDL4zlHZM2,html-keyboard-response,59,572440,0.0-46.0-0.0-1.0-1.0,,,,,,,,,,,,,,,5bbe9a9570f8df0001c13f11,09:16:47,03/04/2024
,"<div style=""font-size: 10rem; color: #0000FF"">J</div>",,ospan,letter,xfPREhE7m9YUmV1EJEcDL4zlHZM2,html-keyboard-response,60,574204,0.0-46.0-0.0-1.0-2.0,,,,,,,,,,,,,,,5bbe9a9570f8df0001c13f11,09:16:47,03/04/2024
14572.0,"<div class = numbox><p style=""font-size: 2.4rem"">Please recall the letters you saw to the best of your ability. If you do not remember a particular letter, use the SKIP button.<br><b>(When you are ready to lock in your answer, press ENTER)</b></p><button id = button_1 class = ""square num-button"" onclick = ""recordClick(this)""><div class = content><div class = numbers>C</div></div></button><button id = button_2 class = ""square num-button"" onclick = ""recordClick(this)""><div class = content><div class = numbers>G</div></div></button><button id = button_3 class = ""square num-button"" onclick = ""recordClick(this)""><div class = content><div class = numbers>H</div></div></button><button id = button_4 class = ""square num-button"" onclick = ""recordClick(this)""><div class = content><div class = numbers>J</div></div></button><button id = button_5 class = ""square num-button"" onclick = ""recordClick(this)""><div class = content><div class = numbers>K</div></div></button><button id = button_6 class = ""square num-button"" onclick = ""recordClick(this)""><div class = content><div class = numbers>L</div></div></button><button id = button_7 class = ""square num-button"" onclick = ""recordClick(this)""><div class = content><div class = numbers>N</div></div></button><button id = button_8 class = ""square num-button"" onclick = ""recordClick(this)""><div class = content><div class = numbers>P</div></div></button><button id = button_9 class = ""square num-button"" onclick = ""recordClick(this)""><div class = content><div class = numbers>Q</div></div></button><button id = button_10 class = ""square num-button"" onclick = ""recordClick(this)""><div class = content><div class = numbers>R</div></div></button><button id = button_11 class = ""square num-button"" onclick = ""recordClick(this)""><div class = content><div class = numbers>S</div></div></button><button id = button_12 class = ""square num-button"" onclick = ""recordClick(this)""><div class = content><div class = numbers>Y</div></div></button><button class = clear_button id = ""ClearButton"" onclick = ""clearResponse()"">BACKSPACE</button><button class = blank_button id = ""BlankButton"" onclick = ""blankResponse()"">SKIP</button><p style=""font-size: 2.4rem""><u><b>Current Answer:</b></u></p><br><br><div id=echoed_txt style=""font-size: 5rem; color:blue;""><b></b></div></div>",enter,ospan,retrieval,xfPREhE7m9YUmV1EJEcDL4zlHZM2,html-keyboard-response,61,589535,0.0-46.0-0.0-1.0-3.0,NA,NA,NA,2.0,"[""Y"",""J""]","[""Y"",""J""]",1.0,2.0,"['<font color=""green"">Y</font>', '<font color=""green"">J</font>']",,,,,,5bbe9a9570f8df0001c13f11,09:16:47,03/04/2024
1839.0,"['<p style=""font-size:44px"">Letters:<br><br><br><font color=""green"">Y</font> <font color=""green"">J</font></p><br><br>']",0,ospan,practice_feedback,xfPREhE7m9YUmV1EJEcDL4zlHZM2,html-button-response,62,591891,0.0-46.0-0.0-1.0-4.0,,,,,,,,,,,,,,,5bbe9a9570f8df0001c13f11,09:16:47,03/04/2024
,"<p style=""font-size:75px;"">...</p>",,ospan,iti,xfPREhE7m9YUmV1EJEcDL4zlHZM2,html-keyboard-response,63,592895,0.0-46.0-0.0-2.0-0.0,,,,,,,,,,,,,,,5bbe9a9570f8df0001c13f11,09:16:47,03/04/2024
,"<div style=""font-size: 10rem; color: #0000FF"">H</div>",,ospan,letter,xfPREhE7m9YUmV1EJEcDL4zlHZM2,html-keyboard-response,64,593897,0.0-46.0-0.0-2.0-1.0,,,,,,,,,,,,,,,5bbe9a9570f8df0001c13f11,09:16:47,03/04/2024
,"<div style=""font-size: 10rem; color: #0000FF"">P</div>",,ospan,letter,xfPREhE7m9YUmV1EJEcDL4zlHZM2,html-keyboard-response,65,595657,0.0-46.0-0.0-2.0-2.0,,,,,,,,,,,,,,,5bbe9a9570f8df0001c13f11,09:16:47,03/04/2024
,"<div style=""font-size: 10rem; color: #0000FF"">G</div>",,ospan,letter,xfPREhE7m9YUmV1EJEcDL4zlHZM2,html-keyboard-response,66,597420,0.0-46.0-0.0-2.0-3.0,,,,,,,,,,,,,,,5bbe9a9570f8df0001c13f11,09:16:47,03/04/2024
4430.0,"<div class = numbox><p style=""font-size: 2.4rem"">Please recall the letters you saw to the best of your ability. If you do not remember a particular letter, use the SKIP button.<br><b>(When you are ready to lock in your answer, press ENTER)</b></p><button id = button_1 class = ""square num-button"" onclick = ""recordClick(this)""><div class = content><div class = numbers>C</div></div></button><button id = button_2 class = ""square num-button"" onclick = ""recordClick(this)""><div class = content><div class = numbers>G</div></div></button><button id = button_3 class = ""square num-button"" onclick = ""recordClick(this)""><div class = content><div class = numbers>H</div></div></button><button id = button_4 class = ""square num-button"" onclick = ""recordClick(this)""><div class = content><div class = numbers>J</div></div></button><button id = button_5 class = ""square num-button"" onclick = ""recordClick(this)""><div class = content><div class = numbers>K</div></div></button><button id = button_6 class = ""square num-button"" onclick = ""recordClick(this)""><div class = content><div class = numbers>L</div></div></button><button id = button_7 class = ""square num-button"" onclick = ""recordClick(this)""><div class = content><div class = numbers>N</div></div></button><button id = button_8 class = ""square num-button"" onclick = ""recordClick(this)""><div class = content><div class = numbers>P</div></div></button><button id = button_9 class = ""square num-button"" onclick = ""recordClick(this)""><div class = content><div class = numbers>Q</div></div></button><button id = button_10 class = ""square num-button"" onclick = ""recordClick(this)""><div class = content><div class = numbers>R</div></div></button><button id = button_11 class = ""square num-button"" onclick = ""recordClick(this)""><div class = content><div class = numbers>S</div></div></button><button id = button_12 class = ""square num-button"" onclick = ""recordClick(this)""><div class = content><div class = numbers>Y</div></div></button><button class = clear_button id = ""ClearButton"" onclick = ""clearResponse()"">BACKSPACE</button><button class = blank_button id = ""BlankButton"" onclick = ""blankResponse()"">SKIP</button><p style=""font-size: 2.4rem""><u><b>Current Answer:</b></u></p><br><br><div id=echoed_txt style=""font-size: 5rem; color:blue;""><b></b></div></div>",enter,ospan,retrieval,xfPREhE7m9YUmV1EJEcDL4zlHZM2,html-keyboard-response,67,602617,0.0-46.0-0.0-2.0-4.0,NA,NA,NA,3.0,"[""H"",""P"",""G""]","[""H"",""P"",""G""]",1.0,3.0,"['<font color=""green"">H</font>', '<font color=""green"">P</font>', '<font color=""green"">G</font>']",,,,,,5bbe9a9570f8df0001c13f11,09:16:47,03/04/2024
1984.0,"['<p style=""font-size:44px"">Letters:<br><br><br><font color=""green"">H</font> <font color=""green"">P</font> <font color=""green"">G</font></p><br><br>']",0,ospan,practice_feedback,xfPREhE7m9YUmV1EJEcDL4zlHZM2,html-button-response,68,605115,0.0-46.0-0.0-2.0-5.0,,,,,,,,,,,,,,,5bbe9a9570f8df0001c13f11,09:16:47,03/04/2024
16974.0,"<div class = 'left_align' style='font-size: 3.25rem; line-height: 1.3;'>Now you will practice doing the <b>symmetry judgment part</b> of the experiment.<br><br>A black and white grid picture will appear on the screen and you have to judge if it is <br>symmetrical or asymetrical.<br><br>A picture is 'mirror' symmetrical if its left half is identical to the right half when flipped.<br>Here are examples of a symmetrical and an asymetrical picture:<br><br><center><img src='Stimuli/img/symm_instructions_extra.png' style='height:420px; width:900'></img></center><br>To judge symmetry, imagine you were to fold each picture down the middle, like a book –<br>would the left half match the right half when folded onto each other?<br><br></div><br>",0,ospan,instruct,xfPREhE7m9YUmV1EJEcDL4zlHZM2,html-button-response,69,622091,0.0-46.0-1.0-0.0-0.0,,,,,,,,,,,,,,,5bbe9a9570f8df0001c13f11,09:16:47,03/04/2024
5259.0,"<div class = 'left_align' style='font-size: 3.25rem; line-height: 1.3;'>When you have viewed the picture and determined whether it is symmetrical or not,<br>you can <b>click the Yes or No button</b> below to answer.<br><br>If you take longer than 15 seconds, it will continue automatically<br>and record the answer as an error.</div><br>",0,ospan,instruct,xfPREhE7m9YUmV1EJEcDL4zlHZM2,html-button-response,70,627611,0.0-46.0-1.0-0.0-1.0,,,,,,,,,,,,,,,5bbe9a9570f8df0001c13f11,09:16:47,03/04/2024
5822.0,"<div class = 'left_align' style='font-size: 3.25rem; line-height: 1.3;'>It is <b>very</b> important that you make the symmetry judgment correctly.<br><br>It is also important that you try and judge the picture as quickly as you can.<br><br>When you are ready, click on the button below to try some practice problems.</div><br><br><br><br>",0,ospan,instruct,xfPREhE7m9YUmV1EJEcDL4zlHZM2,html-button-response,71,633699,0.0-46.0-1.0-0.0-2.0,,,,,,,,,,,,,,,5bbe9a9570f8df0001c13f11,09:16:47,03/04/2024
3710.0,,,ospan,symmetry,xfPREhE7m9YUmV1EJEcDL4zlHZM2,symmetry-judgement-task,72,638257,0.0-46.0-1.0-1.0-0.0,,,,,,,,,,1.0,1.0,,,,5bbe9a9570f8df0001c13f11,09:16:47,03/04/2024
,"<p style=""color:green; font-size: 35px"">Correct</p>",,ospan,feedback,xfPREhE7m9YUmV1EJEcDL4zlHZM2,html-keyboard-response,73,639025,0.0-46.0-1.0-1.0-1.0,,,,,,,,,,,,,,,5bbe9a9570f8df0001c13f11,09:16:47,03/04/2024
3217.0,,,ospan,symmetry,xfPREhE7m9YUmV1EJEcDL4zlHZM2,symmetry-judgement-task,74,644822,0.0-46.0-1.0-1.0-2.0,,,,,,,,,,1.0,1.0,,,,5bbe9a9570f8df0001c13f11,09:16:47,03/04/2024
,"<p style=""color:green; font-size: 35px"">Correct</p>",,ospan,feedback,xfPREhE7m9YUmV1EJEcDL4zlHZM2,html-keyboard-response,75,645575,0.0-46.0-1.0-1.0-3.0,,,,,,,,,,,,,,,5bbe9a9570f8df0001c13f11,09:16:47,03/04/2024
4013.0,,,ospan,symmetry,xfPREhE7m9YUmV1EJEcDL4zlHZM2,symmetry-judgement-task,76,652175,0.0-46.0-1.0-1.0-4.0,,,,,,,,,,1.0,1.0,,,,5bbe9a9570f8df0001c13f11,09:16:47,03/04/2024
,"<p style=""color:green; font-size: 35px"">Correct</p>",,ospan,feedback,xfPREhE7m9YUmV1EJEcDL4zlHZM2,html-keyboard-response,77,652929,0.0-46.0-1.0-1.0-5.0,,,,,,,,,,,,,,,5bbe9a9570f8df0001c13f11,09:16:47,03/04/2024
1718.0,"<p style=""font-size: 3rem;"">You responded correctly on 3 of 3 symmetry judgments. Good job!</p><br><br>",0,ospan,practice,xfPREhE7m9YUmV1EJEcDL4zlHZM2,html-button-response,78,656666,0.0-46.0-1.0-2.0,,,,,,,,,,,,,,,5bbe9a9570f8df0001c13f11,09:16:47,03/04/2024
10059.0,"<div class = 'left_align' style='font-size: 3.25rem; line-height: 1.3;'>Now you will practice doing both parts of the experiment at the same time.<br><br>In the next practice set, you will be given one grid picture to judge.<br>Then letter will appear on the screen. Try to remember the letter.<br><br>It is <b>very important</b> to make the symmetry judgment as quickly and accurately as possible.<br><br>Just as before, once you have make the symmetry judgment, you can click Yes or No.<br><b>Note that you will no longer see Correct or Incorrect feedback.</div><br><br><br><br>",0,ospan,instruct,xfPREhE7m9YUmV1EJEcDL4zlHZM2,html-button-response,79,666987,0.0-46.0-2.0-0.0-0.0,,,,,,,,,,,,,,,5bbe9a9570f8df0001c13f11,09:16:47,03/04/2024
3819.0,"<div class = 'left_align' style='font-size: 3.25rem; line-height: 1.3;'>After the letter goes away, another grid picture will appear, and then<br>another letter.<br><br>At the end of each set of letters and grids, you will recall the letters to the best<br>of your ability. Remember, try your best to get the letters in the correct order.<br><br>It is important to <b>quickly</b> and <b>accurately</b> make the symmetry judgments.</div><br><br><br><br>",0,ospan,instruct,xfPREhE7m9YUmV1EJEcDL4zlHZM2,html-button-response,80,671067,0.0-46.0-2.0-0.0-1.0,,,,,,,,,,,,,,,5bbe9a9570f8df0001c13f11,09:16:47,03/04/2024
16768.0,"<div class = 'left_align' style='font-size: 3.25rem; line-height: 1.3;'>On the feedback screen, if you are not doing well at the symmetry judgments,<br>you will also see a warning in the middle. This indicates your percent <br>correct for the grid pictures for the entire experiment.<br><br>It is <b>very</b> important for you to keep accuracy at least at 85%: <u>We can only use<br>data where the participant was at least 85% accurate on the judgments.</u> Therefore,<br> please try your best to perform well on the symmetry judgments, <b>at the same time</b><br>doing your best to recall as many letters as possible.<br><br>Click the button to try some practice problems.</div><br><br><br><br>",0,ospan,instruct,xfPREhE7m9YUmV1EJEcDL4zlHZM2,html-button-response,81,688099,0.0-46.0-2.0-0.0-2.0,,,,,,,,,,,,,,,5bbe9a9570f8df0001c13f11,09:16:47,03/04/2024
,"<p style=""font-size:75px;"">...</p>",,ospan,iti,xfPREhE7m9YUmV1EJEcDL4zlHZM2,html-keyboard-response,82,689369,0.0-46.0-2.0-1.0-0.0,,,,,,,,,,,,,,,5bbe9a9570f8df0001c13f11,09:16:47,03/04/2024
3128.0,,,ospan,symmetry,xfPREhE7m9YUmV1EJEcDL4zlHZM2,symmetry-judgement-task,83,693575,0.0-46.0-2.0-1.0-1.0-0.0,,,,,,,,,,1.0,1.0,,,,5bbe9a9570f8df0001c13f11,09:16:47,03/04/2024
,"<div style=""font-size: 10rem; color: #0000FF"">H</div>",,ospan,letter,xfPREhE7m9YUmV1EJEcDL4zlHZM2,html-keyboard-response,84,694594,0.0-46.0-2.0-1.0-1.0-1.0,,,,,,,,,,,,,,,5bbe9a9570f8df0001c13f11,09:16:47,03/04/2024
1861.0,,,ospan,symmetry,xfPREhE7m9YUmV1EJEcDL4zlHZM2,symmetry-judgement-task,85,698287,0.0-46.0-2.0-1.0-1.0-2.0,,,,,,,,,,1.0,1.0,,,,5bbe9a9570f8df0001c13f11,09:16:47,03/04/2024
,"<div style=""font-size: 10rem; color: #0000FF"">G</div>",,ospan,letter,xfPREhE7m9YUmV1EJEcDL4zlHZM2,html-keyboard-response,86,699294,0.0-46.0-2.0-1.0-1.0-3.0,,,,,,,,,,,,,,,5bbe9a9570f8df0001c13f11,09:16:47,03/04/2024
2978.0,,,ospan,symmetry,xfPREhE7m9YUmV1EJEcDL4zlHZM2,symmetry-judgement-task,87,704111,0.0-46.0-2.0-1.0-1.0-4.0,,,,,,,,,,1.0,1.0,,,,5bbe9a9570f8df0001c13f11,09:16:47,03/04/2024
,"<div style=""font-size: 10rem; color: #0000FF"">K</div>",,ospan,letter,xfPREhE7m9YUmV1EJEcDL4zlHZM2,html-keyboard-response,88,705114,0.0-46.0-2.0-1.0-1.0-5.0,,,,,,,,,,,,,,,5bbe9a9570f8df0001c13f11,09:16:47,03/04/2024
5694.0,"<div class = numbox><p style=""font-size: 2.4rem"">Please recall the letters you saw to the best of your ability. If you do not remember a particular letter, use the SKIP button.<br><b>(When you are ready to lock in your answer, press ENTER)</b></p><button id = button_1 class = ""square num-button"" onclick = ""recordClick(this)""><div class = content><div class = numbers>C</div></div></button><button id = button_2 class = ""square num-button"" onclick = ""recordClick(this)""><div class = content><div class = numbers>G</div></div></button><button id = button_3 class = ""square num-button"" onclick = ""recordClick(this)""><div class = content><div class = numbers>H</div></div></button><button id = button_4 class = ""square num-button"" onclick = ""recordClick(this)""><div class = content><div class = numbers>J</div></div></button><button id = button_5 class = ""square num-button"" onclick = ""recordClick(this)""><div class = content><div class = numbers>K</div></div></button><button id = button_6 class = ""square num-button"" onclick = ""recordClick(this)""><div class = content><div class = numbers>L</div></div></button><button id = button_7 class = ""square num-button"" onclick = ""recordClick(this)""><div class = content><div class = numbers>N</div></div></button><button id = button_8 class = ""square num-button"" onclick = ""recordClick(this)""><div class = content><div class = numbers>P</div></div></button><button id = button_9 class = ""square num-button"" onclick = ""recordClick(this)""><div class = content><div class = numbers>Q</div></div></button><button id = button_10 class = ""square num-button"" onclick = ""recordClick(this)""><div class = content><div class = numbers>R</div></div></button><button id = button_11 class = ""square num-button"" onclick = ""recordClick(this)""><div class = content><div class = numbers>S</div></div></button><button id = button_12 class = ""square num-button"" onclick = ""recordClick(this)""><div class = content><div class = numbers>Y</div></div></button><button class = clear_button id = ""ClearButton"" onclick = ""clearResponse()"">BACKSPACE</button><button class = blank_button id = ""BlankButton"" onclick = ""blankResponse()"">SKIP</button><p style=""font-size: 2.4rem""><u><b>Current Answer:</b></u></p><br><br><div id=echoed_txt style=""font-size: 5rem; color:blue;""><b></b></div></div>",enter,ospan,retrieval,xfPREhE7m9YUmV1EJEcDL4zlHZM2,html-keyboard-response,89,711566,0.0-46.0-2.0-1.0-2.0-0.0,NA,NA,NA,3.0,"[""H"",""G"",""K""]","[""H"",""G"",""K""]",1.0,3.0,"['<font color=""green"">H</font>', '<font color=""green"">G</font>', '<font color=""green"">K</font>']",,,,,,5bbe9a9570f8df0001c13f11,09:16:47,03/04/2024
1780.0,"['<p style=""font-size:44px"">Letters:<br><br><br><font color=""green"">H</font> <font color=""green"">G</font> <font color=""green"">K</font></p><br><br><p style=""font-size:30px"">Symmetry:<br><br><font color=""green"">100%</font></p><br><br>']",0,ospan,practice_feedback,xfPREhE7m9YUmV1EJEcDL4zlHZM2,html-button-response,90,713851,0.0-46.0-2.0-1.0-2.0-1.0,,,,,,,,,,,,,,,5bbe9a9570f8df0001c13f11,09:16:47,03/04/2024
,"<p style=""font-size:75px;"">...</p>",,ospan,iti,xfPREhE7m9YUmV1EJEcDL4zlHZM2,html-keyboard-response,91,714865,0.0-46.0-2.0-2.0-0.0,,,,,,,,,,,,,,,5bbe9a9570f8df0001c13f11,09:16:47,03/04/2024
1093.0,,,ospan,symmetry,xfPREhE7m9YUmV1EJEcDL4zlHZM2,symmetry-judgement-task,92,717041,0.0-46.0-2.0-2.0-1.0-0.0,,,,,,,,,,1.0,1.0,,,,5bbe9a9570f8df0001c13f11,09:16:47,03/04/2024
,"<div style=""font-size: 10rem; color: #0000FF"">J</div>",,ospan,letter,xfPREhE7m9YUmV1EJEcDL4zlHZM2,html-keyboard-response,93,718049,0.0-46.0-2.0-2.0-1.0-1.0,,,,,,,,,,,,,,,5bbe9a9570f8df0001c13f11,09:16:47,03/04/2024
1126.0,,,ospan,symmetry,xfPREhE7m9YUmV1EJEcDL4zlHZM2,symmetry-judgement-task,94,721010,0.0-46.0-2.0-2.0-1.0-2.0,,,,,,,,,,1.0,1.0,,,,5bbe9a9570f8df0001c13f11,09:16:47,03/04/2024
,"<div style=""font-size: 10rem; color: #0000FF"">R</div>",,ospan,letter,xfPREhE7m9YUmV1EJEcDL4zlHZM2,html-keyboard-response,95,722029,0.0-46.0-2.0-2.0-1.0-3.0,,,,,,,,,,,,,,,5bbe9a9570f8df0001c13f11,09:16:47,03/04/2024
1010.0,,,ospan,symmetry,xfPREhE7m9YUmV1EJEcDL4zlHZM2,symmetry-judgement-task,96,724906,0.0-46.0-2.0-2.0-1.0-4.0,,,,,,,,,,1.0,1.0,,,,5bbe9a9570f8df0001c13f11,09:16:47,03/04/2024
,"<div style=""font-size: 10rem; color: #0000FF"">S</div>",,ospan,letter,xfPREhE7m9YUmV1EJEcDL4zlHZM2,html-keyboard-response,97,725912,0.0-46.0-2.0-2.0-1.0-5.0,,,,,,,,,,,,,,,5bbe9a9570f8df0001c13f11,09:16:47,03/04/2024
4992.0,"<div class = numbox><p style=""font-size: 2.4rem"">Please recall the letters you saw to the best of your ability. If you do not remember a particular letter, use the SKIP button.<br><b>(When you are ready to lock in your answer, press ENTER)</b></p><button id = button_1 class = ""square num-button"" onclick = ""recordClick(this)""><div class = content><div class = numbers>C</div></div></button><button id = button_2 class = ""square num-button"" onclick = ""recordClick(this)""><div class = content><div class = numbers>G</div></div></button><button id = button_3 class = ""square num-button"" onclick = ""recordClick(this)""><div class = content><div class = numbers>H</div></div></button><button id = button_4 class = ""square num-button"" onclick = ""recordClick(this)""><div class = content><div class = numbers>J</div></div></button><button id = button_5 class = ""square num-button"" onclick = ""recordClick(this)""><div class = content><div class = numbers>K</div></div></button><button id = button_6 class = ""square num-button"" onclick = ""recordClick(this)""><div class = content><div class = numbers>L</div></div></button><button id = button_7 class = ""square num-button"" onclick = ""recordClick(this)""><div class = content><div class = numbers>N</div></div></button><button id = button_8 class = ""square num-button"" onclick = ""recordClick(this)""><div class = content><div class = numbers>P</div></div></button><button id = button_9 class = ""square num-button"" onclick = ""recordClick(this)""><div class = content><div class = numbers>Q</div></div></button><button id = button_10 class = ""square num-button"" onclick = ""recordClick(this)""><div class = content><div class = numbers>R</div></div></button><button id = button_11 class = ""square num-button"" onclick = ""recordClick(this)""><div class = content><div class = numbers>S</div></div></button><button id = button_12 class = ""square num-button"" onclick = ""recordClick(this)""><div class = content><div class = numbers>Y</div></div></button><button class = clear_button id = ""ClearButton"" onclick = ""clearResponse()"">BACKSPACE</button><button class = blank_button id = ""BlankButton"" onclick = ""blankResponse()"">SKIP</button><p style=""font-size: 2.4rem""><u><b>Current Answer:</b></u></p><br><br><div id=echoed_txt style=""font-size: 5rem; color:blue;""><b></b></div></div>",enter,ospan,retrieval,xfPREhE7m9YUmV1EJEcDL4zlHZM2,html-keyboard-response,98,731661,0.0-46.0-2.0-2.0-2.0-0.0,NA,NA,NA,3.0,"[""J"",""R"",""S""]","[""J"",""R"",""S""]",1.0,3.0,"['<font color=""green"">J</font>', '<font color=""green"">R</font>', '<font color=""green"">S</font>']",,,,,,5bbe9a9570f8df0001c13f11,09:16:47,03/04/2024
1182.0,"['<p style=""font-size:44px"">Letters:<br><br><br><font color=""green"">J</font> <font color=""green"">R</font> <font color=""green"">S</font></p><br><br><p style=""font-size:30px"">Symmetry:<br><br><font color=""green"">100%</font></p><br><br>']",0,ospan,practice_feedback,xfPREhE7m9YUmV1EJEcDL4zlHZM2,html-button-response,99,733355,0.0-46.0-2.0-2.0-2.0-1.0,,,,,,,,,,,,,,,5bbe9a9570f8df0001c13f11,09:16:47,03/04/2024
23182.0,"<div class = 'left_align' style='font-size: 3rem; line-height: 1.3;'><b>Great work! That is the end of practice.</b><br><br>The real trials will look just like the practice trials you just completed.<br><br><u>Here, you will not see feedback</u>. First, you will see an grid picture to judge,<br>then a letter to remember. When the recall screen appears, report the letters in the<br>order presented. If you forget a letter, remember to use the <b>blank</b> button to move to the<br>next letter. Some of the sets will have more symmetry grids and letters than others.<br><br>It is important that you do your best on both the symmetry judgments and the letter recall<br>parts of the experiment. For for the symmetry judgments, try to work as <b>quickly</b> and <br>as <b>accurately</b> as possible. Remember to keep your symmetry accuracy at 85% or above.<br><br><b>For the letters, do NOT use any external aid (e.g., writing on paper, electronic device).</b><br><br>It is <u>very important</u> to our experiment to have a <b>true</b> view of your real performance.<br><br>Do not worry if you miss some when it gets hard! This task is meant to be very challenging!<br><br>Click the button to begin.</div><br><br><br><br>",0,ospan,starting_real_here,xfPREhE7m9YUmV1EJEcDL4zlHZM2,html-button-response,100,756540,0.0-46.0-2.0-3.0,,,,,,,,,,,,,,,5bbe9a9570f8df0001c13f11,09:16:47,03/04/2024
,"<p style=""font-size:75px;"">...</p>",,ospan,iti,xfPREhE7m9YUmV1EJEcDL4zlHZM2,html-keyboard-response,101,757806,0.0-46.0-3.0-0.0-0.0,,,,,,,,,,,,,,,5bbe9a9570f8df0001c13f11,09:16:47,03/04/2024
2859.0,,,ospan,symmetry,xfPREhE7m9YUmV1EJEcDL4zlHZM2,symmetry-judgement-task,102,761745,0.0-46.0-3.0-0.0-1.0-0.0,,,,,,,,,,1.0,1.0,,,,5bbe9a9570f8df0001c13f11,09:16:47,03/04/2024
,"<div style=""font-size: 10rem; color: #0000FF"">Y</div>",,ospan,letter,xfPREhE7m9YUmV1EJEcDL4zlHZM2,html-keyboard-response,103,762748,0.0-46.0-3.0-0.0-1.0-1.0,,,,,,,,,,,,,,,5bbe9a9570f8df0001c13f11,09:16:47,03/04/2024
2094.0,,,ospan,symmetry,xfPREhE7m9YUmV1EJEcDL4zlHZM2,symmetry-judgement-task,104,766731,0.0-46.0-3.0-0.0-1.0-2.0,,,,,,,,,,1.0,1.0,,,,5bbe9a9570f8df0001c13f11,09:16:47,03/04/2024
,"<div style=""font-size: 10rem; color: #0000FF"">L</div>",,ospan,letter,xfPREhE7m9YUmV1EJEcDL4zlHZM2,html-keyboard-response,105,767742,0.0-46.0-3.0-0.0-1.0-3.0,,,,,,,,,,,,,,,5bbe9a9570f8df0001c13f11,09:16:47,03/04/2024
1057.0,,,ospan,symmetry,xfPREhE7m9YUmV1EJEcDL4zlHZM2,symmetry-judgement-task,106,770637,0.0-46.0-3.0-0.0-1.0-4.0,,,,,,,,,,1.0,1.0,,,,5bbe9a9570f8df0001c13f11,09:16:47,03/04/2024
,"<div style=""font-size: 10rem; color: #0000FF"">P</div>",,ospan,letter,xfPREhE7m9YUmV1EJEcDL4zlHZM2,html-keyboard-response,107,771654,0.0-46.0-3.0-0.0-1.0-5.0,,,,,,,,,,,,,,,5bbe9a9570f8df0001c13f11,09:16:47,03/04/2024
4930.0,"<div class = numbox><p style=""font-size: 2.4rem"">Please recall the letters you saw to the best of your ability. If you do not remember a particular letter, use the SKIP button.<br><b>(When you are ready to lock in your answer, press ENTER)</b></p><button id = button_1 class = ""square num-button"" onclick = ""recordClick(this)""><div class = content><div class = numbers>C</div></div></button><button id = button_2 class = ""square num-button"" onclick = ""recordClick(this)""><div class = content><div class = numbers>G</div></div></button><button id = button_3 class = ""square num-button"" onclick = ""recordClick(this)""><div class = content><div class = numbers>H</div></div></button><button id = button_4 class = ""square num-button"" onclick = ""recordClick(this)""><div class = content><div class = numbers>J</div></div></button><button id = button_5 class = ""square num-button"" onclick = ""recordClick(this)""><div class = content><div class = numbers>K</div></div></button><button id = button_6 class = ""square num-button"" onclick = ""recordClick(this)""><div class = content><div class = numbers>L</div></div></button><button id = button_7 class = ""square num-button"" onclick = ""recordClick(this)""><div class = content><div class = numbers>N</div></div></button><button id = button_8 class = ""square num-button"" onclick = ""recordClick(this)""><div class = content><div class = numbers>P</div></div></button><button id = button_9 class = ""square num-button"" onclick = ""recordClick(this)""><div class = content><div class = numbers>Q</div></div></button><button id = button_10 class = ""square num-button"" onclick = ""recordClick(this)""><div class = content><div class = numbers>R</div></div></button><button id = button_11 class = ""square num-button"" onclick = ""recordClick(this)""><div class = content><div class = numbers>S</div></div></button><button id = button_12 class = ""square num-button"" onclick = ""recordClick(this)""><div class = content><div class = numbers>Y</div></div></button><button class = clear_button id = ""ClearButton"" onclick = ""clearResponse()"">BACKSPACE</button><button class = blank_button id = ""BlankButton"" onclick = ""blankResponse()"">SKIP</button><p style=""font-size: 2.4rem""><u><b>Current Answer:</b></u></p><br><br><div id=echoed_txt style=""font-size: 5rem; color:blue;""><b></b></div></div>",enter,ospan,retrieval,xfPREhE7m9YUmV1EJEcDL4zlHZM2,html-keyboard-response,108,777338,0.0-46.0-3.0-0.0-2.0,3,3,3,3.0,"[""Y"",""L"",""P""]","[""Y"",""L"",""P""]",1.0,3.0,,,,,,,5bbe9a9570f8df0001c13f11,09:16:47,03/04/2024
1104.0,[''],0,ospan,feedback,xfPREhE7m9YUmV1EJEcDL4zlHZM2,html-button-response,109,778947,0.0-46.0-3.0-0.0-3.0,,,,,,,,,,,,100.0,0.0,,5bbe9a9570f8df0001c13f11,09:16:47,03/04/2024
,"<p style=""font-size:75px;"">...</p>",,ospan,iti,xfPREhE7m9YUmV1EJEcDL4zlHZM2,html-keyboard-response,110,779959,0.0-46.0-4.0-0.0-0.0,,,,,,,,,,,,,,,5bbe9a9570f8df0001c13f11,09:16:47,03/04/2024
1060.0,,,ospan,symmetry,xfPREhE7m9YUmV1EJEcDL4zlHZM2,symmetry-judgement-task,111,782092,0.0-46.0-4.0-0.0-1.0-0.0,,,,,,,,,,1.0,1.0,,,,5bbe9a9570f8df0001c13f11,09:16:47,03/04/2024
,"<div style=""font-size: 10rem; color: #0000FF"">H</div>",,ospan,letter,xfPREhE7m9YUmV1EJEcDL4zlHZM2,html-keyboard-response,112,783109,0.0-46.0-4.0-0.0-1.0-1.0,,,,,,,,,,,,,,,5bbe9a9570f8df0001c13f11,09:16:47,03/04/2024
988.0,,,ospan,symmetry,xfPREhE7m9YUmV1EJEcDL4zlHZM2,symmetry-judgement-task,113,785931,0.0-46.0-4.0-0.0-1.0-2.0,,,,,,,,,,1.0,1.0,,,,5bbe9a9570f8df0001c13f11,09:16:47,03/04/2024
,"<div style=""font-size: 10rem; color: #0000FF"">R</div>",,ospan,letter,xfPREhE7m9YUmV1EJEcDL4zlHZM2,html-keyboard-response,114,786950,0.0-46.0-4.0-0.0-1.0-3.0,,,,,,,,,,,,,,,5bbe9a9570f8df0001c13f11,09:16:47,03/04/2024
897.0,,,ospan,symmetry,xfPREhE7m9YUmV1EJEcDL4zlHZM2,symmetry-judgement-task,115,789703,0.0-46.0-4.0-0.0-1.0-4.0,,,,,,,,,,1.0,1.0,,,,5bbe9a9570f8df0001c13f11,09:16:47,03/04/2024
,"<div style=""font-size: 10rem; color: #0000FF"">G</div>",,ospan,letter,xfPREhE7m9YUmV1EJEcDL4zlHZM2,html-keyboard-response,116,790723,0.0-46.0-4.0-0.0-1.0-5.0,,,,,,,,,,,,,,,5bbe9a9570f8df0001c13f11,09:16:47,03/04/2024
963.0,,,ospan,symmetry,xfPREhE7m9YUmV1EJEcDL4zlHZM2,symmetry-judgement-task,117,793523,0.0-46.0-4.0-0.0-1.0-6.0,,,,,,,,,,1.0,1.0,,,,5bbe9a9570f8df0001c13f11,09:16:47,03/04/2024
,"<div style=""font-size: 10rem; color: #0000FF"">P</div>",,ospan,letter,xfPREhE7m9YUmV1EJEcDL4zlHZM2,html-keyboard-response,118,794527,0.0-46.0-4.0-0.0-1.0-7.0,,,,,,,,,,,,,,,5bbe9a9570f8df0001c13f11,09:16:47,03/04/2024
5357.0,"<div class = numbox><p style=""font-size: 2.4rem"">Please recall the letters you saw to the best of your ability. If you do not remember a particular letter, use the SKIP button.<br><b>(When you are ready to lock in your answer, press ENTER)</b></p><button id = button_1 class = ""square num-button"" onclick = ""recordClick(this)""><div class = content><div class = numbers>C</div></div></button><button id = button_2 class = ""square num-button"" onclick = ""recordClick(this)""><div class = content><div class = numbers>G</div></div></button><button id = button_3 class = ""square num-button"" onclick = ""recordClick(this)""><div class = content><div class = numbers>H</div></div></button><button id = button_4 class = ""square num-button"" onclick = ""recordClick(this)""><div class = content><div class = numbers>J</div></div></button><button id = button_5 class = ""square num-button"" onclick = ""recordClick(this)""><div class = content><div class = numbers>K</div></div></button><button id = button_6 class = ""square num-button"" onclick = ""recordClick(this)""><div class = content><div class = numbers>L</div></div></button><button id = button_7 class = ""square num-button"" onclick = ""recordClick(this)""><div class = content><div class = numbers>N</div></div></button><button id = button_8 class = ""square num-button"" onclick = ""recordClick(this)""><div class = content><div class = numbers>P</div></div></button><button id = button_9 class = ""square num-button"" onclick = ""recordClick(this)""><div class = content><div class = numbers>Q</div></div></button><button id = button_10 class = ""square num-button"" onclick = ""recordClick(this)""><div class = content><div class = numbers>R</div></div></button><button id = button_11 class = ""square num-button"" onclick = ""recordClick(this)""><div class = content><div class = numbers>S</div></div></button><button id = button_12 class = ""square num-button"" onclick = ""recordClick(this)""><div class = content><div class = numbers>Y</div></div></button><button class = clear_button id = ""ClearButton"" onclick = ""clearResponse()"">BACKSPACE</button><button class = blank_button id = ""BlankButton"" onclick = ""blankResponse()"">SKIP</button><p style=""font-size: 2.4rem""><u><b>Current Answer:</b></u></p><br><br><div id=echoed_txt style=""font-size: 5rem; color:blue;""><b></b></div></div>",enter,ospan,retrieval,xfPREhE7m9YUmV1EJEcDL4zlHZM2,html-keyboard-response,119,800645,0.0-46.0-4.0-0.0-2.0,7,7,7,4.0,"[""H"",""R"",""G"",""P""]","[""H"",""R"",""G"",""P""]",1.0,4.0,,,,,,,5bbe9a9570f8df0001c13f11,09:16:47,03/04/2024
648.0,[''],0,ospan,feedback,xfPREhE7m9YUmV1EJEcDL4zlHZM2,html-button-response,120,801811,0.0-46.0-4.0-0.0-3.0,,,,,,,,,,,,100.0,0.0,,5bbe9a9570f8df0001c13f11,09:16:47,03/04/2024
,"<p style=""font-size:75px;"">...</p>",,ospan,iti,xfPREhE7m9YUmV1EJEcDL4zlHZM2,html-keyboard-response,121,802815,0.0-46.0-4.0-1.0-0.0,,,,,,,,,,,,,,,5bbe9a9570f8df0001c13f11,09:16:47,03/04/2024
1139.0,,,ospan,symmetry,xfPREhE7m9YUmV1EJEcDL4zlHZM2,symmetry-judgement-task,122,805033,0.0-46.0-4.0-1.0-1.0-0.0,,,,,,,,,,1.0,1.0,,,,5bbe9a9570f8df0001c13f11,09:16:47,03/04/2024
,"<div style=""font-size: 10rem; color: #0000FF"">P</div>",,ospan,letter,xfPREhE7m9YUmV1EJEcDL4zlHZM2,html-keyboard-response,123,806037,0.0-46.0-4.0-1.0-1.0-1.0,,,,,,,,,,,,,,,5bbe9a9570f8df0001c13f11,09:16:47,03/04/2024
1474.0,,,ospan,symmetry,xfPREhE7m9YUmV1EJEcDL4zlHZM2,symmetry-judgement-task,124,809335,0.0-46.0-4.0-1.0-1.0-2.0,,,,,,,,,,1.0,1.0,,,,5bbe9a9570f8df0001c13f11,09:16:47,03/04/2024
,"<div style=""font-size: 10rem; color: #0000FF"">G</div>",,ospan,letter,xfPREhE7m9YUmV1EJEcDL4zlHZM2,html-keyboard-response,125,810342,0.0-46.0-4.0-1.0-1.0-3.0,,,,,,,,,,,,,,,5bbe9a9570f8df0001c13f11,09:16:47,03/04/2024
1138.0,,,ospan,symmetry,xfPREhE7m9YUmV1EJEcDL4zlHZM2,symmetry-judgement-task,126,813327,0.0-46.0-4.0-1.0-1.0-4.0,,,,,,,,,,1.0,1.0,,,,5bbe9a9570f8df0001c13f11,09:16:47,03/04/2024
,"<div style=""font-size: 10rem; color: #0000FF"">R</div>",,ospan,letter,xfPREhE7m9YUmV1EJEcDL4zlHZM2,html-keyboard-response,127,814332,0.0-46.0-4.0-1.0-1.0-5.0,,,,,,,,,,,,,,,5bbe9a9570f8df0001c13f11,09:16:47,03/04/2024
2268.0,,,ospan,symmetry,xfPREhE7m9YUmV1EJEcDL4zlHZM2,symmetry-judgement-task,128,818446,0.0-46.0-4.0-1.0-1.0-6.0,,,,,,,,,,1.0,1.0,,,,5bbe9a9570f8df0001c13f11,09:16:47,03/04/2024
,"<div style=""font-size: 10rem; color: #0000FF"">Y</div>",,ospan,letter,xfPREhE7m9YUmV1EJEcDL4zlHZM2,html-keyboard-response,129,819455,0.0-46.0-4.0-1.0-1.0-7.0,,,,,,,,,,,,,,,5bbe9a9570f8df0001c13f11,09:16:47,03/04/2024
1015.0,,,ospan,symmetry,xfPREhE7m9YUmV1EJEcDL4zlHZM2,symmetry-judgement-task,130,822327,0.0-46.0-4.0-1.0-1.0-8.0,,,,,,,,,,1.0,1.0,,,,5bbe9a9570f8df0001c13f11,09:16:47,03/04/2024
,"<div style=""font-size: 10rem; color: #0000FF"">S</div>",,ospan,letter,xfPREhE7m9YUmV1EJEcDL4zlHZM2,html-keyboard-response,131,823331,0.0-46.0-4.0-1.0-1.0-9.0,,,,,,,,,,,,,,,5bbe9a9570f8df0001c13f11,09:16:47,03/04/2024
7220.0,"<div class = numbox><p style=""font-size: 2.4rem"">Please recall the letters you saw to the best of your ability. If you do not remember a particular letter, use the SKIP button.<br><b>(When you are ready to lock in your answer, press ENTER)</b></p><button id = button_1 class = ""square num-button"" onclick = ""recordClick(this)""><div class = content><div class = numbers>C</div></div></button><button id = button_2 class = ""square num-button"" onclick = ""recordClick(this)""><div class = content><div class = numbers>G</div></div></button><button id = button_3 class = ""square num-button"" onclick = ""recordClick(this)""><div class = content><div class = numbers>H</div></div></button><button id = button_4 class = ""square num-button"" onclick = ""recordClick(this)""><div class = content><div class = numbers>J</div></div></button><button id = button_5 class = ""square num-button"" onclick = ""recordClick(this)""><div class = content><div class = numbers>K</div></div></button><button id = button_6 class = ""square num-button"" onclick = ""recordClick(this)""><div class = content><div class = numbers>L</div></div></button><button id = button_7 class = ""square num-button"" onclick = ""recordClick(this)""><div class = content><div class = numbers>N</div></div></button><button id = button_8 class = ""square num-button"" onclick = ""recordClick(this)""><div class = content><div class = numbers>P</div></div></button><button id = button_9 class = ""square num-button"" onclick = ""recordClick(this)""><div class = content><div class = numbers>Q</div></div></button><button id = button_10 class = ""square num-button"" onclick = ""recordClick(this)""><div class = content><div class = numbers>R</div></div></button><button id = button_11 class = ""square num-button"" onclick = ""recordClick(this)""><div class = content><div class = numbers>S</div></div></button><button id = button_12 class = ""square num-button"" onclick = ""recordClick(this)""><div class = content><div class = numbers>Y</div></div></button><button class = clear_button id = ""ClearButton"" onclick = ""clearResponse()"">BACKSPACE</button><button class = blank_button id = ""BlankButton"" onclick = ""blankResponse()"">SKIP</button><p style=""font-size: 2.4rem""><u><b>Current Answer:</b></u></p><br><br><div id=echoed_txt style=""font-size: 5rem; color:blue;""><b></b></div></div>",enter,ospan,retrieval,xfPREhE7m9YUmV1EJEcDL4zlHZM2,html-keyboard-response,132,831311,0.0-46.0-4.0-1.0-2.0,12,12,12,5.0,"[""P"",""G"",""R"",""Y"",""S""]","[""P"",""G"",""R"",""Y"",""S""]",1.0,5.0,,,,,,,5bbe9a9570f8df0001c13f11,09:16:47,03/04/2024
847.0,[''],0,ospan,feedback,xfPREhE7m9YUmV1EJEcDL4zlHZM2,html-button-response,133,832668,0.0-46.0-4.0-1.0-3.0,,,,,,,,,,,,100.0,0.0,,5bbe9a9570f8df0001c13f11,09:16:47,03/04/2024
,"<p style=""font-size:75px;"">...</p>",,ospan,iti,xfPREhE7m9YUmV1EJEcDL4zlHZM2,html-keyboard-response,134,833682,0.0-46.0-4.0-2.0-0.0,,,,,,,,,,,,,,,5bbe9a9570f8df0001c13f11,09:16:47,03/04/2024
1173.0,,,ospan,symmetry,xfPREhE7m9YUmV1EJEcDL4zlHZM2,symmetry-judgement-task,135,835934,0.0-46.0-4.0-2.0-1.0-0.0,,,,,,,,,,1.0,1.0,,,,5bbe9a9570f8df0001c13f11,09:16:47,03/04/2024
,"<div style=""font-size: 10rem; color: #0000FF"">S</div>",,ospan,letter,xfPREhE7m9YUmV1EJEcDL4zlHZM2,html-keyboard-response,136,836954,0.0-46.0-4.0-2.0-1.0-1.0,,,,,,,,,,,,,,,5bbe9a9570f8df0001c13f11,09:16:47,03/04/2024
1261.0,,,ospan,symmetry,xfPREhE7m9YUmV1EJEcDL4zlHZM2,symmetry-judgement-task,137,840050,0.0-46.0-4.0-2.0-1.0-2.0,,,,,,,,,,1.0,1.0,,,,5bbe9a9570f8df0001c13f11,09:16:47,03/04/2024
,"<div style=""font-size: 10rem; color: #0000FF"">Y</div>",,ospan,letter,xfPREhE7m9YUmV1EJEcDL4zlHZM2,html-keyboard-response,138,841146,0.0-46.0-4.0-2.0-1.0-3.0,,,,,,,,,,,,,,,5bbe9a9570f8df0001c13f11,09:16:47,03/04/2024
1266.0,,,ospan,symmetry,xfPREhE7m9YUmV1EJEcDL4zlHZM2,symmetry-judgement-task,139,844252,0.0-46.0-4.0-2.0-1.0-4.0,,,,,,,,,,1.0,1.0,,,,5bbe9a9570f8df0001c13f11,09:16:47,03/04/2024
,"<div style=""font-size: 10rem; color: #0000FF"">L</div>",,ospan,letter,xfPREhE7m9YUmV1EJEcDL4zlHZM2,html-keyboard-response,140,845270,0.0-46.0-4.0-2.0-1.0-5.0,,,,,,,,,,,,,,,5bbe9a9570f8df0001c13f11,09:16:47,03/04/2024
4397.0,"<div class = numbox><p style=""font-size: 2.4rem"">Please recall the letters you saw to the best of your ability. If you do not remember a particular letter, use the SKIP button.<br><b>(When you are ready to lock in your answer, press ENTER)</b></p><button id = button_1 class = ""square num-button"" onclick = ""recordClick(this)""><div class = content><div class = numbers>C</div></div></button><button id = button_2 class = ""square num-button"" onclick = ""recordClick(this)""><div class = content><div class = numbers>G</div></div></button><button id = button_3 class = ""square num-button"" onclick = ""recordClick(this)""><div class = content><div class = numbers>H</div></div></button><button id = button_4 class = ""square num-button"" onclick = ""recordClick(this)""><div class = content><div class = numbers>J</div></div></button><button id = button_5 class = ""square num-button"" onclick = ""recordClick(this)""><div class = content><div class = numbers>K</div></div></button><button id = button_6 class = ""square num-button"" onclick = ""recordClick(this)""><div class = content><div class = numbers>L</div></div></button><button id = button_7 class = ""square num-button"" onclick = ""recordClick(this)""><div class = content><div class = numbers>N</div></div></button><button id = button_8 class = ""square num-button"" onclick = ""recordClick(this)""><div class = content><div class = numbers>P</div></div></button><button id = button_9 class = ""square num-button"" onclick = ""recordClick(this)""><div class = content><div class = numbers>Q</div></div></button><button id = button_10 class = ""square num-button"" onclick = ""recordClick(this)""><div class = content><div class = numbers>R</div></div></button><button id = button_11 class = ""square num-button"" onclick = ""recordClick(this)""><div class = content><div class = numbers>S</div></div></button><button id = button_12 class = ""square num-button"" onclick = ""recordClick(this)""><div class = content><div class = numbers>Y</div></div></button><button class = clear_button id = ""ClearButton"" onclick = ""clearResponse()"">BACKSPACE</button><button class = blank_button id = ""BlankButton"" onclick = ""blankResponse()"">SKIP</button><p style=""font-size: 2.4rem""><u><b>Current Answer:</b></u></p><br><br><div id=echoed_txt style=""font-size: 5rem; color:blue;""><b></b></div></div>",enter,ospan,retrieval,xfPREhE7m9YUmV1EJEcDL4zlHZM2,html-keyboard-response,141,850422,0.0-46.0-4.0-2.0-2.0,15,15,15,3.0,"[""S"",""Y"",""L""]","[""S"",""Y"",""L""]",1.0,3.0,,,,,,,5bbe9a9570f8df0001c13f11,09:16:47,03/04/2024
814.0,[''],0,ospan,feedback,xfPREhE7m9YUmV1EJEcDL4zlHZM2,html-button-response,142,851787,0.0-46.0-4.0-2.0-3.0,,,,,,,,,,,,100.0,0.0,,5bbe9a9570f8df0001c13f11,09:16:47,03/04/2024
,"<p style=""font-size:75px;"">...</p>",,ospan,iti,xfPREhE7m9YUmV1EJEcDL4zlHZM2,html-keyboard-response,143,852792,0.0-46.0-5.0-0.0-0.0,,,,,,,,,,,,,,,5bbe9a9570f8df0001c13f11,09:16:47,03/04/2024
892.0,,,ospan,symmetry,xfPREhE7m9YUmV1EJEcDL4zlHZM2,symmetry-judgement-task,144,854759,0.0-46.0-5.0-0.0-1.0-0.0,,,,,,,,,,1.0,1.0,,,,5bbe9a9570f8df0001c13f11,09:16:47,03/04/2024
,"<div style=""font-size: 10rem; color: #0000FF"">K</div>",,ospan,letter,xfPREhE7m9YUmV1EJEcDL4zlHZM2,html-keyboard-response,145,855766,0.0-46.0-5.0-0.0-1.0-1.0,,,,,,,,,,,,,,,5bbe9a9570f8df0001c13f11,09:16:47,03/04/2024
1536.0,,,ospan,symmetry,xfPREhE7m9YUmV1EJEcDL4zlHZM2,symmetry-judgement-task,146,859124,0.0-46.0-5.0-0.0-1.0-2.0,,,,,,,,,,1.0,1.0,,,,5bbe9a9570f8df0001c13f11,09:16:47,03/04/2024
,"<div style=""font-size: 10rem; color: #0000FF"">L</div>",,ospan,letter,xfPREhE7m9YUmV1EJEcDL4zlHZM2,html-keyboard-response,147,860131,0.0-46.0-5.0-0.0-1.0-3.0,,,,,,,,,,,,,,,5bbe9a9570f8df0001c13f11,09:16:47,03/04/2024
1374.0,,,ospan,symmetry,xfPREhE7m9YUmV1EJEcDL4zlHZM2,symmetry-judgement-task,148,863335,0.0-46.0-5.0-0.0-1.0-4.0,,,,,,,,,,1.0,1.0,,,,5bbe9a9570f8df0001c13f11,09:16:47,03/04/2024
,"<div style=""font-size: 10rem; color: #0000FF"">G</div>",,ospan,letter,xfPREhE7m9YUmV1EJEcDL4zlHZM2,html-keyboard-response,149,864341,0.0-46.0-5.0-0.0-1.0-5.0,,,,,,,,,,,,,,,5bbe9a9570f8df0001c13f11,09:16:47,03/04/2024
932.0,,,ospan,symmetry,xfPREhE7m9YUmV1EJEcDL4zlHZM2,symmetry-judgement-task,150,867159,0.0-46.0-5.0-0.0-1.0-6.0,,,,,,,,,,1.0,1.0,,,,5bbe9a9570f8df0001c13f11,09:16:47,03/04/2024
,"<div style=""font-size: 10rem; color: #0000FF"">N</div>",,ospan,letter,xfPREhE7m9YUmV1EJEcDL4zlHZM2,html-keyboard-response,151,868166,0.0-46.0-5.0-0.0-1.0-7.0,,,,,,,,,,,,,,,5bbe9a9570f8df0001c13f11,09:16:47,03/04/2024
1330.0,,,ospan,symmetry,xfPREhE7m9YUmV1EJEcDL4zlHZM2,symmetry-judgement-task,152,871332,0.0-46.0-5.0-0.0-1.0-8.0,,,,,,,,,,1.0,1.0,,,,5bbe9a9570f8df0001c13f11,09:16:47,03/04/2024
,"<div style=""font-size: 10rem; color: #0000FF"">Y</div>",,ospan,letter,xfPREhE7m9YUmV1EJEcDL4zlHZM2,html-keyboard-response,153,872351,0.0-46.0-5.0-0.0-1.0-9.0,,,,,,,,,,,,,,,5bbe9a9570f8df0001c13f11,09:16:47,03/04/2024
1132.0,,,ospan,symmetry,xfPREhE7m9YUmV1EJEcDL4zlHZM2,symmetry-judgement-task,154,875319,0.0-46.0-5.0-0.0-1.0-10.0,,,,,,,,,,1.0,1.0,,,,5bbe9a9570f8df0001c13f11,09:16:47,03/04/2024
,"<div style=""font-size: 10rem; color: #0000FF"">C</div>",,ospan,letter,xfPREhE7m9YUmV1EJEcDL4zlHZM2,html-keyboard-response,155,876327,0.0-46.0-5.0-0.0-1.0-11.0,,,,,,,,,,,,,,,5bbe9a9570f8df0001c13f11,09:16:47,03/04/2024
8449.0,"<div class = numbox><p style=""font-size: 2.4rem"">Please recall the letters you saw to the best of your ability. If you do not remember a particular letter, use the SKIP button.<br><b>(When you are ready to lock in your answer, press ENTER)</b></p><button id = button_1 class = ""square num-button"" onclick = ""recordClick(this)""><div class = content><div class = numbers>C</div></div></button><button id = button_2 class = ""square num-button"" onclick = ""recordClick(this)""><div class = content><div class = numbers>G</div></div></button><button id = button_3 class = ""square num-button"" onclick = ""recordClick(this)""><div class = content><div class = numbers>H</div></div></button><button id = button_4 class = ""square num-button"" onclick = ""recordClick(this)""><div class = content><div class = numbers>J</div></div></button><button id = button_5 class = ""square num-button"" onclick = ""recordClick(this)""><div class = content><div class = numbers>K</div></div></button><button id = button_6 class = ""square num-button"" onclick = ""recordClick(this)""><div class = content><div class = numbers>L</div></div></button><button id = button_7 class = ""square num-button"" onclick = ""recordClick(this)""><div class = content><div class = numbers>N</div></div></button><button id = button_8 class = ""square num-button"" onclick = ""recordClick(this)""><div class = content><div class = numbers>P</div></div></button><button id = button_9 class = ""square num-button"" onclick = ""recordClick(this)""><div class = content><div class = numbers>Q</div></div></button><button id = button_10 class = ""square num-button"" onclick = ""recordClick(this)""><div class = content><div class = numbers>R</div></div></button><button id = button_11 class = ""square num-button"" onclick = ""recordClick(this)""><div class = content><div class = numbers>S</div></div></button><button id = button_12 class = ""square num-button"" onclick = ""recordClick(this)""><div class = content><div class = numbers>Y</div></div></button><button class = clear_button id = ""ClearButton"" onclick = ""clearResponse()"">BACKSPACE</button><button class = blank_button id = ""BlankButton"" onclick = ""blankResponse()"">SKIP</button><p style=""font-size: 2.4rem""><u><b>Current Answer:</b></u></p><br><br><div id=echoed_txt style=""font-size: 5rem; color:blue;""><b></b></div></div>",enter,ospan,retrieval,xfPREhE7m9YUmV1EJEcDL4zlHZM2,html-keyboard-response,156,885538,0.0-46.0-5.0-0.0-2.0,21,21,21,6.0,"[""K"",""L"",""G"",""N"",""Y"",""C""]","[""K"",""L"",""G"",""N"",""Y"",""C""]",1.0,6.0,,,,,,,5bbe9a9570f8df0001c13f11,09:16:47,03/04/2024
1104.0,[''],0,ospan,feedback,xfPREhE7m9YUmV1EJEcDL4zlHZM2,html-button-response,157,887155,0.0-46.0-5.0-0.0-3.0,,,,,,,,,,,,100.0,0.0,,5bbe9a9570f8df0001c13f11,09:16:47,03/04/2024
,"<p style=""font-size:75px;"">...</p>",,ospan,iti,xfPREhE7m9YUmV1EJEcDL4zlHZM2,html-keyboard-response,158,888164,0.0-46.0-5.0-1.0-0.0,,,,,,,,,,,,,,,5bbe9a9570f8df0001c13f11,09:16:47,03/04/2024
1006.0,,,ospan,symmetry,xfPREhE7m9YUmV1EJEcDL4zlHZM2,symmetry-judgement-task,159,890242,0.0-46.0-5.0-1.0-1.0-0.0,,,,,,,,,,1.0,1.0,,,,5bbe9a9570f8df0001c13f11,09:16:47,03/04/2024
,"<div style=""font-size: 10rem; color: #0000FF"">H</div>",,ospan,letter,xfPREhE7m9YUmV1EJEcDL4zlHZM2,html-keyboard-response,160,891251,0.0-46.0-5.0-1.0-1.0-1.0,,,,,,,,,,,,,,,5bbe9a9570f8df0001c13f11,09:16:47,03/04/2024
1113.0,,,ospan,symmetry,xfPREhE7m9YUmV1EJEcDL4zlHZM2,symmetry-judgement-task,161,894200,0.0-46.0-5.0-1.0-1.0-2.0,,,,,,,,,,1.0,1.0,,,,5bbe9a9570f8df0001c13f11,09:16:47,03/04/2024
,"<div style=""font-size: 10rem; color: #0000FF"">L</div>",,ospan,letter,xfPREhE7m9YUmV1EJEcDL4zlHZM2,html-keyboard-response,162,895207,0.0-46.0-5.0-1.0-1.0-3.0,,,,,,,,,,,,,,,5bbe9a9570f8df0001c13f11,09:16:47,03/04/2024
1043.0,,,ospan,symmetry,xfPREhE7m9YUmV1EJEcDL4zlHZM2,symmetry-judgement-task,163,898100,0.0-46.0-5.0-1.0-1.0-4.0,,,,,,,,,,1.0,1.0,,,,5bbe9a9570f8df0001c13f11,09:16:47,03/04/2024
,"<div style=""font-size: 10rem; color: #0000FF"">J</div>",,ospan,letter,xfPREhE7m9YUmV1EJEcDL4zlHZM2,html-keyboard-response,164,899152,0.0-46.0-5.0-1.0-1.0-5.0,,,,,,,,,,,,,,,5bbe9a9570f8df0001c13f11,09:16:47,03/04/2024
1375.0,,,ospan,symmetry,xfPREhE7m9YUmV1EJEcDL4zlHZM2,symmetry-judgement-task,165,902371,0.0-46.0-5.0-1.0-1.0-6.0,,,,,,,,,,1.0,1.0,,,,5bbe9a9570f8df0001c13f11,09:16:47,03/04/2024
,"<div style=""font-size: 10rem; color: #0000FF"">R</div>",,ospan,letter,xfPREhE7m9YUmV1EJEcDL4zlHZM2,html-keyboard-response,166,903379,0.0-46.0-5.0-1.0-1.0-7.0,,,,,,,,,,,,,,,5bbe9a9570f8df0001c13f11,09:16:47,03/04/2024
1054.0,,,ospan,symmetry,xfPREhE7m9YUmV1EJEcDL4zlHZM2,symmetry-judgement-task,167,906255,0.0-46.0-5.0-1.0-1.0-8.0,,,,,,,,,,1.0,1.0,,,,5bbe9a9570f8df0001c13f11,09:16:47,03/04/2024
,"<div style=""font-size: 10rem; color: #0000FF"">S</div>",,ospan,letter,xfPREhE7m9YUmV1EJEcDL4zlHZM2,html-keyboard-response,168,907278,0.0-46.0-5.0-1.0-1.0-9.0,,,,,,,,,,,,,,,5bbe9a9570f8df0001c13f11,09:16:47,03/04/2024
1047.0,,,ospan,symmetry,xfPREhE7m9YUmV1EJEcDL4zlHZM2,symmetry-judgement-task,169,910178,0.0-46.0-5.0-1.0-1.0-10.0,,,,,,,,,,1.0,1.0,,,,5bbe9a9570f8df0001c13f11,09:16:47,03/04/2024
,"<div style=""font-size: 10rem; color: #0000FF"">C</div>",,ospan,letter,xfPREhE7m9YUmV1EJEcDL4zlHZM2,html-keyboard-response,170,911182,0.0-46.0-5.0-1.0-1.0-11.0,,,,,,,,,,,,,,,5bbe9a9570f8df0001c13f11,09:16:47,03/04/2024
995.0,,,ospan,symmetry,xfPREhE7m9YUmV1EJEcDL4zlHZM2,symmetry-judgement-task,171,914016,0.0-46.0-5.0-1.0-1.0-12.0,,,,,,,,,,1.0,1.0,,,,5bbe9a9570f8df0001c13f11,09:16:47,03/04/2024
,"<div style=""font-size: 10rem; color: #0000FF"">K</div>",,ospan,letter,xfPREhE7m9YUmV1EJEcDL4zlHZM2,html-keyboard-response,172,915018,0.0-46.0-5.0-1.0-1.0-13.0,,,,,,,,,,,,,,,5bbe9a9570f8df0001c13f11,09:16:47,03/04/2024
8259.0,"<div class = numbox><p style=""font-size: 2.4rem"">Please recall the letters you saw to the best of your ability. If you do not remember a particular letter, use the SKIP button.<br><b>(When you are ready to lock in your answer, press ENTER)</b></p><button id = button_1 class = ""square num-button"" onclick = ""recordClick(this)""><div class = content><div class = numbers>C</div></div></button><button id = button_2 class = ""square num-button"" onclick = ""recordClick(this)""><div class = content><div class = numbers>G</div></div></button><button id = button_3 class = ""square num-button"" onclick = ""recordClick(this)""><div class = content><div class = numbers>H</div></div></button><button id = button_4 class = ""square num-button"" onclick = ""recordClick(this)""><div class = content><div class = numbers>J</div></div></button><button id = button_5 class = ""square num-button"" onclick = ""recordClick(this)""><div class = content><div class = numbers>K</div></div></button><button id = button_6 class = ""square num-button"" onclick = ""recordClick(this)""><div class = content><div class = numbers>L</div></div></button><button id = button_7 class = ""square num-button"" onclick = ""recordClick(this)""><div class = content><div class = numbers>N</div></div></button><button id = button_8 class = ""square num-button"" onclick = ""recordClick(this)""><div class = content><div class = numbers>P</div></div></button><button id = button_9 class = ""square num-button"" onclick = ""recordClick(this)""><div class = content><div class = numbers>Q</div></div></button><button id = button_10 class = ""square num-button"" onclick = ""recordClick(this)""><div class = content><div class = numbers>R</div></div></button><button id = button_11 class = ""square num-button"" onclick = ""recordClick(this)""><div class = content><div class = numbers>S</div></div></button><button id = button_12 class = ""square num-button"" onclick = ""recordClick(this)""><div class = content><div class = numbers>Y</div></div></button><button class = clear_button id = ""ClearButton"" onclick = ""clearResponse()"">BACKSPACE</button><button class = blank_button id = ""BlankButton"" onclick = ""blankResponse()"">SKIP</button><p style=""font-size: 2.4rem""><u><b>Current Answer:</b></u></p><br><br><div id=echoed_txt style=""font-size: 5rem; color:blue;""><b></b></div></div>",enter,ospan,retrieval,xfPREhE7m9YUmV1EJEcDL4zlHZM2,html-keyboard-response,173,924034,0.0-46.0-5.0-1.0-2.0,28,28,28,7.0,"[""H"",""L"",""J"",""R"",""S"",""C"",""K""]","[""H"",""L"",""J"",""R"",""S"",""C"",""K""]",1.0,7.0,,,,,,,5bbe9a9570f8df0001c13f11,09:16:47,03/04/2024
640.0,[''],0,ospan,feedback,xfPREhE7m9YUmV1EJEcDL4zlHZM2,html-button-response,174,925179,0.0-46.0-5.0-1.0-3.0,,,,,,,,,,,,100.0,0.0,,5bbe9a9570f8df0001c13f11,09:16:47,03/04/2024
,"<p style=""font-size:75px;"">...</p>",,ospan,iti,xfPREhE7m9YUmV1EJEcDL4zlHZM2,html-keyboard-response,175,926194,0.0-46.0-6.0-0.0-0.0,,,,,,,,,,,,,,,5bbe9a9570f8df0001c13f11,09:16:47,03/04/2024
1027.0,,,ospan,symmetry,xfPREhE7m9YUmV1EJEcDL4zlHZM2,symmetry-judgement-task,176,928333,0.0-46.0-6.0-0.0-1.0-0.0,,,,,,,,,,1.0,1.0,,,,5bbe9a9570f8df0001c13f11,09:16:47,03/04/2024
,"<div style=""font-size: 10rem; color: #0000FF"">J</div>",,ospan,letter,xfPREhE7m9YUmV1EJEcDL4zlHZM2,html-keyboard-response,177,929337,0.0-46.0-6.0-0.0-1.0-1.0,,,,,,,,,,,,,,,5bbe9a9570f8df0001c13f11,09:16:47,03/04/2024
884.0,,,ospan,symmetry,xfPREhE7m9YUmV1EJEcDL4zlHZM2,symmetry-judgement-task,178,932044,0.0-46.0-6.0-0.0-1.0-2.0,,,,,,,,,,1.0,1.0,,,,5bbe9a9570f8df0001c13f11,09:16:47,03/04/2024
,"<div style=""font-size: 10rem; color: #0000FF"">K</div>",,ospan,letter,xfPREhE7m9YUmV1EJEcDL4zlHZM2,html-keyboard-response,179,933052,0.0-46.0-6.0-0.0-1.0-3.0,,,,,,,,,,,,,,,5bbe9a9570f8df0001c13f11,09:16:47,03/04/2024
1147.0,,,ospan,symmetry,xfPREhE7m9YUmV1EJEcDL4zlHZM2,symmetry-judgement-task,180,936050,0.0-46.0-6.0-0.0-1.0-4.0,,,,,,,,,,1.0,1.0,,,,5bbe9a9570f8df0001c13f11,09:16:47,03/04/2024
,"<div style=""font-size: 10rem; color: #0000FF"">N</div>",,ospan,letter,xfPREhE7m9YUmV1EJEcDL4zlHZM2,html-keyboard-response,181,937058,0.0-46.0-6.0-0.0-1.0-5.0,,,,,,,,,,,,,,,5bbe9a9570f8df0001c13f11,09:16:47,03/04/2024
1200.0,,,ospan,symmetry,xfPREhE7m9YUmV1EJEcDL4zlHZM2,symmetry-judgement-task,182,940091,0.0-46.0-6.0-0.0-1.0-6.0,,,,,,,,,,1.0,1.0,,,,5bbe9a9570f8df0001c13f11,09:16:47,03/04/2024
,"<div style=""font-size: 10rem; color: #0000FF"">Y</div>",,ospan,letter,xfPREhE7m9YUmV1EJEcDL4zlHZM2,html-keyboard-response,183,941097,0.0-46.0-6.0-0.0-1.0-7.0,,,,,,,,,,,,,,,5bbe9a9570f8df0001c13f11,09:16:47,03/04/2024
1082.0,,,ospan,symmetry,xfPREhE7m9YUmV1EJEcDL4zlHZM2,symmetry-judgement-task,184,944013,0.0-46.0-6.0-0.0-1.0-8.0,,,,,,,,,,1.0,1.0,,,,5bbe9a9570f8df0001c13f11,09:16:47,03/04/2024
,"<div style=""font-size: 10rem; color: #0000FF"">S</div>",,ospan,letter,xfPREhE7m9YUmV1EJEcDL4zlHZM2,html-keyboard-response,185,945019,0.0-46.0-6.0-0.0-1.0-9.0,,,,,,,,,,,,,,,5bbe9a9570f8df0001c13f11,09:16:47,03/04/2024
4686.0,"<div class = numbox><p style=""font-size: 2.4rem"">Please recall the letters you saw to the best of your ability. If you do not remember a particular letter, use the SKIP button.<br><b>(When you are ready to lock in your answer, press ENTER)</b></p><button id = button_1 class = ""square num-button"" onclick = ""recordClick(this)""><div class = content><div class = numbers>C</div></div></button><button id = button_2 class = ""square num-button"" onclick = ""recordClick(this)""><div class = content><div class = numbers>G</div></div></button><button id = button_3 class = ""square num-button"" onclick = ""recordClick(this)""><div class = content><div class = numbers>H</div></div></button><button id = button_4 class = ""square num-button"" onclick = ""recordClick(this)""><div class = content><div class = numbers>J</div></div></button><button id = button_5 class = ""square num-button"" onclick = ""recordClick(this)""><div class = content><div class = numbers>K</div></div></button><button id = button_6 class = ""square num-button"" onclick = ""recordClick(this)""><div class = content><div class = numbers>L</div></div></button><button id = button_7 class = ""square num-button"" onclick = ""recordClick(this)""><div class = content><div class = numbers>N</div></div></button><button id = button_8 class = ""square num-button"" onclick = ""recordClick(this)""><div class = content><div class = numbers>P</div></div></button><button id = button_9 class = ""square num-button"" onclick = ""recordClick(this)""><div class = content><div class = numbers>Q</div></div></button><button id = button_10 class = ""square num-button"" onclick = ""recordClick(this)""><div class = content><div class = numbers>R</div></div></button><button id = button_11 class = ""square num-button"" onclick = ""recordClick(this)""><div class = content><div class = numbers>S</div></div></button><button id = button_12 class = ""square num-button"" onclick = ""recordClick(this)""><div class = content><div class = numbers>Y</div></div></button><button class = clear_button id = ""ClearButton"" onclick = ""clearResponse()"">BACKSPACE</button><button class = blank_button id = ""BlankButton"" onclick = ""blankResponse()"">SKIP</button><p style=""font-size: 2.4rem""><u><b>Current Answer:</b></u></p><br><br><div id=echoed_txt style=""font-size: 5rem; color:blue;""><b></b></div></div>",enter,ospan,retrieval,xfPREhE7m9YUmV1EJEcDL4zlHZM2,html-keyboard-response,186,950465,0.0-46.0-6.0-0.0-2.0,33,33,33,5.0,"[""J"",""K"",""N"",""Y"",""S""]","[""J"",""K"",""N"",""Y"",""S""]",1.0,5.0,,,,,,,5bbe9a9570f8df0001c13f11,09:16:47,03/04/2024
838.0,[''],0,ospan,feedback,xfPREhE7m9YUmV1EJEcDL4zlHZM2,html-button-response,187,951811,0.0-46.0-6.0-0.0-3.0,,,,,,,,,,,,100.0,0.0,,5bbe9a9570f8df0001c13f11,09:16:47,03/04/2024
,"<p style=""font-size:75px;"">...</p>",,ospan,iti,xfPREhE7m9YUmV1EJEcDL4zlHZM2,html-keyboard-response,188,952813,0.0-46.0-6.0-1.0-0.0,,,,,,,,,,,,,,,5bbe9a9570f8df0001c13f11,09:16:47,03/04/2024
1895.0,,,ospan,symmetry,xfPREhE7m9YUmV1EJEcDL4zlHZM2,symmetry-judgement-task,189,955783,0.0-46.0-6.0-1.0-1.0-0.0,,,,,,,,,,1.0,1.0,,,,5bbe9a9570f8df0001c13f11,09:16:47,03/04/2024
,"<div style=""font-size: 10rem; color: #0000FF"">S</div>",,ospan,letter,xfPREhE7m9YUmV1EJEcDL4zlHZM2,html-keyboard-response,190,956800,0.0-46.0-6.0-1.0-1.0-1.0,,,,,,,,,,,,,,,5bbe9a9570f8df0001c13f11,09:16:47,03/04/2024
1546.0,,,ospan,symmetry,xfPREhE7m9YUmV1EJEcDL4zlHZM2,symmetry-judgement-task,191,960171,0.0-46.0-6.0-1.0-1.0-2.0,,,,,,,,,,1.0,1.0,,,,5bbe9a9570f8df0001c13f11,09:16:47,03/04/2024
,"<div style=""font-size: 10rem; color: #0000FF"">N</div>",,ospan,letter,xfPREhE7m9YUmV1EJEcDL4zlHZM2,html-keyboard-response,192,961177,0.0-46.0-6.0-1.0-1.0-3.0,,,,,,,,,,,,,,,5bbe9a9570f8df0001c13f11,09:16:47,03/04/2024
973.0,,,ospan,symmetry,xfPREhE7m9YUmV1EJEcDL4zlHZM2,symmetry-judgement-task,193,963997,0.0-46.0-6.0-1.0-1.0-4.0,,,,,,,,,,1.0,1.0,,,,5bbe9a9570f8df0001c13f11,09:16:47,03/04/2024
,"<div style=""font-size: 10rem; color: #0000FF"">Y</div>",,ospan,letter,xfPREhE7m9YUmV1EJEcDL4zlHZM2,html-keyboard-response,194,965005,0.0-46.0-6.0-1.0-1.0-5.0,,,,,,,,,,,,,,,5bbe9a9570f8df0001c13f11,09:16:47,03/04/2024
1196.0,,,ospan,symmetry,xfPREhE7m9YUmV1EJEcDL4zlHZM2,symmetry-judgement-task,195,968089,0.0-46.0-6.0-1.0-1.0-6.0,,,,,,,,,,1.0,1.0,,,,5bbe9a9570f8df0001c13f11,09:16:47,03/04/2024
,"<div style=""font-size: 10rem; color: #0000FF"">C</div>",,ospan,letter,xfPREhE7m9YUmV1EJEcDL4zlHZM2,html-keyboard-response,196,969096,0.0-46.0-6.0-1.0-1.0-7.0,,,,,,,,,,,,,,,5bbe9a9570f8df0001c13f11,09:16:47,03/04/2024
1474.0,,,ospan,symmetry,xfPREhE7m9YUmV1EJEcDL4zlHZM2,symmetry-judgement-task,197,972425,0.0-46.0-6.0-1.0-1.0-8.0,,,,,,,,,,1.0,1.0,,,,5bbe9a9570f8df0001c13f11,09:16:47,03/04/2024
,"<div style=""font-size: 10rem; color: #0000FF"">R</div>",,ospan,letter,xfPREhE7m9YUmV1EJEcDL4zlHZM2,html-keyboard-response,198,973429,0.0-46.0-6.0-1.0-1.0-9.0,,,,,,,,,,,,,,,5bbe9a9570f8df0001c13f11,09:16:47,03/04/2024
1523.0,,,ospan,symmetry,xfPREhE7m9YUmV1EJEcDL4zlHZM2,symmetry-judgement-task,199,976788,0.0-46.0-6.0-1.0-1.0-10.0,,,,,,,,,,1.0,1.0,,,,5bbe9a9570f8df0001c13f11,09:16:47,03/04/2024
,"<div style=""font-size: 10rem; color: #0000FF"">L</div>",,ospan,letter,xfPREhE7m9YUmV1EJEcDL4zlHZM2,html-keyboard-response,200,977804,0.0-46.0-6.0-1.0-1.0-11.0,,,,,,,,,,,,,,,5bbe9a9570f8df0001c13f11,09:16:47,03/04/2024
3481.0,,,ospan,symmetry,xfPREhE7m9YUmV1EJEcDL4zlHZM2,symmetry-judgement-task,201,983134,0.0-46.0-6.0-1.0-1.0-12.0,,,,,,,,,,1.0,1.0,,,,5bbe9a9570f8df0001c13f11,09:16:47,03/04/2024
,"<div style=""font-size: 10rem; color: #0000FF"">K</div>",,ospan,letter,xfPREhE7m9YUmV1EJEcDL4zlHZM2,html-keyboard-response,202,984188,0.0-46.0-6.0-1.0-1.0-13.0,,,,,,,,,,,,,,,5bbe9a9570f8df0001c13f11,09:16:47,03/04/2024
3392.0,,,ospan,symmetry,xfPREhE7m9YUmV1EJEcDL4zlHZM2,symmetry-judgement-task,203,989412,0.0-46.0-6.0-1.0-1.0-14.0,,,,,,,,,,1.0,1.0,,,,5bbe9a9570f8df0001c13f11,09:16:47,03/04/2024
,"<div style=""font-size: 10rem; color: #0000FF"">G</div>",,ospan,letter,xfPREhE7m9YUmV1EJEcDL4zlHZM2,html-keyboard-response,204,990418,0.0-46.0-6.0-1.0-1.0-15.0,,,,,,,,,,,,,,,5bbe9a9570f8df0001c13f11,09:16:47,03/04/2024
13638.0,"<div class = numbox><p style=""font-size: 2.4rem"">Please recall the letters you saw to the best of your ability. If you do not remember a particular letter, use the SKIP button.<br><b>(When you are ready to lock in your answer, press ENTER)</b></p><button id = button_1 class = ""square num-button"" onclick = ""recordClick(this)""><div class = content><div class = numbers>C</div></div></button><button id = button_2 class = ""square num-button"" onclick = ""recordClick(this)""><div class = content><div class = numbers>G</div></div></button><button id = button_3 class = ""square num-button"" onclick = ""recordClick(this)""><div class = content><div class = numbers>H</div></div></button><button id = button_4 class = ""square num-button"" onclick = ""recordClick(this)""><div class = content><div class = numbers>J</div></div></button><button id = button_5 class = ""square num-button"" onclick = ""recordClick(this)""><div class = content><div class = numbers>K</div></div></button><button id = button_6 class = ""square num-button"" onclick = ""recordClick(this)""><div class = content><div class = numbers>L</div></div></button><button id = button_7 class = ""square num-button"" onclick = ""recordClick(this)""><div class = content><div class = numbers>N</div></div></button><button id = button_8 class = ""square num-button"" onclick = ""recordClick(this)""><div class = content><div class = numbers>P</div></div></button><button id = button_9 class = ""square num-button"" onclick = ""recordClick(this)""><div class = content><div class = numbers>Q</div></div></button><button id = button_10 class = ""square num-button"" onclick = ""recordClick(this)""><div class = content><div class = numbers>R</div></div></button><button id = button_11 class = ""square num-button"" onclick = ""recordClick(this)""><div class = content><div class = numbers>S</div></div></button><button id = button_12 class = ""square num-button"" onclick = ""recordClick(this)""><div class = content><div class = numbers>Y</div></div></button><button class = clear_button id = ""ClearButton"" onclick = ""clearResponse()"">BACKSPACE</button><button class = blank_button id = ""BlankButton"" onclick = ""blankResponse()"">SKIP</button><p style=""font-size: 2.4rem""><u><b>Current Answer:</b></u></p><br><br><div id=echoed_txt style=""font-size: 5rem; color:blue;""><b></b></div></div>",enter,ospan,retrieval,xfPREhE7m9YUmV1EJEcDL4zlHZM2,html-keyboard-response,205,1004813,0.0-46.0-6.0-1.0-2.0,41,35,33,8.0,"[""S"",""L"",""Y"",""N"",""C"",""K"",""G""]","[""S"",""N"",""Y"",""C"",""R"",""L"",""K"",""G""]",0.0,2.0,,,,,,,5bbe9a9570f8df0001c13f11,09:16:47,03/04/2024
782.0,[''],0,ospan,feedback,xfPREhE7m9YUmV1EJEcDL4zlHZM2,html-button-response,206,1006107,0.0-46.0-6.0-1.0-3.0,,,,,,,,,,,,100.0,0.0,,5bbe9a9570f8df0001c13f11,09:16:47,03/04/2024
67919.0,,"{'Q0': 'I enjoyed the task, I think the symmetry/assymetry parts were easier than trying to remember all the letters, especially when there was many of them to remember, but I think I did okay. '}",ospan,survey_ospan,xfPREhE7m9YUmV1EJEcDL4zlHZM2,lmdlab-survey-text,207,1074788,0.0-46.0-7.0,,,,,,,,,,,,,,xfPREhE7m9YUmV1EJEcDL4zlHZM2,5bbe9a9570f8df0001c13f11,09:16:47,03/04/2024
1399.0,<p><p style='font-size: 3rem'>Great work!<br><br>This completes the symmetry and memory task.</p><br><br><br>,0,ospan,finish,xfPREhE7m9YUmV1EJEcDL4zlHZM2,html-button-response,208,1076195,0.0-46.0-8.0,41,35,33,,,,,,,,,100.0,,,5bbe9a9570f8df0001c13f11,09:16:47,03/04/2024
