rt,stimulus,response,exp_name,exp_stage,subjectID,trial_type,trial_index,time_elapsed,internal_node_id,ospan_shown,ospan_total,ospan_abs,length,resp_actual,resp_correct,full_correct,num_correct,feedback,accuracy,correct,math_acc,math_warning,databaseID,prolificID,start_time,date
1770.9000000953674,<div class = 'left_align' style='font-size: 3.25rem; line-height: 1.3;'><p class = 'center_align'><b>Welcome to the Symmetry and Memory Task</b><br><br><br><br></p>Press 'continue' to show the instructions.<br><br><br><br></div>,0,ospan,instruct,Cf9LxPXFHic5fVesBoFsqBCmfcD2,html-button-response,54,688698,0.0-46.0-0.0-0.0-0.0,,,,,,,,,,,,,,,5918774ba391f200011b281f,08:54:42,03/04/2024
8782.300000190735,"<div class = 'left_align' style='font-size: 3.25rem; line-height: 1.3;'><p class = 'center_align'><b>Symmetry and Memory Task</b><br><br></p>In this task, you will try to memorize letters you see on the screen<br>while you also view black and white grid pictures.<br><br>In the next few minutes, you will have some practice to get you familiar<br>with how the task works.<br><br>It may be difficult sometimes, but please do not worry about making mistakes!<br><br>We will begin by practicing the letter part of the task.<br><br><br><br></div>",0,ospan,instruct,Cf9LxPXFHic5fVesBoFsqBCmfcD2,html-button-response,55,697750,0.0-46.0-0.0-0.0-1.0,,,,,,,,,,,,,,,5918774ba391f200011b281f,08:54:42,03/04/2024
11425.900000095367,"<div class = 'left_align' style='font-size: 3.25rem; line-height: 1.3;'>For this practice part, letters will appear on the screen one at a time.<br><br>Try to remember each letter in the order presented.<br><br>After some letters have been shown, you will see a response screen. Your<br>goal is to report the letters you saw <b>in order</b>. If you do not remember<br>a particular letter, you will have the option to leave it blank.<br><br><br><br></div>",0,ospan,instruct,Cf9LxPXFHic5fVesBoFsqBCmfcD2,html-button-response,56,709430,0.0-46.0-0.0-0.0-2.0,,,,,,,,,,,,,,,5918774ba391f200011b281f,08:54:42,03/04/2024
2200.300000190735,"<div class = 'left_align' style='font-size: 3.25rem; line-height: 1.3;'>Remember, it is very important to get the letters in the same<br>order as you see them.<br><br>When you are ready, you may begin the letter practice.</div><br><br><br><br>",0,ospan,instruct,Cf9LxPXFHic5fVesBoFsqBCmfcD2,html-button-response,57,711894,0.0-46.0-0.0-0.0-3.0,,,,,,,,,,,,,,,5918774ba391f200011b281f,08:54:42,03/04/2024
,"<p style=""font-size:75px;"">...</p>",,ospan,iti,Cf9LxPXFHic5fVesBoFsqBCmfcD2,html-keyboard-response,58,713168,0.0-46.0-0.0-1.0-0.0,,,,,,,,,,,,,,,5918774ba391f200011b281f,08:54:42,03/04/2024
,"<div style=""font-size: 10rem; color: #0000FF"">H</div>",,ospan,letter,Cf9LxPXFHic5fVesBoFsqBCmfcD2,html-keyboard-response,59,714183,0.0-46.0-0.0-1.0-1.0,,,,,,,,,,,,,,,5918774ba391f200011b281f,08:54:42,03/04/2024
,"<div style=""font-size: 10rem; color: #0000FF"">J</div>",,ospan,letter,Cf9LxPXFHic5fVesBoFsqBCmfcD2,html-keyboard-response,60,715968,0.0-46.0-0.0-1.0-2.0,,,,,,,,,,,,,,,5918774ba391f200011b281f,08:54:42,03/04/2024
17805.099999904633,"<div class = numbox><p style=""font-size: 2.4rem"">Please recall the letters you saw to the best of your ability. If you do not remember a particular letter, use the SKIP button.<br><b>(When you are ready to lock in your answer, press ENTER)</b></p><button id = button_1 class = ""square num-button"" onclick = ""recordClick(this)""><div class = content><div class = numbers>C</div></div></button><button id = button_2 class = ""square num-button"" onclick = ""recordClick(this)""><div class = content><div class = numbers>G</div></div></button><button id = button_3 class = ""square num-button"" onclick = ""recordClick(this)""><div class = content><div class = numbers>H</div></div></button><button id = button_4 class = ""square num-button"" onclick = ""recordClick(this)""><div class = content><div class = numbers>J</div></div></button><button id = button_5 class = ""square num-button"" onclick = ""recordClick(this)""><div class = content><div class = numbers>K</div></div></button><button id = button_6 class = ""square num-button"" onclick = ""recordClick(this)""><div class = content><div class = numbers>L</div></div></button><button id = button_7 class = ""square num-button"" onclick = ""recordClick(this)""><div class = content><div class = numbers>N</div></div></button><button id = button_8 class = ""square num-button"" onclick = ""recordClick(this)""><div class = content><div class = numbers>P</div></div></button><button id = button_9 class = ""square num-button"" onclick = ""recordClick(this)""><div class = content><div class = numbers>Q</div></div></button><button id = button_10 class = ""square num-button"" onclick = ""recordClick(this)""><div class = content><div class = numbers>R</div></div></button><button id = button_11 class = ""square num-button"" onclick = ""recordClick(this)""><div class = content><div class = numbers>S</div></div></button><button id = button_12 class = ""square num-button"" onclick = ""recordClick(this)""><div class = content><div class = numbers>Y</div></div></button><button class = clear_button id = ""ClearButton"" onclick = ""clearResponse()"">BACKSPACE</button><button class = blank_button id = ""BlankButton"" onclick = ""blankResponse()"">SKIP</button><p style=""font-size: 2.4rem""><u><b>Current Answer:</b></u></p><br><br><div id=echoed_txt style=""font-size: 5rem; color:blue;""><b></b></div></div>",enter,ospan,retrieval,Cf9LxPXFHic5fVesBoFsqBCmfcD2,html-keyboard-response,61,734534,0.0-46.0-0.0-1.0-3.0,NA,NA,NA,2.0,"[""H"",""J""]","[""H"",""J""]",1.0,2.0,"['<font color=""green"">H</font>', '<font color=""green"">J</font>']",,,,,,5918774ba391f200011b281f,08:54:42,03/04/2024
2189.0999999046326,"['<p style=""font-size:44px"">Letters:<br><br><br><font color=""green"">H</font> <font color=""green"">J</font></p><br><br>']",0,ospan,practice_feedback,Cf9LxPXFHic5fVesBoFsqBCmfcD2,html-button-response,62,737238,0.0-46.0-0.0-1.0-4.0,,,,,,,,,,,,,,,5918774ba391f200011b281f,08:54:42,03/04/2024
,"<p style=""font-size:75px;"">...</p>",,ospan,iti,Cf9LxPXFHic5fVesBoFsqBCmfcD2,html-keyboard-response,63,738247,0.0-46.0-0.0-2.0-0.0,,,,,,,,,,,,,,,5918774ba391f200011b281f,08:54:42,03/04/2024
,"<div style=""font-size: 10rem; color: #0000FF"">Q</div>",,ospan,letter,Cf9LxPXFHic5fVesBoFsqBCmfcD2,html-keyboard-response,64,739267,0.0-46.0-0.0-2.0-1.0,,,,,,,,,,,,,,,5918774ba391f200011b281f,08:54:42,03/04/2024
,"<div style=""font-size: 10rem; color: #0000FF"">K</div>",,ospan,letter,Cf9LxPXFHic5fVesBoFsqBCmfcD2,html-keyboard-response,65,741028,0.0-46.0-0.0-2.0-2.0,,,,,,,,,,,,,,,5918774ba391f200011b281f,08:54:42,03/04/2024
,"<div style=""font-size: 10rem; color: #0000FF"">S</div>",,ospan,letter,Cf9LxPXFHic5fVesBoFsqBCmfcD2,html-keyboard-response,66,742799,0.0-46.0-0.0-2.0-3.0,,,,,,,,,,,,,,,5918774ba391f200011b281f,08:54:42,03/04/2024
7205.100000143051,"<div class = numbox><p style=""font-size: 2.4rem"">Please recall the letters you saw to the best of your ability. If you do not remember a particular letter, use the SKIP button.<br><b>(When you are ready to lock in your answer, press ENTER)</b></p><button id = button_1 class = ""square num-button"" onclick = ""recordClick(this)""><div class = content><div class = numbers>C</div></div></button><button id = button_2 class = ""square num-button"" onclick = ""recordClick(this)""><div class = content><div class = numbers>G</div></div></button><button id = button_3 class = ""square num-button"" onclick = ""recordClick(this)""><div class = content><div class = numbers>H</div></div></button><button id = button_4 class = ""square num-button"" onclick = ""recordClick(this)""><div class = content><div class = numbers>J</div></div></button><button id = button_5 class = ""square num-button"" onclick = ""recordClick(this)""><div class = content><div class = numbers>K</div></div></button><button id = button_6 class = ""square num-button"" onclick = ""recordClick(this)""><div class = content><div class = numbers>L</div></div></button><button id = button_7 class = ""square num-button"" onclick = ""recordClick(this)""><div class = content><div class = numbers>N</div></div></button><button id = button_8 class = ""square num-button"" onclick = ""recordClick(this)""><div class = content><div class = numbers>P</div></div></button><button id = button_9 class = ""square num-button"" onclick = ""recordClick(this)""><div class = content><div class = numbers>Q</div></div></button><button id = button_10 class = ""square num-button"" onclick = ""recordClick(this)""><div class = content><div class = numbers>R</div></div></button><button id = button_11 class = ""square num-button"" onclick = ""recordClick(this)""><div class = content><div class = numbers>S</div></div></button><button id = button_12 class = ""square num-button"" onclick = ""recordClick(this)""><div class = content><div class = numbers>Y</div></div></button><button class = clear_button id = ""ClearButton"" onclick = ""clearResponse()"">BACKSPACE</button><button class = blank_button id = ""BlankButton"" onclick = ""blankResponse()"">SKIP</button><p style=""font-size: 2.4rem""><u><b>Current Answer:</b></u></p><br><br><div id=echoed_txt style=""font-size: 5rem; color:blue;""><b></b></div></div>",enter,ospan,retrieval,Cf9LxPXFHic5fVesBoFsqBCmfcD2,html-keyboard-response,67,750774,0.0-46.0-0.0-2.0-4.0,NA,NA,NA,3.0,"[""Q"",""K"",""S""]","[""Q"",""K"",""S""]",1.0,3.0,"['<font color=""green"">Q</font>', '<font color=""green"">K</font>', '<font color=""green"">S</font>']",,,,,,5918774ba391f200011b281f,08:54:42,03/04/2024
1952.9000000953674,"['<p style=""font-size:44px"">Letters:<br><br><br><font color=""green"">Q</font> <font color=""green"">K</font> <font color=""green"">S</font></p><br><br>']",0,ospan,practice_feedback,Cf9LxPXFHic5fVesBoFsqBCmfcD2,html-button-response,68,753238,0.0-46.0-0.0-2.0-5.0,,,,,,,,,,,,,,,5918774ba391f200011b281f,08:54:42,03/04/2024
20823.099999904633,"<div class = 'left_align' style='font-size: 3.25rem; line-height: 1.3;'>Now you will practice doing the <b>symmetry judgment part</b> of the experiment.<br><br>A black and white grid picture will appear on the screen and you have to judge if it is <br>symmetrical or asymetrical.<br><br>A picture is 'mirror' symmetrical if its left half is identical to the right half when flipped.<br>Here are examples of a symmetrical and an asymetrical picture:<br><br><center><img src='Stimuli/img/symm_instructions_extra.png' style='height:420px; width:900'></img></center><br>To judge symmetry, imagine you were to fold each picture down the middle, like a book –<br>would the left half match the right half when folded onto each other?<br><br></div><br>",0,ospan,instruct,Cf9LxPXFHic5fVesBoFsqBCmfcD2,html-button-response,69,774062,0.0-46.0-1.0-0.0-0.0,,,,,,,,,,,,,,,5918774ba391f200011b281f,08:54:42,03/04/2024
6024.0,"<div class = 'left_align' style='font-size: 3.25rem; line-height: 1.3;'>When you have viewed the picture and determined whether it is symmetrical or not,<br>you can <b>click the Yes or No button</b> below to answer.<br><br>If you take longer than 15 seconds, it will continue automatically<br>and record the answer as an error.</div><br>",0,ospan,instruct,Cf9LxPXFHic5fVesBoFsqBCmfcD2,html-button-response,70,780342,0.0-46.0-1.0-0.0-1.0,,,,,,,,,,,,,,,5918774ba391f200011b281f,08:54:42,03/04/2024
1247.5,"<div class = 'left_align' style='font-size: 3.25rem; line-height: 1.3;'>It is <b>very</b> important that you make the symmetry judgment correctly.<br><br>It is also important that you try and judge the picture as quickly as you can.<br><br>When you are ready, click on the button below to try some practice problems.</div><br><br><br><br>",0,ospan,instruct,Cf9LxPXFHic5fVesBoFsqBCmfcD2,html-button-response,71,781846,0.0-46.0-1.0-0.0-2.0,,,,,,,,,,,,,,,5918774ba391f200011b281f,08:54:42,03/04/2024
1738.0,,,ospan,symmetry,Cf9LxPXFHic5fVesBoFsqBCmfcD2,symmetry-judgement-task,72,784398,0.0-46.0-1.0-1.0-0.0,,,,,,,,,,1.0,1.0,,,,5918774ba391f200011b281f,08:54:42,03/04/2024
,"<p style=""color:green; font-size: 35px"">Correct</p>",,ospan,feedback,Cf9LxPXFHic5fVesBoFsqBCmfcD2,html-keyboard-response,73,785163,0.0-46.0-1.0-1.0-1.0,,,,,,,,,,,,,,,5918774ba391f200011b281f,08:54:42,03/04/2024
2243.0,,,ospan,symmetry,Cf9LxPXFHic5fVesBoFsqBCmfcD2,symmetry-judgement-task,74,790163,0.0-46.0-1.0-1.0-2.0,,,,,,,,,,1.0,1.0,,,,5918774ba391f200011b281f,08:54:42,03/04/2024
,"<p style=""color:green; font-size: 35px"">Correct</p>",,ospan,feedback,Cf9LxPXFHic5fVesBoFsqBCmfcD2,html-keyboard-response,75,790917,0.0-46.0-1.0-1.0-3.0,,,,,,,,,,,,,,,5918774ba391f200011b281f,08:54:42,03/04/2024
2206.0,,,ospan,symmetry,Cf9LxPXFHic5fVesBoFsqBCmfcD2,symmetry-judgement-task,76,795862,0.0-46.0-1.0-1.0-4.0,,,,,,,,,,1.0,1.0,,,,5918774ba391f200011b281f,08:54:42,03/04/2024
,"<p style=""color:green; font-size: 35px"">Correct</p>",,ospan,feedback,Cf9LxPXFHic5fVesBoFsqBCmfcD2,html-keyboard-response,77,796617,0.0-46.0-1.0-1.0-5.0,,,,,,,,,,,,,,,5918774ba391f200011b281f,08:54:42,03/04/2024
2130.100000143051,"<p style=""font-size: 3rem;"">You responded correctly on 3 of 3 symmetry judgments. Good job!</p><br><br>",0,ospan,practice,Cf9LxPXFHic5fVesBoFsqBCmfcD2,html-button-response,78,800758,0.0-46.0-1.0-2.0,,,,,,,,,,,,,,,5918774ba391f200011b281f,08:54:42,03/04/2024
7478.600000143051,"<div class = 'left_align' style='font-size: 3.25rem; line-height: 1.3;'>Now you will practice doing both parts of the experiment at the same time.<br><br>In the next practice set, you will be given one grid picture to judge.<br>Then letter will appear on the screen. Try to remember the letter.<br><br>It is <b>very important</b> to make the symmetry judgment as quickly and accurately as possible.<br><br>Just as before, once you have make the symmetry judgment, you can click Yes or No.<br><b>Note that you will no longer see Correct or Incorrect feedback.</div><br><br><br><br>",0,ospan,instruct,Cf9LxPXFHic5fVesBoFsqBCmfcD2,html-button-response,79,808496,0.0-46.0-2.0-0.0-0.0,,,,,,,,,,,,,,,5918774ba391f200011b281f,08:54:42,03/04/2024
3065.7000000476837,"<div class = 'left_align' style='font-size: 3.25rem; line-height: 1.3;'>After the letter goes away, another grid picture will appear, and then<br>another letter.<br><br>At the end of each set of letters and grids, you will recall the letters to the best<br>of your ability. Remember, try your best to get the letters in the correct order.<br><br>It is important to <b>quickly</b> and <b>accurately</b> make the symmetry judgments.</div><br><br><br><br>",0,ospan,instruct,Cf9LxPXFHic5fVesBoFsqBCmfcD2,html-button-response,80,811814,0.0-46.0-2.0-0.0-1.0,,,,,,,,,,,,,,,5918774ba391f200011b281f,08:54:42,03/04/2024
9529.200000047684,"<div class = 'left_align' style='font-size: 3.25rem; line-height: 1.3;'>On the feedback screen, if you are not doing well at the symmetry judgments,<br>you will also see a warning in the middle. This indicates your percent <br>correct for the grid pictures for the entire experiment.<br><br>It is <b>very</b> important for you to keep accuracy at least at 85%: <u>We can only use<br>data where the participant was at least 85% accurate on the judgments.</u> Therefore,<br> please try your best to perform well on the symmetry judgments, <b>at the same time</b><br>doing your best to recall as many letters as possible.<br><br>Click the button to try some practice problems.</div><br><br><br><br>",0,ospan,instruct,Cf9LxPXFHic5fVesBoFsqBCmfcD2,html-button-response,81,821598,0.0-46.0-2.0-0.0-2.0,,,,,,,,,,,,,,,5918774ba391f200011b281f,08:54:42,03/04/2024
,"<p style=""font-size:75px;"">...</p>",,ospan,iti,Cf9LxPXFHic5fVesBoFsqBCmfcD2,html-keyboard-response,82,822874,0.0-46.0-2.0-1.0-0.0,,,,,,,,,,,,,,,5918774ba391f200011b281f,08:54:42,03/04/2024
2537.0,,,ospan,symmetry,Cf9LxPXFHic5fVesBoFsqBCmfcD2,symmetry-judgement-task,83,826481,0.0-46.0-2.0-1.0-1.0-0.0,,,,,,,,,,1.0,1.0,,,,5918774ba391f200011b281f,08:54:42,03/04/2024
,"<div style=""font-size: 10rem; color: #0000FF"">G</div>",,ospan,letter,Cf9LxPXFHic5fVesBoFsqBCmfcD2,html-keyboard-response,84,827498,0.0-46.0-2.0-1.0-1.0-1.0,,,,,,,,,,,,,,,5918774ba391f200011b281f,08:54:42,03/04/2024
2729.0,,,ospan,symmetry,Cf9LxPXFHic5fVesBoFsqBCmfcD2,symmetry-judgement-task,85,832247,0.0-46.0-2.0-1.0-1.0-2.0,,,,,,,,,,1.0,1.0,,,,5918774ba391f200011b281f,08:54:42,03/04/2024
,"<div style=""font-size: 10rem; color: #0000FF"">K</div>",,ospan,letter,Cf9LxPXFHic5fVesBoFsqBCmfcD2,html-keyboard-response,86,833267,0.0-46.0-2.0-1.0-1.0-3.0,,,,,,,,,,,,,,,5918774ba391f200011b281f,08:54:42,03/04/2024
2257.0,,,ospan,symmetry,Cf9LxPXFHic5fVesBoFsqBCmfcD2,symmetry-judgement-task,87,837527,0.0-46.0-2.0-1.0-1.0-4.0,,,,,,,,,,1.0,1.0,,,,5918774ba391f200011b281f,08:54:42,03/04/2024
,"<div style=""font-size: 10rem; color: #0000FF"">Q</div>",,ospan,letter,Cf9LxPXFHic5fVesBoFsqBCmfcD2,html-keyboard-response,88,838547,0.0-46.0-2.0-1.0-1.0-5.0,,,,,,,,,,,,,,,5918774ba391f200011b281f,08:54:42,03/04/2024
7093.0,"<div class = numbox><p style=""font-size: 2.4rem"">Please recall the letters you saw to the best of your ability. If you do not remember a particular letter, use the SKIP button.<br><b>(When you are ready to lock in your answer, press ENTER)</b></p><button id = button_1 class = ""square num-button"" onclick = ""recordClick(this)""><div class = content><div class = numbers>C</div></div></button><button id = button_2 class = ""square num-button"" onclick = ""recordClick(this)""><div class = content><div class = numbers>G</div></div></button><button id = button_3 class = ""square num-button"" onclick = ""recordClick(this)""><div class = content><div class = numbers>H</div></div></button><button id = button_4 class = ""square num-button"" onclick = ""recordClick(this)""><div class = content><div class = numbers>J</div></div></button><button id = button_5 class = ""square num-button"" onclick = ""recordClick(this)""><div class = content><div class = numbers>K</div></div></button><button id = button_6 class = ""square num-button"" onclick = ""recordClick(this)""><div class = content><div class = numbers>L</div></div></button><button id = button_7 class = ""square num-button"" onclick = ""recordClick(this)""><div class = content><div class = numbers>N</div></div></button><button id = button_8 class = ""square num-button"" onclick = ""recordClick(this)""><div class = content><div class = numbers>P</div></div></button><button id = button_9 class = ""square num-button"" onclick = ""recordClick(this)""><div class = content><div class = numbers>Q</div></div></button><button id = button_10 class = ""square num-button"" onclick = ""recordClick(this)""><div class = content><div class = numbers>R</div></div></button><button id = button_11 class = ""square num-button"" onclick = ""recordClick(this)""><div class = content><div class = numbers>S</div></div></button><button id = button_12 class = ""square num-button"" onclick = ""recordClick(this)""><div class = content><div class = numbers>Y</div></div></button><button class = clear_button id = ""ClearButton"" onclick = ""clearResponse()"">BACKSPACE</button><button class = blank_button id = ""BlankButton"" onclick = ""blankResponse()"">SKIP</button><p style=""font-size: 2.4rem""><u><b>Current Answer:</b></u></p><br><br><div id=echoed_txt style=""font-size: 5rem; color:blue;""><b></b></div></div>",enter,ospan,retrieval,Cf9LxPXFHic5fVesBoFsqBCmfcD2,html-keyboard-response,89,846399,0.0-46.0-2.0-1.0-2.0-0.0,NA,NA,NA,3.0,"[""G"",""K"",""Q""]","[""G"",""K"",""Q""]",1.0,3.0,"['<font color=""green"">G</font>', '<font color=""green"">K</font>', '<font color=""green"">Q</font>']",,,,,,5918774ba391f200011b281f,08:54:42,03/04/2024
2524.0999999046326,"['<p style=""font-size:44px"">Letters:<br><br><br><font color=""green"">G</font> <font color=""green"">K</font> <font color=""green"">Q</font></p><br><br><p style=""font-size:30px"">Symmetry:<br><br><font color=""green"">100%</font></p><br><br>']",0,ospan,practice_feedback,Cf9LxPXFHic5fVesBoFsqBCmfcD2,html-button-response,90,849430,0.0-46.0-2.0-1.0-2.0-1.0,,,,,,,,,,,,,,,5918774ba391f200011b281f,08:54:42,03/04/2024
,"<p style=""font-size:75px;"">...</p>",,ospan,iti,Cf9LxPXFHic5fVesBoFsqBCmfcD2,html-keyboard-response,91,850437,0.0-46.0-2.0-2.0-0.0,,,,,,,,,,,,,,,5918774ba391f200011b281f,08:54:42,03/04/2024
1940.0,,,ospan,symmetry,Cf9LxPXFHic5fVesBoFsqBCmfcD2,symmetry-judgement-task,92,853625,0.0-46.0-2.0-2.0-1.0-0.0,,,,,,,,,,1.0,1.0,,,,5918774ba391f200011b281f,08:54:42,03/04/2024
,"<div style=""font-size: 10rem; color: #0000FF"">K</div>",,ospan,letter,Cf9LxPXFHic5fVesBoFsqBCmfcD2,html-keyboard-response,93,854627,0.0-46.0-2.0-2.0-1.0-1.0,,,,,,,,,,,,,,,5918774ba391f200011b281f,08:54:42,03/04/2024
2149.0,,,ospan,symmetry,Cf9LxPXFHic5fVesBoFsqBCmfcD2,symmetry-judgement-task,94,858767,0.0-46.0-2.0-2.0-1.0-2.0,,,,,,,,,,1.0,1.0,,,,5918774ba391f200011b281f,08:54:42,03/04/2024
,"<div style=""font-size: 10rem; color: #0000FF"">R</div>",,ospan,letter,Cf9LxPXFHic5fVesBoFsqBCmfcD2,html-keyboard-response,95,859782,0.0-46.0-2.0-2.0-1.0-3.0,,,,,,,,,,,,,,,5918774ba391f200011b281f,08:54:42,03/04/2024
3532.0,,,ospan,symmetry,Cf9LxPXFHic5fVesBoFsqBCmfcD2,symmetry-judgement-task,96,865290,0.0-46.0-2.0-2.0-1.0-4.0,,,,,,,,,,1.0,1.0,,,,5918774ba391f200011b281f,08:54:42,03/04/2024
,"<div style=""font-size: 10rem; color: #0000FF"">C</div>",,ospan,letter,Cf9LxPXFHic5fVesBoFsqBCmfcD2,html-keyboard-response,97,866298,0.0-46.0-2.0-2.0-1.0-5.0,,,,,,,,,,,,,,,5918774ba391f200011b281f,08:54:42,03/04/2024
6493.900000095367,"<div class = numbox><p style=""font-size: 2.4rem"">Please recall the letters you saw to the best of your ability. If you do not remember a particular letter, use the SKIP button.<br><b>(When you are ready to lock in your answer, press ENTER)</b></p><button id = button_1 class = ""square num-button"" onclick = ""recordClick(this)""><div class = content><div class = numbers>C</div></div></button><button id = button_2 class = ""square num-button"" onclick = ""recordClick(this)""><div class = content><div class = numbers>G</div></div></button><button id = button_3 class = ""square num-button"" onclick = ""recordClick(this)""><div class = content><div class = numbers>H</div></div></button><button id = button_4 class = ""square num-button"" onclick = ""recordClick(this)""><div class = content><div class = numbers>J</div></div></button><button id = button_5 class = ""square num-button"" onclick = ""recordClick(this)""><div class = content><div class = numbers>K</div></div></button><button id = button_6 class = ""square num-button"" onclick = ""recordClick(this)""><div class = content><div class = numbers>L</div></div></button><button id = button_7 class = ""square num-button"" onclick = ""recordClick(this)""><div class = content><div class = numbers>N</div></div></button><button id = button_8 class = ""square num-button"" onclick = ""recordClick(this)""><div class = content><div class = numbers>P</div></div></button><button id = button_9 class = ""square num-button"" onclick = ""recordClick(this)""><div class = content><div class = numbers>Q</div></div></button><button id = button_10 class = ""square num-button"" onclick = ""recordClick(this)""><div class = content><div class = numbers>R</div></div></button><button id = button_11 class = ""square num-button"" onclick = ""recordClick(this)""><div class = content><div class = numbers>S</div></div></button><button id = button_12 class = ""square num-button"" onclick = ""recordClick(this)""><div class = content><div class = numbers>Y</div></div></button><button class = clear_button id = ""ClearButton"" onclick = ""clearResponse()"">BACKSPACE</button><button class = blank_button id = ""BlankButton"" onclick = ""blankResponse()"">SKIP</button><p style=""font-size: 2.4rem""><u><b>Current Answer:</b></u></p><br><br><div id=echoed_txt style=""font-size: 5rem; color:blue;""><b></b></div></div>",enter,ospan,retrieval,Cf9LxPXFHic5fVesBoFsqBCmfcD2,html-keyboard-response,98,873558,0.0-46.0-2.0-2.0-2.0-0.0,NA,NA,NA,3.0,"[""K"",""R"",""C""]","[""K"",""R"",""C""]",1.0,3.0,"['<font color=""green"">K</font>', '<font color=""green"">R</font>', '<font color=""green"">C</font>']",,,,,,5918774ba391f200011b281f,08:54:42,03/04/2024
2935.2000000476837,"['<p style=""font-size:44px"">Letters:<br><br><br><font color=""green"">K</font> <font color=""green"">R</font> <font color=""green"">C</font></p><br><br><p style=""font-size:30px"">Symmetry:<br><br><font color=""green"">100%</font></p><br><br>']",0,ospan,practice_feedback,Cf9LxPXFHic5fVesBoFsqBCmfcD2,html-button-response,99,877006,0.0-46.0-2.0-2.0-2.0-1.0,,,,,,,,,,,,,,,5918774ba391f200011b281f,08:54:42,03/04/2024
5246.899999856949,"<div class = 'left_align' style='font-size: 3rem; line-height: 1.3;'><b>Great work! That is the end of practice.</b><br><br>The real trials will look just like the practice trials you just completed.<br><br><u>Here, you will not see feedback</u>. First, you will see an grid picture to judge,<br>then a letter to remember. When the recall screen appears, report the letters in the<br>order presented. If you forget a letter, remember to use the <b>blank</b> button to move to the<br>next letter. Some of the sets will have more symmetry grids and letters than others.<br><br>It is important that you do your best on both the symmetry judgments and the letter recall<br>parts of the experiment. For for the symmetry judgments, try to work as <b>quickly</b> and <br>as <b>accurately</b> as possible. Remember to keep your symmetry accuracy at 85% or above.<br><br><b>For the letters, do NOT use any external aid (e.g., writing on paper, electronic device).</b><br><br>It is <u>very important</u> to our experiment to have a <b>true</b> view of your real performance.<br><br>Do not worry if you miss some when it gets hard! This task is meant to be very challenging!<br><br>Click the button to begin.</div><br><br><br><br>",0,ospan,starting_real_here,Cf9LxPXFHic5fVesBoFsqBCmfcD2,html-button-response,100,882254,0.0-46.0-2.0-3.0,,,,,,,,,,,,,,,5918774ba391f200011b281f,08:54:42,03/04/2024
,"<p style=""font-size:75px;"">...</p>",,ospan,iti,Cf9LxPXFHic5fVesBoFsqBCmfcD2,html-keyboard-response,101,883527,0.0-46.0-3.0-0.0-0.0,,,,,,,,,,,,,,,5918774ba391f200011b281f,08:54:42,03/04/2024
2330.0,,,ospan,symmetry,Cf9LxPXFHic5fVesBoFsqBCmfcD2,symmetry-judgement-task,102,887092,0.0-46.0-3.0-0.0-1.0-0.0,,,,,,,,,,1.0,1.0,,,,5918774ba391f200011b281f,08:54:42,03/04/2024
,"<div style=""font-size: 10rem; color: #0000FF"">C</div>",,ospan,letter,Cf9LxPXFHic5fVesBoFsqBCmfcD2,html-keyboard-response,103,888108,0.0-46.0-3.0-0.0-1.0-1.0,,,,,,,,,,,,,,,5918774ba391f200011b281f,08:54:42,03/04/2024
2083.0,,,ospan,symmetry,Cf9LxPXFHic5fVesBoFsqBCmfcD2,symmetry-judgement-task,104,892188,0.0-46.0-3.0-0.0-1.0-2.0,,,,,,,,,,0.0,0.0,,,,5918774ba391f200011b281f,08:54:42,03/04/2024
,"<div style=""font-size: 10rem; color: #0000FF"">H</div>",,ospan,letter,Cf9LxPXFHic5fVesBoFsqBCmfcD2,html-keyboard-response,105,893204,0.0-46.0-3.0-0.0-1.0-3.0,,,,,,,,,,,,,,,5918774ba391f200011b281f,08:54:42,03/04/2024
2172.0,,,ospan,symmetry,Cf9LxPXFHic5fVesBoFsqBCmfcD2,symmetry-judgement-task,106,897372,0.0-46.0-3.0-0.0-1.0-4.0,,,,,,,,,,1.0,1.0,,,,5918774ba391f200011b281f,08:54:42,03/04/2024
,"<div style=""font-size: 10rem; color: #0000FF"">S</div>",,ospan,letter,Cf9LxPXFHic5fVesBoFsqBCmfcD2,html-keyboard-response,107,898377,0.0-46.0-3.0-0.0-1.0-5.0,,,,,,,,,,,,,,,5918774ba391f200011b281f,08:54:42,03/04/2024
4627.600000143051,"<div class = numbox><p style=""font-size: 2.4rem"">Please recall the letters you saw to the best of your ability. If you do not remember a particular letter, use the SKIP button.<br><b>(When you are ready to lock in your answer, press ENTER)</b></p><button id = button_1 class = ""square num-button"" onclick = ""recordClick(this)""><div class = content><div class = numbers>C</div></div></button><button id = button_2 class = ""square num-button"" onclick = ""recordClick(this)""><div class = content><div class = numbers>G</div></div></button><button id = button_3 class = ""square num-button"" onclick = ""recordClick(this)""><div class = content><div class = numbers>H</div></div></button><button id = button_4 class = ""square num-button"" onclick = ""recordClick(this)""><div class = content><div class = numbers>J</div></div></button><button id = button_5 class = ""square num-button"" onclick = ""recordClick(this)""><div class = content><div class = numbers>K</div></div></button><button id = button_6 class = ""square num-button"" onclick = ""recordClick(this)""><div class = content><div class = numbers>L</div></div></button><button id = button_7 class = ""square num-button"" onclick = ""recordClick(this)""><div class = content><div class = numbers>N</div></div></button><button id = button_8 class = ""square num-button"" onclick = ""recordClick(this)""><div class = content><div class = numbers>P</div></div></button><button id = button_9 class = ""square num-button"" onclick = ""recordClick(this)""><div class = content><div class = numbers>Q</div></div></button><button id = button_10 class = ""square num-button"" onclick = ""recordClick(this)""><div class = content><div class = numbers>R</div></div></button><button id = button_11 class = ""square num-button"" onclick = ""recordClick(this)""><div class = content><div class = numbers>S</div></div></button><button id = button_12 class = ""square num-button"" onclick = ""recordClick(this)""><div class = content><div class = numbers>Y</div></div></button><button class = clear_button id = ""ClearButton"" onclick = ""clearResponse()"">BACKSPACE</button><button class = blank_button id = ""BlankButton"" onclick = ""blankResponse()"">SKIP</button><p style=""font-size: 2.4rem""><u><b>Current Answer:</b></u></p><br><br><div id=echoed_txt style=""font-size: 5rem; color:blue;""><b></b></div></div>",enter,ospan,retrieval,Cf9LxPXFHic5fVesBoFsqBCmfcD2,html-keyboard-response,108,903766,0.0-46.0-3.0-0.0-2.0,3,3,3,3.0,"[""C"",""H"",""S""]","[""C"",""H"",""S""]",1.0,3.0,,,,,,,5918774ba391f200011b281f,08:54:42,03/04/2024
2484.9000000953674,"['<p style=""font-size: 3.75rem"">Low symmetry accuracy!<br><br><br><font color=""red"">67%</font><br><br></p>']",0,ospan,feedback,Cf9LxPXFHic5fVesBoFsqBCmfcD2,html-button-response,109,906766,0.0-46.0-3.0-0.0-3.0,,,,,,,,,,,,67.0,1.0,,5918774ba391f200011b281f,08:54:42,03/04/2024
,"<p style=""font-size:75px;"">...</p>",,ospan,iti,Cf9LxPXFHic5fVesBoFsqBCmfcD2,html-keyboard-response,110,907777,0.0-46.0-4.0-0.0-0.0,,,,,,,,,,,,,,,5918774ba391f200011b281f,08:54:42,03/04/2024
2875.0,,,ospan,symmetry,Cf9LxPXFHic5fVesBoFsqBCmfcD2,symmetry-judgement-task,111,911757,0.0-46.0-4.0-0.0-1.0-0.0,,,,,,,,,,1.0,1.0,,,,5918774ba391f200011b281f,08:54:42,03/04/2024
,"<div style=""font-size: 10rem; color: #0000FF"">S</div>",,ospan,letter,Cf9LxPXFHic5fVesBoFsqBCmfcD2,html-keyboard-response,112,912777,0.0-46.0-4.0-0.0-1.0-1.0,,,,,,,,,,,,,,,5918774ba391f200011b281f,08:54:42,03/04/2024
2063.0,,,ospan,symmetry,Cf9LxPXFHic5fVesBoFsqBCmfcD2,symmetry-judgement-task,113,916807,0.0-46.0-4.0-0.0-1.0-2.0,,,,,,,,,,1.0,1.0,,,,5918774ba391f200011b281f,08:54:42,03/04/2024
,"<div style=""font-size: 10rem; color: #0000FF"">P</div>",,ospan,letter,Cf9LxPXFHic5fVesBoFsqBCmfcD2,html-keyboard-response,114,917827,0.0-46.0-4.0-0.0-1.0-3.0,,,,,,,,,,,,,,,5918774ba391f200011b281f,08:54:42,03/04/2024
1935.0,,,ospan,symmetry,Cf9LxPXFHic5fVesBoFsqBCmfcD2,symmetry-judgement-task,115,921807,0.0-46.0-4.0-0.0-1.0-4.0,,,,,,,,,,1.0,1.0,,,,5918774ba391f200011b281f,08:54:42,03/04/2024
,"<div style=""font-size: 10rem; color: #0000FF"">L</div>",,ospan,letter,Cf9LxPXFHic5fVesBoFsqBCmfcD2,html-keyboard-response,116,922827,0.0-46.0-4.0-0.0-1.0-5.0,,,,,,,,,,,,,,,5918774ba391f200011b281f,08:54:42,03/04/2024
1588.0,,,ospan,symmetry,Cf9LxPXFHic5fVesBoFsqBCmfcD2,symmetry-judgement-task,117,926408,0.0-46.0-4.0-0.0-1.0-6.0,,,,,,,,,,1.0,1.0,,,,5918774ba391f200011b281f,08:54:42,03/04/2024
,"<div style=""font-size: 10rem; color: #0000FF"">Q</div>",,ospan,letter,Cf9LxPXFHic5fVesBoFsqBCmfcD2,html-keyboard-response,118,927427,0.0-46.0-4.0-0.0-1.0-7.0,,,,,,,,,,,,,,,5918774ba391f200011b281f,08:54:42,03/04/2024
7308.199999809265,"<div class = numbox><p style=""font-size: 2.4rem"">Please recall the letters you saw to the best of your ability. If you do not remember a particular letter, use the SKIP button.<br><b>(When you are ready to lock in your answer, press ENTER)</b></p><button id = button_1 class = ""square num-button"" onclick = ""recordClick(this)""><div class = content><div class = numbers>C</div></div></button><button id = button_2 class = ""square num-button"" onclick = ""recordClick(this)""><div class = content><div class = numbers>G</div></div></button><button id = button_3 class = ""square num-button"" onclick = ""recordClick(this)""><div class = content><div class = numbers>H</div></div></button><button id = button_4 class = ""square num-button"" onclick = ""recordClick(this)""><div class = content><div class = numbers>J</div></div></button><button id = button_5 class = ""square num-button"" onclick = ""recordClick(this)""><div class = content><div class = numbers>K</div></div></button><button id = button_6 class = ""square num-button"" onclick = ""recordClick(this)""><div class = content><div class = numbers>L</div></div></button><button id = button_7 class = ""square num-button"" onclick = ""recordClick(this)""><div class = content><div class = numbers>N</div></div></button><button id = button_8 class = ""square num-button"" onclick = ""recordClick(this)""><div class = content><div class = numbers>P</div></div></button><button id = button_9 class = ""square num-button"" onclick = ""recordClick(this)""><div class = content><div class = numbers>Q</div></div></button><button id = button_10 class = ""square num-button"" onclick = ""recordClick(this)""><div class = content><div class = numbers>R</div></div></button><button id = button_11 class = ""square num-button"" onclick = ""recordClick(this)""><div class = content><div class = numbers>S</div></div></button><button id = button_12 class = ""square num-button"" onclick = ""recordClick(this)""><div class = content><div class = numbers>Y</div></div></button><button class = clear_button id = ""ClearButton"" onclick = ""clearResponse()"">BACKSPACE</button><button class = blank_button id = ""BlankButton"" onclick = ""blankResponse()"">SKIP</button><p style=""font-size: 2.4rem""><u><b>Current Answer:</b></u></p><br><br><div id=echoed_txt style=""font-size: 5rem; color:blue;""><b></b></div></div>",enter,ospan,retrieval,Cf9LxPXFHic5fVesBoFsqBCmfcD2,html-keyboard-response,119,935502,0.0-46.0-4.0-0.0-2.0,7,7,7,4.0,"[""S"",""P"",""L"",""Q""]","[""S"",""P"",""L"",""Q""]",1.0,4.0,,,,,,,5918774ba391f200011b281f,08:54:42,03/04/2024
1787.2999999523163,[''],0,ospan,feedback,Cf9LxPXFHic5fVesBoFsqBCmfcD2,html-button-response,120,937798,0.0-46.0-4.0-0.0-3.0,,,,,,,,,,,,86.0,0.0,,5918774ba391f200011b281f,08:54:42,03/04/2024
,"<p style=""font-size:75px;"">...</p>",,ospan,iti,Cf9LxPXFHic5fVesBoFsqBCmfcD2,html-keyboard-response,121,938809,0.0-46.0-4.0-1.0-0.0,,,,,,,,,,,,,,,5918774ba391f200011b281f,08:54:42,03/04/2024
1975.0,,,ospan,symmetry,Cf9LxPXFHic5fVesBoFsqBCmfcD2,symmetry-judgement-task,122,941877,0.0-46.0-4.0-1.0-1.0-0.0,,,,,,,,,,1.0,1.0,,,,5918774ba391f200011b281f,08:54:42,03/04/2024
,"<div style=""font-size: 10rem; color: #0000FF"">J</div>",,ospan,letter,Cf9LxPXFHic5fVesBoFsqBCmfcD2,html-keyboard-response,123,942892,0.0-46.0-4.0-1.0-1.0-1.0,,,,,,,,,,,,,,,5918774ba391f200011b281f,08:54:42,03/04/2024
2446.0,,,ospan,symmetry,Cf9LxPXFHic5fVesBoFsqBCmfcD2,symmetry-judgement-task,124,947357,0.0-46.0-4.0-1.0-1.0-2.0,,,,,,,,,,1.0,1.0,,,,5918774ba391f200011b281f,08:54:42,03/04/2024
,"<div style=""font-size: 10rem; color: #0000FF"">S</div>",,ospan,letter,Cf9LxPXFHic5fVesBoFsqBCmfcD2,html-keyboard-response,125,948378,0.0-46.0-4.0-1.0-1.0-3.0,,,,,,,,,,,,,,,5918774ba391f200011b281f,08:54:42,03/04/2024
1828.0,,,ospan,symmetry,Cf9LxPXFHic5fVesBoFsqBCmfcD2,symmetry-judgement-task,126,952184,0.0-46.0-4.0-1.0-1.0-4.0,,,,,,,,,,1.0,1.0,,,,5918774ba391f200011b281f,08:54:42,03/04/2024
,"<div style=""font-size: 10rem; color: #0000FF"">H</div>",,ospan,letter,Cf9LxPXFHic5fVesBoFsqBCmfcD2,html-keyboard-response,127,953193,0.0-46.0-4.0-1.0-1.0-5.0,,,,,,,,,,,,,,,5918774ba391f200011b281f,08:54:42,03/04/2024
2213.0,,,ospan,symmetry,Cf9LxPXFHic5fVesBoFsqBCmfcD2,symmetry-judgement-task,128,957427,0.0-46.0-4.0-1.0-1.0-6.0,,,,,,,,,,1.0,1.0,,,,5918774ba391f200011b281f,08:54:42,03/04/2024
,"<div style=""font-size: 10rem; color: #0000FF"">P</div>",,ospan,letter,Cf9LxPXFHic5fVesBoFsqBCmfcD2,html-keyboard-response,129,958437,0.0-46.0-4.0-1.0-1.0-7.0,,,,,,,,,,,,,,,5918774ba391f200011b281f,08:54:42,03/04/2024
2959.0,,,ospan,symmetry,Cf9LxPXFHic5fVesBoFsqBCmfcD2,symmetry-judgement-task,130,963377,0.0-46.0-4.0-1.0-1.0-8.0,,,,,,,,,,1.0,1.0,,,,5918774ba391f200011b281f,08:54:42,03/04/2024
,"<div style=""font-size: 10rem; color: #0000FF"">L</div>",,ospan,letter,Cf9LxPXFHic5fVesBoFsqBCmfcD2,html-keyboard-response,131,964392,0.0-46.0-4.0-1.0-1.0-9.0,,,,,,,,,,,,,,,5918774ba391f200011b281f,08:54:42,03/04/2024
6628.400000095367,"<div class = numbox><p style=""font-size: 2.4rem"">Please recall the letters you saw to the best of your ability. If you do not remember a particular letter, use the SKIP button.<br><b>(When you are ready to lock in your answer, press ENTER)</b></p><button id = button_1 class = ""square num-button"" onclick = ""recordClick(this)""><div class = content><div class = numbers>C</div></div></button><button id = button_2 class = ""square num-button"" onclick = ""recordClick(this)""><div class = content><div class = numbers>G</div></div></button><button id = button_3 class = ""square num-button"" onclick = ""recordClick(this)""><div class = content><div class = numbers>H</div></div></button><button id = button_4 class = ""square num-button"" onclick = ""recordClick(this)""><div class = content><div class = numbers>J</div></div></button><button id = button_5 class = ""square num-button"" onclick = ""recordClick(this)""><div class = content><div class = numbers>K</div></div></button><button id = button_6 class = ""square num-button"" onclick = ""recordClick(this)""><div class = content><div class = numbers>L</div></div></button><button id = button_7 class = ""square num-button"" onclick = ""recordClick(this)""><div class = content><div class = numbers>N</div></div></button><button id = button_8 class = ""square num-button"" onclick = ""recordClick(this)""><div class = content><div class = numbers>P</div></div></button><button id = button_9 class = ""square num-button"" onclick = ""recordClick(this)""><div class = content><div class = numbers>Q</div></div></button><button id = button_10 class = ""square num-button"" onclick = ""recordClick(this)""><div class = content><div class = numbers>R</div></div></button><button id = button_11 class = ""square num-button"" onclick = ""recordClick(this)""><div class = content><div class = numbers>S</div></div></button><button id = button_12 class = ""square num-button"" onclick = ""recordClick(this)""><div class = content><div class = numbers>Y</div></div></button><button class = clear_button id = ""ClearButton"" onclick = ""clearResponse()"">BACKSPACE</button><button class = blank_button id = ""BlankButton"" onclick = ""blankResponse()"">SKIP</button><p style=""font-size: 2.4rem""><u><b>Current Answer:</b></u></p><br><br><div id=echoed_txt style=""font-size: 5rem; color:blue;""><b></b></div></div>",enter,ospan,retrieval,Cf9LxPXFHic5fVesBoFsqBCmfcD2,html-keyboard-response,132,971782,0.0-46.0-4.0-1.0-2.0,12,12,12,5.0,"[""J"",""S"",""H"",""P"",""L""]","[""J"",""S"",""H"",""P"",""L""]",1.0,5.0,,,,,,,5918774ba391f200011b281f,08:54:42,03/04/2024
872.0,[''],0,ospan,feedback,Cf9LxPXFHic5fVesBoFsqBCmfcD2,html-button-response,133,973166,0.0-46.0-4.0-1.0-3.0,,,,,,,,,,,,92.0,0.0,,5918774ba391f200011b281f,08:54:42,03/04/2024
,"<p style=""font-size:75px;"">...</p>",,ospan,iti,Cf9LxPXFHic5fVesBoFsqBCmfcD2,html-keyboard-response,134,974173,0.0-46.0-4.0-2.0-0.0,,,,,,,,,,,,,,,5918774ba391f200011b281f,08:54:42,03/04/2024
1673.0,,,ospan,symmetry,Cf9LxPXFHic5fVesBoFsqBCmfcD2,symmetry-judgement-task,135,977057,0.0-46.0-4.0-2.0-1.0-0.0,,,,,,,,,,1.0,1.0,,,,5918774ba391f200011b281f,08:54:42,03/04/2024
,"<div style=""font-size: 10rem; color: #0000FF"">C</div>",,ospan,letter,Cf9LxPXFHic5fVesBoFsqBCmfcD2,html-keyboard-response,136,978077,0.0-46.0-4.0-2.0-1.0-1.0,,,,,,,,,,,,,,,5918774ba391f200011b281f,08:54:42,03/04/2024
2823.0,,,ospan,symmetry,Cf9LxPXFHic5fVesBoFsqBCmfcD2,symmetry-judgement-task,137,982908,0.0-46.0-4.0-2.0-1.0-2.0,,,,,,,,,,1.0,1.0,,,,5918774ba391f200011b281f,08:54:42,03/04/2024
,"<div style=""font-size: 10rem; color: #0000FF"">L</div>",,ospan,letter,Cf9LxPXFHic5fVesBoFsqBCmfcD2,html-keyboard-response,138,983918,0.0-46.0-4.0-2.0-1.0-3.0,,,,,,,,,,,,,,,5918774ba391f200011b281f,08:54:42,03/04/2024
1715.0,,,ospan,symmetry,Cf9LxPXFHic5fVesBoFsqBCmfcD2,symmetry-judgement-task,139,987657,0.0-46.0-4.0-2.0-1.0-4.0,,,,,,,,,,1.0,1.0,,,,5918774ba391f200011b281f,08:54:42,03/04/2024
,"<div style=""font-size: 10rem; color: #0000FF"">P</div>",,ospan,letter,Cf9LxPXFHic5fVesBoFsqBCmfcD2,html-keyboard-response,140,988668,0.0-46.0-4.0-2.0-1.0-5.0,,,,,,,,,,,,,,,5918774ba391f200011b281f,08:54:42,03/04/2024
6601.899999856949,"<div class = numbox><p style=""font-size: 2.4rem"">Please recall the letters you saw to the best of your ability. If you do not remember a particular letter, use the SKIP button.<br><b>(When you are ready to lock in your answer, press ENTER)</b></p><button id = button_1 class = ""square num-button"" onclick = ""recordClick(this)""><div class = content><div class = numbers>C</div></div></button><button id = button_2 class = ""square num-button"" onclick = ""recordClick(this)""><div class = content><div class = numbers>G</div></div></button><button id = button_3 class = ""square num-button"" onclick = ""recordClick(this)""><div class = content><div class = numbers>H</div></div></button><button id = button_4 class = ""square num-button"" onclick = ""recordClick(this)""><div class = content><div class = numbers>J</div></div></button><button id = button_5 class = ""square num-button"" onclick = ""recordClick(this)""><div class = content><div class = numbers>K</div></div></button><button id = button_6 class = ""square num-button"" onclick = ""recordClick(this)""><div class = content><div class = numbers>L</div></div></button><button id = button_7 class = ""square num-button"" onclick = ""recordClick(this)""><div class = content><div class = numbers>N</div></div></button><button id = button_8 class = ""square num-button"" onclick = ""recordClick(this)""><div class = content><div class = numbers>P</div></div></button><button id = button_9 class = ""square num-button"" onclick = ""recordClick(this)""><div class = content><div class = numbers>Q</div></div></button><button id = button_10 class = ""square num-button"" onclick = ""recordClick(this)""><div class = content><div class = numbers>R</div></div></button><button id = button_11 class = ""square num-button"" onclick = ""recordClick(this)""><div class = content><div class = numbers>S</div></div></button><button id = button_12 class = ""square num-button"" onclick = ""recordClick(this)""><div class = content><div class = numbers>Y</div></div></button><button class = clear_button id = ""ClearButton"" onclick = ""clearResponse()"">BACKSPACE</button><button class = blank_button id = ""BlankButton"" onclick = ""blankResponse()"">SKIP</button><p style=""font-size: 2.4rem""><u><b>Current Answer:</b></u></p><br><br><div id=echoed_txt style=""font-size: 5rem; color:blue;""><b></b></div></div>",enter,ospan,retrieval,Cf9LxPXFHic5fVesBoFsqBCmfcD2,html-keyboard-response,141,996027,0.0-46.0-4.0-2.0-2.0,15,15,15,3.0,"[""C"",""L"",""P""]","[""C"",""L"",""P""]",1.0,3.0,,,,,,,5918774ba391f200011b281f,08:54:42,03/04/2024
1074.9000000953674,[''],0,ospan,feedback,Cf9LxPXFHic5fVesBoFsqBCmfcD2,html-button-response,142,997611,0.0-46.0-4.0-2.0-3.0,,,,,,,,,,,,93.0,0.0,,5918774ba391f200011b281f,08:54:42,03/04/2024
,"<p style=""font-size:75px;"">...</p>",,ospan,iti,Cf9LxPXFHic5fVesBoFsqBCmfcD2,html-keyboard-response,143,998614,0.0-46.0-5.0-0.0-0.0,,,,,,,,,,,,,,,5918774ba391f200011b281f,08:54:42,03/04/2024
2699.0,,,ospan,symmetry,Cf9LxPXFHic5fVesBoFsqBCmfcD2,symmetry-judgement-task,144,1002544,0.0-46.0-5.0-0.0-1.0-0.0,,,,,,,,,,1.0,1.0,,,,5918774ba391f200011b281f,08:54:42,03/04/2024
,"<div style=""font-size: 10rem; color: #0000FF"">C</div>",,ospan,letter,Cf9LxPXFHic5fVesBoFsqBCmfcD2,html-keyboard-response,145,1003554,0.0-46.0-5.0-0.0-1.0-1.0,,,,,,,,,,,,,,,5918774ba391f200011b281f,08:54:42,03/04/2024
2117.0,,,ospan,symmetry,Cf9LxPXFHic5fVesBoFsqBCmfcD2,symmetry-judgement-task,146,1007674,0.0-46.0-5.0-0.0-1.0-2.0,,,,,,,,,,1.0,1.0,,,,5918774ba391f200011b281f,08:54:42,03/04/2024
,"<div style=""font-size: 10rem; color: #0000FF"">P</div>",,ospan,letter,Cf9LxPXFHic5fVesBoFsqBCmfcD2,html-keyboard-response,147,1008689,0.0-46.0-5.0-0.0-1.0-3.0,,,,,,,,,,,,,,,5918774ba391f200011b281f,08:54:42,03/04/2024
1403.0,,,ospan,symmetry,Cf9LxPXFHic5fVesBoFsqBCmfcD2,symmetry-judgement-task,148,1012112,0.0-46.0-5.0-0.0-1.0-4.0,,,,,,,,,,1.0,1.0,,,,5918774ba391f200011b281f,08:54:42,03/04/2024
,"<div style=""font-size: 10rem; color: #0000FF"">N</div>",,ospan,letter,Cf9LxPXFHic5fVesBoFsqBCmfcD2,html-keyboard-response,149,1013121,0.0-46.0-5.0-0.0-1.0-5.0,,,,,,,,,,,,,,,5918774ba391f200011b281f,08:54:42,03/04/2024
3474.0,,,ospan,symmetry,Cf9LxPXFHic5fVesBoFsqBCmfcD2,symmetry-judgement-task,150,1018624,0.0-46.0-5.0-0.0-1.0-6.0,,,,,,,,,,1.0,1.0,,,,5918774ba391f200011b281f,08:54:42,03/04/2024
,"<div style=""font-size: 10rem; color: #0000FF"">G</div>",,ospan,letter,Cf9LxPXFHic5fVesBoFsqBCmfcD2,html-keyboard-response,151,1019634,0.0-46.0-5.0-0.0-1.0-7.0,,,,,,,,,,,,,,,5918774ba391f200011b281f,08:54:42,03/04/2024
2136.0,,,ospan,symmetry,Cf9LxPXFHic5fVesBoFsqBCmfcD2,symmetry-judgement-task,152,1023764,0.0-46.0-5.0-0.0-1.0-8.0,,,,,,,,,,1.0,1.0,,,,5918774ba391f200011b281f,08:54:42,03/04/2024
,"<div style=""font-size: 10rem; color: #0000FF"">L</div>",,ospan,letter,Cf9LxPXFHic5fVesBoFsqBCmfcD2,html-keyboard-response,153,1024770,0.0-46.0-5.0-0.0-1.0-9.0,,,,,,,,,,,,,,,5918774ba391f200011b281f,08:54:42,03/04/2024
2933.0,,,ospan,symmetry,Cf9LxPXFHic5fVesBoFsqBCmfcD2,symmetry-judgement-task,154,1029729,0.0-46.0-5.0-0.0-1.0-10.0,,,,,,,,,,1.0,1.0,,,,5918774ba391f200011b281f,08:54:42,03/04/2024
,"<div style=""font-size: 10rem; color: #0000FF"">R</div>",,ospan,letter,Cf9LxPXFHic5fVesBoFsqBCmfcD2,html-keyboard-response,155,1030744,0.0-46.0-5.0-0.0-1.0-11.0,,,,,,,,,,,,,,,5918774ba391f200011b281f,08:54:42,03/04/2024
7842.899999856949,"<div class = numbox><p style=""font-size: 2.4rem"">Please recall the letters you saw to the best of your ability. If you do not remember a particular letter, use the SKIP button.<br><b>(When you are ready to lock in your answer, press ENTER)</b></p><button id = button_1 class = ""square num-button"" onclick = ""recordClick(this)""><div class = content><div class = numbers>C</div></div></button><button id = button_2 class = ""square num-button"" onclick = ""recordClick(this)""><div class = content><div class = numbers>G</div></div></button><button id = button_3 class = ""square num-button"" onclick = ""recordClick(this)""><div class = content><div class = numbers>H</div></div></button><button id = button_4 class = ""square num-button"" onclick = ""recordClick(this)""><div class = content><div class = numbers>J</div></div></button><button id = button_5 class = ""square num-button"" onclick = ""recordClick(this)""><div class = content><div class = numbers>K</div></div></button><button id = button_6 class = ""square num-button"" onclick = ""recordClick(this)""><div class = content><div class = numbers>L</div></div></button><button id = button_7 class = ""square num-button"" onclick = ""recordClick(this)""><div class = content><div class = numbers>N</div></div></button><button id = button_8 class = ""square num-button"" onclick = ""recordClick(this)""><div class = content><div class = numbers>P</div></div></button><button id = button_9 class = ""square num-button"" onclick = ""recordClick(this)""><div class = content><div class = numbers>Q</div></div></button><button id = button_10 class = ""square num-button"" onclick = ""recordClick(this)""><div class = content><div class = numbers>R</div></div></button><button id = button_11 class = ""square num-button"" onclick = ""recordClick(this)""><div class = content><div class = numbers>S</div></div></button><button id = button_12 class = ""square num-button"" onclick = ""recordClick(this)""><div class = content><div class = numbers>Y</div></div></button><button class = clear_button id = ""ClearButton"" onclick = ""clearResponse()"">BACKSPACE</button><button class = blank_button id = ""BlankButton"" onclick = ""blankResponse()"">SKIP</button><p style=""font-size: 2.4rem""><u><b>Current Answer:</b></u></p><br><br><div id=echoed_txt style=""font-size: 5rem; color:blue;""><b></b></div></div>",enter,ospan,retrieval,Cf9LxPXFHic5fVesBoFsqBCmfcD2,html-keyboard-response,156,1039348,0.0-46.0-5.0-0.0-2.0,21,21,21,6.0,"[""C"",""P"",""N"",""G"",""L"",""R""]","[""C"",""P"",""N"",""G"",""L"",""R""]",1.0,6.0,,,,,,,5918774ba391f200011b281f,08:54:42,03/04/2024
1035.0999999046326,[''],0,ospan,feedback,Cf9LxPXFHic5fVesBoFsqBCmfcD2,html-button-response,157,1040891,0.0-46.0-5.0-0.0-3.0,,,,,,,,,,,,95.0,0.0,,5918774ba391f200011b281f,08:54:42,03/04/2024
,"<p style=""font-size:75px;"">...</p>",,ospan,iti,Cf9LxPXFHic5fVesBoFsqBCmfcD2,html-keyboard-response,158,1041900,0.0-46.0-5.0-1.0-0.0,,,,,,,,,,,,,,,5918774ba391f200011b281f,08:54:42,03/04/2024
3252.0,,,ospan,symmetry,Cf9LxPXFHic5fVesBoFsqBCmfcD2,symmetry-judgement-task,159,1046389,0.0-46.0-5.0-1.0-1.0-0.0,,,,,,,,,,1.0,1.0,,,,5918774ba391f200011b281f,08:54:42,03/04/2024
,"<div style=""font-size: 10rem; color: #0000FF"">J</div>",,ospan,letter,Cf9LxPXFHic5fVesBoFsqBCmfcD2,html-keyboard-response,160,1047395,0.0-46.0-5.0-1.0-1.0-1.0,,,,,,,,,,,,,,,5918774ba391f200011b281f,08:54:42,03/04/2024
2781.0,,,ospan,symmetry,Cf9LxPXFHic5fVesBoFsqBCmfcD2,symmetry-judgement-task,161,1052174,0.0-46.0-5.0-1.0-1.0-2.0,,,,,,,,,,1.0,1.0,,,,5918774ba391f200011b281f,08:54:42,03/04/2024
,"<div style=""font-size: 10rem; color: #0000FF"">G</div>",,ospan,letter,Cf9LxPXFHic5fVesBoFsqBCmfcD2,html-keyboard-response,162,1053193,0.0-46.0-5.0-1.0-1.0-3.0,,,,,,,,,,,,,,,5918774ba391f200011b281f,08:54:42,03/04/2024
1955.0,,,ospan,symmetry,Cf9LxPXFHic5fVesBoFsqBCmfcD2,symmetry-judgement-task,163,1057147,0.0-46.0-5.0-1.0-1.0-4.0,,,,,,,,,,1.0,1.0,,,,5918774ba391f200011b281f,08:54:42,03/04/2024
,"<div style=""font-size: 10rem; color: #0000FF"">K</div>",,ospan,letter,Cf9LxPXFHic5fVesBoFsqBCmfcD2,html-keyboard-response,164,1058152,0.0-46.0-5.0-1.0-1.0-5.0,,,,,,,,,,,,,,,5918774ba391f200011b281f,08:54:42,03/04/2024
2237.0,,,ospan,symmetry,Cf9LxPXFHic5fVesBoFsqBCmfcD2,symmetry-judgement-task,165,1062409,0.0-46.0-5.0-1.0-1.0-6.0,,,,,,,,,,1.0,1.0,,,,5918774ba391f200011b281f,08:54:42,03/04/2024
,"<div style=""font-size: 10rem; color: #0000FF"">Y</div>",,ospan,letter,Cf9LxPXFHic5fVesBoFsqBCmfcD2,html-keyboard-response,166,1063414,0.0-46.0-5.0-1.0-1.0-7.0,,,,,,,,,,,,,,,5918774ba391f200011b281f,08:54:42,03/04/2024
1599.0,,,ospan,symmetry,Cf9LxPXFHic5fVesBoFsqBCmfcD2,symmetry-judgement-task,167,1066992,0.0-46.0-5.0-1.0-1.0-8.0,,,,,,,,,,1.0,1.0,,,,5918774ba391f200011b281f,08:54:42,03/04/2024
,"<div style=""font-size: 10rem; color: #0000FF"">H</div>",,ospan,letter,Cf9LxPXFHic5fVesBoFsqBCmfcD2,html-keyboard-response,168,1068004,0.0-46.0-5.0-1.0-1.0-9.0,,,,,,,,,,,,,,,5918774ba391f200011b281f,08:54:42,03/04/2024
2352.0,,,ospan,symmetry,Cf9LxPXFHic5fVesBoFsqBCmfcD2,symmetry-judgement-task,169,1072357,0.0-46.0-5.0-1.0-1.0-10.0,,,,,,,,,,0.0,0.0,,,,5918774ba391f200011b281f,08:54:42,03/04/2024
,"<div style=""font-size: 10rem; color: #0000FF"">P</div>",,ospan,letter,Cf9LxPXFHic5fVesBoFsqBCmfcD2,html-keyboard-response,170,1073377,0.0-46.0-5.0-1.0-1.0-11.0,,,,,,,,,,,,,,,5918774ba391f200011b281f,08:54:42,03/04/2024
3186.0,,,ospan,symmetry,Cf9LxPXFHic5fVesBoFsqBCmfcD2,symmetry-judgement-task,171,1078588,0.0-46.0-5.0-1.0-1.0-12.0,,,,,,,,,,1.0,1.0,,,,5918774ba391f200011b281f,08:54:42,03/04/2024
,"<div style=""font-size: 10rem; color: #0000FF"">R</div>",,ospan,letter,Cf9LxPXFHic5fVesBoFsqBCmfcD2,html-keyboard-response,172,1079593,0.0-46.0-5.0-1.0-1.0-13.0,,,,,,,,,,,,,,,5918774ba391f200011b281f,08:54:42,03/04/2024
18072.799999952316,"<div class = numbox><p style=""font-size: 2.4rem"">Please recall the letters you saw to the best of your ability. If you do not remember a particular letter, use the SKIP button.<br><b>(When you are ready to lock in your answer, press ENTER)</b></p><button id = button_1 class = ""square num-button"" onclick = ""recordClick(this)""><div class = content><div class = numbers>C</div></div></button><button id = button_2 class = ""square num-button"" onclick = ""recordClick(this)""><div class = content><div class = numbers>G</div></div></button><button id = button_3 class = ""square num-button"" onclick = ""recordClick(this)""><div class = content><div class = numbers>H</div></div></button><button id = button_4 class = ""square num-button"" onclick = ""recordClick(this)""><div class = content><div class = numbers>J</div></div></button><button id = button_5 class = ""square num-button"" onclick = ""recordClick(this)""><div class = content><div class = numbers>K</div></div></button><button id = button_6 class = ""square num-button"" onclick = ""recordClick(this)""><div class = content><div class = numbers>L</div></div></button><button id = button_7 class = ""square num-button"" onclick = ""recordClick(this)""><div class = content><div class = numbers>N</div></div></button><button id = button_8 class = ""square num-button"" onclick = ""recordClick(this)""><div class = content><div class = numbers>P</div></div></button><button id = button_9 class = ""square num-button"" onclick = ""recordClick(this)""><div class = content><div class = numbers>Q</div></div></button><button id = button_10 class = ""square num-button"" onclick = ""recordClick(this)""><div class = content><div class = numbers>R</div></div></button><button id = button_11 class = ""square num-button"" onclick = ""recordClick(this)""><div class = content><div class = numbers>S</div></div></button><button id = button_12 class = ""square num-button"" onclick = ""recordClick(this)""><div class = content><div class = numbers>Y</div></div></button><button class = clear_button id = ""ClearButton"" onclick = ""clearResponse()"">BACKSPACE</button><button class = blank_button id = ""BlankButton"" onclick = ""blankResponse()"">SKIP</button><p style=""font-size: 2.4rem""><u><b>Current Answer:</b></u></p><br><br><div id=echoed_txt style=""font-size: 5rem; color:blue;""><b></b></div></div>",enter,ospan,retrieval,Cf9LxPXFHic5fVesBoFsqBCmfcD2,html-keyboard-response,173,1098432,0.0-46.0-5.0-1.0-2.0,28,24,21,7.0,"[""J"",""G"",""K"",""L"",""P"",""Y""]","[""J"",""G"",""K"",""Y"",""H"",""P"",""R""]",0.0,3.0,,,,,,,5918774ba391f200011b281f,08:54:42,03/04/2024
1090.0,[''],0,ospan,feedback,Cf9LxPXFHic5fVesBoFsqBCmfcD2,html-button-response,174,1100040,0.0-46.0-5.0-1.0-3.0,,,,,,,,,,,,93.0,0.0,,5918774ba391f200011b281f,08:54:42,03/04/2024
,"<p style=""font-size:75px;"">...</p>",,ospan,iti,Cf9LxPXFHic5fVesBoFsqBCmfcD2,html-keyboard-response,175,1101047,0.0-46.0-6.0-0.0-0.0,,,,,,,,,,,,,,,5918774ba391f200011b281f,08:54:42,03/04/2024
2692.0,,,ospan,symmetry,Cf9LxPXFHic5fVesBoFsqBCmfcD2,symmetry-judgement-task,176,1104977,0.0-46.0-6.0-0.0-1.0-0.0,,,,,,,,,,1.0,1.0,,,,5918774ba391f200011b281f,08:54:42,03/04/2024
,"<div style=""font-size: 10rem; color: #0000FF"">N</div>",,ospan,letter,Cf9LxPXFHic5fVesBoFsqBCmfcD2,html-keyboard-response,177,1105983,0.0-46.0-6.0-0.0-1.0-1.0,,,,,,,,,,,,,,,5918774ba391f200011b281f,08:54:42,03/04/2024
2008.0,,,ospan,symmetry,Cf9LxPXFHic5fVesBoFsqBCmfcD2,symmetry-judgement-task,178,1110017,0.0-46.0-6.0-0.0-1.0-2.0,,,,,,,,,,1.0,1.0,,,,5918774ba391f200011b281f,08:54:42,03/04/2024
,"<div style=""font-size: 10rem; color: #0000FF"">K</div>",,ospan,letter,Cf9LxPXFHic5fVesBoFsqBCmfcD2,html-keyboard-response,179,1111027,0.0-46.0-6.0-0.0-1.0-3.0,,,,,,,,,,,,,,,5918774ba391f200011b281f,08:54:42,03/04/2024
1966.0,,,ospan,symmetry,Cf9LxPXFHic5fVesBoFsqBCmfcD2,symmetry-judgement-task,180,1115016,0.0-46.0-6.0-0.0-1.0-4.0,,,,,,,,,,1.0,1.0,,,,5918774ba391f200011b281f,08:54:42,03/04/2024
,"<div style=""font-size: 10rem; color: #0000FF"">G</div>",,ospan,letter,Cf9LxPXFHic5fVesBoFsqBCmfcD2,html-keyboard-response,181,1116027,0.0-46.0-6.0-0.0-1.0-5.0,,,,,,,,,,,,,,,5918774ba391f200011b281f,08:54:42,03/04/2024
1644.0,,,ospan,symmetry,Cf9LxPXFHic5fVesBoFsqBCmfcD2,symmetry-judgement-task,182,1119692,0.0-46.0-6.0-0.0-1.0-6.0,,,,,,,,,,1.0,1.0,,,,5918774ba391f200011b281f,08:54:42,03/04/2024
,"<div style=""font-size: 10rem; color: #0000FF"">P</div>",,ospan,letter,Cf9LxPXFHic5fVesBoFsqBCmfcD2,html-keyboard-response,183,1120698,0.0-46.0-6.0-0.0-1.0-7.0,,,,,,,,,,,,,,,5918774ba391f200011b281f,08:54:42,03/04/2024
3372.0,,,ospan,symmetry,Cf9LxPXFHic5fVesBoFsqBCmfcD2,symmetry-judgement-task,184,1126093,0.0-46.0-6.0-0.0-1.0-8.0,,,,,,,,,,1.0,1.0,,,,5918774ba391f200011b281f,08:54:42,03/04/2024
,"<div style=""font-size: 10rem; color: #0000FF"">C</div>",,ospan,letter,Cf9LxPXFHic5fVesBoFsqBCmfcD2,html-keyboard-response,185,1127094,0.0-46.0-6.0-0.0-1.0-9.0,,,,,,,,,,,,,,,5918774ba391f200011b281f,08:54:42,03/04/2024
11854.599999904633,"<div class = numbox><p style=""font-size: 2.4rem"">Please recall the letters you saw to the best of your ability. If you do not remember a particular letter, use the SKIP button.<br><b>(When you are ready to lock in your answer, press ENTER)</b></p><button id = button_1 class = ""square num-button"" onclick = ""recordClick(this)""><div class = content><div class = numbers>C</div></div></button><button id = button_2 class = ""square num-button"" onclick = ""recordClick(this)""><div class = content><div class = numbers>G</div></div></button><button id = button_3 class = ""square num-button"" onclick = ""recordClick(this)""><div class = content><div class = numbers>H</div></div></button><button id = button_4 class = ""square num-button"" onclick = ""recordClick(this)""><div class = content><div class = numbers>J</div></div></button><button id = button_5 class = ""square num-button"" onclick = ""recordClick(this)""><div class = content><div class = numbers>K</div></div></button><button id = button_6 class = ""square num-button"" onclick = ""recordClick(this)""><div class = content><div class = numbers>L</div></div></button><button id = button_7 class = ""square num-button"" onclick = ""recordClick(this)""><div class = content><div class = numbers>N</div></div></button><button id = button_8 class = ""square num-button"" onclick = ""recordClick(this)""><div class = content><div class = numbers>P</div></div></button><button id = button_9 class = ""square num-button"" onclick = ""recordClick(this)""><div class = content><div class = numbers>Q</div></div></button><button id = button_10 class = ""square num-button"" onclick = ""recordClick(this)""><div class = content><div class = numbers>R</div></div></button><button id = button_11 class = ""square num-button"" onclick = ""recordClick(this)""><div class = content><div class = numbers>S</div></div></button><button id = button_12 class = ""square num-button"" onclick = ""recordClick(this)""><div class = content><div class = numbers>Y</div></div></button><button class = clear_button id = ""ClearButton"" onclick = ""clearResponse()"">BACKSPACE</button><button class = blank_button id = ""BlankButton"" onclick = ""blankResponse()"">SKIP</button><p style=""font-size: 2.4rem""><u><b>Current Answer:</b></u></p><br><br><div id=echoed_txt style=""font-size: 5rem; color:blue;""><b></b></div></div>",enter,ospan,retrieval,Cf9LxPXFHic5fVesBoFsqBCmfcD2,html-keyboard-response,186,1139702,0.0-46.0-6.0-0.0-2.0,33,26,21,5.0,"[""N"",""J"",""K"",""P""]","[""N"",""K"",""G"",""P"",""C""]",0.0,2.0,,,,,,,5918774ba391f200011b281f,08:54:42,03/04/2024
1245.5,[''],0,ospan,feedback,Cf9LxPXFHic5fVesBoFsqBCmfcD2,html-button-response,187,1141453,0.0-46.0-6.0-0.0-3.0,,,,,,,,,,,,94.0,0.0,,5918774ba391f200011b281f,08:54:42,03/04/2024
,"<p style=""font-size:75px;"">...</p>",,ospan,iti,Cf9LxPXFHic5fVesBoFsqBCmfcD2,html-keyboard-response,188,1142467,0.0-46.0-6.0-1.0-0.0,,,,,,,,,,,,,,,5918774ba391f200011b281f,08:54:42,03/04/2024
1529.0,,,ospan,symmetry,Cf9LxPXFHic5fVesBoFsqBCmfcD2,symmetry-judgement-task,189,1145247,0.0-46.0-6.0-1.0-1.0-0.0,,,,,,,,,,1.0,1.0,,,,5918774ba391f200011b281f,08:54:42,03/04/2024
,"<div style=""font-size: 10rem; color: #0000FF"">Y</div>",,ospan,letter,Cf9LxPXFHic5fVesBoFsqBCmfcD2,html-keyboard-response,190,1146267,0.0-46.0-6.0-1.0-1.0-1.0,,,,,,,,,,,,,,,5918774ba391f200011b281f,08:54:42,03/04/2024
1814.0,,,ospan,symmetry,Cf9LxPXFHic5fVesBoFsqBCmfcD2,symmetry-judgement-task,191,1150097,0.0-46.0-6.0-1.0-1.0-2.0,,,,,,,,,,1.0,1.0,,,,5918774ba391f200011b281f,08:54:42,03/04/2024
,"<div style=""font-size: 10rem; color: #0000FF"">N</div>",,ospan,letter,Cf9LxPXFHic5fVesBoFsqBCmfcD2,html-keyboard-response,192,1151117,0.0-46.0-6.0-1.0-1.0-3.0,,,,,,,,,,,,,,,5918774ba391f200011b281f,08:54:42,03/04/2024
1743.0,,,ospan,symmetry,Cf9LxPXFHic5fVesBoFsqBCmfcD2,symmetry-judgement-task,193,1154882,0.0-46.0-6.0-1.0-1.0-4.0,,,,,,,,,,1.0,1.0,,,,5918774ba391f200011b281f,08:54:42,03/04/2024
,"<div style=""font-size: 10rem; color: #0000FF"">G</div>",,ospan,letter,Cf9LxPXFHic5fVesBoFsqBCmfcD2,html-keyboard-response,194,1155897,0.0-46.0-6.0-1.0-1.0-5.0,,,,,,,,,,,,,,,5918774ba391f200011b281f,08:54:42,03/04/2024
2737.0,,,ospan,symmetry,Cf9LxPXFHic5fVesBoFsqBCmfcD2,symmetry-judgement-task,195,1160666,0.0-46.0-6.0-1.0-1.0-6.0,,,,,,,,,,1.0,1.0,,,,5918774ba391f200011b281f,08:54:42,03/04/2024
,"<div style=""font-size: 10rem; color: #0000FF"">L</div>",,ospan,letter,Cf9LxPXFHic5fVesBoFsqBCmfcD2,html-keyboard-response,196,1161682,0.0-46.0-6.0-1.0-1.0-7.0,,,,,,,,,,,,,,,5918774ba391f200011b281f,08:54:42,03/04/2024
2193.0,,,ospan,symmetry,Cf9LxPXFHic5fVesBoFsqBCmfcD2,symmetry-judgement-task,197,1165846,0.0-46.0-6.0-1.0-1.0-8.0,,,,,,,,,,1.0,1.0,,,,5918774ba391f200011b281f,08:54:42,03/04/2024
,"<div style=""font-size: 10rem; color: #0000FF"">C</div>",,ospan,letter,Cf9LxPXFHic5fVesBoFsqBCmfcD2,html-keyboard-response,198,1166867,0.0-46.0-6.0-1.0-1.0-9.0,,,,,,,,,,,,,,,5918774ba391f200011b281f,08:54:42,03/04/2024
2096.0,,,ospan,symmetry,Cf9LxPXFHic5fVesBoFsqBCmfcD2,symmetry-judgement-task,199,1170967,0.0-46.0-6.0-1.0-1.0-10.0,,,,,,,,,,1.0,1.0,,,,5918774ba391f200011b281f,08:54:42,03/04/2024
,"<div style=""font-size: 10rem; color: #0000FF"">R</div>",,ospan,letter,Cf9LxPXFHic5fVesBoFsqBCmfcD2,html-keyboard-response,200,1171982,0.0-46.0-6.0-1.0-1.0-11.0,,,,,,,,,,,,,,,5918774ba391f200011b281f,08:54:42,03/04/2024
2842.0,,,ospan,symmetry,Cf9LxPXFHic5fVesBoFsqBCmfcD2,symmetry-judgement-task,201,1176847,0.0-46.0-6.0-1.0-1.0-12.0,,,,,,,,,,1.0,1.0,,,,5918774ba391f200011b281f,08:54:42,03/04/2024
,"<div style=""font-size: 10rem; color: #0000FF"">J</div>",,ospan,letter,Cf9LxPXFHic5fVesBoFsqBCmfcD2,html-keyboard-response,202,1177867,0.0-46.0-6.0-1.0-1.0-13.0,,,,,,,,,,,,,,,5918774ba391f200011b281f,08:54:42,03/04/2024
2858.0,,,ospan,symmetry,Cf9LxPXFHic5fVesBoFsqBCmfcD2,symmetry-judgement-task,203,1182737,0.0-46.0-6.0-1.0-1.0-14.0,,,,,,,,,,1.0,1.0,,,,5918774ba391f200011b281f,08:54:42,03/04/2024
,"<div style=""font-size: 10rem; color: #0000FF"">P</div>",,ospan,letter,Cf9LxPXFHic5fVesBoFsqBCmfcD2,html-keyboard-response,204,1183747,0.0-46.0-6.0-1.0-1.0-15.0,,,,,,,,,,,,,,,5918774ba391f200011b281f,08:54:42,03/04/2024
14032.5,"<div class = numbox><p style=""font-size: 2.4rem"">Please recall the letters you saw to the best of your ability. If you do not remember a particular letter, use the SKIP button.<br><b>(When you are ready to lock in your answer, press ENTER)</b></p><button id = button_1 class = ""square num-button"" onclick = ""recordClick(this)""><div class = content><div class = numbers>C</div></div></button><button id = button_2 class = ""square num-button"" onclick = ""recordClick(this)""><div class = content><div class = numbers>G</div></div></button><button id = button_3 class = ""square num-button"" onclick = ""recordClick(this)""><div class = content><div class = numbers>H</div></div></button><button id = button_4 class = ""square num-button"" onclick = ""recordClick(this)""><div class = content><div class = numbers>J</div></div></button><button id = button_5 class = ""square num-button"" onclick = ""recordClick(this)""><div class = content><div class = numbers>K</div></div></button><button id = button_6 class = ""square num-button"" onclick = ""recordClick(this)""><div class = content><div class = numbers>L</div></div></button><button id = button_7 class = ""square num-button"" onclick = ""recordClick(this)""><div class = content><div class = numbers>N</div></div></button><button id = button_8 class = ""square num-button"" onclick = ""recordClick(this)""><div class = content><div class = numbers>P</div></div></button><button id = button_9 class = ""square num-button"" onclick = ""recordClick(this)""><div class = content><div class = numbers>Q</div></div></button><button id = button_10 class = ""square num-button"" onclick = ""recordClick(this)""><div class = content><div class = numbers>R</div></div></button><button id = button_11 class = ""square num-button"" onclick = ""recordClick(this)""><div class = content><div class = numbers>S</div></div></button><button id = button_12 class = ""square num-button"" onclick = ""recordClick(this)""><div class = content><div class = numbers>Y</div></div></button><button class = clear_button id = ""ClearButton"" onclick = ""clearResponse()"">BACKSPACE</button><button class = blank_button id = ""BlankButton"" onclick = ""blankResponse()"">SKIP</button><p style=""font-size: 2.4rem""><u><b>Current Answer:</b></u></p><br><br><div id=echoed_txt style=""font-size: 5rem; color:blue;""><b></b></div></div>",enter,ospan,retrieval,Cf9LxPXFHic5fVesBoFsqBCmfcD2,html-keyboard-response,205,1198543,0.0-46.0-6.0-1.0-2.0,41,30,21,8.0,"[""Y"",""N"",""G"",""L"",""P"",""J""]","[""Y"",""N"",""G"",""L"",""C"",""R"",""J"",""P""]",0.0,4.0,,,,,,,5918774ba391f200011b281f,08:54:42,03/04/2024
1477.5999999046326,[''],0,ospan,feedback,Cf9LxPXFHic5fVesBoFsqBCmfcD2,html-button-response,206,1200526,0.0-46.0-6.0-1.0-3.0,,,,,,,,,,,,95.0,0.0,,5918774ba391f200011b281f,08:54:42,03/04/2024
55045.60000014305,,{'Q0': 'Repeating out loud the letters while also judging symmetry became a bit tricky there. '},ospan,survey_ospan,Cf9LxPXFHic5fVesBoFsqBCmfcD2,lmdlab-survey-text,207,1256327,0.0-46.0-7.0,,,,,,,,,,,,,,Cf9LxPXFHic5fVesBoFsqBCmfcD2,5918774ba391f200011b281f,08:54:42,03/04/2024
1338.5,<p><p style='font-size: 3rem'>Great work!<br><br>This completes the symmetry and memory task.</p><br><br><br>,0,ospan,finish,Cf9LxPXFHic5fVesBoFsqBCmfcD2,html-button-response,208,1257669,0.0-46.0-8.0,41,30,21,,,,,,,,,95.0,,,5918774ba391f200011b281f,08:54:42,03/04/2024
