rt,stimulus,response,exp_name,exp_stage,subjectID,trial_type,trial_index,time_elapsed,internal_node_id,ospan_shown,ospan_total,ospan_abs,length,resp_actual,resp_correct,full_correct,num_correct,feedback,accuracy,correct,math_acc,math_warning,databaseID,prolificID,start_time,date
1814.1000000238419,<div class = 'left_align' style='font-size: 3.25rem; line-height: 1.3;'><p class = 'center_align'><b>Welcome to the Symmetry and Memory Task</b><br><br><br><br></p>Press 'continue' to show the instructions.<br><br><br><br></div>,0,ospan,instruct,Z8t2AtTxsrWLqtUy88o8DBvGDDk1,html-button-response,51,407819,0.0-43.0-0.0-0.0-0.0,,,,,,,,,,,,,,,63d166c1300217760a719112,14:20:13,06/03/2024
6282.0,"<div class = 'left_align' style='font-size: 3.25rem; line-height: 1.3;'><p class = 'center_align'><b>Symmetry and Memory Task</b><br><br></p>In this task, you will try to memorize letters you see on the screen<br>while you also view black and white grid pictures.<br><br>In the next few minutes, you will have some practice to get you familiar<br>with how the task works.<br><br>It may be difficult sometimes, but please do not worry about making mistakes!<br><br>We will begin by practicing the letter part of the task.<br><br><br><br></div>",0,ospan,instruct,Z8t2AtTxsrWLqtUy88o8DBvGDDk1,html-button-response,52,414370,0.0-43.0-0.0-0.0-1.0,,,,,,,,,,,,,,,63d166c1300217760a719112,14:20:13,06/03/2024
8480.200000047684,"<div class = 'left_align' style='font-size: 3.25rem; line-height: 1.3;'>For this practice part, letters will appear on the screen one at a time.<br><br>Try to remember each letter in the order presented.<br><br>After some letters have been shown, you will see a response screen. Your<br>goal is to report the letters you saw <b>in order</b>. If you do not remember<br>a particular letter, you will have the option to leave it blank.<br><br><br><br></div>",0,ospan,instruct,Z8t2AtTxsrWLqtUy88o8DBvGDDk1,html-button-response,53,423100,0.0-43.0-0.0-0.0-2.0,,,,,,,,,,,,,,,63d166c1300217760a719112,14:20:13,06/03/2024
2569.0999999046326,"<div class = 'left_align' style='font-size: 3.25rem; line-height: 1.3;'>Remember, it is very important to get the letters in the same<br>order as you see them.<br><br>When you are ready, you may begin the letter practice.</div><br><br><br><br>",0,ospan,instruct,Z8t2AtTxsrWLqtUy88o8DBvGDDk1,html-button-response,54,425938,0.0-43.0-0.0-0.0-3.0,,,,,,,,,,,,,,,63d166c1300217760a719112,14:20:13,06/03/2024
,"<p style=""font-size:75px;"">...</p>",,ospan,iti,Z8t2AtTxsrWLqtUy88o8DBvGDDk1,html-keyboard-response,55,427210,0.0-43.0-0.0-1.0-0.0,,,,,,,,,,,,,,,63d166c1300217760a719112,14:20:13,06/03/2024
,"<div style=""font-size: 10rem; color: #0000FF"">Q</div>",,ospan,letter,Z8t2AtTxsrWLqtUy88o8DBvGDDk1,html-keyboard-response,56,428227,0.0-43.0-0.0-1.0-1.0,,,,,,,,,,,,,,,63d166c1300217760a719112,14:20:13,06/03/2024
,"<div style=""font-size: 10rem; color: #0000FF"">N</div>",,ospan,letter,Z8t2AtTxsrWLqtUy88o8DBvGDDk1,html-keyboard-response,57,429994,0.0-43.0-0.0-1.0-2.0,,,,,,,,,,,,,,,63d166c1300217760a719112,14:20:13,06/03/2024
9439.899999976158,"<div class = numbox><p style=""font-size: 2.4rem"">Please recall the letters you saw to the best of your ability. If you do not remember a particular letter, use the SKIP button.<br><b>(When you are ready to lock in your answer, press ENTER)</b></p><button id = button_1 class = ""square num-button"" onclick = ""recordClick(this)""><div class = content><div class = numbers>C</div></div></button><button id = button_2 class = ""square num-button"" onclick = ""recordClick(this)""><div class = content><div class = numbers>G</div></div></button><button id = button_3 class = ""square num-button"" onclick = ""recordClick(this)""><div class = content><div class = numbers>H</div></div></button><button id = button_4 class = ""square num-button"" onclick = ""recordClick(this)""><div class = content><div class = numbers>J</div></div></button><button id = button_5 class = ""square num-button"" onclick = ""recordClick(this)""><div class = content><div class = numbers>K</div></div></button><button id = button_6 class = ""square num-button"" onclick = ""recordClick(this)""><div class = content><div class = numbers>L</div></div></button><button id = button_7 class = ""square num-button"" onclick = ""recordClick(this)""><div class = content><div class = numbers>N</div></div></button><button id = button_8 class = ""square num-button"" onclick = ""recordClick(this)""><div class = content><div class = numbers>P</div></div></button><button id = button_9 class = ""square num-button"" onclick = ""recordClick(this)""><div class = content><div class = numbers>Q</div></div></button><button id = button_10 class = ""square num-button"" onclick = ""recordClick(this)""><div class = content><div class = numbers>R</div></div></button><button id = button_11 class = ""square num-button"" onclick = ""recordClick(this)""><div class = content><div class = numbers>S</div></div></button><button id = button_12 class = ""square num-button"" onclick = ""recordClick(this)""><div class = content><div class = numbers>Y</div></div></button><button class = clear_button id = ""ClearButton"" onclick = ""clearResponse()"">BACKSPACE</button><button class = blank_button id = ""BlankButton"" onclick = ""blankResponse()"">SKIP</button><p style=""font-size: 2.4rem""><u><b>Current Answer:</b></u></p><br><br><div id=echoed_txt style=""font-size: 5rem; color:blue;""><b></b></div></div>",enter,ospan,retrieval,Z8t2AtTxsrWLqtUy88o8DBvGDDk1,html-keyboard-response,58,440200,0.0-43.0-0.0-1.0-3.0,NA,NA,NA,2.0,"[""Q"",""N""]","[""Q"",""N""]",1.0,2.0,"['<font color=""green"">Q</font>', '<font color=""green"">N</font>']",,,,,,63d166c1300217760a719112,14:20:13,06/03/2024
2158.0999999046326,"['<p style=""font-size:44px"">Letters:<br><br><br><font color=""green"">Q</font> <font color=""green"">N</font></p><br><br>']",0,ospan,practice_feedback,Z8t2AtTxsrWLqtUy88o8DBvGDDk1,html-button-response,59,442882,0.0-43.0-0.0-1.0-4.0,,,,,,,,,,,,,,,63d166c1300217760a719112,14:20:13,06/03/2024
,"<p style=""font-size:75px;"">...</p>",,ospan,iti,Z8t2AtTxsrWLqtUy88o8DBvGDDk1,html-keyboard-response,60,443906,0.0-43.0-0.0-2.0-0.0,,,,,,,,,,,,,,,63d166c1300217760a719112,14:20:13,06/03/2024
,"<div style=""font-size: 10rem; color: #0000FF"">H</div>",,ospan,letter,Z8t2AtTxsrWLqtUy88o8DBvGDDk1,html-keyboard-response,61,444913,0.0-43.0-0.0-2.0-1.0,,,,,,,,,,,,,,,63d166c1300217760a719112,14:20:13,06/03/2024
,"<div style=""font-size: 10rem; color: #0000FF"">Q</div>",,ospan,letter,Z8t2AtTxsrWLqtUy88o8DBvGDDk1,html-keyboard-response,62,446685,0.0-43.0-0.0-2.0-2.0,,,,,,,,,,,,,,,63d166c1300217760a719112,14:20:13,06/03/2024
,"<div style=""font-size: 10rem; color: #0000FF"">L</div>",,ospan,letter,Z8t2AtTxsrWLqtUy88o8DBvGDDk1,html-keyboard-response,63,448446,0.0-43.0-0.0-2.0-3.0,,,,,,,,,,,,,,,63d166c1300217760a719112,14:20:13,06/03/2024
4041.1999999284744,"<div class = numbox><p style=""font-size: 2.4rem"">Please recall the letters you saw to the best of your ability. If you do not remember a particular letter, use the SKIP button.<br><b>(When you are ready to lock in your answer, press ENTER)</b></p><button id = button_1 class = ""square num-button"" onclick = ""recordClick(this)""><div class = content><div class = numbers>C</div></div></button><button id = button_2 class = ""square num-button"" onclick = ""recordClick(this)""><div class = content><div class = numbers>G</div></div></button><button id = button_3 class = ""square num-button"" onclick = ""recordClick(this)""><div class = content><div class = numbers>H</div></div></button><button id = button_4 class = ""square num-button"" onclick = ""recordClick(this)""><div class = content><div class = numbers>J</div></div></button><button id = button_5 class = ""square num-button"" onclick = ""recordClick(this)""><div class = content><div class = numbers>K</div></div></button><button id = button_6 class = ""square num-button"" onclick = ""recordClick(this)""><div class = content><div class = numbers>L</div></div></button><button id = button_7 class = ""square num-button"" onclick = ""recordClick(this)""><div class = content><div class = numbers>N</div></div></button><button id = button_8 class = ""square num-button"" onclick = ""recordClick(this)""><div class = content><div class = numbers>P</div></div></button><button id = button_9 class = ""square num-button"" onclick = ""recordClick(this)""><div class = content><div class = numbers>Q</div></div></button><button id = button_10 class = ""square num-button"" onclick = ""recordClick(this)""><div class = content><div class = numbers>R</div></div></button><button id = button_11 class = ""square num-button"" onclick = ""recordClick(this)""><div class = content><div class = numbers>S</div></div></button><button id = button_12 class = ""square num-button"" onclick = ""recordClick(this)""><div class = content><div class = numbers>Y</div></div></button><button class = clear_button id = ""ClearButton"" onclick = ""clearResponse()"">BACKSPACE</button><button class = blank_button id = ""BlankButton"" onclick = ""blankResponse()"">SKIP</button><p style=""font-size: 2.4rem""><u><b>Current Answer:</b></u></p><br><br><div id=echoed_txt style=""font-size: 5rem; color:blue;""><b></b></div></div>",enter,ospan,retrieval,Z8t2AtTxsrWLqtUy88o8DBvGDDk1,html-keyboard-response,64,453254,0.0-43.0-0.0-2.0-4.0,NA,NA,NA,3.0,"[""H"",""Q"",""L""]","[""H"",""Q"",""L""]",1.0,3.0,"['<font color=""green"">H</font>', '<font color=""green"">Q</font>', '<font color=""green"">L</font>']",,,,,,63d166c1300217760a719112,14:20:13,06/03/2024
1351.2000000476837,"['<p style=""font-size:44px"">Letters:<br><br><br><font color=""green"">H</font> <font color=""green"">Q</font> <font color=""green"">L</font></p><br><br>']",0,ospan,practice_feedback,Z8t2AtTxsrWLqtUy88o8DBvGDDk1,html-button-response,65,455126,0.0-43.0-0.0-2.0-5.0,,,,,,,,,,,,,,,63d166c1300217760a719112,14:20:13,06/03/2024
11601.0,"<div class = 'left_align' style='font-size: 3.25rem; line-height: 1.3;'>Now you will practice doing the <b>symmetry judgment part</b> of the experiment.<br><br>A black and white grid picture will appear on the screen and you have to judge if it is <br>symmetrical or asymetrical.<br><br>A picture is 'mirror' symmetrical if its left half is identical to the right half when flipped.<br>Here are examples of a symmetrical and an asymetrical picture:<br><br><center><img src='Stimuli/img/symm_instructions_extra.png' style='height:420px; width:900'></img></center><br>To judge symmetry, imagine you were to fold each picture down the middle, like a book –<br>would the left half match the right half when folded onto each other?<br><br></div><br>",0,ospan,instruct,Z8t2AtTxsrWLqtUy88o8DBvGDDk1,html-button-response,66,466735,0.0-43.0-1.0-0.0-0.0,,,,,,,,,,,,,,,63d166c1300217760a719112,14:20:13,06/03/2024
5568.199999928474,"<div class = 'left_align' style='font-size: 3.25rem; line-height: 1.3;'>When you have viewed the picture and determined whether it is symmetrical or not,<br>you can <b>click the Yes or No button</b> below to answer.<br><br>If you take longer than 15 seconds, it will continue automatically<br>and record the answer as an error.</div><br>",0,ospan,instruct,Z8t2AtTxsrWLqtUy88o8DBvGDDk1,html-button-response,67,472565,0.0-43.0-1.0-0.0-1.0,,,,,,,,,,,,,,,63d166c1300217760a719112,14:20:13,06/03/2024
4459.200000047684,"<div class = 'left_align' style='font-size: 3.25rem; line-height: 1.3;'>It is <b>very</b> important that you make the symmetry judgment correctly.<br><br>It is also important that you try and judge the picture as quickly as you can.<br><br>When you are ready, click on the button below to try some practice problems.</div><br><br><br><br>",0,ospan,instruct,Z8t2AtTxsrWLqtUy88o8DBvGDDk1,html-button-response,68,477291,0.0-43.0-1.0-0.0-2.0,,,,,,,,,,,,,,,63d166c1300217760a719112,14:20:13,06/03/2024
3588.0,,,ospan,symmetry,Z8t2AtTxsrWLqtUy88o8DBvGDDk1,symmetry-judgement-task,69,481800,0.0-43.0-1.0-1.0-0.0,,,,,,,,,,1.0,1.0,,,,63d166c1300217760a719112,14:20:13,06/03/2024
,"<p style=""color:green; font-size: 35px"">Correct</p>",,ospan,feedback,Z8t2AtTxsrWLqtUy88o8DBvGDDk1,html-keyboard-response,70,482558,0.0-43.0-1.0-1.0-1.0,,,,,,,,,,,,,,,63d166c1300217760a719112,14:20:13,06/03/2024
3903.0,,,ospan,symmetry,Z8t2AtTxsrWLqtUy88o8DBvGDDk1,symmetry-judgement-task,71,489504,0.0-43.0-1.0-1.0-2.0,,,,,,,,,,1.0,1.0,,,,63d166c1300217760a719112,14:20:13,06/03/2024
,"<p style=""color:green; font-size: 35px"">Correct</p>",,ospan,feedback,Z8t2AtTxsrWLqtUy88o8DBvGDDk1,html-keyboard-response,72,490270,0.0-43.0-1.0-1.0-3.0,,,,,,,,,,,,,,,63d166c1300217760a719112,14:20:13,06/03/2024
1869.0,,,ospan,symmetry,Z8t2AtTxsrWLqtUy88o8DBvGDDk1,symmetry-judgement-task,73,495351,0.0-43.0-1.0-1.0-4.0,,,,,,,,,,1.0,1.0,,,,63d166c1300217760a719112,14:20:13,06/03/2024
,"<p style=""color:green; font-size: 35px"">Correct</p>",,ospan,feedback,Z8t2AtTxsrWLqtUy88o8DBvGDDk1,html-keyboard-response,74,496107,0.0-43.0-1.0-1.0-5.0,,,,,,,,,,,,,,,63d166c1300217760a719112,14:20:13,06/03/2024
1807.6999999284744,"<p style=""font-size: 3rem;"">You responded correctly on 3 of 3 symmetry judgments. Good job!</p><br><br>",0,ospan,practice,Z8t2AtTxsrWLqtUy88o8DBvGDDk1,html-button-response,75,499922,0.0-43.0-1.0-2.0,,,,,,,,,,,,,,,63d166c1300217760a719112,14:20:13,06/03/2024
10133.800000071526,"<div class = 'left_align' style='font-size: 3.25rem; line-height: 1.3;'>Now you will practice doing both parts of the experiment at the same time.<br><br>In the next practice set, you will be given one grid picture to judge.<br>Then letter will appear on the screen. Try to remember the letter.<br><br>It is <b>very important</b> to make the symmetry judgment as quickly and accurately as possible.<br><br>Just as before, once you have make the symmetry judgment, you can click Yes or No.<br><b>Note that you will no longer see Correct or Incorrect feedback.</div><br><br><br><br>",0,ospan,instruct,Z8t2AtTxsrWLqtUy88o8DBvGDDk1,html-button-response,76,510322,0.0-43.0-2.0-0.0-0.0,,,,,,,,,,,,,,,63d166c1300217760a719112,14:20:13,06/03/2024
4412.5,"<div class = 'left_align' style='font-size: 3.25rem; line-height: 1.3;'>After the letter goes away, another grid picture will appear, and then<br>another letter.<br><br>At the end of each set of letters and grids, you will recall the letters to the best<br>of your ability. Remember, try your best to get the letters in the correct order.<br><br>It is important to <b>quickly</b> and <b>accurately</b> make the symmetry judgments.</div><br><br><br><br>",0,ospan,instruct,Z8t2AtTxsrWLqtUy88o8DBvGDDk1,html-button-response,77,514991,0.0-43.0-2.0-0.0-1.0,,,,,,,,,,,,,,,63d166c1300217760a719112,14:20:13,06/03/2024
10780.799999952316,"<div class = 'left_align' style='font-size: 3.25rem; line-height: 1.3;'>On the feedback screen, if you are not doing well at the symmetry judgments,<br>you will also see a warning in the middle. This indicates your percent <br>correct for the grid pictures for the entire experiment.<br><br>It is <b>very</b> important for you to keep accuracy at least at 85%: <u>We can only use<br>data where the participant was at least 85% accurate on the judgments.</u> Therefore,<br> please try your best to perform well on the symmetry judgments, <b>at the same time</b><br>doing your best to recall as many letters as possible.<br><br>Click the button to try some practice problems.</div><br><br><br><br>",0,ospan,instruct,Z8t2AtTxsrWLqtUy88o8DBvGDDk1,html-button-response,78,526040,0.0-43.0-2.0-0.0-2.0,,,,,,,,,,,,,,,63d166c1300217760a719112,14:20:13,06/03/2024
,"<p style=""font-size:75px;"">...</p>",,ospan,iti,Z8t2AtTxsrWLqtUy88o8DBvGDDk1,html-keyboard-response,79,527322,0.0-43.0-2.0-1.0-0.0,,,,,,,,,,,,,,,63d166c1300217760a719112,14:20:13,06/03/2024
1466.0,,,ospan,symmetry,Z8t2AtTxsrWLqtUy88o8DBvGDDk1,symmetry-judgement-task,80,530321,0.0-43.0-2.0-1.0-1.0-0.0,,,,,,,,,,1.0,1.0,,,,63d166c1300217760a719112,14:20:13,06/03/2024
,"<div style=""font-size: 10rem; color: #0000FF"">S</div>",,ospan,letter,Z8t2AtTxsrWLqtUy88o8DBvGDDk1,html-keyboard-response,81,531329,0.0-43.0-2.0-1.0-1.0-1.0,,,,,,,,,,,,,,,63d166c1300217760a719112,14:20:13,06/03/2024
1377.0,,,ospan,symmetry,Z8t2AtTxsrWLqtUy88o8DBvGDDk1,symmetry-judgement-task,82,534979,0.0-43.0-2.0-1.0-1.0-2.0,,,,,,,,,,1.0,1.0,,,,63d166c1300217760a719112,14:20:13,06/03/2024
,"<div style=""font-size: 10rem; color: #0000FF"">R</div>",,ospan,letter,Z8t2AtTxsrWLqtUy88o8DBvGDDk1,html-keyboard-response,83,535994,0.0-43.0-2.0-1.0-1.0-3.0,,,,,,,,,,,,,,,63d166c1300217760a719112,14:20:13,06/03/2024
1616.0,,,ospan,symmetry,Z8t2AtTxsrWLqtUy88o8DBvGDDk1,symmetry-judgement-task,84,539836,0.0-43.0-2.0-1.0-1.0-4.0,,,,,,,,,,1.0,1.0,,,,63d166c1300217760a719112,14:20:13,06/03/2024
,"<div style=""font-size: 10rem; color: #0000FF"">C</div>",,ospan,letter,Z8t2AtTxsrWLqtUy88o8DBvGDDk1,html-keyboard-response,85,540853,0.0-43.0-2.0-1.0-1.0-5.0,,,,,,,,,,,,,,,63d166c1300217760a719112,14:20:13,06/03/2024
4768.0,"<div class = numbox><p style=""font-size: 2.4rem"">Please recall the letters you saw to the best of your ability. If you do not remember a particular letter, use the SKIP button.<br><b>(When you are ready to lock in your answer, press ENTER)</b></p><button id = button_1 class = ""square num-button"" onclick = ""recordClick(this)""><div class = content><div class = numbers>C</div></div></button><button id = button_2 class = ""square num-button"" onclick = ""recordClick(this)""><div class = content><div class = numbers>G</div></div></button><button id = button_3 class = ""square num-button"" onclick = ""recordClick(this)""><div class = content><div class = numbers>H</div></div></button><button id = button_4 class = ""square num-button"" onclick = ""recordClick(this)""><div class = content><div class = numbers>J</div></div></button><button id = button_5 class = ""square num-button"" onclick = ""recordClick(this)""><div class = content><div class = numbers>K</div></div></button><button id = button_6 class = ""square num-button"" onclick = ""recordClick(this)""><div class = content><div class = numbers>L</div></div></button><button id = button_7 class = ""square num-button"" onclick = ""recordClick(this)""><div class = content><div class = numbers>N</div></div></button><button id = button_8 class = ""square num-button"" onclick = ""recordClick(this)""><div class = content><div class = numbers>P</div></div></button><button id = button_9 class = ""square num-button"" onclick = ""recordClick(this)""><div class = content><div class = numbers>Q</div></div></button><button id = button_10 class = ""square num-button"" onclick = ""recordClick(this)""><div class = content><div class = numbers>R</div></div></button><button id = button_11 class = ""square num-button"" onclick = ""recordClick(this)""><div class = content><div class = numbers>S</div></div></button><button id = button_12 class = ""square num-button"" onclick = ""recordClick(this)""><div class = content><div class = numbers>Y</div></div></button><button class = clear_button id = ""ClearButton"" onclick = ""clearResponse()"">BACKSPACE</button><button class = blank_button id = ""BlankButton"" onclick = ""blankResponse()"">SKIP</button><p style=""font-size: 2.4rem""><u><b>Current Answer:</b></u></p><br><br><div id=echoed_txt style=""font-size: 5rem; color:blue;""><b></b></div></div>",enter,ospan,retrieval,Z8t2AtTxsrWLqtUy88o8DBvGDDk1,html-keyboard-response,86,546387,0.0-43.0-2.0-1.0-2.0-0.0,NA,NA,NA,3.0,"[""S"",""R"",""C""]","[""S"",""R"",""C""]",1.0,3.0,"['<font color=""green"">S</font>', '<font color=""green"">R</font>', '<font color=""green"">C</font>']",,,,,,63d166c1300217760a719112,14:20:13,06/03/2024
2431.899999976158,"['<p style=""font-size:44px"">Letters:<br><br><br><font color=""green"">S</font> <font color=""green"">R</font> <font color=""green"">C</font></p><br><br><p style=""font-size:30px"">Symmetry:<br><br><font color=""green"">100%</font></p><br><br>']",0,ospan,practice_feedback,Z8t2AtTxsrWLqtUy88o8DBvGDDk1,html-button-response,87,549332,0.0-43.0-2.0-1.0-2.0-1.0,,,,,,,,,,,,,,,63d166c1300217760a719112,14:20:13,06/03/2024
,"<p style=""font-size:75px;"">...</p>",,ospan,iti,Z8t2AtTxsrWLqtUy88o8DBvGDDk1,html-keyboard-response,88,550347,0.0-43.0-2.0-2.0-0.0,,,,,,,,,,,,,,,63d166c1300217760a719112,14:20:13,06/03/2024
1907.0,,,ospan,symmetry,Z8t2AtTxsrWLqtUy88o8DBvGDDk1,symmetry-judgement-task,89,553917,0.0-43.0-2.0-2.0-1.0-0.0,,,,,,,,,,1.0,1.0,,,,63d166c1300217760a719112,14:20:13,06/03/2024
,"<div style=""font-size: 10rem; color: #0000FF"">S</div>",,ospan,letter,Z8t2AtTxsrWLqtUy88o8DBvGDDk1,html-keyboard-response,90,554930,0.0-43.0-2.0-2.0-1.0-1.0,,,,,,,,,,,,,,,63d166c1300217760a719112,14:20:13,06/03/2024
1313.0,,,ospan,symmetry,Z8t2AtTxsrWLqtUy88o8DBvGDDk1,symmetry-judgement-task,91,559373,0.0-43.0-2.0-2.0-1.0-2.0,,,,,,,,,,1.0,1.0,,,,63d166c1300217760a719112,14:20:13,06/03/2024
,"<div style=""font-size: 10rem; color: #0000FF"">G</div>",,ospan,letter,Z8t2AtTxsrWLqtUy88o8DBvGDDk1,html-keyboard-response,92,560390,0.0-43.0-2.0-2.0-1.0-3.0,,,,,,,,,,,,,,,63d166c1300217760a719112,14:20:13,06/03/2024
2866.0,,,ospan,symmetry,Z8t2AtTxsrWLqtUy88o8DBvGDDk1,symmetry-judgement-task,93,565486,0.0-43.0-2.0-2.0-1.0-4.0,,,,,,,,,,1.0,1.0,,,,63d166c1300217760a719112,14:20:13,06/03/2024
,"<div style=""font-size: 10rem; color: #0000FF"">P</div>",,ospan,letter,Z8t2AtTxsrWLqtUy88o8DBvGDDk1,html-keyboard-response,94,566505,0.0-43.0-2.0-2.0-1.0-5.0,,,,,,,,,,,,,,,63d166c1300217760a719112,14:20:13,06/03/2024
4317.700000047684,"<div class = numbox><p style=""font-size: 2.4rem"">Please recall the letters you saw to the best of your ability. If you do not remember a particular letter, use the SKIP button.<br><b>(When you are ready to lock in your answer, press ENTER)</b></p><button id = button_1 class = ""square num-button"" onclick = ""recordClick(this)""><div class = content><div class = numbers>C</div></div></button><button id = button_2 class = ""square num-button"" onclick = ""recordClick(this)""><div class = content><div class = numbers>G</div></div></button><button id = button_3 class = ""square num-button"" onclick = ""recordClick(this)""><div class = content><div class = numbers>H</div></div></button><button id = button_4 class = ""square num-button"" onclick = ""recordClick(this)""><div class = content><div class = numbers>J</div></div></button><button id = button_5 class = ""square num-button"" onclick = ""recordClick(this)""><div class = content><div class = numbers>K</div></div></button><button id = button_6 class = ""square num-button"" onclick = ""recordClick(this)""><div class = content><div class = numbers>L</div></div></button><button id = button_7 class = ""square num-button"" onclick = ""recordClick(this)""><div class = content><div class = numbers>N</div></div></button><button id = button_8 class = ""square num-button"" onclick = ""recordClick(this)""><div class = content><div class = numbers>P</div></div></button><button id = button_9 class = ""square num-button"" onclick = ""recordClick(this)""><div class = content><div class = numbers>Q</div></div></button><button id = button_10 class = ""square num-button"" onclick = ""recordClick(this)""><div class = content><div class = numbers>R</div></div></button><button id = button_11 class = ""square num-button"" onclick = ""recordClick(this)""><div class = content><div class = numbers>S</div></div></button><button id = button_12 class = ""square num-button"" onclick = ""recordClick(this)""><div class = content><div class = numbers>Y</div></div></button><button class = clear_button id = ""ClearButton"" onclick = ""clearResponse()"">BACKSPACE</button><button class = blank_button id = ""BlankButton"" onclick = ""blankResponse()"">SKIP</button><p style=""font-size: 2.4rem""><u><b>Current Answer:</b></u></p><br><br><div id=echoed_txt style=""font-size: 5rem; color:blue;""><b></b></div></div>",enter,ospan,retrieval,Z8t2AtTxsrWLqtUy88o8DBvGDDk1,html-keyboard-response,95,571584,0.0-43.0-2.0-2.0-2.0-0.0,NA,NA,NA,3.0,"[""S"",""G"",""P""]","[""S"",""G"",""P""]",1.0,3.0,"['<font color=""green"">S</font>', '<font color=""green"">G</font>', '<font color=""green"">P</font>']",,,,,,63d166c1300217760a719112,14:20:13,06/03/2024
1364.2000000476837,"['<p style=""font-size:44px"">Letters:<br><br><br><font color=""green"">S</font> <font color=""green"">G</font> <font color=""green"">P</font></p><br><br><p style=""font-size:30px"">Symmetry:<br><br><font color=""green"">100%</font></p><br><br>']",0,ospan,practice_feedback,Z8t2AtTxsrWLqtUy88o8DBvGDDk1,html-button-response,96,573467,0.0-43.0-2.0-2.0-2.0-1.0,,,,,,,,,,,,,,,63d166c1300217760a719112,14:20:13,06/03/2024
11915.899999976158,"<div class = 'left_align' style='font-size: 3rem; line-height: 1.3;'><b>Great work! That is the end of practice.</b><br><br>The real trials will look just like the practice trials you just completed.<br><br><u>Here, you will not see feedback</u>. First, you will see an grid picture to judge,<br>then a letter to remember. When the recall screen appears, report the letters in the<br>order presented. If you forget a letter, remember to use the <b>blank</b> button to move to the<br>next letter. Some of the sets will have more symmetry grids and letters than others.<br><br>It is important that you do your best on both the symmetry judgments and the letter recall<br>parts of the experiment. For for the symmetry judgments, try to work as <b>quickly</b> and <br>as <b>accurately</b> as possible. Remember to keep your symmetry accuracy at 85% or above.<br><br><b>For the letters, do NOT use any external aid (e.g., writing on paper, electronic device).</b><br><br>It is <u>very important</u> to our experiment to have a <b>true</b> view of your real performance.<br><br>Do not worry if you miss some when it gets hard! This task is meant to be very challenging!<br><br>Click the button to begin.</div><br><br><br><br>",0,ospan,starting_real_here,Z8t2AtTxsrWLqtUy88o8DBvGDDk1,html-button-response,97,585389,0.0-43.0-2.0-3.0,,,,,,,,,,,,,,,63d166c1300217760a719112,14:20:13,06/03/2024
,"<p style=""font-size:75px;"">...</p>",,ospan,iti,Z8t2AtTxsrWLqtUy88o8DBvGDDk1,html-keyboard-response,98,586668,0.0-43.0-3.0-0.0-0.0,,,,,,,,,,,,,,,63d166c1300217760a719112,14:20:13,06/03/2024
1444.0,,,ospan,symmetry,Z8t2AtTxsrWLqtUy88o8DBvGDDk1,symmetry-judgement-task,99,589658,0.0-43.0-3.0-0.0-1.0-0.0,,,,,,,,,,1.0,1.0,,,,63d166c1300217760a719112,14:20:13,06/03/2024
,"<div style=""font-size: 10rem; color: #0000FF"">K</div>",,ospan,letter,Z8t2AtTxsrWLqtUy88o8DBvGDDk1,html-keyboard-response,100,590673,0.0-43.0-3.0-0.0-1.0-1.0,,,,,,,,,,,,,,,63d166c1300217760a719112,14:20:13,06/03/2024
1209.0,,,ospan,symmetry,Z8t2AtTxsrWLqtUy88o8DBvGDDk1,symmetry-judgement-task,101,594074,0.0-43.0-3.0-0.0-1.0-2.0,,,,,,,,,,1.0,1.0,,,,63d166c1300217760a719112,14:20:13,06/03/2024
,"<div style=""font-size: 10rem; color: #0000FF"">N</div>",,ospan,letter,Z8t2AtTxsrWLqtUy88o8DBvGDDk1,html-keyboard-response,102,595094,0.0-43.0-3.0-0.0-1.0-3.0,,,,,,,,,,,,,,,63d166c1300217760a719112,14:20:13,06/03/2024
2194.0,,,ospan,symmetry,Z8t2AtTxsrWLqtUy88o8DBvGDDk1,symmetry-judgement-task,103,599693,0.0-43.0-3.0-0.0-1.0-4.0,,,,,,,,,,1.0,1.0,,,,63d166c1300217760a719112,14:20:13,06/03/2024
,"<div style=""font-size: 10rem; color: #0000FF"">L</div>",,ospan,letter,Z8t2AtTxsrWLqtUy88o8DBvGDDk1,html-keyboard-response,104,600707,0.0-43.0-3.0-0.0-1.0-5.0,,,,,,,,,,,,,,,63d166c1300217760a719112,14:20:13,06/03/2024
4571.600000023842,"<div class = numbox><p style=""font-size: 2.4rem"">Please recall the letters you saw to the best of your ability. If you do not remember a particular letter, use the SKIP button.<br><b>(When you are ready to lock in your answer, press ENTER)</b></p><button id = button_1 class = ""square num-button"" onclick = ""recordClick(this)""><div class = content><div class = numbers>C</div></div></button><button id = button_2 class = ""square num-button"" onclick = ""recordClick(this)""><div class = content><div class = numbers>G</div></div></button><button id = button_3 class = ""square num-button"" onclick = ""recordClick(this)""><div class = content><div class = numbers>H</div></div></button><button id = button_4 class = ""square num-button"" onclick = ""recordClick(this)""><div class = content><div class = numbers>J</div></div></button><button id = button_5 class = ""square num-button"" onclick = ""recordClick(this)""><div class = content><div class = numbers>K</div></div></button><button id = button_6 class = ""square num-button"" onclick = ""recordClick(this)""><div class = content><div class = numbers>L</div></div></button><button id = button_7 class = ""square num-button"" onclick = ""recordClick(this)""><div class = content><div class = numbers>N</div></div></button><button id = button_8 class = ""square num-button"" onclick = ""recordClick(this)""><div class = content><div class = numbers>P</div></div></button><button id = button_9 class = ""square num-button"" onclick = ""recordClick(this)""><div class = content><div class = numbers>Q</div></div></button><button id = button_10 class = ""square num-button"" onclick = ""recordClick(this)""><div class = content><div class = numbers>R</div></div></button><button id = button_11 class = ""square num-button"" onclick = ""recordClick(this)""><div class = content><div class = numbers>S</div></div></button><button id = button_12 class = ""square num-button"" onclick = ""recordClick(this)""><div class = content><div class = numbers>Y</div></div></button><button class = clear_button id = ""ClearButton"" onclick = ""clearResponse()"">BACKSPACE</button><button class = blank_button id = ""BlankButton"" onclick = ""blankResponse()"">SKIP</button><p style=""font-size: 2.4rem""><u><b>Current Answer:</b></u></p><br><br><div id=echoed_txt style=""font-size: 5rem; color:blue;""><b></b></div></div>",enter,ospan,retrieval,Z8t2AtTxsrWLqtUy88o8DBvGDDk1,html-keyboard-response,105,606044,0.0-43.0-3.0-0.0-2.0,3,3,3,3.0,"[""K"",""N"",""L""]","[""K"",""N"",""L""]",1.0,3.0,,,,,,,63d166c1300217760a719112,14:20:13,06/03/2024
1722.8000000715256,[''],0,ospan,feedback,Z8t2AtTxsrWLqtUy88o8DBvGDDk1,html-button-response,106,608280,0.0-43.0-3.0-0.0-3.0,,,,,,,,,,,,100.0,0.0,,63d166c1300217760a719112,14:20:13,06/03/2024
,"<p style=""font-size:75px;"">...</p>",,ospan,iti,Z8t2AtTxsrWLqtUy88o8DBvGDDk1,html-keyboard-response,107,609297,0.0-43.0-4.0-0.0-0.0,,,,,,,,,,,,,,,63d166c1300217760a719112,14:20:13,06/03/2024
1652.0,,,ospan,symmetry,Z8t2AtTxsrWLqtUy88o8DBvGDDk1,symmetry-judgement-task,108,612437,0.0-43.0-4.0-0.0-1.0-0.0,,,,,,,,,,1.0,1.0,,,,63d166c1300217760a719112,14:20:13,06/03/2024
,"<div style=""font-size: 10rem; color: #0000FF"">H</div>",,ospan,letter,Z8t2AtTxsrWLqtUy88o8DBvGDDk1,html-keyboard-response,109,613444,0.0-43.0-4.0-0.0-1.0-1.0,,,,,,,,,,,,,,,63d166c1300217760a719112,14:20:13,06/03/2024
2731.0,,,ospan,symmetry,Z8t2AtTxsrWLqtUy88o8DBvGDDk1,symmetry-judgement-task,110,618912,0.0-43.0-4.0-0.0-1.0-2.0,,,,,,,,,,1.0,1.0,,,,63d166c1300217760a719112,14:20:13,06/03/2024
,"<div style=""font-size: 10rem; color: #0000FF"">S</div>",,ospan,letter,Z8t2AtTxsrWLqtUy88o8DBvGDDk1,html-keyboard-response,111,619929,0.0-43.0-4.0-0.0-1.0-3.0,,,,,,,,,,,,,,,63d166c1300217760a719112,14:20:13,06/03/2024
1902.0,,,ospan,symmetry,Z8t2AtTxsrWLqtUy88o8DBvGDDk1,symmetry-judgement-task,112,624186,0.0-43.0-4.0-0.0-1.0-4.0,,,,,,,,,,1.0,1.0,,,,63d166c1300217760a719112,14:20:13,06/03/2024
,"<div style=""font-size: 10rem; color: #0000FF"">J</div>",,ospan,letter,Z8t2AtTxsrWLqtUy88o8DBvGDDk1,html-keyboard-response,113,625192,0.0-43.0-4.0-0.0-1.0-5.0,,,,,,,,,,,,,,,63d166c1300217760a719112,14:20:13,06/03/2024
2223.0,,,ospan,symmetry,Z8t2AtTxsrWLqtUy88o8DBvGDDk1,symmetry-judgement-task,114,630036,0.0-43.0-4.0-0.0-1.0-6.0,,,,,,,,,,1.0,1.0,,,,63d166c1300217760a719112,14:20:13,06/03/2024
,"<div style=""font-size: 10rem; color: #0000FF"">P</div>",,ospan,letter,Z8t2AtTxsrWLqtUy88o8DBvGDDk1,html-keyboard-response,115,631041,0.0-43.0-4.0-0.0-1.0-7.0,,,,,,,,,,,,,,,63d166c1300217760a719112,14:20:13,06/03/2024
5709.799999952316,"<div class = numbox><p style=""font-size: 2.4rem"">Please recall the letters you saw to the best of your ability. If you do not remember a particular letter, use the SKIP button.<br><b>(When you are ready to lock in your answer, press ENTER)</b></p><button id = button_1 class = ""square num-button"" onclick = ""recordClick(this)""><div class = content><div class = numbers>C</div></div></button><button id = button_2 class = ""square num-button"" onclick = ""recordClick(this)""><div class = content><div class = numbers>G</div></div></button><button id = button_3 class = ""square num-button"" onclick = ""recordClick(this)""><div class = content><div class = numbers>H</div></div></button><button id = button_4 class = ""square num-button"" onclick = ""recordClick(this)""><div class = content><div class = numbers>J</div></div></button><button id = button_5 class = ""square num-button"" onclick = ""recordClick(this)""><div class = content><div class = numbers>K</div></div></button><button id = button_6 class = ""square num-button"" onclick = ""recordClick(this)""><div class = content><div class = numbers>L</div></div></button><button id = button_7 class = ""square num-button"" onclick = ""recordClick(this)""><div class = content><div class = numbers>N</div></div></button><button id = button_8 class = ""square num-button"" onclick = ""recordClick(this)""><div class = content><div class = numbers>P</div></div></button><button id = button_9 class = ""square num-button"" onclick = ""recordClick(this)""><div class = content><div class = numbers>Q</div></div></button><button id = button_10 class = ""square num-button"" onclick = ""recordClick(this)""><div class = content><div class = numbers>R</div></div></button><button id = button_11 class = ""square num-button"" onclick = ""recordClick(this)""><div class = content><div class = numbers>S</div></div></button><button id = button_12 class = ""square num-button"" onclick = ""recordClick(this)""><div class = content><div class = numbers>Y</div></div></button><button class = clear_button id = ""ClearButton"" onclick = ""clearResponse()"">BACKSPACE</button><button class = blank_button id = ""BlankButton"" onclick = ""blankResponse()"">SKIP</button><p style=""font-size: 2.4rem""><u><b>Current Answer:</b></u></p><br><br><div id=echoed_txt style=""font-size: 5rem; color:blue;""><b></b></div></div>",enter,ospan,retrieval,Z8t2AtTxsrWLqtUy88o8DBvGDDk1,html-keyboard-response,116,637521,0.0-43.0-4.0-0.0-2.0,7,7,7,4.0,"[""H"",""S"",""J"",""P""]","[""H"",""S"",""J"",""P""]",1.0,4.0,,,,,,,63d166c1300217760a719112,14:20:13,06/03/2024
854.2999999523163,[''],0,ospan,feedback,Z8t2AtTxsrWLqtUy88o8DBvGDDk1,html-button-response,117,638883,0.0-43.0-4.0-0.0-3.0,,,,,,,,,,,,100.0,0.0,,63d166c1300217760a719112,14:20:13,06/03/2024
,"<p style=""font-size:75px;"">...</p>",,ospan,iti,Z8t2AtTxsrWLqtUy88o8DBvGDDk1,html-keyboard-response,118,639892,0.0-43.0-4.0-1.0-0.0,,,,,,,,,,,,,,,63d166c1300217760a719112,14:20:13,06/03/2024
1782.0,,,ospan,symmetry,Z8t2AtTxsrWLqtUy88o8DBvGDDk1,symmetry-judgement-task,119,642971,0.0-43.0-4.0-1.0-1.0-0.0,,,,,,,,,,1.0,1.0,,,,63d166c1300217760a719112,14:20:13,06/03/2024
,"<div style=""font-size: 10rem; color: #0000FF"">G</div>",,ospan,letter,Z8t2AtTxsrWLqtUy88o8DBvGDDk1,html-keyboard-response,120,643976,0.0-43.0-4.0-1.0-1.0-1.0,,,,,,,,,,,,,,,63d166c1300217760a719112,14:20:13,06/03/2024
1491.0,,,ospan,symmetry,Z8t2AtTxsrWLqtUy88o8DBvGDDk1,symmetry-judgement-task,121,648027,0.0-43.0-4.0-1.0-1.0-2.0,,,,,,,,,,1.0,1.0,,,,63d166c1300217760a719112,14:20:13,06/03/2024
,"<div style=""font-size: 10rem; color: #0000FF"">P</div>",,ospan,letter,Z8t2AtTxsrWLqtUy88o8DBvGDDk1,html-keyboard-response,122,649043,0.0-43.0-4.0-1.0-1.0-3.0,,,,,,,,,,,,,,,63d166c1300217760a719112,14:20:13,06/03/2024
2004.0,,,ospan,symmetry,Z8t2AtTxsrWLqtUy88o8DBvGDDk1,symmetry-judgement-task,123,654034,0.0-43.0-4.0-1.0-1.0-4.0,,,,,,,,,,1.0,1.0,,,,63d166c1300217760a719112,14:20:13,06/03/2024
,"<div style=""font-size: 10rem; color: #0000FF"">Y</div>",,ospan,letter,Z8t2AtTxsrWLqtUy88o8DBvGDDk1,html-keyboard-response,124,655054,0.0-43.0-4.0-1.0-1.0-5.0,,,,,,,,,,,,,,,63d166c1300217760a719112,14:20:13,06/03/2024
1488.0,,,ospan,symmetry,Z8t2AtTxsrWLqtUy88o8DBvGDDk1,symmetry-judgement-task,125,658954,0.0-43.0-4.0-1.0-1.0-6.0,,,,,,,,,,1.0,1.0,,,,63d166c1300217760a719112,14:20:13,06/03/2024
,"<div style=""font-size: 10rem; color: #0000FF"">L</div>",,ospan,letter,Z8t2AtTxsrWLqtUy88o8DBvGDDk1,html-keyboard-response,126,659957,0.0-43.0-4.0-1.0-1.0-7.0,,,,,,,,,,,,,,,63d166c1300217760a719112,14:20:13,06/03/2024
1529.0,,,ospan,symmetry,Z8t2AtTxsrWLqtUy88o8DBvGDDk1,symmetry-judgement-task,127,663877,0.0-43.0-4.0-1.0-1.0-8.0,,,,,,,,,,1.0,1.0,,,,63d166c1300217760a719112,14:20:13,06/03/2024
,"<div style=""font-size: 10rem; color: #0000FF"">R</div>",,ospan,letter,Z8t2AtTxsrWLqtUy88o8DBvGDDk1,html-keyboard-response,128,664882,0.0-43.0-4.0-1.0-1.0-9.0,,,,,,,,,,,,,,,63d166c1300217760a719112,14:20:13,06/03/2024
7759.600000023842,"<div class = numbox><p style=""font-size: 2.4rem"">Please recall the letters you saw to the best of your ability. If you do not remember a particular letter, use the SKIP button.<br><b>(When you are ready to lock in your answer, press ENTER)</b></p><button id = button_1 class = ""square num-button"" onclick = ""recordClick(this)""><div class = content><div class = numbers>C</div></div></button><button id = button_2 class = ""square num-button"" onclick = ""recordClick(this)""><div class = content><div class = numbers>G</div></div></button><button id = button_3 class = ""square num-button"" onclick = ""recordClick(this)""><div class = content><div class = numbers>H</div></div></button><button id = button_4 class = ""square num-button"" onclick = ""recordClick(this)""><div class = content><div class = numbers>J</div></div></button><button id = button_5 class = ""square num-button"" onclick = ""recordClick(this)""><div class = content><div class = numbers>K</div></div></button><button id = button_6 class = ""square num-button"" onclick = ""recordClick(this)""><div class = content><div class = numbers>L</div></div></button><button id = button_7 class = ""square num-button"" onclick = ""recordClick(this)""><div class = content><div class = numbers>N</div></div></button><button id = button_8 class = ""square num-button"" onclick = ""recordClick(this)""><div class = content><div class = numbers>P</div></div></button><button id = button_9 class = ""square num-button"" onclick = ""recordClick(this)""><div class = content><div class = numbers>Q</div></div></button><button id = button_10 class = ""square num-button"" onclick = ""recordClick(this)""><div class = content><div class = numbers>R</div></div></button><button id = button_11 class = ""square num-button"" onclick = ""recordClick(this)""><div class = content><div class = numbers>S</div></div></button><button id = button_12 class = ""square num-button"" onclick = ""recordClick(this)""><div class = content><div class = numbers>Y</div></div></button><button class = clear_button id = ""ClearButton"" onclick = ""clearResponse()"">BACKSPACE</button><button class = blank_button id = ""BlankButton"" onclick = ""blankResponse()"">SKIP</button><p style=""font-size: 2.4rem""><u><b>Current Answer:</b></u></p><br><br><div id=echoed_txt style=""font-size: 5rem; color:blue;""><b></b></div></div>",enter,ospan,retrieval,Z8t2AtTxsrWLqtUy88o8DBvGDDk1,html-keyboard-response,129,673408,0.0-43.0-4.0-1.0-2.0,12,12,12,5.0,"[""G"",""P"",""Y"",""L"",""R""]","[""G"",""P"",""Y"",""L"",""R""]",1.0,5.0,,,,,,,63d166c1300217760a719112,14:20:13,06/03/2024
1425.8999999761581,[''],0,ospan,feedback,Z8t2AtTxsrWLqtUy88o8DBvGDDk1,html-button-response,130,675353,0.0-43.0-4.0-1.0-3.0,,,,,,,,,,,,100.0,0.0,,63d166c1300217760a719112,14:20:13,06/03/2024
,"<p style=""font-size:75px;"">...</p>",,ospan,iti,Z8t2AtTxsrWLqtUy88o8DBvGDDk1,html-keyboard-response,131,676366,0.0-43.0-4.0-2.0-0.0,,,,,,,,,,,,,,,63d166c1300217760a719112,14:20:13,06/03/2024
1525.0,,,ospan,symmetry,Z8t2AtTxsrWLqtUy88o8DBvGDDk1,symmetry-judgement-task,132,679405,0.0-43.0-4.0-2.0-1.0-0.0,,,,,,,,,,1.0,1.0,,,,63d166c1300217760a719112,14:20:13,06/03/2024
,"<div style=""font-size: 10rem; color: #0000FF"">G</div>",,ospan,letter,Z8t2AtTxsrWLqtUy88o8DBvGDDk1,html-keyboard-response,133,680417,0.0-43.0-4.0-2.0-1.0-1.0,,,,,,,,,,,,,,,63d166c1300217760a719112,14:20:13,06/03/2024
3792.0,,,ospan,symmetry,Z8t2AtTxsrWLqtUy88o8DBvGDDk1,symmetry-judgement-task,134,686489,0.0-43.0-4.0-2.0-1.0-2.0,,,,,,,,,,1.0,1.0,,,,63d166c1300217760a719112,14:20:13,06/03/2024
,"<div style=""font-size: 10rem; color: #0000FF"">H</div>",,ospan,letter,Z8t2AtTxsrWLqtUy88o8DBvGDDk1,html-keyboard-response,135,687504,0.0-43.0-4.0-2.0-1.0-3.0,,,,,,,,,,,,,,,63d166c1300217760a719112,14:20:13,06/03/2024
1540.0,,,ospan,symmetry,Z8t2AtTxsrWLqtUy88o8DBvGDDk1,symmetry-judgement-task,136,691768,0.0-43.0-4.0-2.0-1.0-4.0,,,,,,,,,,1.0,1.0,,,,63d166c1300217760a719112,14:20:13,06/03/2024
,"<div style=""font-size: 10rem; color: #0000FF"">C</div>",,ospan,letter,Z8t2AtTxsrWLqtUy88o8DBvGDDk1,html-keyboard-response,137,692782,0.0-43.0-4.0-2.0-1.0-5.0,,,,,,,,,,,,,,,63d166c1300217760a719112,14:20:13,06/03/2024
5726.100000023842,"<div class = numbox><p style=""font-size: 2.4rem"">Please recall the letters you saw to the best of your ability. If you do not remember a particular letter, use the SKIP button.<br><b>(When you are ready to lock in your answer, press ENTER)</b></p><button id = button_1 class = ""square num-button"" onclick = ""recordClick(this)""><div class = content><div class = numbers>C</div></div></button><button id = button_2 class = ""square num-button"" onclick = ""recordClick(this)""><div class = content><div class = numbers>G</div></div></button><button id = button_3 class = ""square num-button"" onclick = ""recordClick(this)""><div class = content><div class = numbers>H</div></div></button><button id = button_4 class = ""square num-button"" onclick = ""recordClick(this)""><div class = content><div class = numbers>J</div></div></button><button id = button_5 class = ""square num-button"" onclick = ""recordClick(this)""><div class = content><div class = numbers>K</div></div></button><button id = button_6 class = ""square num-button"" onclick = ""recordClick(this)""><div class = content><div class = numbers>L</div></div></button><button id = button_7 class = ""square num-button"" onclick = ""recordClick(this)""><div class = content><div class = numbers>N</div></div></button><button id = button_8 class = ""square num-button"" onclick = ""recordClick(this)""><div class = content><div class = numbers>P</div></div></button><button id = button_9 class = ""square num-button"" onclick = ""recordClick(this)""><div class = content><div class = numbers>Q</div></div></button><button id = button_10 class = ""square num-button"" onclick = ""recordClick(this)""><div class = content><div class = numbers>R</div></div></button><button id = button_11 class = ""square num-button"" onclick = ""recordClick(this)""><div class = content><div class = numbers>S</div></div></button><button id = button_12 class = ""square num-button"" onclick = ""recordClick(this)""><div class = content><div class = numbers>Y</div></div></button><button class = clear_button id = ""ClearButton"" onclick = ""clearResponse()"">BACKSPACE</button><button class = blank_button id = ""BlankButton"" onclick = ""blankResponse()"">SKIP</button><p style=""font-size: 2.4rem""><u><b>Current Answer:</b></u></p><br><br><div id=echoed_txt style=""font-size: 5rem; color:blue;""><b></b></div></div>",enter,ospan,retrieval,Z8t2AtTxsrWLqtUy88o8DBvGDDk1,html-keyboard-response,138,699266,0.0-43.0-4.0-2.0-2.0,15,15,15,3.0,"[""G"",""H"",""C""]","[""G"",""H"",""C""]",1.0,3.0,,,,,,,63d166c1300217760a719112,14:20:13,06/03/2024
954.2000000476837,[''],0,ospan,feedback,Z8t2AtTxsrWLqtUy88o8DBvGDDk1,html-button-response,139,700738,0.0-43.0-4.0-2.0-3.0,,,,,,,,,,,,100.0,0.0,,63d166c1300217760a719112,14:20:13,06/03/2024
,"<p style=""font-size:75px;"">...</p>",,ospan,iti,Z8t2AtTxsrWLqtUy88o8DBvGDDk1,html-keyboard-response,140,701752,0.0-43.0-5.0-0.0-0.0,,,,,,,,,,,,,,,63d166c1300217760a719112,14:20:13,06/03/2024
2666.0,,,ospan,symmetry,Z8t2AtTxsrWLqtUy88o8DBvGDDk1,symmetry-judgement-task,141,705854,0.0-43.0-5.0-0.0-1.0-0.0,,,,,,,,,,1.0,1.0,,,,63d166c1300217760a719112,14:20:13,06/03/2024
,"<div style=""font-size: 10rem; color: #0000FF"">S</div>",,ospan,letter,Z8t2AtTxsrWLqtUy88o8DBvGDDk1,html-keyboard-response,142,706860,0.0-43.0-5.0-0.0-1.0-1.0,,,,,,,,,,,,,,,63d166c1300217760a719112,14:20:13,06/03/2024
3414.0,,,ospan,symmetry,Z8t2AtTxsrWLqtUy88o8DBvGDDk1,symmetry-judgement-task,143,712694,0.0-43.0-5.0-0.0-1.0-2.0,,,,,,,,,,1.0,1.0,,,,63d166c1300217760a719112,14:20:13,06/03/2024
,"<div style=""font-size: 10rem; color: #0000FF"">K</div>",,ospan,letter,Z8t2AtTxsrWLqtUy88o8DBvGDDk1,html-keyboard-response,144,713707,0.0-43.0-5.0-0.0-1.0-3.0,,,,,,,,,,,,,,,63d166c1300217760a719112,14:20:13,06/03/2024
1262.0,,,ospan,symmetry,Z8t2AtTxsrWLqtUy88o8DBvGDDk1,symmetry-judgement-task,145,717642,0.0-43.0-5.0-0.0-1.0-4.0,,,,,,,,,,1.0,1.0,,,,63d166c1300217760a719112,14:20:13,06/03/2024
,"<div style=""font-size: 10rem; color: #0000FF"">L</div>",,ospan,letter,Z8t2AtTxsrWLqtUy88o8DBvGDDk1,html-keyboard-response,146,718647,0.0-43.0-5.0-0.0-1.0-5.0,,,,,,,,,,,,,,,63d166c1300217760a719112,14:20:13,06/03/2024
1409.0,,,ospan,symmetry,Z8t2AtTxsrWLqtUy88o8DBvGDDk1,symmetry-judgement-task,147,722446,0.0-43.0-5.0-0.0-1.0-6.0,,,,,,,,,,1.0,1.0,,,,63d166c1300217760a719112,14:20:13,06/03/2024
,"<div style=""font-size: 10rem; color: #0000FF"">P</div>",,ospan,letter,Z8t2AtTxsrWLqtUy88o8DBvGDDk1,html-keyboard-response,148,723451,0.0-43.0-5.0-0.0-1.0-7.0,,,,,,,,,,,,,,,63d166c1300217760a719112,14:20:13,06/03/2024
1847.0,,,ospan,symmetry,Z8t2AtTxsrWLqtUy88o8DBvGDDk1,symmetry-judgement-task,149,727998,0.0-43.0-5.0-0.0-1.0-8.0,,,,,,,,,,1.0,1.0,,,,63d166c1300217760a719112,14:20:13,06/03/2024
,"<div style=""font-size: 10rem; color: #0000FF"">G</div>",,ospan,letter,Z8t2AtTxsrWLqtUy88o8DBvGDDk1,html-keyboard-response,150,729018,0.0-43.0-5.0-0.0-1.0-9.0,,,,,,,,,,,,,,,63d166c1300217760a719112,14:20:13,06/03/2024
1263.0,,,ospan,symmetry,Z8t2AtTxsrWLqtUy88o8DBvGDDk1,symmetry-judgement-task,151,732553,0.0-43.0-5.0-0.0-1.0-10.0,,,,,,,,,,1.0,1.0,,,,63d166c1300217760a719112,14:20:13,06/03/2024
,"<div style=""font-size: 10rem; color: #0000FF"">C</div>",,ospan,letter,Z8t2AtTxsrWLqtUy88o8DBvGDDk1,html-keyboard-response,152,733566,0.0-43.0-5.0-0.0-1.0-11.0,,,,,,,,,,,,,,,63d166c1300217760a719112,14:20:13,06/03/2024
6892.300000071526,"<div class = numbox><p style=""font-size: 2.4rem"">Please recall the letters you saw to the best of your ability. If you do not remember a particular letter, use the SKIP button.<br><b>(When you are ready to lock in your answer, press ENTER)</b></p><button id = button_1 class = ""square num-button"" onclick = ""recordClick(this)""><div class = content><div class = numbers>C</div></div></button><button id = button_2 class = ""square num-button"" onclick = ""recordClick(this)""><div class = content><div class = numbers>G</div></div></button><button id = button_3 class = ""square num-button"" onclick = ""recordClick(this)""><div class = content><div class = numbers>H</div></div></button><button id = button_4 class = ""square num-button"" onclick = ""recordClick(this)""><div class = content><div class = numbers>J</div></div></button><button id = button_5 class = ""square num-button"" onclick = ""recordClick(this)""><div class = content><div class = numbers>K</div></div></button><button id = button_6 class = ""square num-button"" onclick = ""recordClick(this)""><div class = content><div class = numbers>L</div></div></button><button id = button_7 class = ""square num-button"" onclick = ""recordClick(this)""><div class = content><div class = numbers>N</div></div></button><button id = button_8 class = ""square num-button"" onclick = ""recordClick(this)""><div class = content><div class = numbers>P</div></div></button><button id = button_9 class = ""square num-button"" onclick = ""recordClick(this)""><div class = content><div class = numbers>Q</div></div></button><button id = button_10 class = ""square num-button"" onclick = ""recordClick(this)""><div class = content><div class = numbers>R</div></div></button><button id = button_11 class = ""square num-button"" onclick = ""recordClick(this)""><div class = content><div class = numbers>S</div></div></button><button id = button_12 class = ""square num-button"" onclick = ""recordClick(this)""><div class = content><div class = numbers>Y</div></div></button><button class = clear_button id = ""ClearButton"" onclick = ""clearResponse()"">BACKSPACE</button><button class = blank_button id = ""BlankButton"" onclick = ""blankResponse()"">SKIP</button><p style=""font-size: 2.4rem""><u><b>Current Answer:</b></u></p><br><br><div id=echoed_txt style=""font-size: 5rem; color:blue;""><b></b></div></div>",enter,ospan,retrieval,Z8t2AtTxsrWLqtUy88o8DBvGDDk1,html-keyboard-response,153,741219,0.0-43.0-5.0-0.0-2.0,21,21,21,6.0,"[""S"",""K"",""L"",""P"",""G"",""C""]","[""S"",""K"",""L"",""P"",""G"",""C""]",1.0,6.0,,,,,,,63d166c1300217760a719112,14:20:13,06/03/2024
921.2000000476837,[''],0,ospan,feedback,Z8t2AtTxsrWLqtUy88o8DBvGDDk1,html-button-response,154,742646,0.0-43.0-5.0-0.0-3.0,,,,,,,,,,,,100.0,0.0,,63d166c1300217760a719112,14:20:13,06/03/2024
,"<p style=""font-size:75px;"">...</p>",,ospan,iti,Z8t2AtTxsrWLqtUy88o8DBvGDDk1,html-keyboard-response,155,743654,0.0-43.0-5.0-1.0-0.0,,,,,,,,,,,,,,,63d166c1300217760a719112,14:20:13,06/03/2024
1519.0,,,ospan,symmetry,Z8t2AtTxsrWLqtUy88o8DBvGDDk1,symmetry-judgement-task,156,746403,0.0-43.0-5.0-1.0-1.0-0.0,,,,,,,,,,1.0,1.0,,,,63d166c1300217760a719112,14:20:13,06/03/2024
,"<div style=""font-size: 10rem; color: #0000FF"">N</div>",,ospan,letter,Z8t2AtTxsrWLqtUy88o8DBvGDDk1,html-keyboard-response,157,747412,0.0-43.0-5.0-1.0-1.0-1.0,,,,,,,,,,,,,,,63d166c1300217760a719112,14:20:13,06/03/2024
3801.0,,,ospan,symmetry,Z8t2AtTxsrWLqtUy88o8DBvGDDk1,symmetry-judgement-task,158,753442,0.0-43.0-5.0-1.0-1.0-2.0,,,,,,,,,,1.0,1.0,,,,63d166c1300217760a719112,14:20:13,06/03/2024
,"<div style=""font-size: 10rem; color: #0000FF"">Q</div>",,ospan,letter,Z8t2AtTxsrWLqtUy88o8DBvGDDk1,html-keyboard-response,159,754452,0.0-43.0-5.0-1.0-1.0-3.0,,,,,,,,,,,,,,,63d166c1300217760a719112,14:20:13,06/03/2024
1573.0,,,ospan,symmetry,Z8t2AtTxsrWLqtUy88o8DBvGDDk1,symmetry-judgement-task,160,758204,0.0-43.0-5.0-1.0-1.0-4.0,,,,,,,,,,1.0,1.0,,,,63d166c1300217760a719112,14:20:13,06/03/2024
,"<div style=""font-size: 10rem; color: #0000FF"">S</div>",,ospan,letter,Z8t2AtTxsrWLqtUy88o8DBvGDDk1,html-keyboard-response,161,759211,0.0-43.0-5.0-1.0-1.0-5.0,,,,,,,,,,,,,,,63d166c1300217760a719112,14:20:13,06/03/2024
841.0,,,ospan,symmetry,Z8t2AtTxsrWLqtUy88o8DBvGDDk1,symmetry-judgement-task,162,762460,0.0-43.0-5.0-1.0-1.0-6.0,,,,,,,,,,1.0,1.0,,,,63d166c1300217760a719112,14:20:13,06/03/2024
,"<div style=""font-size: 10rem; color: #0000FF"">Y</div>",,ospan,letter,Z8t2AtTxsrWLqtUy88o8DBvGDDk1,html-keyboard-response,163,763464,0.0-43.0-5.0-1.0-1.0-7.0,,,,,,,,,,,,,,,63d166c1300217760a719112,14:20:13,06/03/2024
3065.0,,,ospan,symmetry,Z8t2AtTxsrWLqtUy88o8DBvGDDk1,symmetry-judgement-task,164,768717,0.0-43.0-5.0-1.0-1.0-8.0,,,,,,,,,,1.0,1.0,,,,63d166c1300217760a719112,14:20:13,06/03/2024
,"<div style=""font-size: 10rem; color: #0000FF"">G</div>",,ospan,letter,Z8t2AtTxsrWLqtUy88o8DBvGDDk1,html-keyboard-response,165,769725,0.0-43.0-5.0-1.0-1.0-9.0,,,,,,,,,,,,,,,63d166c1300217760a719112,14:20:13,06/03/2024
1248.0,,,ospan,symmetry,Z8t2AtTxsrWLqtUy88o8DBvGDDk1,symmetry-judgement-task,166,773240,0.0-43.0-5.0-1.0-1.0-10.0,,,,,,,,,,1.0,1.0,,,,63d166c1300217760a719112,14:20:13,06/03/2024
,"<div style=""font-size: 10rem; color: #0000FF"">K</div>",,ospan,letter,Z8t2AtTxsrWLqtUy88o8DBvGDDk1,html-keyboard-response,167,774251,0.0-43.0-5.0-1.0-1.0-11.0,,,,,,,,,,,,,,,63d166c1300217760a719112,14:20:13,06/03/2024
1486.0,,,ospan,symmetry,Z8t2AtTxsrWLqtUy88o8DBvGDDk1,symmetry-judgement-task,168,778293,0.0-43.0-5.0-1.0-1.0-12.0,,,,,,,,,,1.0,1.0,,,,63d166c1300217760a719112,14:20:13,06/03/2024
,"<div style=""font-size: 10rem; color: #0000FF"">L</div>",,ospan,letter,Z8t2AtTxsrWLqtUy88o8DBvGDDk1,html-keyboard-response,169,779302,0.0-43.0-5.0-1.0-1.0-13.0,,,,,,,,,,,,,,,63d166c1300217760a719112,14:20:13,06/03/2024
13233.0,"<div class = numbox><p style=""font-size: 2.4rem"">Please recall the letters you saw to the best of your ability. If you do not remember a particular letter, use the SKIP button.<br><b>(When you are ready to lock in your answer, press ENTER)</b></p><button id = button_1 class = ""square num-button"" onclick = ""recordClick(this)""><div class = content><div class = numbers>C</div></div></button><button id = button_2 class = ""square num-button"" onclick = ""recordClick(this)""><div class = content><div class = numbers>G</div></div></button><button id = button_3 class = ""square num-button"" onclick = ""recordClick(this)""><div class = content><div class = numbers>H</div></div></button><button id = button_4 class = ""square num-button"" onclick = ""recordClick(this)""><div class = content><div class = numbers>J</div></div></button><button id = button_5 class = ""square num-button"" onclick = ""recordClick(this)""><div class = content><div class = numbers>K</div></div></button><button id = button_6 class = ""square num-button"" onclick = ""recordClick(this)""><div class = content><div class = numbers>L</div></div></button><button id = button_7 class = ""square num-button"" onclick = ""recordClick(this)""><div class = content><div class = numbers>N</div></div></button><button id = button_8 class = ""square num-button"" onclick = ""recordClick(this)""><div class = content><div class = numbers>P</div></div></button><button id = button_9 class = ""square num-button"" onclick = ""recordClick(this)""><div class = content><div class = numbers>Q</div></div></button><button id = button_10 class = ""square num-button"" onclick = ""recordClick(this)""><div class = content><div class = numbers>R</div></div></button><button id = button_11 class = ""square num-button"" onclick = ""recordClick(this)""><div class = content><div class = numbers>S</div></div></button><button id = button_12 class = ""square num-button"" onclick = ""recordClick(this)""><div class = content><div class = numbers>Y</div></div></button><button class = clear_button id = ""ClearButton"" onclick = ""clearResponse()"">BACKSPACE</button><button class = blank_button id = ""BlankButton"" onclick = ""blankResponse()"">SKIP</button><p style=""font-size: 2.4rem""><u><b>Current Answer:</b></u></p><br><br><div id=echoed_txt style=""font-size: 5rem; color:blue;""><b></b></div></div>",enter,ospan,retrieval,Z8t2AtTxsrWLqtUy88o8DBvGDDk1,html-keyboard-response,170,793301,0.0-43.0-5.0-1.0-2.0,28,26,21,7.0,"[""N"",""Q"",""S"",""Y"",""G"",""L""]","[""N"",""Q"",""S"",""Y"",""G"",""K"",""L""]",0.0,5.0,,,,,,,63d166c1300217760a719112,14:20:13,06/03/2024
1154.8000000715256,[''],0,ospan,feedback,Z8t2AtTxsrWLqtUy88o8DBvGDDk1,html-button-response,171,794978,0.0-43.0-5.0-1.0-3.0,,,,,,,,,,,,100.0,0.0,,63d166c1300217760a719112,14:20:13,06/03/2024
,"<p style=""font-size:75px;"">...</p>",,ospan,iti,Z8t2AtTxsrWLqtUy88o8DBvGDDk1,html-keyboard-response,172,796000,0.0-43.0-6.0-0.0-0.0,,,,,,,,,,,,,,,63d166c1300217760a719112,14:20:13,06/03/2024
1844.0,,,ospan,symmetry,Z8t2AtTxsrWLqtUy88o8DBvGDDk1,symmetry-judgement-task,173,799327,0.0-43.0-6.0-0.0-1.0-0.0,,,,,,,,,,1.0,1.0,,,,63d166c1300217760a719112,14:20:13,06/03/2024
,"<div style=""font-size: 10rem; color: #0000FF"">C</div>",,ospan,letter,Z8t2AtTxsrWLqtUy88o8DBvGDDk1,html-keyboard-response,174,800343,0.0-43.0-6.0-0.0-1.0-1.0,,,,,,,,,,,,,,,63d166c1300217760a719112,14:20:13,06/03/2024
2064.0,,,ospan,symmetry,Z8t2AtTxsrWLqtUy88o8DBvGDDk1,symmetry-judgement-task,175,804591,0.0-43.0-6.0-0.0-1.0-2.0,,,,,,,,,,1.0,1.0,,,,63d166c1300217760a719112,14:20:13,06/03/2024
,"<div style=""font-size: 10rem; color: #0000FF"">G</div>",,ospan,letter,Z8t2AtTxsrWLqtUy88o8DBvGDDk1,html-keyboard-response,176,805597,0.0-43.0-6.0-0.0-1.0-3.0,,,,,,,,,,,,,,,63d166c1300217760a719112,14:20:13,06/03/2024
1248.0,,,ospan,symmetry,Z8t2AtTxsrWLqtUy88o8DBvGDDk1,symmetry-judgement-task,177,809095,0.0-43.0-6.0-0.0-1.0-4.0,,,,,,,,,,1.0,1.0,,,,63d166c1300217760a719112,14:20:13,06/03/2024
,"<div style=""font-size: 10rem; color: #0000FF"">J</div>",,ospan,letter,Z8t2AtTxsrWLqtUy88o8DBvGDDk1,html-keyboard-response,178,810099,0.0-43.0-6.0-0.0-1.0-5.0,,,,,,,,,,,,,,,63d166c1300217760a719112,14:20:13,06/03/2024
1457.0,,,ospan,symmetry,Z8t2AtTxsrWLqtUy88o8DBvGDDk1,symmetry-judgement-task,179,813798,0.0-43.0-6.0-0.0-1.0-6.0,,,,,,,,,,1.0,1.0,,,,63d166c1300217760a719112,14:20:13,06/03/2024
,"<div style=""font-size: 10rem; color: #0000FF"">K</div>",,ospan,letter,Z8t2AtTxsrWLqtUy88o8DBvGDDk1,html-keyboard-response,180,814816,0.0-43.0-6.0-0.0-1.0-7.0,,,,,,,,,,,,,,,63d166c1300217760a719112,14:20:13,06/03/2024
2059.0,,,ospan,symmetry,Z8t2AtTxsrWLqtUy88o8DBvGDDk1,symmetry-judgement-task,181,819148,0.0-43.0-6.0-0.0-1.0-8.0,,,,,,,,,,1.0,1.0,,,,63d166c1300217760a719112,14:20:13,06/03/2024
,"<div style=""font-size: 10rem; color: #0000FF"">L</div>",,ospan,letter,Z8t2AtTxsrWLqtUy88o8DBvGDDk1,html-keyboard-response,182,820159,0.0-43.0-6.0-0.0-1.0-9.0,,,,,,,,,,,,,,,63d166c1300217760a719112,14:20:13,06/03/2024
6741.900000095367,"<div class = numbox><p style=""font-size: 2.4rem"">Please recall the letters you saw to the best of your ability. If you do not remember a particular letter, use the SKIP button.<br><b>(When you are ready to lock in your answer, press ENTER)</b></p><button id = button_1 class = ""square num-button"" onclick = ""recordClick(this)""><div class = content><div class = numbers>C</div></div></button><button id = button_2 class = ""square num-button"" onclick = ""recordClick(this)""><div class = content><div class = numbers>G</div></div></button><button id = button_3 class = ""square num-button"" onclick = ""recordClick(this)""><div class = content><div class = numbers>H</div></div></button><button id = button_4 class = ""square num-button"" onclick = ""recordClick(this)""><div class = content><div class = numbers>J</div></div></button><button id = button_5 class = ""square num-button"" onclick = ""recordClick(this)""><div class = content><div class = numbers>K</div></div></button><button id = button_6 class = ""square num-button"" onclick = ""recordClick(this)""><div class = content><div class = numbers>L</div></div></button><button id = button_7 class = ""square num-button"" onclick = ""recordClick(this)""><div class = content><div class = numbers>N</div></div></button><button id = button_8 class = ""square num-button"" onclick = ""recordClick(this)""><div class = content><div class = numbers>P</div></div></button><button id = button_9 class = ""square num-button"" onclick = ""recordClick(this)""><div class = content><div class = numbers>Q</div></div></button><button id = button_10 class = ""square num-button"" onclick = ""recordClick(this)""><div class = content><div class = numbers>R</div></div></button><button id = button_11 class = ""square num-button"" onclick = ""recordClick(this)""><div class = content><div class = numbers>S</div></div></button><button id = button_12 class = ""square num-button"" onclick = ""recordClick(this)""><div class = content><div class = numbers>Y</div></div></button><button class = clear_button id = ""ClearButton"" onclick = ""clearResponse()"">BACKSPACE</button><button class = blank_button id = ""BlankButton"" onclick = ""blankResponse()"">SKIP</button><p style=""font-size: 2.4rem""><u><b>Current Answer:</b></u></p><br><br><div id=echoed_txt style=""font-size: 5rem; color:blue;""><b></b></div></div>",enter,ospan,retrieval,Z8t2AtTxsrWLqtUy88o8DBvGDDk1,html-keyboard-response,183,827667,0.0-43.0-6.0-0.0-2.0,33,31,26,5.0,"[""C"",""G"",""J"",""K"",""L""]","[""C"",""G"",""J"",""K"",""L""]",1.0,5.0,,,,,,,63d166c1300217760a719112,14:20:13,06/03/2024
1055.8000000715256,[''],0,ospan,feedback,Z8t2AtTxsrWLqtUy88o8DBvGDDk1,html-button-response,184,829231,0.0-43.0-6.0-0.0-3.0,,,,,,,,,,,,100.0,0.0,,63d166c1300217760a719112,14:20:13,06/03/2024
,"<p style=""font-size:75px;"">...</p>",,ospan,iti,Z8t2AtTxsrWLqtUy88o8DBvGDDk1,html-keyboard-response,185,830242,0.0-43.0-6.0-1.0-0.0,,,,,,,,,,,,,,,63d166c1300217760a719112,14:20:13,06/03/2024
2335.0,,,ospan,symmetry,Z8t2AtTxsrWLqtUy88o8DBvGDDk1,symmetry-judgement-task,186,834140,0.0-43.0-6.0-1.0-1.0-0.0,,,,,,,,,,1.0,1.0,,,,63d166c1300217760a719112,14:20:13,06/03/2024
,"<div style=""font-size: 10rem; color: #0000FF"">L</div>",,ospan,letter,Z8t2AtTxsrWLqtUy88o8DBvGDDk1,html-keyboard-response,187,835153,0.0-43.0-6.0-1.0-1.0-1.0,,,,,,,,,,,,,,,63d166c1300217760a719112,14:20:13,06/03/2024
3388.0,,,ospan,symmetry,Z8t2AtTxsrWLqtUy88o8DBvGDDk1,symmetry-judgement-task,188,840925,0.0-43.0-6.0-1.0-1.0-2.0,,,,,,,,,,1.0,1.0,,,,63d166c1300217760a719112,14:20:13,06/03/2024
,"<div style=""font-size: 10rem; color: #0000FF"">Q</div>",,ospan,letter,Z8t2AtTxsrWLqtUy88o8DBvGDDk1,html-keyboard-response,189,841939,0.0-43.0-6.0-1.0-1.0-3.0,,,,,,,,,,,,,,,63d166c1300217760a719112,14:20:13,06/03/2024
1215.0,,,ospan,symmetry,Z8t2AtTxsrWLqtUy88o8DBvGDDk1,symmetry-judgement-task,190,845346,0.0-43.0-6.0-1.0-1.0-4.0,,,,,,,,,,1.0,1.0,,,,63d166c1300217760a719112,14:20:13,06/03/2024
,"<div style=""font-size: 10rem; color: #0000FF"">G</div>",,ospan,letter,Z8t2AtTxsrWLqtUy88o8DBvGDDk1,html-keyboard-response,191,846358,0.0-43.0-6.0-1.0-1.0-5.0,,,,,,,,,,,,,,,63d166c1300217760a719112,14:20:13,06/03/2024
1320.0,,,ospan,symmetry,Z8t2AtTxsrWLqtUy88o8DBvGDDk1,symmetry-judgement-task,192,849894,0.0-43.0-6.0-1.0-1.0-6.0,,,,,,,,,,1.0,1.0,,,,63d166c1300217760a719112,14:20:13,06/03/2024
,"<div style=""font-size: 10rem; color: #0000FF"">J</div>",,ospan,letter,Z8t2AtTxsrWLqtUy88o8DBvGDDk1,html-keyboard-response,193,850910,0.0-43.0-6.0-1.0-1.0-7.0,,,,,,,,,,,,,,,63d166c1300217760a719112,14:20:13,06/03/2024
1501.0,,,ospan,symmetry,Z8t2AtTxsrWLqtUy88o8DBvGDDk1,symmetry-judgement-task,194,854680,0.0-43.0-6.0-1.0-1.0-8.0,,,,,,,,,,1.0,1.0,,,,63d166c1300217760a719112,14:20:13,06/03/2024
,"<div style=""font-size: 10rem; color: #0000FF"">Y</div>",,ospan,letter,Z8t2AtTxsrWLqtUy88o8DBvGDDk1,html-keyboard-response,195,855692,0.0-43.0-6.0-1.0-1.0-9.0,,,,,,,,,,,,,,,63d166c1300217760a719112,14:20:13,06/03/2024
4146.0,,,ospan,symmetry,Z8t2AtTxsrWLqtUy88o8DBvGDDk1,symmetry-judgement-task,196,862233,0.0-43.0-6.0-1.0-1.0-10.0,,,,,,,,,,1.0,1.0,,,,63d166c1300217760a719112,14:20:13,06/03/2024
,"<div style=""font-size: 10rem; color: #0000FF"">S</div>",,ospan,letter,Z8t2AtTxsrWLqtUy88o8DBvGDDk1,html-keyboard-response,197,863239,0.0-43.0-6.0-1.0-1.0-11.0,,,,,,,,,,,,,,,63d166c1300217760a719112,14:20:13,06/03/2024
1319.0,,,ospan,symmetry,Z8t2AtTxsrWLqtUy88o8DBvGDDk1,symmetry-judgement-task,198,866769,0.0-43.0-6.0-1.0-1.0-12.0,,,,,,,,,,1.0,1.0,,,,63d166c1300217760a719112,14:20:13,06/03/2024
,"<div style=""font-size: 10rem; color: #0000FF"">C</div>",,ospan,letter,Z8t2AtTxsrWLqtUy88o8DBvGDDk1,html-keyboard-response,199,867778,0.0-43.0-6.0-1.0-1.0-13.0,,,,,,,,,,,,,,,63d166c1300217760a719112,14:20:13,06/03/2024
1365.0,,,ospan,symmetry,Z8t2AtTxsrWLqtUy88o8DBvGDDk1,symmetry-judgement-task,200,871622,0.0-43.0-6.0-1.0-1.0-14.0,,,,,,,,,,1.0,1.0,,,,63d166c1300217760a719112,14:20:13,06/03/2024
,"<div style=""font-size: 10rem; color: #0000FF"">K</div>",,ospan,letter,Z8t2AtTxsrWLqtUy88o8DBvGDDk1,html-keyboard-response,201,872631,0.0-43.0-6.0-1.0-1.0-15.0,,,,,,,,,,,,,,,63d166c1300217760a719112,14:20:13,06/03/2024
11619.200000047684,"<div class = numbox><p style=""font-size: 2.4rem"">Please recall the letters you saw to the best of your ability. If you do not remember a particular letter, use the SKIP button.<br><b>(When you are ready to lock in your answer, press ENTER)</b></p><button id = button_1 class = ""square num-button"" onclick = ""recordClick(this)""><div class = content><div class = numbers>C</div></div></button><button id = button_2 class = ""square num-button"" onclick = ""recordClick(this)""><div class = content><div class = numbers>G</div></div></button><button id = button_3 class = ""square num-button"" onclick = ""recordClick(this)""><div class = content><div class = numbers>H</div></div></button><button id = button_4 class = ""square num-button"" onclick = ""recordClick(this)""><div class = content><div class = numbers>J</div></div></button><button id = button_5 class = ""square num-button"" onclick = ""recordClick(this)""><div class = content><div class = numbers>K</div></div></button><button id = button_6 class = ""square num-button"" onclick = ""recordClick(this)""><div class = content><div class = numbers>L</div></div></button><button id = button_7 class = ""square num-button"" onclick = ""recordClick(this)""><div class = content><div class = numbers>N</div></div></button><button id = button_8 class = ""square num-button"" onclick = ""recordClick(this)""><div class = content><div class = numbers>P</div></div></button><button id = button_9 class = ""square num-button"" onclick = ""recordClick(this)""><div class = content><div class = numbers>Q</div></div></button><button id = button_10 class = ""square num-button"" onclick = ""recordClick(this)""><div class = content><div class = numbers>R</div></div></button><button id = button_11 class = ""square num-button"" onclick = ""recordClick(this)""><div class = content><div class = numbers>S</div></div></button><button id = button_12 class = ""square num-button"" onclick = ""recordClick(this)""><div class = content><div class = numbers>Y</div></div></button><button class = clear_button id = ""ClearButton"" onclick = ""clearResponse()"">BACKSPACE</button><button class = blank_button id = ""BlankButton"" onclick = ""blankResponse()"">SKIP</button><p style=""font-size: 2.4rem""><u><b>Current Answer:</b></u></p><br><br><div id=echoed_txt style=""font-size: 5rem; color:blue;""><b></b></div></div>",enter,ospan,retrieval,Z8t2AtTxsrWLqtUy88o8DBvGDDk1,html-keyboard-response,202,885013,0.0-43.0-6.0-1.0-2.0,41,37,26,8.0,"[""L"",""Q"",""G"",""J"",""Y"",""S"",""L""]","[""L"",""Q"",""G"",""J"",""Y"",""S"",""C"",""K""]",0.0,6.0,,,,,,,63d166c1300217760a719112,14:20:13,06/03/2024
1003.8999999761581,[''],0,ospan,feedback,Z8t2AtTxsrWLqtUy88o8DBvGDDk1,html-button-response,203,886530,0.0-43.0-6.0-1.0-3.0,,,,,,,,,,,,100.0,0.0,,63d166c1300217760a719112,14:20:13,06/03/2024
28986.700000047684,,"{'Q0': 'it was difficult to remember the letters whilst doing the symmetry, but fun :) '}",ospan,survey_ospan,Z8t2AtTxsrWLqtUy88o8DBvGDDk1,lmdlab-survey-text,204,916301,0.0-43.0-7.0,,,,,,,,,,,,,,Z8t2AtTxsrWLqtUy88o8DBvGDDk1,63d166c1300217760a719112,14:20:13,06/03/2024
1995.7999999523163,<p><p style='font-size: 3rem'>Great work!<br><br>This completes the symmetry and memory task.</p><br><br><br>,0,ospan,finish,Z8t2AtTxsrWLqtUy88o8DBvGDDk1,html-button-response,205,918307,0.0-43.0-8.0,41,37,26,,,,,,,,,100.0,,,63d166c1300217760a719112,14:20:13,06/03/2024
