rt,stimulus,response,exp_name,exp_stage,subjectID,trial_type,trial_index,time_elapsed,internal_node_id,ospan_shown,ospan_total,ospan_abs,length,resp_actual,resp_correct,full_correct,num_correct,feedback,accuracy,correct,math_acc,math_warning,databaseID,prolificID,start_time,date
1740.0,<div class = 'left_align' style='font-size: 3.25rem; line-height: 1.3;'><p class = 'center_align'><b>Welcome to the Symmetry and Memory Task</b><br><br><br><br></p>Press 'continue' to show the instructions.<br><br><br><br></div>,0,ospan,instruct,PZrbpfCalPUfFWsoEMHDNkWEV9y2,html-button-response,54,708127,0.0-46.0-0.0-0.0-0.0,,,,,,,,,,,,,,,63ceed4669bb4db75ade6a1c,12:15:04,03/04/2024
13377.099999999977,"<div class = 'left_align' style='font-size: 3.25rem; line-height: 1.3;'><p class = 'center_align'><b>Symmetry and Memory Task</b><br><br></p>In this task, you will try to memorize letters you see on the screen<br>while you also view black and white grid pictures.<br><br>In the next few minutes, you will have some practice to get you familiar<br>with how the task works.<br><br>It may be difficult sometimes, but please do not worry about making mistakes!<br><br>We will begin by practicing the letter part of the task.<br><br><br><br></div>",0,ospan,instruct,PZrbpfCalPUfFWsoEMHDNkWEV9y2,html-button-response,55,721762,0.0-46.0-0.0-0.0-1.0,,,,,,,,,,,,,,,63ceed4669bb4db75ade6a1c,12:15:04,03/04/2024
62101.5,"<div class = 'left_align' style='font-size: 3.25rem; line-height: 1.3;'>For this practice part, letters will appear on the screen one at a time.<br><br>Try to remember each letter in the order presented.<br><br>After some letters have been shown, you will see a response screen. Your<br>goal is to report the letters you saw <b>in order</b>. If you do not remember<br>a particular letter, you will have the option to leave it blank.<br><br><br><br></div>",0,ospan,instruct,PZrbpfCalPUfFWsoEMHDNkWEV9y2,html-button-response,56,784242,0.0-46.0-0.0-0.0-2.0,,,,,,,,,,,,,,,63ceed4669bb4db75ade6a1c,12:15:04,03/04/2024
2733.4000000000233,"<div class = 'left_align' style='font-size: 3.25rem; line-height: 1.3;'>Remember, it is very important to get the letters in the same<br>order as you see them.<br><br>When you are ready, you may begin the letter practice.</div><br><br><br><br>",0,ospan,instruct,PZrbpfCalPUfFWsoEMHDNkWEV9y2,html-button-response,57,787229,0.0-46.0-0.0-0.0-3.0,,,,,,,,,,,,,,,63ceed4669bb4db75ade6a1c,12:15:04,03/04/2024
,"<p style=""font-size:75px;"">...</p>",,ospan,iti,PZrbpfCalPUfFWsoEMHDNkWEV9y2,html-keyboard-response,58,788491,0.0-46.0-0.0-1.0-0.0,,,,,,,,,,,,,,,63ceed4669bb4db75ade6a1c,12:15:04,03/04/2024
,"<div style=""font-size: 10rem; color: #0000FF"">G</div>",,ospan,letter,PZrbpfCalPUfFWsoEMHDNkWEV9y2,html-keyboard-response,59,789499,0.0-46.0-0.0-1.0-1.0,,,,,,,,,,,,,,,63ceed4669bb4db75ade6a1c,12:15:04,03/04/2024
,"<div style=""font-size: 10rem; color: #0000FF"">Y</div>",,ospan,letter,PZrbpfCalPUfFWsoEMHDNkWEV9y2,html-keyboard-response,60,791257,0.0-46.0-0.0-1.0-2.0,,,,,,,,,,,,,,,63ceed4669bb4db75ade6a1c,12:15:04,03/04/2024
9955.5,"<div class = numbox><p style=""font-size: 2.4rem"">Please recall the letters you saw to the best of your ability. If you do not remember a particular letter, use the SKIP button.<br><b>(When you are ready to lock in your answer, press ENTER)</b></p><button id = button_1 class = ""square num-button"" onclick = ""recordClick(this)""><div class = content><div class = numbers>C</div></div></button><button id = button_2 class = ""square num-button"" onclick = ""recordClick(this)""><div class = content><div class = numbers>G</div></div></button><button id = button_3 class = ""square num-button"" onclick = ""recordClick(this)""><div class = content><div class = numbers>H</div></div></button><button id = button_4 class = ""square num-button"" onclick = ""recordClick(this)""><div class = content><div class = numbers>J</div></div></button><button id = button_5 class = ""square num-button"" onclick = ""recordClick(this)""><div class = content><div class = numbers>K</div></div></button><button id = button_6 class = ""square num-button"" onclick = ""recordClick(this)""><div class = content><div class = numbers>L</div></div></button><button id = button_7 class = ""square num-button"" onclick = ""recordClick(this)""><div class = content><div class = numbers>N</div></div></button><button id = button_8 class = ""square num-button"" onclick = ""recordClick(this)""><div class = content><div class = numbers>P</div></div></button><button id = button_9 class = ""square num-button"" onclick = ""recordClick(this)""><div class = content><div class = numbers>Q</div></div></button><button id = button_10 class = ""square num-button"" onclick = ""recordClick(this)""><div class = content><div class = numbers>R</div></div></button><button id = button_11 class = ""square num-button"" onclick = ""recordClick(this)""><div class = content><div class = numbers>S</div></div></button><button id = button_12 class = ""square num-button"" onclick = ""recordClick(this)""><div class = content><div class = numbers>Y</div></div></button><button class = clear_button id = ""ClearButton"" onclick = ""clearResponse()"">BACKSPACE</button><button class = blank_button id = ""BlankButton"" onclick = ""blankResponse()"">SKIP</button><p style=""font-size: 2.4rem""><u><b>Current Answer:</b></u></p><br><br><div id=echoed_txt style=""font-size: 5rem; color:blue;""><b></b></div></div>",enter,ospan,retrieval,PZrbpfCalPUfFWsoEMHDNkWEV9y2,html-keyboard-response,61,801967,0.0-46.0-0.0-1.0-3.0,NA,NA,NA,2.0,"[""G"",""Y""]","[""G"",""Y""]",1.0,2.0,"['<font color=""green"">G</font>', '<font color=""green"">Y</font>']",,,,,,63ceed4669bb4db75ade6a1c,12:15:04,03/04/2024
2961.0,"['<p style=""font-size:44px"">Letters:<br><br><br><font color=""green"">G</font> <font color=""green"">Y</font></p><br><br>']",0,ospan,practice_feedback,PZrbpfCalPUfFWsoEMHDNkWEV9y2,html-button-response,62,805433,0.0-46.0-0.0-1.0-4.0,,,,,,,,,,,,,,,63ceed4669bb4db75ade6a1c,12:15:04,03/04/2024
,"<p style=""font-size:75px;"">...</p>",,ospan,iti,PZrbpfCalPUfFWsoEMHDNkWEV9y2,html-keyboard-response,63,806439,0.0-46.0-0.0-2.0-0.0,,,,,,,,,,,,,,,63ceed4669bb4db75ade6a1c,12:15:04,03/04/2024
,"<div style=""font-size: 10rem; color: #0000FF"">P</div>",,ospan,letter,PZrbpfCalPUfFWsoEMHDNkWEV9y2,html-keyboard-response,64,807443,0.0-46.0-0.0-2.0-1.0,,,,,,,,,,,,,,,63ceed4669bb4db75ade6a1c,12:15:04,03/04/2024
,"<div style=""font-size: 10rem; color: #0000FF"">Q</div>",,ospan,letter,PZrbpfCalPUfFWsoEMHDNkWEV9y2,html-keyboard-response,65,809204,0.0-46.0-0.0-2.0-2.0,,,,,,,,,,,,,,,63ceed4669bb4db75ade6a1c,12:15:04,03/04/2024
,"<div style=""font-size: 10rem; color: #0000FF"">L</div>",,ospan,letter,PZrbpfCalPUfFWsoEMHDNkWEV9y2,html-keyboard-response,66,810963,0.0-46.0-0.0-2.0-3.0,,,,,,,,,,,,,,,63ceed4669bb4db75ade6a1c,12:15:04,03/04/2024
8750.5,"<div class = numbox><p style=""font-size: 2.4rem"">Please recall the letters you saw to the best of your ability. If you do not remember a particular letter, use the SKIP button.<br><b>(When you are ready to lock in your answer, press ENTER)</b></p><button id = button_1 class = ""square num-button"" onclick = ""recordClick(this)""><div class = content><div class = numbers>C</div></div></button><button id = button_2 class = ""square num-button"" onclick = ""recordClick(this)""><div class = content><div class = numbers>G</div></div></button><button id = button_3 class = ""square num-button"" onclick = ""recordClick(this)""><div class = content><div class = numbers>H</div></div></button><button id = button_4 class = ""square num-button"" onclick = ""recordClick(this)""><div class = content><div class = numbers>J</div></div></button><button id = button_5 class = ""square num-button"" onclick = ""recordClick(this)""><div class = content><div class = numbers>K</div></div></button><button id = button_6 class = ""square num-button"" onclick = ""recordClick(this)""><div class = content><div class = numbers>L</div></div></button><button id = button_7 class = ""square num-button"" onclick = ""recordClick(this)""><div class = content><div class = numbers>N</div></div></button><button id = button_8 class = ""square num-button"" onclick = ""recordClick(this)""><div class = content><div class = numbers>P</div></div></button><button id = button_9 class = ""square num-button"" onclick = ""recordClick(this)""><div class = content><div class = numbers>Q</div></div></button><button id = button_10 class = ""square num-button"" onclick = ""recordClick(this)""><div class = content><div class = numbers>R</div></div></button><button id = button_11 class = ""square num-button"" onclick = ""recordClick(this)""><div class = content><div class = numbers>S</div></div></button><button id = button_12 class = ""square num-button"" onclick = ""recordClick(this)""><div class = content><div class = numbers>Y</div></div></button><button class = clear_button id = ""ClearButton"" onclick = ""clearResponse()"">BACKSPACE</button><button class = blank_button id = ""BlankButton"" onclick = ""blankResponse()"">SKIP</button><p style=""font-size: 2.4rem""><u><b>Current Answer:</b></u></p><br><br><div id=echoed_txt style=""font-size: 5rem; color:blue;""><b></b></div></div>",enter,ospan,retrieval,PZrbpfCalPUfFWsoEMHDNkWEV9y2,html-keyboard-response,67,820471,0.0-46.0-0.0-2.0-4.0,NA,NA,NA,3.0,"[""P"",""Q"",""L""]","[""P"",""Q"",""L""]",1.0,3.0,"['<font color=""green"">P</font>', '<font color=""green"">Q</font>', '<font color=""green"">L</font>']",,,,,,63ceed4669bb4db75ade6a1c,12:15:04,03/04/2024
163672.29999999993,"['<p style=""font-size:44px"">Letters:<br><br><br><font color=""green"">P</font> <font color=""green"">Q</font> <font color=""green"">L</font></p><br><br>']",0,ospan,practice_feedback,PZrbpfCalPUfFWsoEMHDNkWEV9y2,html-button-response,68,984647,0.0-46.0-0.0-2.0-5.0,,,,,,,,,,,,,,,63ceed4669bb4db75ade6a1c,12:15:04,03/04/2024
27949.5,"<div class = 'left_align' style='font-size: 3.25rem; line-height: 1.3;'>Now you will practice doing the <b>symmetry judgment part</b> of the experiment.<br><br>A black and white grid picture will appear on the screen and you have to judge if it is <br>symmetrical or asymetrical.<br><br>A picture is 'mirror' symmetrical if its left half is identical to the right half when flipped.<br>Here are examples of a symmetrical and an asymetrical picture:<br><br><center><img src='Stimuli/img/symm_instructions_extra.png' style='height:420px; width:900'></img></center><br>To judge symmetry, imagine you were to fold each picture down the middle, like a book –<br>would the left half match the right half when folded onto each other?<br><br></div><br>",0,ospan,instruct,PZrbpfCalPUfFWsoEMHDNkWEV9y2,html-button-response,69,1012599,0.0-46.0-1.0-0.0-0.0,,,,,,,,,,,,,,,63ceed4669bb4db75ade6a1c,12:15:04,03/04/2024
28245.199999999953,"<div class = 'left_align' style='font-size: 3.25rem; line-height: 1.3;'>When you have viewed the picture and determined whether it is symmetrical or not,<br>you can <b>click the Yes or No button</b> below to answer.<br><br>If you take longer than 15 seconds, it will continue automatically<br>and record the answer as an error.</div><br>",0,ospan,instruct,PZrbpfCalPUfFWsoEMHDNkWEV9y2,html-button-response,70,1041102,0.0-46.0-1.0-0.0-1.0,,,,,,,,,,,,,,,63ceed4669bb4db75ade6a1c,12:15:04,03/04/2024
8542.59999999986,"<div class = 'left_align' style='font-size: 3.25rem; line-height: 1.3;'>It is <b>very</b> important that you make the symmetry judgment correctly.<br><br>It is also important that you try and judge the picture as quickly as you can.<br><br>When you are ready, click on the button below to try some practice problems.</div><br><br><br><br>",0,ospan,instruct,PZrbpfCalPUfFWsoEMHDNkWEV9y2,html-button-response,71,1049900,0.0-46.0-1.0-0.0-2.0,,,,,,,,,,,,,,,63ceed4669bb4db75ade6a1c,12:15:04,03/04/2024
3515.0,,,ospan,symmetry,PZrbpfCalPUfFWsoEMHDNkWEV9y2,symmetry-judgement-task,72,1054210,0.0-46.0-1.0-1.0-0.0,,,,,,,,,,1.0,1.0,,,,63ceed4669bb4db75ade6a1c,12:15:04,03/04/2024
,"<p style=""color:green; font-size: 35px"">Correct</p>",,ospan,feedback,PZrbpfCalPUfFWsoEMHDNkWEV9y2,html-keyboard-response,73,1054964,0.0-46.0-1.0-1.0-1.0,,,,,,,,,,,,,,,63ceed4669bb4db75ade6a1c,12:15:04,03/04/2024
4292.0,,,ospan,symmetry,PZrbpfCalPUfFWsoEMHDNkWEV9y2,symmetry-judgement-task,74,1061866,0.0-46.0-1.0-1.0-2.0,,,,,,,,,,1.0,1.0,,,,63ceed4669bb4db75ade6a1c,12:15:04,03/04/2024
,"<p style=""color:green; font-size: 35px"">Correct</p>",,ospan,feedback,PZrbpfCalPUfFWsoEMHDNkWEV9y2,html-keyboard-response,75,1062624,0.0-46.0-1.0-1.0-3.0,,,,,,,,,,,,,,,63ceed4669bb4db75ade6a1c,12:15:04,03/04/2024
3497.0,,,ospan,symmetry,PZrbpfCalPUfFWsoEMHDNkWEV9y2,symmetry-judgement-task,76,1068716,0.0-46.0-1.0-1.0-4.0,,,,,,,,,,1.0,1.0,,,,63ceed4669bb4db75ade6a1c,12:15:04,03/04/2024
,"<p style=""color:green; font-size: 35px"">Correct</p>",,ospan,feedback,PZrbpfCalPUfFWsoEMHDNkWEV9y2,html-keyboard-response,77,1069474,0.0-46.0-1.0-1.0-5.0,,,,,,,,,,,,,,,63ceed4669bb4db75ade6a1c,12:15:04,03/04/2024
2659.5999999998603,"<p style=""font-size: 3rem;"">You responded correctly on 3 of 3 symmetry judgments. Good job!</p><br><br>",0,ospan,practice,PZrbpfCalPUfFWsoEMHDNkWEV9y2,html-button-response,78,1074141,0.0-46.0-1.0-2.0,,,,,,,,,,,,,,,63ceed4669bb4db75ade6a1c,12:15:04,03/04/2024
18807.699999999953,"<div class = 'left_align' style='font-size: 3.25rem; line-height: 1.3;'>Now you will practice doing both parts of the experiment at the same time.<br><br>In the next practice set, you will be given one grid picture to judge.<br>Then letter will appear on the screen. Try to remember the letter.<br><br>It is <b>very important</b> to make the symmetry judgment as quickly and accurately as possible.<br><br>Just as before, once you have make the symmetry judgment, you can click Yes or No.<br><b>Note that you will no longer see Correct or Incorrect feedback.</div><br><br><br><br>",0,ospan,instruct,PZrbpfCalPUfFWsoEMHDNkWEV9y2,html-button-response,79,1093206,0.0-46.0-2.0-0.0-0.0,,,,,,,,,,,,,,,63ceed4669bb4db75ade6a1c,12:15:04,03/04/2024
14665.399999999907,"<div class = 'left_align' style='font-size: 3.25rem; line-height: 1.3;'>After the letter goes away, another grid picture will appear, and then<br>another letter.<br><br>At the end of each set of letters and grids, you will recall the letters to the best<br>of your ability. Remember, try your best to get the letters in the correct order.<br><br>It is important to <b>quickly</b> and <b>accurately</b> make the symmetry judgments.</div><br><br><br><br>",0,ospan,instruct,PZrbpfCalPUfFWsoEMHDNkWEV9y2,html-button-response,80,1108129,0.0-46.0-2.0-0.0-1.0,,,,,,,,,,,,,,,63ceed4669bb4db75ade6a1c,12:15:04,03/04/2024
15870.300000000047,"<div class = 'left_align' style='font-size: 3.25rem; line-height: 1.3;'>On the feedback screen, if you are not doing well at the symmetry judgments,<br>you will also see a warning in the middle. This indicates your percent <br>correct for the grid pictures for the entire experiment.<br><br>It is <b>very</b> important for you to keep accuracy at least at 85%: <u>We can only use<br>data where the participant was at least 85% accurate on the judgments.</u> Therefore,<br> please try your best to perform well on the symmetry judgments, <b>at the same time</b><br>doing your best to recall as many letters as possible.<br><br>Click the button to try some practice problems.</div><br><br><br><br>",0,ospan,instruct,PZrbpfCalPUfFWsoEMHDNkWEV9y2,html-button-response,81,1124256,0.0-46.0-2.0-0.0-2.0,,,,,,,,,,,,,,,63ceed4669bb4db75ade6a1c,12:15:04,03/04/2024
,"<p style=""font-size:75px;"">...</p>",,ospan,iti,PZrbpfCalPUfFWsoEMHDNkWEV9y2,html-keyboard-response,82,1125515,0.0-46.0-2.0-1.0-0.0,,,,,,,,,,,,,,,63ceed4669bb4db75ade6a1c,12:15:04,03/04/2024
1353.0,,,ospan,symmetry,PZrbpfCalPUfFWsoEMHDNkWEV9y2,symmetry-judgement-task,83,1127966,0.0-46.0-2.0-1.0-1.0-0.0,,,,,,,,,,1.0,1.0,,,,63ceed4669bb4db75ade6a1c,12:15:04,03/04/2024
,"<div style=""font-size: 10rem; color: #0000FF"">P</div>",,ospan,letter,PZrbpfCalPUfFWsoEMHDNkWEV9y2,html-keyboard-response,84,1128971,0.0-46.0-2.0-1.0-1.0-1.0,,,,,,,,,,,,,,,63ceed4669bb4db75ade6a1c,12:15:04,03/04/2024
1262.0,,,ospan,symmetry,PZrbpfCalPUfFWsoEMHDNkWEV9y2,symmetry-judgement-task,85,1132088,0.0-46.0-2.0-1.0-1.0-2.0,,,,,,,,,,1.0,1.0,,,,63ceed4669bb4db75ade6a1c,12:15:04,03/04/2024
,"<div style=""font-size: 10rem; color: #0000FF"">K</div>",,ospan,letter,PZrbpfCalPUfFWsoEMHDNkWEV9y2,html-keyboard-response,86,1133091,0.0-46.0-2.0-1.0-1.0-3.0,,,,,,,,,,,,,,,63ceed4669bb4db75ade6a1c,12:15:04,03/04/2024
1694.0,,,ospan,symmetry,PZrbpfCalPUfFWsoEMHDNkWEV9y2,symmetry-judgement-task,87,1136639,0.0-46.0-2.0-1.0-1.0-4.0,,,,,,,,,,1.0,1.0,,,,63ceed4669bb4db75ade6a1c,12:15:04,03/04/2024
,"<div style=""font-size: 10rem; color: #0000FF"">S</div>",,ospan,letter,PZrbpfCalPUfFWsoEMHDNkWEV9y2,html-keyboard-response,88,1137644,0.0-46.0-2.0-1.0-1.0-5.0,,,,,,,,,,,,,,,63ceed4669bb4db75ade6a1c,12:15:04,03/04/2024
6060.0,"<div class = numbox><p style=""font-size: 2.4rem"">Please recall the letters you saw to the best of your ability. If you do not remember a particular letter, use the SKIP button.<br><b>(When you are ready to lock in your answer, press ENTER)</b></p><button id = button_1 class = ""square num-button"" onclick = ""recordClick(this)""><div class = content><div class = numbers>C</div></div></button><button id = button_2 class = ""square num-button"" onclick = ""recordClick(this)""><div class = content><div class = numbers>G</div></div></button><button id = button_3 class = ""square num-button"" onclick = ""recordClick(this)""><div class = content><div class = numbers>H</div></div></button><button id = button_4 class = ""square num-button"" onclick = ""recordClick(this)""><div class = content><div class = numbers>J</div></div></button><button id = button_5 class = ""square num-button"" onclick = ""recordClick(this)""><div class = content><div class = numbers>K</div></div></button><button id = button_6 class = ""square num-button"" onclick = ""recordClick(this)""><div class = content><div class = numbers>L</div></div></button><button id = button_7 class = ""square num-button"" onclick = ""recordClick(this)""><div class = content><div class = numbers>N</div></div></button><button id = button_8 class = ""square num-button"" onclick = ""recordClick(this)""><div class = content><div class = numbers>P</div></div></button><button id = button_9 class = ""square num-button"" onclick = ""recordClick(this)""><div class = content><div class = numbers>Q</div></div></button><button id = button_10 class = ""square num-button"" onclick = ""recordClick(this)""><div class = content><div class = numbers>R</div></div></button><button id = button_11 class = ""square num-button"" onclick = ""recordClick(this)""><div class = content><div class = numbers>S</div></div></button><button id = button_12 class = ""square num-button"" onclick = ""recordClick(this)""><div class = content><div class = numbers>Y</div></div></button><button class = clear_button id = ""ClearButton"" onclick = ""clearResponse()"">BACKSPACE</button><button class = blank_button id = ""BlankButton"" onclick = ""blankResponse()"">SKIP</button><p style=""font-size: 2.4rem""><u><b>Current Answer:</b></u></p><br><br><div id=echoed_txt style=""font-size: 5rem; color:blue;""><b></b></div></div>",enter,ospan,retrieval,PZrbpfCalPUfFWsoEMHDNkWEV9y2,html-keyboard-response,89,1144462,0.0-46.0-2.0-1.0-2.0-0.0,NA,NA,NA,3.0,"[""P"",""K"",""S""]","[""P"",""K"",""S""]",1.0,3.0,"['<font color=""green"">P</font>', '<font color=""green"">K</font>', '<font color=""green"">S</font>']",,,,,,63ceed4669bb4db75ade6a1c,12:15:04,03/04/2024
4554.800000000047,"['<p style=""font-size:44px"">Letters:<br><br><br><font color=""green"">P</font> <font color=""green"">K</font> <font color=""green"">S</font></p><br><br><p style=""font-size:30px"">Symmetry:<br><br><font color=""green"">100%</font></p><br><br>']",0,ospan,practice_feedback,PZrbpfCalPUfFWsoEMHDNkWEV9y2,html-button-response,90,1149522,0.0-46.0-2.0-1.0-2.0-1.0,,,,,,,,,,,,,,,63ceed4669bb4db75ade6a1c,12:15:04,03/04/2024
,"<p style=""font-size:75px;"">...</p>",,ospan,iti,PZrbpfCalPUfFWsoEMHDNkWEV9y2,html-keyboard-response,91,1150528,0.0-46.0-2.0-2.0-0.0,,,,,,,,,,,,,,,63ceed4669bb4db75ade6a1c,12:15:04,03/04/2024
1069.0,,,ospan,symmetry,PZrbpfCalPUfFWsoEMHDNkWEV9y2,symmetry-judgement-task,92,1152699,0.0-46.0-2.0-2.0-1.0-0.0,,,,,,,,,,1.0,1.0,,,,63ceed4669bb4db75ade6a1c,12:15:04,03/04/2024
,"<div style=""font-size: 10rem; color: #0000FF"">N</div>",,ospan,letter,PZrbpfCalPUfFWsoEMHDNkWEV9y2,html-keyboard-response,93,1153706,0.0-46.0-2.0-2.0-1.0-1.0,,,,,,,,,,,,,,,63ceed4669bb4db75ade6a1c,12:15:04,03/04/2024
1142.0,,,ospan,symmetry,PZrbpfCalPUfFWsoEMHDNkWEV9y2,symmetry-judgement-task,94,1156701,0.0-46.0-2.0-2.0-1.0-2.0,,,,,,,,,,1.0,1.0,,,,63ceed4669bb4db75ade6a1c,12:15:04,03/04/2024
,"<div style=""font-size: 10rem; color: #0000FF"">H</div>",,ospan,letter,PZrbpfCalPUfFWsoEMHDNkWEV9y2,html-keyboard-response,95,1157703,0.0-46.0-2.0-2.0-1.0-3.0,,,,,,,,,,,,,,,63ceed4669bb4db75ade6a1c,12:15:04,03/04/2024
1300.0,,,ospan,symmetry,PZrbpfCalPUfFWsoEMHDNkWEV9y2,symmetry-judgement-task,96,1160848,0.0-46.0-2.0-2.0-1.0-4.0,,,,,,,,,,1.0,1.0,,,,63ceed4669bb4db75ade6a1c,12:15:04,03/04/2024
,"<div style=""font-size: 10rem; color: #0000FF"">Q</div>",,ospan,letter,PZrbpfCalPUfFWsoEMHDNkWEV9y2,html-keyboard-response,97,1161850,0.0-46.0-2.0-2.0-1.0-5.0,,,,,,,,,,,,,,,63ceed4669bb4db75ade6a1c,12:15:04,03/04/2024
12525.5,"<div class = numbox><p style=""font-size: 2.4rem"">Please recall the letters you saw to the best of your ability. If you do not remember a particular letter, use the SKIP button.<br><b>(When you are ready to lock in your answer, press ENTER)</b></p><button id = button_1 class = ""square num-button"" onclick = ""recordClick(this)""><div class = content><div class = numbers>C</div></div></button><button id = button_2 class = ""square num-button"" onclick = ""recordClick(this)""><div class = content><div class = numbers>G</div></div></button><button id = button_3 class = ""square num-button"" onclick = ""recordClick(this)""><div class = content><div class = numbers>H</div></div></button><button id = button_4 class = ""square num-button"" onclick = ""recordClick(this)""><div class = content><div class = numbers>J</div></div></button><button id = button_5 class = ""square num-button"" onclick = ""recordClick(this)""><div class = content><div class = numbers>K</div></div></button><button id = button_6 class = ""square num-button"" onclick = ""recordClick(this)""><div class = content><div class = numbers>L</div></div></button><button id = button_7 class = ""square num-button"" onclick = ""recordClick(this)""><div class = content><div class = numbers>N</div></div></button><button id = button_8 class = ""square num-button"" onclick = ""recordClick(this)""><div class = content><div class = numbers>P</div></div></button><button id = button_9 class = ""square num-button"" onclick = ""recordClick(this)""><div class = content><div class = numbers>Q</div></div></button><button id = button_10 class = ""square num-button"" onclick = ""recordClick(this)""><div class = content><div class = numbers>R</div></div></button><button id = button_11 class = ""square num-button"" onclick = ""recordClick(this)""><div class = content><div class = numbers>S</div></div></button><button id = button_12 class = ""square num-button"" onclick = ""recordClick(this)""><div class = content><div class = numbers>Y</div></div></button><button class = clear_button id = ""ClearButton"" onclick = ""clearResponse()"">BACKSPACE</button><button class = blank_button id = ""BlankButton"" onclick = ""blankResponse()"">SKIP</button><p style=""font-size: 2.4rem""><u><b>Current Answer:</b></u></p><br><br><div id=echoed_txt style=""font-size: 5rem; color:blue;""><b></b></div></div>",enter,ospan,retrieval,PZrbpfCalPUfFWsoEMHDNkWEV9y2,html-keyboard-response,98,1175134,0.0-46.0-2.0-2.0-2.0-0.0,NA,NA,NA,3.0,"[""N"",""H"",""Q""]","[""N"",""H"",""Q""]",1.0,3.0,"['<font color=""green"">N</font>', '<font color=""green"">H</font>', '<font color=""green"">Q</font>']",,,,,,63ceed4669bb4db75ade6a1c,12:15:04,03/04/2024
3145.7999999998137,"['<p style=""font-size:44px"">Letters:<br><br><br><font color=""green"">N</font> <font color=""green"">H</font> <font color=""green"">Q</font></p><br><br><p style=""font-size:30px"">Symmetry:<br><br><font color=""green"">100%</font></p><br><br>']",0,ospan,practice_feedback,PZrbpfCalPUfFWsoEMHDNkWEV9y2,html-button-response,99,1178783,0.0-46.0-2.0-2.0-2.0-1.0,,,,,,,,,,,,,,,63ceed4669bb4db75ade6a1c,12:15:04,03/04/2024
53604.60000000009,"<div class = 'left_align' style='font-size: 3rem; line-height: 1.3;'><b>Great work! That is the end of practice.</b><br><br>The real trials will look just like the practice trials you just completed.<br><br><u>Here, you will not see feedback</u>. First, you will see an grid picture to judge,<br>then a letter to remember. When the recall screen appears, report the letters in the<br>order presented. If you forget a letter, remember to use the <b>blank</b> button to move to the<br>next letter. Some of the sets will have more symmetry grids and letters than others.<br><br>It is important that you do your best on both the symmetry judgments and the letter recall<br>parts of the experiment. For for the symmetry judgments, try to work as <b>quickly</b> and <br>as <b>accurately</b> as possible. Remember to keep your symmetry accuracy at 85% or above.<br><br><b>For the letters, do NOT use any external aid (e.g., writing on paper, electronic device).</b><br><br>It is <u>very important</u> to our experiment to have a <b>true</b> view of your real performance.<br><br>Do not worry if you miss some when it gets hard! This task is meant to be very challenging!<br><br>Click the button to begin.</div><br><br><br><br>",0,ospan,starting_real_here,PZrbpfCalPUfFWsoEMHDNkWEV9y2,html-button-response,100,1232391,0.0-46.0-2.0-3.0,,,,,,,,,,,,,,,63ceed4669bb4db75ade6a1c,12:15:04,03/04/2024
,"<p style=""font-size:75px;"">...</p>",,ospan,iti,PZrbpfCalPUfFWsoEMHDNkWEV9y2,html-keyboard-response,101,1233649,0.0-46.0-3.0-0.0-0.0,,,,,,,,,,,,,,,63ceed4669bb4db75ade6a1c,12:15:04,03/04/2024
1256.0,,,ospan,symmetry,PZrbpfCalPUfFWsoEMHDNkWEV9y2,symmetry-judgement-task,102,1236003,0.0-46.0-3.0-0.0-1.0-0.0,,,,,,,,,,1.0,1.0,,,,63ceed4669bb4db75ade6a1c,12:15:04,03/04/2024
,"<div style=""font-size: 10rem; color: #0000FF"">L</div>",,ospan,letter,PZrbpfCalPUfFWsoEMHDNkWEV9y2,html-keyboard-response,103,1237010,0.0-46.0-3.0-0.0-1.0-1.0,,,,,,,,,,,,,,,63ceed4669bb4db75ade6a1c,12:15:04,03/04/2024
903.0,,,ospan,symmetry,PZrbpfCalPUfFWsoEMHDNkWEV9y2,symmetry-judgement-task,104,1239765,0.0-46.0-3.0-0.0-1.0-2.0,,,,,,,,,,1.0,1.0,,,,63ceed4669bb4db75ade6a1c,12:15:04,03/04/2024
,"<div style=""font-size: 10rem; color: #0000FF"">N</div>",,ospan,letter,PZrbpfCalPUfFWsoEMHDNkWEV9y2,html-keyboard-response,105,1240768,0.0-46.0-3.0-0.0-1.0-3.0,,,,,,,,,,,,,,,63ceed4669bb4db75ade6a1c,12:15:04,03/04/2024
1336.0,,,ospan,symmetry,PZrbpfCalPUfFWsoEMHDNkWEV9y2,symmetry-judgement-task,106,1243957,0.0-46.0-3.0-0.0-1.0-4.0,,,,,,,,,,1.0,1.0,,,,63ceed4669bb4db75ade6a1c,12:15:04,03/04/2024
,"<div style=""font-size: 10rem; color: #0000FF"">P</div>",,ospan,letter,PZrbpfCalPUfFWsoEMHDNkWEV9y2,html-keyboard-response,107,1244960,0.0-46.0-3.0-0.0-1.0-5.0,,,,,,,,,,,,,,,63ceed4669bb4db75ade6a1c,12:15:04,03/04/2024
6117.40000000014,"<div class = numbox><p style=""font-size: 2.4rem"">Please recall the letters you saw to the best of your ability. If you do not remember a particular letter, use the SKIP button.<br><b>(When you are ready to lock in your answer, press ENTER)</b></p><button id = button_1 class = ""square num-button"" onclick = ""recordClick(this)""><div class = content><div class = numbers>C</div></div></button><button id = button_2 class = ""square num-button"" onclick = ""recordClick(this)""><div class = content><div class = numbers>G</div></div></button><button id = button_3 class = ""square num-button"" onclick = ""recordClick(this)""><div class = content><div class = numbers>H</div></div></button><button id = button_4 class = ""square num-button"" onclick = ""recordClick(this)""><div class = content><div class = numbers>J</div></div></button><button id = button_5 class = ""square num-button"" onclick = ""recordClick(this)""><div class = content><div class = numbers>K</div></div></button><button id = button_6 class = ""square num-button"" onclick = ""recordClick(this)""><div class = content><div class = numbers>L</div></div></button><button id = button_7 class = ""square num-button"" onclick = ""recordClick(this)""><div class = content><div class = numbers>N</div></div></button><button id = button_8 class = ""square num-button"" onclick = ""recordClick(this)""><div class = content><div class = numbers>P</div></div></button><button id = button_9 class = ""square num-button"" onclick = ""recordClick(this)""><div class = content><div class = numbers>Q</div></div></button><button id = button_10 class = ""square num-button"" onclick = ""recordClick(this)""><div class = content><div class = numbers>R</div></div></button><button id = button_11 class = ""square num-button"" onclick = ""recordClick(this)""><div class = content><div class = numbers>S</div></div></button><button id = button_12 class = ""square num-button"" onclick = ""recordClick(this)""><div class = content><div class = numbers>Y</div></div></button><button class = clear_button id = ""ClearButton"" onclick = ""clearResponse()"">BACKSPACE</button><button class = blank_button id = ""BlankButton"" onclick = ""blankResponse()"">SKIP</button><p style=""font-size: 2.4rem""><u><b>Current Answer:</b></u></p><br><br><div id=echoed_txt style=""font-size: 5rem; color:blue;""><b></b></div></div>",enter,ospan,retrieval,PZrbpfCalPUfFWsoEMHDNkWEV9y2,html-keyboard-response,108,1251835,0.0-46.0-3.0-0.0-2.0,3,3,3,3.0,"[""L"",""N"",""P""]","[""L"",""N"",""P""]",1.0,3.0,,,,,,,63ceed4669bb4db75ade6a1c,12:15:04,03/04/2024
8629.0,[''],0,ospan,feedback,PZrbpfCalPUfFWsoEMHDNkWEV9y2,html-button-response,109,1260969,0.0-46.0-3.0-0.0-3.0,,,,,,,,,,,,100.0,0.0,,63ceed4669bb4db75ade6a1c,12:15:04,03/04/2024
,"<p style=""font-size:75px;"">...</p>",,ospan,iti,PZrbpfCalPUfFWsoEMHDNkWEV9y2,html-keyboard-response,110,1261977,0.0-46.0-4.0-0.0-0.0,,,,,,,,,,,,,,,63ceed4669bb4db75ade6a1c,12:15:04,03/04/2024
1439.0,,,ospan,symmetry,PZrbpfCalPUfFWsoEMHDNkWEV9y2,symmetry-judgement-task,111,1264516,0.0-46.0-4.0-0.0-1.0-0.0,,,,,,,,,,1.0,1.0,,,,63ceed4669bb4db75ade6a1c,12:15:04,03/04/2024
,"<div style=""font-size: 10rem; color: #0000FF"">R</div>",,ospan,letter,PZrbpfCalPUfFWsoEMHDNkWEV9y2,html-keyboard-response,112,1265523,0.0-46.0-4.0-0.0-1.0-1.0,,,,,,,,,,,,,,,63ceed4669bb4db75ade6a1c,12:15:04,03/04/2024
2023.0,,,ospan,symmetry,PZrbpfCalPUfFWsoEMHDNkWEV9y2,symmetry-judgement-task,113,1269389,0.0-46.0-4.0-0.0-1.0-2.0,,,,,,,,,,1.0,1.0,,,,63ceed4669bb4db75ade6a1c,12:15:04,03/04/2024
,"<div style=""font-size: 10rem; color: #0000FF"">P</div>",,ospan,letter,PZrbpfCalPUfFWsoEMHDNkWEV9y2,html-keyboard-response,114,1270396,0.0-46.0-4.0-0.0-1.0-3.0,,,,,,,,,,,,,,,63ceed4669bb4db75ade6a1c,12:15:04,03/04/2024
1102.0,,,ospan,symmetry,PZrbpfCalPUfFWsoEMHDNkWEV9y2,symmetry-judgement-task,115,1273294,0.0-46.0-4.0-0.0-1.0-4.0,,,,,,,,,,1.0,1.0,,,,63ceed4669bb4db75ade6a1c,12:15:04,03/04/2024
,"<div style=""font-size: 10rem; color: #0000FF"">C</div>",,ospan,letter,PZrbpfCalPUfFWsoEMHDNkWEV9y2,html-keyboard-response,116,1274300,0.0-46.0-4.0-0.0-1.0-5.0,,,,,,,,,,,,,,,63ceed4669bb4db75ade6a1c,12:15:04,03/04/2024
955.0,,,ospan,symmetry,PZrbpfCalPUfFWsoEMHDNkWEV9y2,symmetry-judgement-task,117,1277105,0.0-46.0-4.0-0.0-1.0-6.0,,,,,,,,,,1.0,1.0,,,,63ceed4669bb4db75ade6a1c,12:15:04,03/04/2024
,"<div style=""font-size: 10rem; color: #0000FF"">N</div>",,ospan,letter,PZrbpfCalPUfFWsoEMHDNkWEV9y2,html-keyboard-response,118,1278113,0.0-46.0-4.0-0.0-1.0-7.0,,,,,,,,,,,,,,,63ceed4669bb4db75ade6a1c,12:15:04,03/04/2024
14681.0,"<div class = numbox><p style=""font-size: 2.4rem"">Please recall the letters you saw to the best of your ability. If you do not remember a particular letter, use the SKIP button.<br><b>(When you are ready to lock in your answer, press ENTER)</b></p><button id = button_1 class = ""square num-button"" onclick = ""recordClick(this)""><div class = content><div class = numbers>C</div></div></button><button id = button_2 class = ""square num-button"" onclick = ""recordClick(this)""><div class = content><div class = numbers>G</div></div></button><button id = button_3 class = ""square num-button"" onclick = ""recordClick(this)""><div class = content><div class = numbers>H</div></div></button><button id = button_4 class = ""square num-button"" onclick = ""recordClick(this)""><div class = content><div class = numbers>J</div></div></button><button id = button_5 class = ""square num-button"" onclick = ""recordClick(this)""><div class = content><div class = numbers>K</div></div></button><button id = button_6 class = ""square num-button"" onclick = ""recordClick(this)""><div class = content><div class = numbers>L</div></div></button><button id = button_7 class = ""square num-button"" onclick = ""recordClick(this)""><div class = content><div class = numbers>N</div></div></button><button id = button_8 class = ""square num-button"" onclick = ""recordClick(this)""><div class = content><div class = numbers>P</div></div></button><button id = button_9 class = ""square num-button"" onclick = ""recordClick(this)""><div class = content><div class = numbers>Q</div></div></button><button id = button_10 class = ""square num-button"" onclick = ""recordClick(this)""><div class = content><div class = numbers>R</div></div></button><button id = button_11 class = ""square num-button"" onclick = ""recordClick(this)""><div class = content><div class = numbers>S</div></div></button><button id = button_12 class = ""square num-button"" onclick = ""recordClick(this)""><div class = content><div class = numbers>Y</div></div></button><button class = clear_button id = ""ClearButton"" onclick = ""clearResponse()"">BACKSPACE</button><button class = blank_button id = ""BlankButton"" onclick = ""blankResponse()"">SKIP</button><p style=""font-size: 2.4rem""><u><b>Current Answer:</b></u></p><br><br><div id=echoed_txt style=""font-size: 5rem; color:blue;""><b></b></div></div>",enter,ospan,retrieval,PZrbpfCalPUfFWsoEMHDNkWEV9y2,html-keyboard-response,119,1293551,0.0-46.0-4.0-0.0-2.0,7,7,7,4.0,"[""R"",""P"",""C"",""N""]","[""R"",""P"",""C"",""N""]",1.0,4.0,,,,,,,63ceed4669bb4db75ade6a1c,12:15:04,03/04/2024
1917.0999999998603,[''],0,ospan,feedback,PZrbpfCalPUfFWsoEMHDNkWEV9y2,html-button-response,120,1295974,0.0-46.0-4.0-0.0-3.0,,,,,,,,,,,,100.0,0.0,,63ceed4669bb4db75ade6a1c,12:15:04,03/04/2024
,"<p style=""font-size:75px;"">...</p>",,ospan,iti,PZrbpfCalPUfFWsoEMHDNkWEV9y2,html-keyboard-response,121,1296981,0.0-46.0-4.0-1.0-0.0,,,,,,,,,,,,,,,63ceed4669bb4db75ade6a1c,12:15:04,03/04/2024
1343.0,,,ospan,symmetry,PZrbpfCalPUfFWsoEMHDNkWEV9y2,symmetry-judgement-task,122,1299427,0.0-46.0-4.0-1.0-1.0-0.0,,,,,,,,,,1.0,1.0,,,,63ceed4669bb4db75ade6a1c,12:15:04,03/04/2024
,"<div style=""font-size: 10rem; color: #0000FF"">Y</div>",,ospan,letter,PZrbpfCalPUfFWsoEMHDNkWEV9y2,html-keyboard-response,123,1300430,0.0-46.0-4.0-1.0-1.0-1.0,,,,,,,,,,,,,,,63ceed4669bb4db75ade6a1c,12:15:04,03/04/2024
1395.0,,,ospan,symmetry,PZrbpfCalPUfFWsoEMHDNkWEV9y2,symmetry-judgement-task,124,1303679,0.0-46.0-4.0-1.0-1.0-2.0,,,,,,,,,,1.0,1.0,,,,63ceed4669bb4db75ade6a1c,12:15:04,03/04/2024
,"<div style=""font-size: 10rem; color: #0000FF"">K</div>",,ospan,letter,PZrbpfCalPUfFWsoEMHDNkWEV9y2,html-keyboard-response,125,1304682,0.0-46.0-4.0-1.0-1.0-3.0,,,,,,,,,,,,,,,63ceed4669bb4db75ade6a1c,12:15:04,03/04/2024
1563.0,,,ospan,symmetry,PZrbpfCalPUfFWsoEMHDNkWEV9y2,symmetry-judgement-task,126,1308101,0.0-46.0-4.0-1.0-1.0-4.0,,,,,,,,,,1.0,1.0,,,,63ceed4669bb4db75ade6a1c,12:15:04,03/04/2024
,"<div style=""font-size: 10rem; color: #0000FF"">R</div>",,ospan,letter,PZrbpfCalPUfFWsoEMHDNkWEV9y2,html-keyboard-response,127,1309109,0.0-46.0-4.0-1.0-1.0-5.0,,,,,,,,,,,,,,,63ceed4669bb4db75ade6a1c,12:15:04,03/04/2024
1181.0,,,ospan,symmetry,PZrbpfCalPUfFWsoEMHDNkWEV9y2,symmetry-judgement-task,128,1312148,0.0-46.0-4.0-1.0-1.0-6.0,,,,,,,,,,1.0,1.0,,,,63ceed4669bb4db75ade6a1c,12:15:04,03/04/2024
,"<div style=""font-size: 10rem; color: #0000FF"">N</div>",,ospan,letter,PZrbpfCalPUfFWsoEMHDNkWEV9y2,html-keyboard-response,129,1313150,0.0-46.0-4.0-1.0-1.0-7.0,,,,,,,,,,,,,,,63ceed4669bb4db75ade6a1c,12:15:04,03/04/2024
984.0,,,ospan,symmetry,PZrbpfCalPUfFWsoEMHDNkWEV9y2,symmetry-judgement-task,130,1315987,0.0-46.0-4.0-1.0-1.0-8.0,,,,,,,,,,1.0,1.0,,,,63ceed4669bb4db75ade6a1c,12:15:04,03/04/2024
,"<div style=""font-size: 10rem; color: #0000FF"">H</div>",,ospan,letter,PZrbpfCalPUfFWsoEMHDNkWEV9y2,html-keyboard-response,131,1316990,0.0-46.0-4.0-1.0-1.0-9.0,,,,,,,,,,,,,,,63ceed4669bb4db75ade6a1c,12:15:04,03/04/2024
26718.59999999986,"<div class = numbox><p style=""font-size: 2.4rem"">Please recall the letters you saw to the best of your ability. If you do not remember a particular letter, use the SKIP button.<br><b>(When you are ready to lock in your answer, press ENTER)</b></p><button id = button_1 class = ""square num-button"" onclick = ""recordClick(this)""><div class = content><div class = numbers>C</div></div></button><button id = button_2 class = ""square num-button"" onclick = ""recordClick(this)""><div class = content><div class = numbers>G</div></div></button><button id = button_3 class = ""square num-button"" onclick = ""recordClick(this)""><div class = content><div class = numbers>H</div></div></button><button id = button_4 class = ""square num-button"" onclick = ""recordClick(this)""><div class = content><div class = numbers>J</div></div></button><button id = button_5 class = ""square num-button"" onclick = ""recordClick(this)""><div class = content><div class = numbers>K</div></div></button><button id = button_6 class = ""square num-button"" onclick = ""recordClick(this)""><div class = content><div class = numbers>L</div></div></button><button id = button_7 class = ""square num-button"" onclick = ""recordClick(this)""><div class = content><div class = numbers>N</div></div></button><button id = button_8 class = ""square num-button"" onclick = ""recordClick(this)""><div class = content><div class = numbers>P</div></div></button><button id = button_9 class = ""square num-button"" onclick = ""recordClick(this)""><div class = content><div class = numbers>Q</div></div></button><button id = button_10 class = ""square num-button"" onclick = ""recordClick(this)""><div class = content><div class = numbers>R</div></div></button><button id = button_11 class = ""square num-button"" onclick = ""recordClick(this)""><div class = content><div class = numbers>S</div></div></button><button id = button_12 class = ""square num-button"" onclick = ""recordClick(this)""><div class = content><div class = numbers>Y</div></div></button><button class = clear_button id = ""ClearButton"" onclick = ""clearResponse()"">BACKSPACE</button><button class = blank_button id = ""BlankButton"" onclick = ""blankResponse()"">SKIP</button><p style=""font-size: 2.4rem""><u><b>Current Answer:</b></u></p><br><br><div id=echoed_txt style=""font-size: 5rem; color:blue;""><b></b></div></div>",enter,ospan,retrieval,PZrbpfCalPUfFWsoEMHDNkWEV9y2,html-keyboard-response,132,1344463,0.0-46.0-4.0-1.0-2.0,12,12,12,5.0,"[""Y"",""K"",""R"",""N"",""H""]","[""Y"",""K"",""R"",""N"",""H""]",1.0,5.0,,,,,,,63ceed4669bb4db75ade6a1c,12:15:04,03/04/2024
10776.300000000047,[''],0,ospan,feedback,PZrbpfCalPUfFWsoEMHDNkWEV9y2,html-button-response,133,1355744,0.0-46.0-4.0-1.0-3.0,,,,,,,,,,,,100.0,0.0,,63ceed4669bb4db75ade6a1c,12:15:04,03/04/2024
,"<p style=""font-size:75px;"">...</p>",,ospan,iti,PZrbpfCalPUfFWsoEMHDNkWEV9y2,html-keyboard-response,134,1356749,0.0-46.0-4.0-2.0-0.0,,,,,,,,,,,,,,,63ceed4669bb4db75ade6a1c,12:15:04,03/04/2024
1075.0,,,ospan,symmetry,PZrbpfCalPUfFWsoEMHDNkWEV9y2,symmetry-judgement-task,135,1358923,0.0-46.0-4.0-2.0-1.0-0.0,,,,,,,,,,1.0,1.0,,,,63ceed4669bb4db75ade6a1c,12:15:04,03/04/2024
,"<div style=""font-size: 10rem; color: #0000FF"">L</div>",,ospan,letter,PZrbpfCalPUfFWsoEMHDNkWEV9y2,html-keyboard-response,136,1359927,0.0-46.0-4.0-2.0-1.0-1.0,,,,,,,,,,,,,,,63ceed4669bb4db75ade6a1c,12:15:04,03/04/2024
1065.0,,,ospan,symmetry,PZrbpfCalPUfFWsoEMHDNkWEV9y2,symmetry-judgement-task,137,1362832,0.0-46.0-4.0-2.0-1.0-2.0,,,,,,,,,,1.0,1.0,,,,63ceed4669bb4db75ade6a1c,12:15:04,03/04/2024
,"<div style=""font-size: 10rem; color: #0000FF"">G</div>",,ospan,letter,PZrbpfCalPUfFWsoEMHDNkWEV9y2,html-keyboard-response,138,1363834,0.0-46.0-4.0-2.0-1.0-3.0,,,,,,,,,,,,,,,63ceed4669bb4db75ade6a1c,12:15:04,03/04/2024
1168.0,,,ospan,symmetry,PZrbpfCalPUfFWsoEMHDNkWEV9y2,symmetry-judgement-task,139,1366860,0.0-46.0-4.0-2.0-1.0-4.0,,,,,,,,,,1.0,1.0,,,,63ceed4669bb4db75ade6a1c,12:15:04,03/04/2024
,"<div style=""font-size: 10rem; color: #0000FF"">R</div>",,ospan,letter,PZrbpfCalPUfFWsoEMHDNkWEV9y2,html-keyboard-response,140,1367862,0.0-46.0-4.0-2.0-1.0-5.0,,,,,,,,,,,,,,,63ceed4669bb4db75ade6a1c,12:15:04,03/04/2024
4865.300000000047,"<div class = numbox><p style=""font-size: 2.4rem"">Please recall the letters you saw to the best of your ability. If you do not remember a particular letter, use the SKIP button.<br><b>(When you are ready to lock in your answer, press ENTER)</b></p><button id = button_1 class = ""square num-button"" onclick = ""recordClick(this)""><div class = content><div class = numbers>C</div></div></button><button id = button_2 class = ""square num-button"" onclick = ""recordClick(this)""><div class = content><div class = numbers>G</div></div></button><button id = button_3 class = ""square num-button"" onclick = ""recordClick(this)""><div class = content><div class = numbers>H</div></div></button><button id = button_4 class = ""square num-button"" onclick = ""recordClick(this)""><div class = content><div class = numbers>J</div></div></button><button id = button_5 class = ""square num-button"" onclick = ""recordClick(this)""><div class = content><div class = numbers>K</div></div></button><button id = button_6 class = ""square num-button"" onclick = ""recordClick(this)""><div class = content><div class = numbers>L</div></div></button><button id = button_7 class = ""square num-button"" onclick = ""recordClick(this)""><div class = content><div class = numbers>N</div></div></button><button id = button_8 class = ""square num-button"" onclick = ""recordClick(this)""><div class = content><div class = numbers>P</div></div></button><button id = button_9 class = ""square num-button"" onclick = ""recordClick(this)""><div class = content><div class = numbers>Q</div></div></button><button id = button_10 class = ""square num-button"" onclick = ""recordClick(this)""><div class = content><div class = numbers>R</div></div></button><button id = button_11 class = ""square num-button"" onclick = ""recordClick(this)""><div class = content><div class = numbers>S</div></div></button><button id = button_12 class = ""square num-button"" onclick = ""recordClick(this)""><div class = content><div class = numbers>Y</div></div></button><button class = clear_button id = ""ClearButton"" onclick = ""clearResponse()"">BACKSPACE</button><button class = blank_button id = ""BlankButton"" onclick = ""blankResponse()"">SKIP</button><p style=""font-size: 2.4rem""><u><b>Current Answer:</b></u></p><br><br><div id=echoed_txt style=""font-size: 5rem; color:blue;""><b></b></div></div>",enter,ospan,retrieval,PZrbpfCalPUfFWsoEMHDNkWEV9y2,html-keyboard-response,141,1373486,0.0-46.0-4.0-2.0-2.0,15,15,15,3.0,"[""L"",""G"",""R""]","[""L"",""G"",""R""]",1.0,3.0,,,,,,,63ceed4669bb4db75ade6a1c,12:15:04,03/04/2024
1489.5,[''],0,ospan,feedback,PZrbpfCalPUfFWsoEMHDNkWEV9y2,html-button-response,142,1375480,0.0-46.0-4.0-2.0-3.0,,,,,,,,,,,,100.0,0.0,,63ceed4669bb4db75ade6a1c,12:15:04,03/04/2024
,"<p style=""font-size:75px;"">...</p>",,ospan,iti,PZrbpfCalPUfFWsoEMHDNkWEV9y2,html-keyboard-response,143,1376484,0.0-46.0-5.0-0.0-0.0,,,,,,,,,,,,,,,63ceed4669bb4db75ade6a1c,12:15:04,03/04/2024
1708.0,,,ospan,symmetry,PZrbpfCalPUfFWsoEMHDNkWEV9y2,symmetry-judgement-task,144,1379295,0.0-46.0-5.0-0.0-1.0-0.0,,,,,,,,,,1.0,1.0,,,,63ceed4669bb4db75ade6a1c,12:15:04,03/04/2024
,"<div style=""font-size: 10rem; color: #0000FF"">Y</div>",,ospan,letter,PZrbpfCalPUfFWsoEMHDNkWEV9y2,html-keyboard-response,145,1380301,0.0-46.0-5.0-0.0-1.0-1.0,,,,,,,,,,,,,,,63ceed4669bb4db75ade6a1c,12:15:04,03/04/2024
1105.0,,,ospan,symmetry,PZrbpfCalPUfFWsoEMHDNkWEV9y2,symmetry-judgement-task,146,1383264,0.0-46.0-5.0-0.0-1.0-2.0,,,,,,,,,,1.0,1.0,,,,63ceed4669bb4db75ade6a1c,12:15:04,03/04/2024
,"<div style=""font-size: 10rem; color: #0000FF"">J</div>",,ospan,letter,PZrbpfCalPUfFWsoEMHDNkWEV9y2,html-keyboard-response,147,1384271,0.0-46.0-5.0-0.0-1.0-3.0,,,,,,,,,,,,,,,63ceed4669bb4db75ade6a1c,12:15:04,03/04/2024
1195.0,,,ospan,symmetry,PZrbpfCalPUfFWsoEMHDNkWEV9y2,symmetry-judgement-task,148,1387260,0.0-46.0-5.0-0.0-1.0-4.0,,,,,,,,,,1.0,1.0,,,,63ceed4669bb4db75ade6a1c,12:15:04,03/04/2024
,"<div style=""font-size: 10rem; color: #0000FF"">K</div>",,ospan,letter,PZrbpfCalPUfFWsoEMHDNkWEV9y2,html-keyboard-response,149,1388267,0.0-46.0-5.0-0.0-1.0-5.0,,,,,,,,,,,,,,,63ceed4669bb4db75ade6a1c,12:15:04,03/04/2024
1049.0,,,ospan,symmetry,PZrbpfCalPUfFWsoEMHDNkWEV9y2,symmetry-judgement-task,150,1391163,0.0-46.0-5.0-0.0-1.0-6.0,,,,,,,,,,1.0,1.0,,,,63ceed4669bb4db75ade6a1c,12:15:04,03/04/2024
,"<div style=""font-size: 10rem; color: #0000FF"">Q</div>",,ospan,letter,PZrbpfCalPUfFWsoEMHDNkWEV9y2,html-keyboard-response,151,1392167,0.0-46.0-5.0-0.0-1.0-7.0,,,,,,,,,,,,,,,63ceed4669bb4db75ade6a1c,12:15:04,03/04/2024
1198.0,,,ospan,symmetry,PZrbpfCalPUfFWsoEMHDNkWEV9y2,symmetry-judgement-task,152,1395221,0.0-46.0-5.0-0.0-1.0-8.0,,,,,,,,,,1.0,1.0,,,,63ceed4669bb4db75ade6a1c,12:15:04,03/04/2024
,"<div style=""font-size: 10rem; color: #0000FF"">L</div>",,ospan,letter,PZrbpfCalPUfFWsoEMHDNkWEV9y2,html-keyboard-response,153,1396225,0.0-46.0-5.0-0.0-1.0-9.0,,,,,,,,,,,,,,,63ceed4669bb4db75ade6a1c,12:15:04,03/04/2024
1599.0,,,ospan,symmetry,PZrbpfCalPUfFWsoEMHDNkWEV9y2,symmetry-judgement-task,154,1399678,0.0-46.0-5.0-0.0-1.0-10.0,,,,,,,,,,1.0,1.0,,,,63ceed4669bb4db75ade6a1c,12:15:04,03/04/2024
,"<div style=""font-size: 10rem; color: #0000FF"">G</div>",,ospan,letter,PZrbpfCalPUfFWsoEMHDNkWEV9y2,html-keyboard-response,155,1400685,0.0-46.0-5.0-0.0-1.0-11.0,,,,,,,,,,,,,,,63ceed4669bb4db75ade6a1c,12:15:04,03/04/2024
21148.399999999907,"<div class = numbox><p style=""font-size: 2.4rem"">Please recall the letters you saw to the best of your ability. If you do not remember a particular letter, use the SKIP button.<br><b>(When you are ready to lock in your answer, press ENTER)</b></p><button id = button_1 class = ""square num-button"" onclick = ""recordClick(this)""><div class = content><div class = numbers>C</div></div></button><button id = button_2 class = ""square num-button"" onclick = ""recordClick(this)""><div class = content><div class = numbers>G</div></div></button><button id = button_3 class = ""square num-button"" onclick = ""recordClick(this)""><div class = content><div class = numbers>H</div></div></button><button id = button_4 class = ""square num-button"" onclick = ""recordClick(this)""><div class = content><div class = numbers>J</div></div></button><button id = button_5 class = ""square num-button"" onclick = ""recordClick(this)""><div class = content><div class = numbers>K</div></div></button><button id = button_6 class = ""square num-button"" onclick = ""recordClick(this)""><div class = content><div class = numbers>L</div></div></button><button id = button_7 class = ""square num-button"" onclick = ""recordClick(this)""><div class = content><div class = numbers>N</div></div></button><button id = button_8 class = ""square num-button"" onclick = ""recordClick(this)""><div class = content><div class = numbers>P</div></div></button><button id = button_9 class = ""square num-button"" onclick = ""recordClick(this)""><div class = content><div class = numbers>Q</div></div></button><button id = button_10 class = ""square num-button"" onclick = ""recordClick(this)""><div class = content><div class = numbers>R</div></div></button><button id = button_11 class = ""square num-button"" onclick = ""recordClick(this)""><div class = content><div class = numbers>S</div></div></button><button id = button_12 class = ""square num-button"" onclick = ""recordClick(this)""><div class = content><div class = numbers>Y</div></div></button><button class = clear_button id = ""ClearButton"" onclick = ""clearResponse()"">BACKSPACE</button><button class = blank_button id = ""BlankButton"" onclick = ""blankResponse()"">SKIP</button><p style=""font-size: 2.4rem""><u><b>Current Answer:</b></u></p><br><br><div id=echoed_txt style=""font-size: 5rem; color:blue;""><b></b></div></div>",enter,ospan,retrieval,PZrbpfCalPUfFWsoEMHDNkWEV9y2,html-keyboard-response,156,1422590,0.0-46.0-5.0-0.0-2.0,21,21,21,6.0,"[""Y"",""J"",""K"",""Q"",""L"",""G""]","[""Y"",""J"",""K"",""Q"",""L"",""G""]",1.0,6.0,,,,,,,63ceed4669bb4db75ade6a1c,12:15:04,03/04/2024
7744.100000000093,[''],0,ospan,feedback,PZrbpfCalPUfFWsoEMHDNkWEV9y2,html-button-response,157,1430839,0.0-46.0-5.0-0.0-3.0,,,,,,,,,,,,100.0,0.0,,63ceed4669bb4db75ade6a1c,12:15:04,03/04/2024
,"<p style=""font-size:75px;"">...</p>",,ospan,iti,PZrbpfCalPUfFWsoEMHDNkWEV9y2,html-keyboard-response,158,1431844,0.0-46.0-5.0-1.0-0.0,,,,,,,,,,,,,,,63ceed4669bb4db75ade6a1c,12:15:04,03/04/2024
1629.0,,,ospan,symmetry,PZrbpfCalPUfFWsoEMHDNkWEV9y2,symmetry-judgement-task,159,1434581,0.0-46.0-5.0-1.0-1.0-0.0,,,,,,,,,,1.0,1.0,,,,63ceed4669bb4db75ade6a1c,12:15:04,03/04/2024
,"<div style=""font-size: 10rem; color: #0000FF"">S</div>",,ospan,letter,PZrbpfCalPUfFWsoEMHDNkWEV9y2,html-keyboard-response,160,1435587,0.0-46.0-5.0-1.0-1.0-1.0,,,,,,,,,,,,,,,63ceed4669bb4db75ade6a1c,12:15:04,03/04/2024
1416.0,,,ospan,symmetry,PZrbpfCalPUfFWsoEMHDNkWEV9y2,symmetry-judgement-task,161,1438866,0.0-46.0-5.0-1.0-1.0-2.0,,,,,,,,,,1.0,1.0,,,,63ceed4669bb4db75ade6a1c,12:15:04,03/04/2024
,"<div style=""font-size: 10rem; color: #0000FF"">J</div>",,ospan,letter,PZrbpfCalPUfFWsoEMHDNkWEV9y2,html-keyboard-response,162,1439872,0.0-46.0-5.0-1.0-1.0-3.0,,,,,,,,,,,,,,,63ceed4669bb4db75ade6a1c,12:15:04,03/04/2024
1073.0,,,ospan,symmetry,PZrbpfCalPUfFWsoEMHDNkWEV9y2,symmetry-judgement-task,163,1442793,0.0-46.0-5.0-1.0-1.0-4.0,,,,,,,,,,1.0,1.0,,,,63ceed4669bb4db75ade6a1c,12:15:04,03/04/2024
,"<div style=""font-size: 10rem; color: #0000FF"">C</div>",,ospan,letter,PZrbpfCalPUfFWsoEMHDNkWEV9y2,html-keyboard-response,164,1443800,0.0-46.0-5.0-1.0-1.0-5.0,,,,,,,,,,,,,,,63ceed4669bb4db75ade6a1c,12:15:04,03/04/2024
1063.0,,,ospan,symmetry,PZrbpfCalPUfFWsoEMHDNkWEV9y2,symmetry-judgement-task,165,1446714,0.0-46.0-5.0-1.0-1.0-6.0,,,,,,,,,,1.0,1.0,,,,63ceed4669bb4db75ade6a1c,12:15:04,03/04/2024
,"<div style=""font-size: 10rem; color: #0000FF"">R</div>",,ospan,letter,PZrbpfCalPUfFWsoEMHDNkWEV9y2,html-keyboard-response,166,1447721,0.0-46.0-5.0-1.0-1.0-7.0,,,,,,,,,,,,,,,63ceed4669bb4db75ade6a1c,12:15:04,03/04/2024
1069.0,,,ospan,symmetry,PZrbpfCalPUfFWsoEMHDNkWEV9y2,symmetry-judgement-task,167,1450639,0.0-46.0-5.0-1.0-1.0-8.0,,,,,,,,,,1.0,1.0,,,,63ceed4669bb4db75ade6a1c,12:15:04,03/04/2024
,"<div style=""font-size: 10rem; color: #0000FF"">K</div>",,ospan,letter,PZrbpfCalPUfFWsoEMHDNkWEV9y2,html-keyboard-response,168,1451646,0.0-46.0-5.0-1.0-1.0-9.0,,,,,,,,,,,,,,,63ceed4669bb4db75ade6a1c,12:15:04,03/04/2024
1386.0,,,ospan,symmetry,PZrbpfCalPUfFWsoEMHDNkWEV9y2,symmetry-judgement-task,169,1454886,0.0-46.0-5.0-1.0-1.0-10.0,,,,,,,,,,1.0,1.0,,,,63ceed4669bb4db75ade6a1c,12:15:04,03/04/2024
,"<div style=""font-size: 10rem; color: #0000FF"">H</div>",,ospan,letter,PZrbpfCalPUfFWsoEMHDNkWEV9y2,html-keyboard-response,170,1455890,0.0-46.0-5.0-1.0-1.0-11.0,,,,,,,,,,,,,,,63ceed4669bb4db75ade6a1c,12:15:04,03/04/2024
1624.0,,,ospan,symmetry,PZrbpfCalPUfFWsoEMHDNkWEV9y2,symmetry-judgement-task,171,1459364,0.0-46.0-5.0-1.0-1.0-12.0,,,,,,,,,,1.0,1.0,,,,63ceed4669bb4db75ade6a1c,12:15:04,03/04/2024
,"<div style=""font-size: 10rem; color: #0000FF"">Y</div>",,ospan,letter,PZrbpfCalPUfFWsoEMHDNkWEV9y2,html-keyboard-response,172,1460371,0.0-46.0-5.0-1.0-1.0-13.0,,,,,,,,,,,,,,,63ceed4669bb4db75ade6a1c,12:15:04,03/04/2024
33715.89999999991,"<div class = numbox><p style=""font-size: 2.4rem"">Please recall the letters you saw to the best of your ability. If you do not remember a particular letter, use the SKIP button.<br><b>(When you are ready to lock in your answer, press ENTER)</b></p><button id = button_1 class = ""square num-button"" onclick = ""recordClick(this)""><div class = content><div class = numbers>C</div></div></button><button id = button_2 class = ""square num-button"" onclick = ""recordClick(this)""><div class = content><div class = numbers>G</div></div></button><button id = button_3 class = ""square num-button"" onclick = ""recordClick(this)""><div class = content><div class = numbers>H</div></div></button><button id = button_4 class = ""square num-button"" onclick = ""recordClick(this)""><div class = content><div class = numbers>J</div></div></button><button id = button_5 class = ""square num-button"" onclick = ""recordClick(this)""><div class = content><div class = numbers>K</div></div></button><button id = button_6 class = ""square num-button"" onclick = ""recordClick(this)""><div class = content><div class = numbers>L</div></div></button><button id = button_7 class = ""square num-button"" onclick = ""recordClick(this)""><div class = content><div class = numbers>N</div></div></button><button id = button_8 class = ""square num-button"" onclick = ""recordClick(this)""><div class = content><div class = numbers>P</div></div></button><button id = button_9 class = ""square num-button"" onclick = ""recordClick(this)""><div class = content><div class = numbers>Q</div></div></button><button id = button_10 class = ""square num-button"" onclick = ""recordClick(this)""><div class = content><div class = numbers>R</div></div></button><button id = button_11 class = ""square num-button"" onclick = ""recordClick(this)""><div class = content><div class = numbers>S</div></div></button><button id = button_12 class = ""square num-button"" onclick = ""recordClick(this)""><div class = content><div class = numbers>Y</div></div></button><button class = clear_button id = ""ClearButton"" onclick = ""clearResponse()"">BACKSPACE</button><button class = blank_button id = ""BlankButton"" onclick = ""blankResponse()"">SKIP</button><p style=""font-size: 2.4rem""><u><b>Current Answer:</b></u></p><br><br><div id=echoed_txt style=""font-size: 5rem; color:blue;""><b></b></div></div>",enter,ospan,retrieval,PZrbpfCalPUfFWsoEMHDNkWEV9y2,html-keyboard-response,173,1494844,0.0-46.0-5.0-1.0-2.0,28,28,28,7.0,"[""S"",""J"",""C"",""R"",""K"",""H"",""Y""]","[""S"",""J"",""C"",""R"",""K"",""H"",""Y""]",1.0,7.0,,,,,,,63ceed4669bb4db75ade6a1c,12:15:04,03/04/2024
7366.199999999953,[''],0,ospan,feedback,PZrbpfCalPUfFWsoEMHDNkWEV9y2,html-button-response,174,1502714,0.0-46.0-5.0-1.0-3.0,,,,,,,,,,,,100.0,0.0,,63ceed4669bb4db75ade6a1c,12:15:04,03/04/2024
,"<p style=""font-size:75px;"">...</p>",,ospan,iti,PZrbpfCalPUfFWsoEMHDNkWEV9y2,html-keyboard-response,175,1503723,0.0-46.0-6.0-0.0-0.0,,,,,,,,,,,,,,,63ceed4669bb4db75ade6a1c,12:15:04,03/04/2024
1287.0,,,ospan,symmetry,PZrbpfCalPUfFWsoEMHDNkWEV9y2,symmetry-judgement-task,176,1506107,0.0-46.0-6.0-0.0-1.0-0.0,,,,,,,,,,1.0,1.0,,,,63ceed4669bb4db75ade6a1c,12:15:04,03/04/2024
,"<div style=""font-size: 10rem; color: #0000FF"">S</div>",,ospan,letter,PZrbpfCalPUfFWsoEMHDNkWEV9y2,html-keyboard-response,177,1507114,0.0-46.0-6.0-0.0-1.0-1.0,,,,,,,,,,,,,,,63ceed4669bb4db75ade6a1c,12:15:04,03/04/2024
1592.0,,,ospan,symmetry,PZrbpfCalPUfFWsoEMHDNkWEV9y2,symmetry-judgement-task,178,1510556,0.0-46.0-6.0-0.0-1.0-2.0,,,,,,,,,,1.0,1.0,,,,63ceed4669bb4db75ade6a1c,12:15:04,03/04/2024
,"<div style=""font-size: 10rem; color: #0000FF"">J</div>",,ospan,letter,PZrbpfCalPUfFWsoEMHDNkWEV9y2,html-keyboard-response,179,1511558,0.0-46.0-6.0-0.0-1.0-3.0,,,,,,,,,,,,,,,63ceed4669bb4db75ade6a1c,12:15:04,03/04/2024
1338.0,,,ospan,symmetry,PZrbpfCalPUfFWsoEMHDNkWEV9y2,symmetry-judgement-task,180,1514754,0.0-46.0-6.0-0.0-1.0-4.0,,,,,,,,,,1.0,1.0,,,,63ceed4669bb4db75ade6a1c,12:15:04,03/04/2024
,"<div style=""font-size: 10rem; color: #0000FF"">R</div>",,ospan,letter,PZrbpfCalPUfFWsoEMHDNkWEV9y2,html-keyboard-response,181,1515760,0.0-46.0-6.0-0.0-1.0-5.0,,,,,,,,,,,,,,,63ceed4669bb4db75ade6a1c,12:15:04,03/04/2024
1484.0,,,ospan,symmetry,PZrbpfCalPUfFWsoEMHDNkWEV9y2,symmetry-judgement-task,182,1519099,0.0-46.0-6.0-0.0-1.0-6.0,,,,,,,,,,1.0,1.0,,,,63ceed4669bb4db75ade6a1c,12:15:04,03/04/2024
,"<div style=""font-size: 10rem; color: #0000FF"">H</div>",,ospan,letter,PZrbpfCalPUfFWsoEMHDNkWEV9y2,html-keyboard-response,183,1520103,0.0-46.0-6.0-0.0-1.0-7.0,,,,,,,,,,,,,,,63ceed4669bb4db75ade6a1c,12:15:04,03/04/2024
2049.0,,,ospan,symmetry,PZrbpfCalPUfFWsoEMHDNkWEV9y2,symmetry-judgement-task,184,1523998,0.0-46.0-6.0-0.0-1.0-8.0,,,,,,,,,,1.0,1.0,,,,63ceed4669bb4db75ade6a1c,12:15:04,03/04/2024
,"<div style=""font-size: 10rem; color: #0000FF"">C</div>",,ospan,letter,PZrbpfCalPUfFWsoEMHDNkWEV9y2,html-keyboard-response,185,1525005,0.0-46.0-6.0-0.0-1.0-9.0,,,,,,,,,,,,,,,63ceed4669bb4db75ade6a1c,12:15:04,03/04/2024
58710.80000000005,"<div class = numbox><p style=""font-size: 2.4rem"">Please recall the letters you saw to the best of your ability. If you do not remember a particular letter, use the SKIP button.<br><b>(When you are ready to lock in your answer, press ENTER)</b></p><button id = button_1 class = ""square num-button"" onclick = ""recordClick(this)""><div class = content><div class = numbers>C</div></div></button><button id = button_2 class = ""square num-button"" onclick = ""recordClick(this)""><div class = content><div class = numbers>G</div></div></button><button id = button_3 class = ""square num-button"" onclick = ""recordClick(this)""><div class = content><div class = numbers>H</div></div></button><button id = button_4 class = ""square num-button"" onclick = ""recordClick(this)""><div class = content><div class = numbers>J</div></div></button><button id = button_5 class = ""square num-button"" onclick = ""recordClick(this)""><div class = content><div class = numbers>K</div></div></button><button id = button_6 class = ""square num-button"" onclick = ""recordClick(this)""><div class = content><div class = numbers>L</div></div></button><button id = button_7 class = ""square num-button"" onclick = ""recordClick(this)""><div class = content><div class = numbers>N</div></div></button><button id = button_8 class = ""square num-button"" onclick = ""recordClick(this)""><div class = content><div class = numbers>P</div></div></button><button id = button_9 class = ""square num-button"" onclick = ""recordClick(this)""><div class = content><div class = numbers>Q</div></div></button><button id = button_10 class = ""square num-button"" onclick = ""recordClick(this)""><div class = content><div class = numbers>R</div></div></button><button id = button_11 class = ""square num-button"" onclick = ""recordClick(this)""><div class = content><div class = numbers>S</div></div></button><button id = button_12 class = ""square num-button"" onclick = ""recordClick(this)""><div class = content><div class = numbers>Y</div></div></button><button class = clear_button id = ""ClearButton"" onclick = ""clearResponse()"">BACKSPACE</button><button class = blank_button id = ""BlankButton"" onclick = ""blankResponse()"">SKIP</button><p style=""font-size: 2.4rem""><u><b>Current Answer:</b></u></p><br><br><div id=echoed_txt style=""font-size: 5rem; color:blue;""><b></b></div></div>",enter,ospan,retrieval,PZrbpfCalPUfFWsoEMHDNkWEV9y2,html-keyboard-response,186,1584473,0.0-46.0-6.0-0.0-2.0,33,33,33,5.0,"[""S"",""J"",""R"",""H"",""C""]","[""S"",""J"",""R"",""H"",""C""]",1.0,5.0,,,,,,,63ceed4669bb4db75ade6a1c,12:15:04,03/04/2024
4790.90000000014,[''],0,ospan,feedback,PZrbpfCalPUfFWsoEMHDNkWEV9y2,html-button-response,187,1589768,0.0-46.0-6.0-0.0-3.0,,,,,,,,,,,,100.0,0.0,,63ceed4669bb4db75ade6a1c,12:15:04,03/04/2024
,"<p style=""font-size:75px;"">...</p>",,ospan,iti,PZrbpfCalPUfFWsoEMHDNkWEV9y2,html-keyboard-response,188,1590778,0.0-46.0-6.0-1.0-0.0,,,,,,,,,,,,,,,63ceed4669bb4db75ade6a1c,12:15:04,03/04/2024
2218.0,,,ospan,symmetry,PZrbpfCalPUfFWsoEMHDNkWEV9y2,symmetry-judgement-task,189,1594106,0.0-46.0-6.0-1.0-1.0-0.0,,,,,,,,,,1.0,1.0,,,,63ceed4669bb4db75ade6a1c,12:15:04,03/04/2024
,"<div style=""font-size: 10rem; color: #0000FF"">S</div>",,ospan,letter,PZrbpfCalPUfFWsoEMHDNkWEV9y2,html-keyboard-response,190,1595110,0.0-46.0-6.0-1.0-1.0-1.0,,,,,,,,,,,,,,,63ceed4669bb4db75ade6a1c,12:15:04,03/04/2024
2226.0,,,ospan,symmetry,PZrbpfCalPUfFWsoEMHDNkWEV9y2,symmetry-judgement-task,191,1599178,0.0-46.0-6.0-1.0-1.0-2.0,,,,,,,,,,1.0,1.0,,,,63ceed4669bb4db75ade6a1c,12:15:04,03/04/2024
,"<div style=""font-size: 10rem; color: #0000FF"">P</div>",,ospan,letter,PZrbpfCalPUfFWsoEMHDNkWEV9y2,html-keyboard-response,192,1600183,0.0-46.0-6.0-1.0-1.0-3.0,,,,,,,,,,,,,,,63ceed4669bb4db75ade6a1c,12:15:04,03/04/2024
1876.0,,,ospan,symmetry,PZrbpfCalPUfFWsoEMHDNkWEV9y2,symmetry-judgement-task,193,1603913,0.0-46.0-6.0-1.0-1.0-4.0,,,,,,,,,,1.0,1.0,,,,63ceed4669bb4db75ade6a1c,12:15:04,03/04/2024
,"<div style=""font-size: 10rem; color: #0000FF"">L</div>",,ospan,letter,PZrbpfCalPUfFWsoEMHDNkWEV9y2,html-keyboard-response,194,1604918,0.0-46.0-6.0-1.0-1.0-5.0,,,,,,,,,,,,,,,63ceed4669bb4db75ade6a1c,12:15:04,03/04/2024
1294.0,,,ospan,symmetry,PZrbpfCalPUfFWsoEMHDNkWEV9y2,symmetry-judgement-task,195,1608064,0.0-46.0-6.0-1.0-1.0-6.0,,,,,,,,,,1.0,1.0,,,,63ceed4669bb4db75ade6a1c,12:15:04,03/04/2024
,"<div style=""font-size: 10rem; color: #0000FF"">G</div>",,ospan,letter,PZrbpfCalPUfFWsoEMHDNkWEV9y2,html-keyboard-response,196,1609071,0.0-46.0-6.0-1.0-1.0-7.0,,,,,,,,,,,,,,,63ceed4669bb4db75ade6a1c,12:15:04,03/04/2024
1100.0,,,ospan,symmetry,PZrbpfCalPUfFWsoEMHDNkWEV9y2,symmetry-judgement-task,197,1612014,0.0-46.0-6.0-1.0-1.0-8.0,,,,,,,,,,1.0,1.0,,,,63ceed4669bb4db75ade6a1c,12:15:04,03/04/2024
,"<div style=""font-size: 10rem; color: #0000FF"">H</div>",,ospan,letter,PZrbpfCalPUfFWsoEMHDNkWEV9y2,html-keyboard-response,198,1613016,0.0-46.0-6.0-1.0-1.0-9.0,,,,,,,,,,,,,,,63ceed4669bb4db75ade6a1c,12:15:04,03/04/2024
1279.0,,,ospan,symmetry,PZrbpfCalPUfFWsoEMHDNkWEV9y2,symmetry-judgement-task,199,1616151,0.0-46.0-6.0-1.0-1.0-10.0,,,,,,,,,,1.0,1.0,,,,63ceed4669bb4db75ade6a1c,12:15:04,03/04/2024
,"<div style=""font-size: 10rem; color: #0000FF"">J</div>",,ospan,letter,PZrbpfCalPUfFWsoEMHDNkWEV9y2,html-keyboard-response,200,1617153,0.0-46.0-6.0-1.0-1.0-11.0,,,,,,,,,,,,,,,63ceed4669bb4db75ade6a1c,12:15:04,03/04/2024
2768.0,,,ospan,symmetry,PZrbpfCalPUfFWsoEMHDNkWEV9y2,symmetry-judgement-task,201,1621771,0.0-46.0-6.0-1.0-1.0-12.0,,,,,,,,,,1.0,1.0,,,,63ceed4669bb4db75ade6a1c,12:15:04,03/04/2024
,"<div style=""font-size: 10rem; color: #0000FF"">Y</div>",,ospan,letter,PZrbpfCalPUfFWsoEMHDNkWEV9y2,html-keyboard-response,202,1622775,0.0-46.0-6.0-1.0-1.0-13.0,,,,,,,,,,,,,,,63ceed4669bb4db75ade6a1c,12:15:04,03/04/2024
1415.0,,,ospan,symmetry,PZrbpfCalPUfFWsoEMHDNkWEV9y2,symmetry-judgement-task,203,1626040,0.0-46.0-6.0-1.0-1.0-14.0,,,,,,,,,,1.0,1.0,,,,63ceed4669bb4db75ade6a1c,12:15:04,03/04/2024
,"<div style=""font-size: 10rem; color: #0000FF"">C</div>",,ospan,letter,PZrbpfCalPUfFWsoEMHDNkWEV9y2,html-keyboard-response,204,1627043,0.0-46.0-6.0-1.0-1.0-15.0,,,,,,,,,,,,,,,63ceed4669bb4db75ade6a1c,12:15:04,03/04/2024
44353.200000000186,"<div class = numbox><p style=""font-size: 2.4rem"">Please recall the letters you saw to the best of your ability. If you do not remember a particular letter, use the SKIP button.<br><b>(When you are ready to lock in your answer, press ENTER)</b></p><button id = button_1 class = ""square num-button"" onclick = ""recordClick(this)""><div class = content><div class = numbers>C</div></div></button><button id = button_2 class = ""square num-button"" onclick = ""recordClick(this)""><div class = content><div class = numbers>G</div></div></button><button id = button_3 class = ""square num-button"" onclick = ""recordClick(this)""><div class = content><div class = numbers>H</div></div></button><button id = button_4 class = ""square num-button"" onclick = ""recordClick(this)""><div class = content><div class = numbers>J</div></div></button><button id = button_5 class = ""square num-button"" onclick = ""recordClick(this)""><div class = content><div class = numbers>K</div></div></button><button id = button_6 class = ""square num-button"" onclick = ""recordClick(this)""><div class = content><div class = numbers>L</div></div></button><button id = button_7 class = ""square num-button"" onclick = ""recordClick(this)""><div class = content><div class = numbers>N</div></div></button><button id = button_8 class = ""square num-button"" onclick = ""recordClick(this)""><div class = content><div class = numbers>P</div></div></button><button id = button_9 class = ""square num-button"" onclick = ""recordClick(this)""><div class = content><div class = numbers>Q</div></div></button><button id = button_10 class = ""square num-button"" onclick = ""recordClick(this)""><div class = content><div class = numbers>R</div></div></button><button id = button_11 class = ""square num-button"" onclick = ""recordClick(this)""><div class = content><div class = numbers>S</div></div></button><button id = button_12 class = ""square num-button"" onclick = ""recordClick(this)""><div class = content><div class = numbers>Y</div></div></button><button class = clear_button id = ""ClearButton"" onclick = ""clearResponse()"">BACKSPACE</button><button class = blank_button id = ""BlankButton"" onclick = ""blankResponse()"">SKIP</button><p style=""font-size: 2.4rem""><u><b>Current Answer:</b></u></p><br><br><div id=echoed_txt style=""font-size: 5rem; color:blue;""><b></b></div></div>",enter,ospan,retrieval,PZrbpfCalPUfFWsoEMHDNkWEV9y2,html-keyboard-response,205,1672154,0.0-46.0-6.0-1.0-2.0,41,41,41,8.0,"[""S"",""P"",""L"",""G"",""H"",""J"",""Y"",""C""]","[""S"",""P"",""L"",""G"",""H"",""J"",""Y"",""C""]",1.0,8.0,,,,,,,63ceed4669bb4db75ade6a1c,12:15:04,03/04/2024
4121.899999999907,[''],0,ospan,feedback,PZrbpfCalPUfFWsoEMHDNkWEV9y2,html-button-response,206,1676781,0.0-46.0-6.0-1.0-3.0,,,,,,,,,,,,100.0,0.0,,63ceed4669bb4db75ade6a1c,12:15:04,03/04/2024
12654.600000000093,,{'Q0': 'Everything was clear'},ospan,survey_ospan,PZrbpfCalPUfFWsoEMHDNkWEV9y2,lmdlab-survey-text,207,1690195,0.0-46.0-7.0,,,,,,,,,,,,,,PZrbpfCalPUfFWsoEMHDNkWEV9y2,63ceed4669bb4db75ade6a1c,12:15:04,03/04/2024
1412.5999999998603,<p><p style='font-size: 3rem'>Great work!<br><br>This completes the symmetry and memory task.</p><br><br><br>,0,ospan,finish,PZrbpfCalPUfFWsoEMHDNkWEV9y2,html-button-response,208,1691613,0.0-46.0-8.0,41,41,41,,,,,,,,,100.0,,,63ceed4669bb4db75ade6a1c,12:15:04,03/04/2024
