rt,stimulus,response,exp_name,exp_stage,subjectID,trial_type,trial_index,time_elapsed,internal_node_id,ospan_shown,ospan_total,ospan_abs,length,resp_actual,resp_correct,full_correct,num_correct,feedback,accuracy,correct,math_acc,math_warning,databaseID,prolificID,start_time,date
3743.800000011921,<div class = 'left_align' style='font-size: 3.25rem; line-height: 1.3;'><p class = 'center_align'><b>Welcome to the Symmetry and Memory Task</b><br><br><br><br></p>Press 'continue' to show the instructions.<br><br><br><br></div>,0,ospan,instruct,DBD2A0aG0fZJrQ3KTYiJttMihfp1,html-button-response,54,443981,0.0-46.0-0.0-0.0-0.0,,,,,,,,,,,,,,,5feb9a64d42dc5c4926ffe03,10:51:18,03/04/2024
8651.0,"<div class = 'left_align' style='font-size: 3.25rem; line-height: 1.3;'><p class = 'center_align'><b>Symmetry and Memory Task</b><br><br></p>In this task, you will try to memorize letters you see on the screen<br>while you also view black and white grid pictures.<br><br>In the next few minutes, you will have some practice to get you familiar<br>with how the task works.<br><br>It may be difficult sometimes, but please do not worry about making mistakes!<br><br>We will begin by practicing the letter part of the task.<br><br><br><br></div>",0,ospan,instruct,DBD2A0aG0fZJrQ3KTYiJttMihfp1,html-button-response,55,452885,0.0-46.0-0.0-0.0-1.0,,,,,,,,,,,,,,,5feb9a64d42dc5c4926ffe03,10:51:18,03/04/2024
10603.5,"<div class = 'left_align' style='font-size: 3.25rem; line-height: 1.3;'>For this practice part, letters will appear on the screen one at a time.<br><br>Try to remember each letter in the order presented.<br><br>After some letters have been shown, you will see a response screen. Your<br>goal is to report the letters you saw <b>in order</b>. If you do not remember<br>a particular letter, you will have the option to leave it blank.<br><br><br><br></div>",0,ospan,instruct,DBD2A0aG0fZJrQ3KTYiJttMihfp1,html-button-response,56,463741,0.0-46.0-0.0-0.0-2.0,,,,,,,,,,,,,,,5feb9a64d42dc5c4926ffe03,10:51:18,03/04/2024
3651.699999988079,"<div class = 'left_align' style='font-size: 3.25rem; line-height: 1.3;'>Remember, it is very important to get the letters in the same<br>order as you see them.<br><br>When you are ready, you may begin the letter practice.</div><br><br><br><br>",0,ospan,instruct,DBD2A0aG0fZJrQ3KTYiJttMihfp1,html-button-response,57,467646,0.0-46.0-0.0-0.0-3.0,,,,,,,,,,,,,,,5feb9a64d42dc5c4926ffe03,10:51:18,03/04/2024
,"<p style=""font-size:75px;"">...</p>",,ospan,iti,DBD2A0aG0fZJrQ3KTYiJttMihfp1,html-keyboard-response,58,468909,0.0-46.0-0.0-1.0-0.0,,,,,,,,,,,,,,,5feb9a64d42dc5c4926ffe03,10:51:18,03/04/2024
,"<div style=""font-size: 10rem; color: #0000FF"">H</div>",,ospan,letter,DBD2A0aG0fZJrQ3KTYiJttMihfp1,html-keyboard-response,59,469924,0.0-46.0-0.0-1.0-1.0,,,,,,,,,,,,,,,5feb9a64d42dc5c4926ffe03,10:51:18,03/04/2024
,"<div style=""font-size: 10rem; color: #0000FF"">L</div>",,ospan,letter,DBD2A0aG0fZJrQ3KTYiJttMihfp1,html-keyboard-response,60,471695,0.0-46.0-0.0-1.0-2.0,,,,,,,,,,,,,,,5feb9a64d42dc5c4926ffe03,10:51:18,03/04/2024
5339.399999976158,"<div class = numbox><p style=""font-size: 2.4rem"">Please recall the letters you saw to the best of your ability. If you do not remember a particular letter, use the SKIP button.<br><b>(When you are ready to lock in your answer, press ENTER)</b></p><button id = button_1 class = ""square num-button"" onclick = ""recordClick(this)""><div class = content><div class = numbers>C</div></div></button><button id = button_2 class = ""square num-button"" onclick = ""recordClick(this)""><div class = content><div class = numbers>G</div></div></button><button id = button_3 class = ""square num-button"" onclick = ""recordClick(this)""><div class = content><div class = numbers>H</div></div></button><button id = button_4 class = ""square num-button"" onclick = ""recordClick(this)""><div class = content><div class = numbers>J</div></div></button><button id = button_5 class = ""square num-button"" onclick = ""recordClick(this)""><div class = content><div class = numbers>K</div></div></button><button id = button_6 class = ""square num-button"" onclick = ""recordClick(this)""><div class = content><div class = numbers>L</div></div></button><button id = button_7 class = ""square num-button"" onclick = ""recordClick(this)""><div class = content><div class = numbers>N</div></div></button><button id = button_8 class = ""square num-button"" onclick = ""recordClick(this)""><div class = content><div class = numbers>P</div></div></button><button id = button_9 class = ""square num-button"" onclick = ""recordClick(this)""><div class = content><div class = numbers>Q</div></div></button><button id = button_10 class = ""square num-button"" onclick = ""recordClick(this)""><div class = content><div class = numbers>R</div></div></button><button id = button_11 class = ""square num-button"" onclick = ""recordClick(this)""><div class = content><div class = numbers>S</div></div></button><button id = button_12 class = ""square num-button"" onclick = ""recordClick(this)""><div class = content><div class = numbers>Y</div></div></button><button class = clear_button id = ""ClearButton"" onclick = ""clearResponse()"">BACKSPACE</button><button class = blank_button id = ""BlankButton"" onclick = ""blankResponse()"">SKIP</button><p style=""font-size: 2.4rem""><u><b>Current Answer:</b></u></p><br><br><div id=echoed_txt style=""font-size: 5rem; color:blue;""><b></b></div></div>",enter,ospan,retrieval,DBD2A0aG0fZJrQ3KTYiJttMihfp1,html-keyboard-response,61,477793,0.0-46.0-0.0-1.0-3.0,NA,NA,NA,2.0,"[""H"",""L""]","[""H"",""L""]",1.0,2.0,"['<font color=""green"">H</font>', '<font color=""green"">L</font>']",,,,,,5feb9a64d42dc5c4926ffe03,10:51:18,03/04/2024
1140.199999988079,"['<p style=""font-size:44px"">Letters:<br><br><br><font color=""green"">H</font> <font color=""green"">L</font></p><br><br>']",0,ospan,practice_feedback,DBD2A0aG0fZJrQ3KTYiJttMihfp1,html-button-response,62,479447,0.0-46.0-0.0-1.0-4.0,,,,,,,,,,,,,,,5feb9a64d42dc5c4926ffe03,10:51:18,03/04/2024
,"<p style=""font-size:75px;"">...</p>",,ospan,iti,DBD2A0aG0fZJrQ3KTYiJttMihfp1,html-keyboard-response,63,480463,0.0-46.0-0.0-2.0-0.0,,,,,,,,,,,,,,,5feb9a64d42dc5c4926ffe03,10:51:18,03/04/2024
,"<div style=""font-size: 10rem; color: #0000FF"">Y</div>",,ospan,letter,DBD2A0aG0fZJrQ3KTYiJttMihfp1,html-keyboard-response,64,481474,0.0-46.0-0.0-2.0-1.0,,,,,,,,,,,,,,,5feb9a64d42dc5c4926ffe03,10:51:18,03/04/2024
,"<div style=""font-size: 10rem; color: #0000FF"">H</div>",,ospan,letter,DBD2A0aG0fZJrQ3KTYiJttMihfp1,html-keyboard-response,65,483245,0.0-46.0-0.0-2.0-2.0,,,,,,,,,,,,,,,5feb9a64d42dc5c4926ffe03,10:51:18,03/04/2024
,"<div style=""font-size: 10rem; color: #0000FF"">K</div>",,ospan,letter,DBD2A0aG0fZJrQ3KTYiJttMihfp1,html-keyboard-response,66,485019,0.0-46.0-0.0-2.0-3.0,,,,,,,,,,,,,,,5feb9a64d42dc5c4926ffe03,10:51:18,03/04/2024
4809.9000000059605,"<div class = numbox><p style=""font-size: 2.4rem"">Please recall the letters you saw to the best of your ability. If you do not remember a particular letter, use the SKIP button.<br><b>(When you are ready to lock in your answer, press ENTER)</b></p><button id = button_1 class = ""square num-button"" onclick = ""recordClick(this)""><div class = content><div class = numbers>C</div></div></button><button id = button_2 class = ""square num-button"" onclick = ""recordClick(this)""><div class = content><div class = numbers>G</div></div></button><button id = button_3 class = ""square num-button"" onclick = ""recordClick(this)""><div class = content><div class = numbers>H</div></div></button><button id = button_4 class = ""square num-button"" onclick = ""recordClick(this)""><div class = content><div class = numbers>J</div></div></button><button id = button_5 class = ""square num-button"" onclick = ""recordClick(this)""><div class = content><div class = numbers>K</div></div></button><button id = button_6 class = ""square num-button"" onclick = ""recordClick(this)""><div class = content><div class = numbers>L</div></div></button><button id = button_7 class = ""square num-button"" onclick = ""recordClick(this)""><div class = content><div class = numbers>N</div></div></button><button id = button_8 class = ""square num-button"" onclick = ""recordClick(this)""><div class = content><div class = numbers>P</div></div></button><button id = button_9 class = ""square num-button"" onclick = ""recordClick(this)""><div class = content><div class = numbers>Q</div></div></button><button id = button_10 class = ""square num-button"" onclick = ""recordClick(this)""><div class = content><div class = numbers>R</div></div></button><button id = button_11 class = ""square num-button"" onclick = ""recordClick(this)""><div class = content><div class = numbers>S</div></div></button><button id = button_12 class = ""square num-button"" onclick = ""recordClick(this)""><div class = content><div class = numbers>Y</div></div></button><button class = clear_button id = ""ClearButton"" onclick = ""clearResponse()"">BACKSPACE</button><button class = blank_button id = ""BlankButton"" onclick = ""blankResponse()"">SKIP</button><p style=""font-size: 2.4rem""><u><b>Current Answer:</b></u></p><br><br><div id=echoed_txt style=""font-size: 5rem; color:blue;""><b></b></div></div>",enter,ospan,retrieval,DBD2A0aG0fZJrQ3KTYiJttMihfp1,html-keyboard-response,67,490592,0.0-46.0-0.0-2.0-4.0,NA,NA,NA,3.0,"[""Y"",""H"",""K""]","[""Y"",""H"",""K""]",1.0,3.0,"['<font color=""green"">Y</font>', '<font color=""green"">H</font>', '<font color=""green"">K</font>']",,,,,,5feb9a64d42dc5c4926ffe03,10:51:18,03/04/2024
1118.5999999940395,"['<p style=""font-size:44px"">Letters:<br><br><br><font color=""green"">Y</font> <font color=""green"">H</font> <font color=""green"">K</font></p><br><br>']",0,ospan,practice_feedback,DBD2A0aG0fZJrQ3KTYiJttMihfp1,html-button-response,68,492222,0.0-46.0-0.0-2.0-5.0,,,,,,,,,,,,,,,5feb9a64d42dc5c4926ffe03,10:51:18,03/04/2024
9231.100000023842,"<div class = 'left_align' style='font-size: 3.25rem; line-height: 1.3;'>Now you will practice doing the <b>symmetry judgment part</b> of the experiment.<br><br>A black and white grid picture will appear on the screen and you have to judge if it is <br>symmetrical or asymetrical.<br><br>A picture is 'mirror' symmetrical if its left half is identical to the right half when flipped.<br>Here are examples of a symmetrical and an asymetrical picture:<br><br><center><img src='Stimuli/img/symm_instructions_extra.png' style='height:420px; width:900'></img></center><br>To judge symmetry, imagine you were to fold each picture down the middle, like a book –<br>would the left half match the right half when folded onto each other?<br><br></div><br>",0,ospan,instruct,DBD2A0aG0fZJrQ3KTYiJttMihfp1,html-button-response,69,501454,0.0-46.0-1.0-0.0-0.0,,,,,,,,,,,,,,,5feb9a64d42dc5c4926ffe03,10:51:18,03/04/2024
1471.0,"<div class = 'left_align' style='font-size: 3.25rem; line-height: 1.3;'>When you have viewed the picture and determined whether it is symmetrical or not,<br>you can <b>click the Yes or No button</b> below to answer.<br><br>If you take longer than 15 seconds, it will continue automatically<br>and record the answer as an error.</div><br>",0,ospan,instruct,DBD2A0aG0fZJrQ3KTYiJttMihfp1,html-button-response,70,503180,0.0-46.0-1.0-0.0-1.0,,,,,,,,,,,,,,,5feb9a64d42dc5c4926ffe03,10:51:18,03/04/2024
4531.300000011921,"<div class = 'left_align' style='font-size: 3.25rem; line-height: 1.3;'>It is <b>very</b> important that you make the symmetry judgment correctly.<br><br>It is also important that you try and judge the picture as quickly as you can.<br><br>When you are ready, click on the button below to try some practice problems.</div><br><br><br><br>",0,ospan,instruct,DBD2A0aG0fZJrQ3KTYiJttMihfp1,html-button-response,71,507965,0.0-46.0-1.0-0.0-2.0,,,,,,,,,,,,,,,5feb9a64d42dc5c4926ffe03,10:51:18,03/04/2024
3031.0,,,ospan,symmetry,DBD2A0aG0fZJrQ3KTYiJttMihfp1,symmetry-judgement-task,72,511784,0.0-46.0-1.0-1.0-0.0,,,,,,,,,,1.0,1.0,,,,5feb9a64d42dc5c4926ffe03,10:51:18,03/04/2024
,"<p style=""color:green; font-size: 35px"">Correct</p>",,ospan,feedback,DBD2A0aG0fZJrQ3KTYiJttMihfp1,html-keyboard-response,73,512546,0.0-46.0-1.0-1.0-1.0,,,,,,,,,,,,,,,5feb9a64d42dc5c4926ffe03,10:51:18,03/04/2024
1707.0,,,ospan,symmetry,DBD2A0aG0fZJrQ3KTYiJttMihfp1,symmetry-judgement-task,74,516910,0.0-46.0-1.0-1.0-2.0,,,,,,,,,,1.0,1.0,,,,5feb9a64d42dc5c4926ffe03,10:51:18,03/04/2024
,"<p style=""color:green; font-size: 35px"">Correct</p>",,ospan,feedback,DBD2A0aG0fZJrQ3KTYiJttMihfp1,html-keyboard-response,75,517676,0.0-46.0-1.0-1.0-3.0,,,,,,,,,,,,,,,5feb9a64d42dc5c4926ffe03,10:51:18,03/04/2024
2427.0,,,ospan,symmetry,DBD2A0aG0fZJrQ3KTYiJttMihfp1,symmetry-judgement-task,76,522773,0.0-46.0-1.0-1.0-4.0,,,,,,,,,,1.0,1.0,,,,5feb9a64d42dc5c4926ffe03,10:51:18,03/04/2024
,"<p style=""color:green; font-size: 35px"">Correct</p>",,ospan,feedback,DBD2A0aG0fZJrQ3KTYiJttMihfp1,html-keyboard-response,77,523536,0.0-46.0-1.0-1.0-5.0,,,,,,,,,,,,,,,5feb9a64d42dc5c4926ffe03,10:51:18,03/04/2024
1060.5999999940395,"<p style=""font-size: 3rem;"">You responded correctly on 3 of 3 symmetry judgments. Good job!</p><br><br>",0,ospan,practice,DBD2A0aG0fZJrQ3KTYiJttMihfp1,html-button-response,78,526601,0.0-46.0-1.0-2.0,,,,,,,,,,,,,,,5feb9a64d42dc5c4926ffe03,10:51:18,03/04/2024
11689.199999988079,"<div class = 'left_align' style='font-size: 3.25rem; line-height: 1.3;'>Now you will practice doing both parts of the experiment at the same time.<br><br>In the next practice set, you will be given one grid picture to judge.<br>Then letter will appear on the screen. Try to remember the letter.<br><br>It is <b>very important</b> to make the symmetry judgment as quickly and accurately as possible.<br><br>Just as before, once you have make the symmetry judgment, you can click Yes or No.<br><b>Note that you will no longer see Correct or Incorrect feedback.</div><br><br><br><br>",0,ospan,instruct,DBD2A0aG0fZJrQ3KTYiJttMihfp1,html-button-response,79,538552,0.0-46.0-2.0-0.0-0.0,,,,,,,,,,,,,,,5feb9a64d42dc5c4926ffe03,10:51:18,03/04/2024
15166.5,"<div class = 'left_align' style='font-size: 3.25rem; line-height: 1.3;'>After the letter goes away, another grid picture will appear, and then<br>another letter.<br><br>At the end of each set of letters and grids, you will recall the letters to the best<br>of your ability. Remember, try your best to get the letters in the correct order.<br><br>It is important to <b>quickly</b> and <b>accurately</b> make the symmetry judgments.</div><br><br><br><br>",0,ospan,instruct,DBD2A0aG0fZJrQ3KTYiJttMihfp1,html-button-response,80,553982,0.0-46.0-2.0-0.0-1.0,,,,,,,,,,,,,,,5feb9a64d42dc5c4926ffe03,10:51:18,03/04/2024
10215.09999999404,"<div class = 'left_align' style='font-size: 3.25rem; line-height: 1.3;'>On the feedback screen, if you are not doing well at the symmetry judgments,<br>you will also see a warning in the middle. This indicates your percent <br>correct for the grid pictures for the entire experiment.<br><br>It is <b>very</b> important for you to keep accuracy at least at 85%: <u>We can only use<br>data where the participant was at least 85% accurate on the judgments.</u> Therefore,<br> please try your best to perform well on the symmetry judgments, <b>at the same time</b><br>doing your best to recall as many letters as possible.<br><br>Click the button to try some practice problems.</div><br><br><br><br>",0,ospan,instruct,DBD2A0aG0fZJrQ3KTYiJttMihfp1,html-button-response,81,564460,0.0-46.0-2.0-0.0-2.0,,,,,,,,,,,,,,,5feb9a64d42dc5c4926ffe03,10:51:18,03/04/2024
,"<p style=""font-size:75px;"">...</p>",,ospan,iti,DBD2A0aG0fZJrQ3KTYiJttMihfp1,html-keyboard-response,82,565721,0.0-46.0-2.0-1.0-0.0,,,,,,,,,,,,,,,5feb9a64d42dc5c4926ffe03,10:51:18,03/04/2024
2999.0,,,ospan,symmetry,DBD2A0aG0fZJrQ3KTYiJttMihfp1,symmetry-judgement-task,83,569881,0.0-46.0-2.0-1.0-1.0-0.0,,,,,,,,,,1.0,1.0,,,,5feb9a64d42dc5c4926ffe03,10:51:18,03/04/2024
,"<div style=""font-size: 10rem; color: #0000FF"">Y</div>",,ospan,letter,DBD2A0aG0fZJrQ3KTYiJttMihfp1,html-keyboard-response,84,570887,0.0-46.0-2.0-1.0-1.0-1.0,,,,,,,,,,,,,,,5feb9a64d42dc5c4926ffe03,10:51:18,03/04/2024
2606.0,,,ospan,symmetry,DBD2A0aG0fZJrQ3KTYiJttMihfp1,symmetry-judgement-task,85,575400,0.0-46.0-2.0-1.0-1.0-2.0,,,,,,,,,,1.0,1.0,,,,5feb9a64d42dc5c4926ffe03,10:51:18,03/04/2024
,"<div style=""font-size: 10rem; color: #0000FF"">C</div>",,ospan,letter,DBD2A0aG0fZJrQ3KTYiJttMihfp1,html-keyboard-response,86,576410,0.0-46.0-2.0-1.0-1.0-3.0,,,,,,,,,,,,,,,5feb9a64d42dc5c4926ffe03,10:51:18,03/04/2024
2091.0,,,ospan,symmetry,DBD2A0aG0fZJrQ3KTYiJttMihfp1,symmetry-judgement-task,87,580409,0.0-46.0-2.0-1.0-1.0-4.0,,,,,,,,,,1.0,1.0,,,,5feb9a64d42dc5c4926ffe03,10:51:18,03/04/2024
,"<div style=""font-size: 10rem; color: #0000FF"">H</div>",,ospan,letter,DBD2A0aG0fZJrQ3KTYiJttMihfp1,html-keyboard-response,88,581422,0.0-46.0-2.0-1.0-1.0-5.0,,,,,,,,,,,,,,,5feb9a64d42dc5c4926ffe03,10:51:18,03/04/2024
4121.0,"<div class = numbox><p style=""font-size: 2.4rem"">Please recall the letters you saw to the best of your ability. If you do not remember a particular letter, use the SKIP button.<br><b>(When you are ready to lock in your answer, press ENTER)</b></p><button id = button_1 class = ""square num-button"" onclick = ""recordClick(this)""><div class = content><div class = numbers>C</div></div></button><button id = button_2 class = ""square num-button"" onclick = ""recordClick(this)""><div class = content><div class = numbers>G</div></div></button><button id = button_3 class = ""square num-button"" onclick = ""recordClick(this)""><div class = content><div class = numbers>H</div></div></button><button id = button_4 class = ""square num-button"" onclick = ""recordClick(this)""><div class = content><div class = numbers>J</div></div></button><button id = button_5 class = ""square num-button"" onclick = ""recordClick(this)""><div class = content><div class = numbers>K</div></div></button><button id = button_6 class = ""square num-button"" onclick = ""recordClick(this)""><div class = content><div class = numbers>L</div></div></button><button id = button_7 class = ""square num-button"" onclick = ""recordClick(this)""><div class = content><div class = numbers>N</div></div></button><button id = button_8 class = ""square num-button"" onclick = ""recordClick(this)""><div class = content><div class = numbers>P</div></div></button><button id = button_9 class = ""square num-button"" onclick = ""recordClick(this)""><div class = content><div class = numbers>Q</div></div></button><button id = button_10 class = ""square num-button"" onclick = ""recordClick(this)""><div class = content><div class = numbers>R</div></div></button><button id = button_11 class = ""square num-button"" onclick = ""recordClick(this)""><div class = content><div class = numbers>S</div></div></button><button id = button_12 class = ""square num-button"" onclick = ""recordClick(this)""><div class = content><div class = numbers>Y</div></div></button><button class = clear_button id = ""ClearButton"" onclick = ""clearResponse()"">BACKSPACE</button><button class = blank_button id = ""BlankButton"" onclick = ""blankResponse()"">SKIP</button><p style=""font-size: 2.4rem""><u><b>Current Answer:</b></u></p><br><br><div id=echoed_txt style=""font-size: 5rem; color:blue;""><b></b></div></div>",enter,ospan,retrieval,DBD2A0aG0fZJrQ3KTYiJttMihfp1,html-keyboard-response,89,586306,0.0-46.0-2.0-1.0-2.0-0.0,NA,NA,NA,3.0,"[""Y"",""C"",""H""]","[""Y"",""C"",""H""]",1.0,3.0,"['<font color=""green"">Y</font>', '<font color=""green"">C</font>', '<font color=""green"">H</font>']",,,,,,5feb9a64d42dc5c4926ffe03,10:51:18,03/04/2024
2007.699999988079,"['<p style=""font-size:44px"">Letters:<br><br><br><font color=""green"">Y</font> <font color=""green"">C</font> <font color=""green"">H</font></p><br><br><p style=""font-size:30px"">Symmetry:<br><br><font color=""green"">100%</font></p><br><br>']",0,ospan,practice_feedback,DBD2A0aG0fZJrQ3KTYiJttMihfp1,html-button-response,90,588823,0.0-46.0-2.0-1.0-2.0-1.0,,,,,,,,,,,,,,,5feb9a64d42dc5c4926ffe03,10:51:18,03/04/2024
,"<p style=""font-size:75px;"">...</p>",,ospan,iti,DBD2A0aG0fZJrQ3KTYiJttMihfp1,html-keyboard-response,91,589836,0.0-46.0-2.0-2.0-0.0,,,,,,,,,,,,,,,5feb9a64d42dc5c4926ffe03,10:51:18,03/04/2024
1918.0,,,ospan,symmetry,DBD2A0aG0fZJrQ3KTYiJttMihfp1,symmetry-judgement-task,92,592909,0.0-46.0-2.0-2.0-1.0-0.0,,,,,,,,,,1.0,1.0,,,,5feb9a64d42dc5c4926ffe03,10:51:18,03/04/2024
,"<div style=""font-size: 10rem; color: #0000FF"">P</div>",,ospan,letter,DBD2A0aG0fZJrQ3KTYiJttMihfp1,html-keyboard-response,93,593915,0.0-46.0-2.0-2.0-1.0-1.0,,,,,,,,,,,,,,,5feb9a64d42dc5c4926ffe03,10:51:18,03/04/2024
1843.0,,,ospan,symmetry,DBD2A0aG0fZJrQ3KTYiJttMihfp1,symmetry-judgement-task,94,597663,0.0-46.0-2.0-2.0-1.0-2.0,,,,,,,,,,1.0,1.0,,,,5feb9a64d42dc5c4926ffe03,10:51:18,03/04/2024
,"<div style=""font-size: 10rem; color: #0000FF"">Q</div>",,ospan,letter,DBD2A0aG0fZJrQ3KTYiJttMihfp1,html-keyboard-response,95,598664,0.0-46.0-2.0-2.0-1.0-3.0,,,,,,,,,,,,,,,5feb9a64d42dc5c4926ffe03,10:51:18,03/04/2024
1669.0,,,ospan,symmetry,DBD2A0aG0fZJrQ3KTYiJttMihfp1,symmetry-judgement-task,96,602257,0.0-46.0-2.0-2.0-1.0-4.0,,,,,,,,,,1.0,1.0,,,,5feb9a64d42dc5c4926ffe03,10:51:18,03/04/2024
,"<div style=""font-size: 10rem; color: #0000FF"">G</div>",,ospan,letter,DBD2A0aG0fZJrQ3KTYiJttMihfp1,html-keyboard-response,97,603270,0.0-46.0-2.0-2.0-1.0-5.0,,,,,,,,,,,,,,,5feb9a64d42dc5c4926ffe03,10:51:18,03/04/2024
4663.0,"<div class = numbox><p style=""font-size: 2.4rem"">Please recall the letters you saw to the best of your ability. If you do not remember a particular letter, use the SKIP button.<br><b>(When you are ready to lock in your answer, press ENTER)</b></p><button id = button_1 class = ""square num-button"" onclick = ""recordClick(this)""><div class = content><div class = numbers>C</div></div></button><button id = button_2 class = ""square num-button"" onclick = ""recordClick(this)""><div class = content><div class = numbers>G</div></div></button><button id = button_3 class = ""square num-button"" onclick = ""recordClick(this)""><div class = content><div class = numbers>H</div></div></button><button id = button_4 class = ""square num-button"" onclick = ""recordClick(this)""><div class = content><div class = numbers>J</div></div></button><button id = button_5 class = ""square num-button"" onclick = ""recordClick(this)""><div class = content><div class = numbers>K</div></div></button><button id = button_6 class = ""square num-button"" onclick = ""recordClick(this)""><div class = content><div class = numbers>L</div></div></button><button id = button_7 class = ""square num-button"" onclick = ""recordClick(this)""><div class = content><div class = numbers>N</div></div></button><button id = button_8 class = ""square num-button"" onclick = ""recordClick(this)""><div class = content><div class = numbers>P</div></div></button><button id = button_9 class = ""square num-button"" onclick = ""recordClick(this)""><div class = content><div class = numbers>Q</div></div></button><button id = button_10 class = ""square num-button"" onclick = ""recordClick(this)""><div class = content><div class = numbers>R</div></div></button><button id = button_11 class = ""square num-button"" onclick = ""recordClick(this)""><div class = content><div class = numbers>S</div></div></button><button id = button_12 class = ""square num-button"" onclick = ""recordClick(this)""><div class = content><div class = numbers>Y</div></div></button><button class = clear_button id = ""ClearButton"" onclick = ""clearResponse()"">BACKSPACE</button><button class = blank_button id = ""BlankButton"" onclick = ""blankResponse()"">SKIP</button><p style=""font-size: 2.4rem""><u><b>Current Answer:</b></u></p><br><br><div id=echoed_txt style=""font-size: 5rem; color:blue;""><b></b></div></div>",enter,ospan,retrieval,DBD2A0aG0fZJrQ3KTYiJttMihfp1,html-keyboard-response,98,608695,0.0-46.0-2.0-2.0-2.0-0.0,NA,NA,NA,3.0,"[""P"",""Q"",""G""]","[""P"",""Q"",""G""]",1.0,3.0,"['<font color=""green"">P</font>', '<font color=""green"">Q</font>', '<font color=""green"">G</font>']",,,,,,5feb9a64d42dc5c4926ffe03,10:51:18,03/04/2024
8577.5,"['<p style=""font-size:44px"">Letters:<br><br><br><font color=""green"">P</font> <font color=""green"">Q</font> <font color=""green"">G</font></p><br><br><p style=""font-size:30px"">Symmetry:<br><br><font color=""green"">100%</font></p><br><br>']",0,ospan,practice_feedback,DBD2A0aG0fZJrQ3KTYiJttMihfp1,html-button-response,99,617785,0.0-46.0-2.0-2.0-2.0-1.0,,,,,,,,,,,,,,,5feb9a64d42dc5c4926ffe03,10:51:18,03/04/2024
19631.29999998212,"<div class = 'left_align' style='font-size: 3rem; line-height: 1.3;'><b>Great work! That is the end of practice.</b><br><br>The real trials will look just like the practice trials you just completed.<br><br><u>Here, you will not see feedback</u>. First, you will see an grid picture to judge,<br>then a letter to remember. When the recall screen appears, report the letters in the<br>order presented. If you forget a letter, remember to use the <b>blank</b> button to move to the<br>next letter. Some of the sets will have more symmetry grids and letters than others.<br><br>It is important that you do your best on both the symmetry judgments and the letter recall<br>parts of the experiment. For for the symmetry judgments, try to work as <b>quickly</b> and <br>as <b>accurately</b> as possible. Remember to keep your symmetry accuracy at 85% or above.<br><br><b>For the letters, do NOT use any external aid (e.g., writing on paper, electronic device).</b><br><br>It is <u>very important</u> to our experiment to have a <b>true</b> view of your real performance.<br><br>Do not worry if you miss some when it gets hard! This task is meant to be very challenging!<br><br>Click the button to begin.</div><br><br><br><br>",0,ospan,starting_real_here,DBD2A0aG0fZJrQ3KTYiJttMihfp1,html-button-response,100,637419,0.0-46.0-2.0-3.0,,,,,,,,,,,,,,,5feb9a64d42dc5c4926ffe03,10:51:18,03/04/2024
,"<p style=""font-size:75px;"">...</p>",,ospan,iti,DBD2A0aG0fZJrQ3KTYiJttMihfp1,html-keyboard-response,101,638683,0.0-46.0-3.0-0.0-0.0,,,,,,,,,,,,,,,5feb9a64d42dc5c4926ffe03,10:51:18,03/04/2024
1254.0,,,ospan,symmetry,DBD2A0aG0fZJrQ3KTYiJttMihfp1,symmetry-judgement-task,102,641097,0.0-46.0-3.0-0.0-1.0-0.0,,,,,,,,,,1.0,1.0,,,,5feb9a64d42dc5c4926ffe03,10:51:18,03/04/2024
,"<div style=""font-size: 10rem; color: #0000FF"">K</div>",,ospan,letter,DBD2A0aG0fZJrQ3KTYiJttMihfp1,html-keyboard-response,103,642111,0.0-46.0-3.0-0.0-1.0-1.0,,,,,,,,,,,,,,,5feb9a64d42dc5c4926ffe03,10:51:18,03/04/2024
1644.0,,,ospan,symmetry,DBD2A0aG0fZJrQ3KTYiJttMihfp1,symmetry-judgement-task,104,645675,0.0-46.0-3.0-0.0-1.0-2.0,,,,,,,,,,1.0,1.0,,,,5feb9a64d42dc5c4926ffe03,10:51:18,03/04/2024
,"<div style=""font-size: 10rem; color: #0000FF"">N</div>",,ospan,letter,DBD2A0aG0fZJrQ3KTYiJttMihfp1,html-keyboard-response,105,646686,0.0-46.0-3.0-0.0-1.0-3.0,,,,,,,,,,,,,,,5feb9a64d42dc5c4926ffe03,10:51:18,03/04/2024
1442.0,,,ospan,symmetry,DBD2A0aG0fZJrQ3KTYiJttMihfp1,symmetry-judgement-task,106,650055,0.0-46.0-3.0-0.0-1.0-4.0,,,,,,,,,,1.0,1.0,,,,5feb9a64d42dc5c4926ffe03,10:51:18,03/04/2024
,"<div style=""font-size: 10rem; color: #0000FF"">R</div>",,ospan,letter,DBD2A0aG0fZJrQ3KTYiJttMihfp1,html-keyboard-response,107,651066,0.0-46.0-3.0-0.0-1.0-5.0,,,,,,,,,,,,,,,5feb9a64d42dc5c4926ffe03,10:51:18,03/04/2024
3437.300000011921,"<div class = numbox><p style=""font-size: 2.4rem"">Please recall the letters you saw to the best of your ability. If you do not remember a particular letter, use the SKIP button.<br><b>(When you are ready to lock in your answer, press ENTER)</b></p><button id = button_1 class = ""square num-button"" onclick = ""recordClick(this)""><div class = content><div class = numbers>C</div></div></button><button id = button_2 class = ""square num-button"" onclick = ""recordClick(this)""><div class = content><div class = numbers>G</div></div></button><button id = button_3 class = ""square num-button"" onclick = ""recordClick(this)""><div class = content><div class = numbers>H</div></div></button><button id = button_4 class = ""square num-button"" onclick = ""recordClick(this)""><div class = content><div class = numbers>J</div></div></button><button id = button_5 class = ""square num-button"" onclick = ""recordClick(this)""><div class = content><div class = numbers>K</div></div></button><button id = button_6 class = ""square num-button"" onclick = ""recordClick(this)""><div class = content><div class = numbers>L</div></div></button><button id = button_7 class = ""square num-button"" onclick = ""recordClick(this)""><div class = content><div class = numbers>N</div></div></button><button id = button_8 class = ""square num-button"" onclick = ""recordClick(this)""><div class = content><div class = numbers>P</div></div></button><button id = button_9 class = ""square num-button"" onclick = ""recordClick(this)""><div class = content><div class = numbers>Q</div></div></button><button id = button_10 class = ""square num-button"" onclick = ""recordClick(this)""><div class = content><div class = numbers>R</div></div></button><button id = button_11 class = ""square num-button"" onclick = ""recordClick(this)""><div class = content><div class = numbers>S</div></div></button><button id = button_12 class = ""square num-button"" onclick = ""recordClick(this)""><div class = content><div class = numbers>Y</div></div></button><button class = clear_button id = ""ClearButton"" onclick = ""clearResponse()"">BACKSPACE</button><button class = blank_button id = ""BlankButton"" onclick = ""blankResponse()"">SKIP</button><p style=""font-size: 2.4rem""><u><b>Current Answer:</b></u></p><br><br><div id=echoed_txt style=""font-size: 5rem; color:blue;""><b></b></div></div>",enter,ospan,retrieval,DBD2A0aG0fZJrQ3KTYiJttMihfp1,html-keyboard-response,108,655268,0.0-46.0-3.0-0.0-2.0,3,3,3,3.0,"[""K"",""N"",""R""]","[""K"",""N"",""R""]",1.0,3.0,,,,,,,5feb9a64d42dc5c4926ffe03,10:51:18,03/04/2024
1127.4000000059605,[''],0,ospan,feedback,DBD2A0aG0fZJrQ3KTYiJttMihfp1,html-button-response,109,656904,0.0-46.0-3.0-0.0-3.0,,,,,,,,,,,,100.0,0.0,,5feb9a64d42dc5c4926ffe03,10:51:18,03/04/2024
,"<p style=""font-size:75px;"">...</p>",,ospan,iti,DBD2A0aG0fZJrQ3KTYiJttMihfp1,html-keyboard-response,110,657913,0.0-46.0-4.0-0.0-0.0,,,,,,,,,,,,,,,5feb9a64d42dc5c4926ffe03,10:51:18,03/04/2024
1640.0,,,ospan,symmetry,DBD2A0aG0fZJrQ3KTYiJttMihfp1,symmetry-judgement-task,111,660757,0.0-46.0-4.0-0.0-1.0-0.0,,,,,,,,,,1.0,1.0,,,,5feb9a64d42dc5c4926ffe03,10:51:18,03/04/2024
,"<div style=""font-size: 10rem; color: #0000FF"">Q</div>",,ospan,letter,DBD2A0aG0fZJrQ3KTYiJttMihfp1,html-keyboard-response,112,661772,0.0-46.0-4.0-0.0-1.0-1.0,,,,,,,,,,,,,,,5feb9a64d42dc5c4926ffe03,10:51:18,03/04/2024
3034.0,,,ospan,symmetry,DBD2A0aG0fZJrQ3KTYiJttMihfp1,symmetry-judgement-task,113,666706,0.0-46.0-4.0-0.0-1.0-2.0,,,,,,,,,,1.0,1.0,,,,5feb9a64d42dc5c4926ffe03,10:51:18,03/04/2024
,"<div style=""font-size: 10rem; color: #0000FF"">N</div>",,ospan,letter,DBD2A0aG0fZJrQ3KTYiJttMihfp1,html-keyboard-response,114,667713,0.0-46.0-4.0-0.0-1.0-3.0,,,,,,,,,,,,,,,5feb9a64d42dc5c4926ffe03,10:51:18,03/04/2024
2008.0,,,ospan,symmetry,DBD2A0aG0fZJrQ3KTYiJttMihfp1,symmetry-judgement-task,115,671644,0.0-46.0-4.0-0.0-1.0-4.0,,,,,,,,,,1.0,1.0,,,,5feb9a64d42dc5c4926ffe03,10:51:18,03/04/2024
,"<div style=""font-size: 10rem; color: #0000FF"">S</div>",,ospan,letter,DBD2A0aG0fZJrQ3KTYiJttMihfp1,html-keyboard-response,116,672654,0.0-46.0-4.0-0.0-1.0-5.0,,,,,,,,,,,,,,,5feb9a64d42dc5c4926ffe03,10:51:18,03/04/2024
1184.0,,,ospan,symmetry,DBD2A0aG0fZJrQ3KTYiJttMihfp1,symmetry-judgement-task,117,675757,0.0-46.0-4.0-0.0-1.0-6.0,,,,,,,,,,1.0,1.0,,,,5feb9a64d42dc5c4926ffe03,10:51:18,03/04/2024
,"<div style=""font-size: 10rem; color: #0000FF"">H</div>",,ospan,letter,DBD2A0aG0fZJrQ3KTYiJttMihfp1,html-keyboard-response,118,676772,0.0-46.0-4.0-0.0-1.0-7.0,,,,,,,,,,,,,,,5feb9a64d42dc5c4926ffe03,10:51:18,03/04/2024
6188.4000000059605,"<div class = numbox><p style=""font-size: 2.4rem"">Please recall the letters you saw to the best of your ability. If you do not remember a particular letter, use the SKIP button.<br><b>(When you are ready to lock in your answer, press ENTER)</b></p><button id = button_1 class = ""square num-button"" onclick = ""recordClick(this)""><div class = content><div class = numbers>C</div></div></button><button id = button_2 class = ""square num-button"" onclick = ""recordClick(this)""><div class = content><div class = numbers>G</div></div></button><button id = button_3 class = ""square num-button"" onclick = ""recordClick(this)""><div class = content><div class = numbers>H</div></div></button><button id = button_4 class = ""square num-button"" onclick = ""recordClick(this)""><div class = content><div class = numbers>J</div></div></button><button id = button_5 class = ""square num-button"" onclick = ""recordClick(this)""><div class = content><div class = numbers>K</div></div></button><button id = button_6 class = ""square num-button"" onclick = ""recordClick(this)""><div class = content><div class = numbers>L</div></div></button><button id = button_7 class = ""square num-button"" onclick = ""recordClick(this)""><div class = content><div class = numbers>N</div></div></button><button id = button_8 class = ""square num-button"" onclick = ""recordClick(this)""><div class = content><div class = numbers>P</div></div></button><button id = button_9 class = ""square num-button"" onclick = ""recordClick(this)""><div class = content><div class = numbers>Q</div></div></button><button id = button_10 class = ""square num-button"" onclick = ""recordClick(this)""><div class = content><div class = numbers>R</div></div></button><button id = button_11 class = ""square num-button"" onclick = ""recordClick(this)""><div class = content><div class = numbers>S</div></div></button><button id = button_12 class = ""square num-button"" onclick = ""recordClick(this)""><div class = content><div class = numbers>Y</div></div></button><button class = clear_button id = ""ClearButton"" onclick = ""clearResponse()"">BACKSPACE</button><button class = blank_button id = ""BlankButton"" onclick = ""blankResponse()"">SKIP</button><p style=""font-size: 2.4rem""><u><b>Current Answer:</b></u></p><br><br><div id=echoed_txt style=""font-size: 5rem; color:blue;""><b></b></div></div>",enter,ospan,retrieval,DBD2A0aG0fZJrQ3KTYiJttMihfp1,html-keyboard-response,119,683724,0.0-46.0-4.0-0.0-2.0,7,7,7,4.0,"[""Q"",""N"",""S"",""H""]","[""Q"",""N"",""S"",""H""]",1.0,4.0,,,,,,,5feb9a64d42dc5c4926ffe03,10:51:18,03/04/2024
3080.5999999940395,[''],0,ospan,feedback,DBD2A0aG0fZJrQ3KTYiJttMihfp1,html-button-response,120,687311,0.0-46.0-4.0-0.0-3.0,,,,,,,,,,,,100.0,0.0,,5feb9a64d42dc5c4926ffe03,10:51:18,03/04/2024
,"<p style=""font-size:75px;"">...</p>",,ospan,iti,DBD2A0aG0fZJrQ3KTYiJttMihfp1,html-keyboard-response,121,688324,0.0-46.0-4.0-1.0-0.0,,,,,,,,,,,,,,,5feb9a64d42dc5c4926ffe03,10:51:18,03/04/2024
2029.0,,,ospan,symmetry,DBD2A0aG0fZJrQ3KTYiJttMihfp1,symmetry-judgement-task,122,691386,0.0-46.0-4.0-1.0-1.0-0.0,,,,,,,,,,1.0,1.0,,,,5feb9a64d42dc5c4926ffe03,10:51:18,03/04/2024
,"<div style=""font-size: 10rem; color: #0000FF"">R</div>",,ospan,letter,DBD2A0aG0fZJrQ3KTYiJttMihfp1,html-keyboard-response,123,692397,0.0-46.0-4.0-1.0-1.0-1.0,,,,,,,,,,,,,,,5feb9a64d42dc5c4926ffe03,10:51:18,03/04/2024
3236.0,,,ospan,symmetry,DBD2A0aG0fZJrQ3KTYiJttMihfp1,symmetry-judgement-task,124,697564,0.0-46.0-4.0-1.0-1.0-2.0,,,,,,,,,,1.0,1.0,,,,5feb9a64d42dc5c4926ffe03,10:51:18,03/04/2024
,"<div style=""font-size: 10rem; color: #0000FF"">Y</div>",,ospan,letter,DBD2A0aG0fZJrQ3KTYiJttMihfp1,html-keyboard-response,125,698574,0.0-46.0-4.0-1.0-1.0-3.0,,,,,,,,,,,,,,,5feb9a64d42dc5c4926ffe03,10:51:18,03/04/2024
1962.0,,,ospan,symmetry,DBD2A0aG0fZJrQ3KTYiJttMihfp1,symmetry-judgement-task,126,702441,0.0-46.0-4.0-1.0-1.0-4.0,,,,,,,,,,1.0,1.0,,,,5feb9a64d42dc5c4926ffe03,10:51:18,03/04/2024
,"<div style=""font-size: 10rem; color: #0000FF"">J</div>",,ospan,letter,DBD2A0aG0fZJrQ3KTYiJttMihfp1,html-keyboard-response,127,703446,0.0-46.0-4.0-1.0-1.0-5.0,,,,,,,,,,,,,,,5feb9a64d42dc5c4926ffe03,10:51:18,03/04/2024
3613.0,,,ospan,symmetry,DBD2A0aG0fZJrQ3KTYiJttMihfp1,symmetry-judgement-task,128,708986,0.0-46.0-4.0-1.0-1.0-6.0,,,,,,,,,,0.0,0.0,,,,5feb9a64d42dc5c4926ffe03,10:51:18,03/04/2024
,"<div style=""font-size: 10rem; color: #0000FF"">L</div>",,ospan,letter,DBD2A0aG0fZJrQ3KTYiJttMihfp1,html-keyboard-response,129,709995,0.0-46.0-4.0-1.0-1.0-7.0,,,,,,,,,,,,,,,5feb9a64d42dc5c4926ffe03,10:51:18,03/04/2024
2176.0,,,ospan,symmetry,DBD2A0aG0fZJrQ3KTYiJttMihfp1,symmetry-judgement-task,130,714110,0.0-46.0-4.0-1.0-1.0-8.0,,,,,,,,,,1.0,1.0,,,,5feb9a64d42dc5c4926ffe03,10:51:18,03/04/2024
,"<div style=""font-size: 10rem; color: #0000FF"">K</div>",,ospan,letter,DBD2A0aG0fZJrQ3KTYiJttMihfp1,html-keyboard-response,131,715125,0.0-46.0-4.0-1.0-1.0-9.0,,,,,,,,,,,,,,,5feb9a64d42dc5c4926ffe03,10:51:18,03/04/2024
6069.4000000059605,"<div class = numbox><p style=""font-size: 2.4rem"">Please recall the letters you saw to the best of your ability. If you do not remember a particular letter, use the SKIP button.<br><b>(When you are ready to lock in your answer, press ENTER)</b></p><button id = button_1 class = ""square num-button"" onclick = ""recordClick(this)""><div class = content><div class = numbers>C</div></div></button><button id = button_2 class = ""square num-button"" onclick = ""recordClick(this)""><div class = content><div class = numbers>G</div></div></button><button id = button_3 class = ""square num-button"" onclick = ""recordClick(this)""><div class = content><div class = numbers>H</div></div></button><button id = button_4 class = ""square num-button"" onclick = ""recordClick(this)""><div class = content><div class = numbers>J</div></div></button><button id = button_5 class = ""square num-button"" onclick = ""recordClick(this)""><div class = content><div class = numbers>K</div></div></button><button id = button_6 class = ""square num-button"" onclick = ""recordClick(this)""><div class = content><div class = numbers>L</div></div></button><button id = button_7 class = ""square num-button"" onclick = ""recordClick(this)""><div class = content><div class = numbers>N</div></div></button><button id = button_8 class = ""square num-button"" onclick = ""recordClick(this)""><div class = content><div class = numbers>P</div></div></button><button id = button_9 class = ""square num-button"" onclick = ""recordClick(this)""><div class = content><div class = numbers>Q</div></div></button><button id = button_10 class = ""square num-button"" onclick = ""recordClick(this)""><div class = content><div class = numbers>R</div></div></button><button id = button_11 class = ""square num-button"" onclick = ""recordClick(this)""><div class = content><div class = numbers>S</div></div></button><button id = button_12 class = ""square num-button"" onclick = ""recordClick(this)""><div class = content><div class = numbers>Y</div></div></button><button class = clear_button id = ""ClearButton"" onclick = ""clearResponse()"">BACKSPACE</button><button class = blank_button id = ""BlankButton"" onclick = ""blankResponse()"">SKIP</button><p style=""font-size: 2.4rem""><u><b>Current Answer:</b></u></p><br><br><div id=echoed_txt style=""font-size: 5rem; color:blue;""><b></b></div></div>",enter,ospan,retrieval,DBD2A0aG0fZJrQ3KTYiJttMihfp1,html-keyboard-response,132,721959,0.0-46.0-4.0-1.0-2.0,12,12,12,5.0,"[""R"",""Y"",""J"",""L"",""K""]","[""R"",""Y"",""J"",""L"",""K""]",1.0,5.0,,,,,,,5feb9a64d42dc5c4926ffe03,10:51:18,03/04/2024
1161.699999988079,[''],0,ospan,feedback,DBD2A0aG0fZJrQ3KTYiJttMihfp1,html-button-response,133,723630,0.0-46.0-4.0-1.0-3.0,,,,,,,,,,,,92.0,0.0,,5feb9a64d42dc5c4926ffe03,10:51:18,03/04/2024
,"<p style=""font-size:75px;"">...</p>",,ospan,iti,DBD2A0aG0fZJrQ3KTYiJttMihfp1,html-keyboard-response,134,724638,0.0-46.0-4.0-2.0-0.0,,,,,,,,,,,,,,,5feb9a64d42dc5c4926ffe03,10:51:18,03/04/2024
3719.0,,,ospan,symmetry,DBD2A0aG0fZJrQ3KTYiJttMihfp1,symmetry-judgement-task,135,729406,0.0-46.0-4.0-2.0-1.0-0.0,,,,,,,,,,1.0,1.0,,,,5feb9a64d42dc5c4926ffe03,10:51:18,03/04/2024
,"<div style=""font-size: 10rem; color: #0000FF"">C</div>",,ospan,letter,DBD2A0aG0fZJrQ3KTYiJttMihfp1,html-keyboard-response,136,730414,0.0-46.0-4.0-2.0-1.0-1.0,,,,,,,,,,,,,,,5feb9a64d42dc5c4926ffe03,10:51:18,03/04/2024
2005.0,,,ospan,symmetry,DBD2A0aG0fZJrQ3KTYiJttMihfp1,symmetry-judgement-task,137,734327,0.0-46.0-4.0-2.0-1.0-2.0,,,,,,,,,,1.0,1.0,,,,5feb9a64d42dc5c4926ffe03,10:51:18,03/04/2024
,"<div style=""font-size: 10rem; color: #0000FF"">L</div>",,ospan,letter,DBD2A0aG0fZJrQ3KTYiJttMihfp1,html-keyboard-response,138,735329,0.0-46.0-4.0-2.0-1.0-3.0,,,,,,,,,,,,,,,5feb9a64d42dc5c4926ffe03,10:51:18,03/04/2024
3439.0,,,ospan,symmetry,DBD2A0aG0fZJrQ3KTYiJttMihfp1,symmetry-judgement-task,139,740682,0.0-46.0-4.0-2.0-1.0-4.0,,,,,,,,,,1.0,1.0,,,,5feb9a64d42dc5c4926ffe03,10:51:18,03/04/2024
,"<div style=""font-size: 10rem; color: #0000FF"">Q</div>",,ospan,letter,DBD2A0aG0fZJrQ3KTYiJttMihfp1,html-keyboard-response,140,741692,0.0-46.0-4.0-2.0-1.0-5.0,,,,,,,,,,,,,,,5feb9a64d42dc5c4926ffe03,10:51:18,03/04/2024
3621.5,"<div class = numbox><p style=""font-size: 2.4rem"">Please recall the letters you saw to the best of your ability. If you do not remember a particular letter, use the SKIP button.<br><b>(When you are ready to lock in your answer, press ENTER)</b></p><button id = button_1 class = ""square num-button"" onclick = ""recordClick(this)""><div class = content><div class = numbers>C</div></div></button><button id = button_2 class = ""square num-button"" onclick = ""recordClick(this)""><div class = content><div class = numbers>G</div></div></button><button id = button_3 class = ""square num-button"" onclick = ""recordClick(this)""><div class = content><div class = numbers>H</div></div></button><button id = button_4 class = ""square num-button"" onclick = ""recordClick(this)""><div class = content><div class = numbers>J</div></div></button><button id = button_5 class = ""square num-button"" onclick = ""recordClick(this)""><div class = content><div class = numbers>K</div></div></button><button id = button_6 class = ""square num-button"" onclick = ""recordClick(this)""><div class = content><div class = numbers>L</div></div></button><button id = button_7 class = ""square num-button"" onclick = ""recordClick(this)""><div class = content><div class = numbers>N</div></div></button><button id = button_8 class = ""square num-button"" onclick = ""recordClick(this)""><div class = content><div class = numbers>P</div></div></button><button id = button_9 class = ""square num-button"" onclick = ""recordClick(this)""><div class = content><div class = numbers>Q</div></div></button><button id = button_10 class = ""square num-button"" onclick = ""recordClick(this)""><div class = content><div class = numbers>R</div></div></button><button id = button_11 class = ""square num-button"" onclick = ""recordClick(this)""><div class = content><div class = numbers>S</div></div></button><button id = button_12 class = ""square num-button"" onclick = ""recordClick(this)""><div class = content><div class = numbers>Y</div></div></button><button class = clear_button id = ""ClearButton"" onclick = ""clearResponse()"">BACKSPACE</button><button class = blank_button id = ""BlankButton"" onclick = ""blankResponse()"">SKIP</button><p style=""font-size: 2.4rem""><u><b>Current Answer:</b></u></p><br><br><div id=echoed_txt style=""font-size: 5rem; color:blue;""><b></b></div></div>",enter,ospan,retrieval,DBD2A0aG0fZJrQ3KTYiJttMihfp1,html-keyboard-response,141,746078,0.0-46.0-4.0-2.0-2.0,15,15,15,3.0,"[""C"",""L"",""Q""]","[""C"",""L"",""Q""]",1.0,3.0,,,,,,,5feb9a64d42dc5c4926ffe03,10:51:18,03/04/2024
1016.7999999821186,[''],0,ospan,feedback,DBD2A0aG0fZJrQ3KTYiJttMihfp1,html-button-response,142,747600,0.0-46.0-4.0-2.0-3.0,,,,,,,,,,,,93.0,0.0,,5feb9a64d42dc5c4926ffe03,10:51:18,03/04/2024
,"<p style=""font-size:75px;"">...</p>",,ospan,iti,DBD2A0aG0fZJrQ3KTYiJttMihfp1,html-keyboard-response,143,748609,0.0-46.0-5.0-0.0-0.0,,,,,,,,,,,,,,,5feb9a64d42dc5c4926ffe03,10:51:18,03/04/2024
2938.0,,,ospan,symmetry,DBD2A0aG0fZJrQ3KTYiJttMihfp1,symmetry-judgement-task,144,752714,0.0-46.0-5.0-0.0-1.0-0.0,,,,,,,,,,1.0,1.0,,,,5feb9a64d42dc5c4926ffe03,10:51:18,03/04/2024
,"<div style=""font-size: 10rem; color: #0000FF"">G</div>",,ospan,letter,DBD2A0aG0fZJrQ3KTYiJttMihfp1,html-keyboard-response,145,753725,0.0-46.0-5.0-0.0-1.0-1.0,,,,,,,,,,,,,,,5feb9a64d42dc5c4926ffe03,10:51:18,03/04/2024
1302.0,,,ospan,symmetry,DBD2A0aG0fZJrQ3KTYiJttMihfp1,symmetry-judgement-task,146,756945,0.0-46.0-5.0-0.0-1.0-2.0,,,,,,,,,,1.0,1.0,,,,5feb9a64d42dc5c4926ffe03,10:51:18,03/04/2024
,"<div style=""font-size: 10rem; color: #0000FF"">C</div>",,ospan,letter,DBD2A0aG0fZJrQ3KTYiJttMihfp1,html-keyboard-response,147,757958,0.0-46.0-5.0-0.0-1.0-3.0,,,,,,,,,,,,,,,5feb9a64d42dc5c4926ffe03,10:51:18,03/04/2024
2829.0,,,ospan,symmetry,DBD2A0aG0fZJrQ3KTYiJttMihfp1,symmetry-judgement-task,148,762698,0.0-46.0-5.0-0.0-1.0-4.0,,,,,,,,,,1.0,1.0,,,,5feb9a64d42dc5c4926ffe03,10:51:18,03/04/2024
,"<div style=""font-size: 10rem; color: #0000FF"">K</div>",,ospan,letter,DBD2A0aG0fZJrQ3KTYiJttMihfp1,html-keyboard-response,149,763708,0.0-46.0-5.0-0.0-1.0-5.0,,,,,,,,,,,,,,,5feb9a64d42dc5c4926ffe03,10:51:18,03/04/2024
2423.0,,,ospan,symmetry,DBD2A0aG0fZJrQ3KTYiJttMihfp1,symmetry-judgement-task,150,768045,0.0-46.0-5.0-0.0-1.0-6.0,,,,,,,,,,1.0,1.0,,,,5feb9a64d42dc5c4926ffe03,10:51:18,03/04/2024
,"<div style=""font-size: 10rem; color: #0000FF"">N</div>",,ospan,letter,DBD2A0aG0fZJrQ3KTYiJttMihfp1,html-keyboard-response,151,769051,0.0-46.0-5.0-0.0-1.0-7.0,,,,,,,,,,,,,,,5feb9a64d42dc5c4926ffe03,10:51:18,03/04/2024
1531.0,,,ospan,symmetry,DBD2A0aG0fZJrQ3KTYiJttMihfp1,symmetry-judgement-task,152,772518,0.0-46.0-5.0-0.0-1.0-8.0,,,,,,,,,,1.0,1.0,,,,5feb9a64d42dc5c4926ffe03,10:51:18,03/04/2024
,"<div style=""font-size: 10rem; color: #0000FF"">S</div>",,ospan,letter,DBD2A0aG0fZJrQ3KTYiJttMihfp1,html-keyboard-response,153,773532,0.0-46.0-5.0-0.0-1.0-9.0,,,,,,,,,,,,,,,5feb9a64d42dc5c4926ffe03,10:51:18,03/04/2024
1643.0,,,ospan,symmetry,DBD2A0aG0fZJrQ3KTYiJttMihfp1,symmetry-judgement-task,154,777101,0.0-46.0-5.0-0.0-1.0-10.0,,,,,,,,,,0.0,0.0,,,,5feb9a64d42dc5c4926ffe03,10:51:18,03/04/2024
,"<div style=""font-size: 10rem; color: #0000FF"">R</div>",,ospan,letter,DBD2A0aG0fZJrQ3KTYiJttMihfp1,html-keyboard-response,155,778110,0.0-46.0-5.0-0.0-1.0-11.0,,,,,,,,,,,,,,,5feb9a64d42dc5c4926ffe03,10:51:18,03/04/2024
13102.300000011921,"<div class = numbox><p style=""font-size: 2.4rem"">Please recall the letters you saw to the best of your ability. If you do not remember a particular letter, use the SKIP button.<br><b>(When you are ready to lock in your answer, press ENTER)</b></p><button id = button_1 class = ""square num-button"" onclick = ""recordClick(this)""><div class = content><div class = numbers>C</div></div></button><button id = button_2 class = ""square num-button"" onclick = ""recordClick(this)""><div class = content><div class = numbers>G</div></div></button><button id = button_3 class = ""square num-button"" onclick = ""recordClick(this)""><div class = content><div class = numbers>H</div></div></button><button id = button_4 class = ""square num-button"" onclick = ""recordClick(this)""><div class = content><div class = numbers>J</div></div></button><button id = button_5 class = ""square num-button"" onclick = ""recordClick(this)""><div class = content><div class = numbers>K</div></div></button><button id = button_6 class = ""square num-button"" onclick = ""recordClick(this)""><div class = content><div class = numbers>L</div></div></button><button id = button_7 class = ""square num-button"" onclick = ""recordClick(this)""><div class = content><div class = numbers>N</div></div></button><button id = button_8 class = ""square num-button"" onclick = ""recordClick(this)""><div class = content><div class = numbers>P</div></div></button><button id = button_9 class = ""square num-button"" onclick = ""recordClick(this)""><div class = content><div class = numbers>Q</div></div></button><button id = button_10 class = ""square num-button"" onclick = ""recordClick(this)""><div class = content><div class = numbers>R</div></div></button><button id = button_11 class = ""square num-button"" onclick = ""recordClick(this)""><div class = content><div class = numbers>S</div></div></button><button id = button_12 class = ""square num-button"" onclick = ""recordClick(this)""><div class = content><div class = numbers>Y</div></div></button><button class = clear_button id = ""ClearButton"" onclick = ""clearResponse()"">BACKSPACE</button><button class = blank_button id = ""BlankButton"" onclick = ""blankResponse()"">SKIP</button><p style=""font-size: 2.4rem""><u><b>Current Answer:</b></u></p><br><br><div id=echoed_txt style=""font-size: 5rem; color:blue;""><b></b></div></div>",enter,ospan,retrieval,DBD2A0aG0fZJrQ3KTYiJttMihfp1,html-keyboard-response,156,791964,0.0-46.0-5.0-0.0-2.0,21,17,15,6.0,"[""G"",""K"",""S"",""N"",""_"",""C""]","[""G"",""C"",""K"",""N"",""S"",""R""]",0.0,2.0,,,,,,,5feb9a64d42dc5c4926ffe03,10:51:18,03/04/2024
1388.7000000178814,[''],0,ospan,feedback,DBD2A0aG0fZJrQ3KTYiJttMihfp1,html-button-response,157,793857,0.0-46.0-5.0-0.0-3.0,,,,,,,,,,,,90.0,0.0,,5feb9a64d42dc5c4926ffe03,10:51:18,03/04/2024
,"<p style=""font-size:75px;"">...</p>",,ospan,iti,DBD2A0aG0fZJrQ3KTYiJttMihfp1,html-keyboard-response,158,794861,0.0-46.0-5.0-1.0-0.0,,,,,,,,,,,,,,,5feb9a64d42dc5c4926ffe03,10:51:18,03/04/2024
1530.0,,,ospan,symmetry,DBD2A0aG0fZJrQ3KTYiJttMihfp1,symmetry-judgement-task,159,797423,0.0-46.0-5.0-1.0-1.0-0.0,,,,,,,,,,1.0,1.0,,,,5feb9a64d42dc5c4926ffe03,10:51:18,03/04/2024
,"<div style=""font-size: 10rem; color: #0000FF"">P</div>",,ospan,letter,DBD2A0aG0fZJrQ3KTYiJttMihfp1,html-keyboard-response,160,798434,0.0-46.0-5.0-1.0-1.0-1.0,,,,,,,,,,,,,,,5feb9a64d42dc5c4926ffe03,10:51:18,03/04/2024
2022.0,,,ospan,symmetry,DBD2A0aG0fZJrQ3KTYiJttMihfp1,symmetry-judgement-task,161,802372,0.0-46.0-5.0-1.0-1.0-2.0,,,,,,,,,,1.0,1.0,,,,5feb9a64d42dc5c4926ffe03,10:51:18,03/04/2024
,"<div style=""font-size: 10rem; color: #0000FF"">L</div>",,ospan,letter,DBD2A0aG0fZJrQ3KTYiJttMihfp1,html-keyboard-response,162,803382,0.0-46.0-5.0-1.0-1.0-3.0,,,,,,,,,,,,,,,5feb9a64d42dc5c4926ffe03,10:51:18,03/04/2024
1629.0,,,ospan,symmetry,DBD2A0aG0fZJrQ3KTYiJttMihfp1,symmetry-judgement-task,163,806925,0.0-46.0-5.0-1.0-1.0-4.0,,,,,,,,,,1.0,1.0,,,,5feb9a64d42dc5c4926ffe03,10:51:18,03/04/2024
,"<div style=""font-size: 10rem; color: #0000FF"">S</div>",,ospan,letter,DBD2A0aG0fZJrQ3KTYiJttMihfp1,html-keyboard-response,164,807926,0.0-46.0-5.0-1.0-1.0-5.0,,,,,,,,,,,,,,,5feb9a64d42dc5c4926ffe03,10:51:18,03/04/2024
2744.0,,,ospan,symmetry,DBD2A0aG0fZJrQ3KTYiJttMihfp1,symmetry-judgement-task,165,812593,0.0-46.0-5.0-1.0-1.0-6.0,,,,,,,,,,1.0,1.0,,,,5feb9a64d42dc5c4926ffe03,10:51:18,03/04/2024
,"<div style=""font-size: 10rem; color: #0000FF"">J</div>",,ospan,letter,DBD2A0aG0fZJrQ3KTYiJttMihfp1,html-keyboard-response,166,813604,0.0-46.0-5.0-1.0-1.0-7.0,,,,,,,,,,,,,,,5feb9a64d42dc5c4926ffe03,10:51:18,03/04/2024
1741.0,,,ospan,symmetry,DBD2A0aG0fZJrQ3KTYiJttMihfp1,symmetry-judgement-task,167,817267,0.0-46.0-5.0-1.0-1.0-8.0,,,,,,,,,,1.0,1.0,,,,5feb9a64d42dc5c4926ffe03,10:51:18,03/04/2024
,"<div style=""font-size: 10rem; color: #0000FF"">H</div>",,ospan,letter,DBD2A0aG0fZJrQ3KTYiJttMihfp1,html-keyboard-response,168,818281,0.0-46.0-5.0-1.0-1.0-9.0,,,,,,,,,,,,,,,5feb9a64d42dc5c4926ffe03,10:51:18,03/04/2024
1751.0,,,ospan,symmetry,DBD2A0aG0fZJrQ3KTYiJttMihfp1,symmetry-judgement-task,169,821939,0.0-46.0-5.0-1.0-1.0-10.0,,,,,,,,,,1.0,1.0,,,,5feb9a64d42dc5c4926ffe03,10:51:18,03/04/2024
,"<div style=""font-size: 10rem; color: #0000FF"">Y</div>",,ospan,letter,DBD2A0aG0fZJrQ3KTYiJttMihfp1,html-keyboard-response,170,822943,0.0-46.0-5.0-1.0-1.0-11.0,,,,,,,,,,,,,,,5feb9a64d42dc5c4926ffe03,10:51:18,03/04/2024
3641.0,,,ospan,symmetry,DBD2A0aG0fZJrQ3KTYiJttMihfp1,symmetry-judgement-task,171,828490,0.0-46.0-5.0-1.0-1.0-12.0,,,,,,,,,,1.0,1.0,,,,5feb9a64d42dc5c4926ffe03,10:51:18,03/04/2024
,"<div style=""font-size: 10rem; color: #0000FF"">Q</div>",,ospan,letter,DBD2A0aG0fZJrQ3KTYiJttMihfp1,html-keyboard-response,172,829497,0.0-46.0-5.0-1.0-1.0-13.0,,,,,,,,,,,,,,,5feb9a64d42dc5c4926ffe03,10:51:18,03/04/2024
7450.899999976158,"<div class = numbox><p style=""font-size: 2.4rem"">Please recall the letters you saw to the best of your ability. If you do not remember a particular letter, use the SKIP button.<br><b>(When you are ready to lock in your answer, press ENTER)</b></p><button id = button_1 class = ""square num-button"" onclick = ""recordClick(this)""><div class = content><div class = numbers>C</div></div></button><button id = button_2 class = ""square num-button"" onclick = ""recordClick(this)""><div class = content><div class = numbers>G</div></div></button><button id = button_3 class = ""square num-button"" onclick = ""recordClick(this)""><div class = content><div class = numbers>H</div></div></button><button id = button_4 class = ""square num-button"" onclick = ""recordClick(this)""><div class = content><div class = numbers>J</div></div></button><button id = button_5 class = ""square num-button"" onclick = ""recordClick(this)""><div class = content><div class = numbers>K</div></div></button><button id = button_6 class = ""square num-button"" onclick = ""recordClick(this)""><div class = content><div class = numbers>L</div></div></button><button id = button_7 class = ""square num-button"" onclick = ""recordClick(this)""><div class = content><div class = numbers>N</div></div></button><button id = button_8 class = ""square num-button"" onclick = ""recordClick(this)""><div class = content><div class = numbers>P</div></div></button><button id = button_9 class = ""square num-button"" onclick = ""recordClick(this)""><div class = content><div class = numbers>Q</div></div></button><button id = button_10 class = ""square num-button"" onclick = ""recordClick(this)""><div class = content><div class = numbers>R</div></div></button><button id = button_11 class = ""square num-button"" onclick = ""recordClick(this)""><div class = content><div class = numbers>S</div></div></button><button id = button_12 class = ""square num-button"" onclick = ""recordClick(this)""><div class = content><div class = numbers>Y</div></div></button><button class = clear_button id = ""ClearButton"" onclick = ""clearResponse()"">BACKSPACE</button><button class = blank_button id = ""BlankButton"" onclick = ""blankResponse()"">SKIP</button><p style=""font-size: 2.4rem""><u><b>Current Answer:</b></u></p><br><br><div id=echoed_txt style=""font-size: 5rem; color:blue;""><b></b></div></div>",enter,ospan,retrieval,DBD2A0aG0fZJrQ3KTYiJttMihfp1,html-keyboard-response,173,837710,0.0-46.0-5.0-1.0-2.0,28,18,15,7.0,"[""P"",""S"",""L"",""H"",""Y"",""Q""]","[""P"",""L"",""S"",""J"",""H"",""Y"",""Q""]",0.0,1.0,,,,,,,5feb9a64d42dc5c4926ffe03,10:51:18,03/04/2024
1308.9000000059605,[''],0,ospan,feedback,DBD2A0aG0fZJrQ3KTYiJttMihfp1,html-button-response,174,839521,0.0-46.0-5.0-1.0-3.0,,,,,,,,,,,,93.0,0.0,,5feb9a64d42dc5c4926ffe03,10:51:18,03/04/2024
,"<p style=""font-size:75px;"">...</p>",,ospan,iti,DBD2A0aG0fZJrQ3KTYiJttMihfp1,html-keyboard-response,175,840532,0.0-46.0-6.0-0.0-0.0,,,,,,,,,,,,,,,5feb9a64d42dc5c4926ffe03,10:51:18,03/04/2024
1428.0,,,ospan,symmetry,DBD2A0aG0fZJrQ3KTYiJttMihfp1,symmetry-judgement-task,176,843100,0.0-46.0-6.0-0.0-1.0-0.0,,,,,,,,,,1.0,1.0,,,,5feb9a64d42dc5c4926ffe03,10:51:18,03/04/2024
,"<div style=""font-size: 10rem; color: #0000FF"">J</div>",,ospan,letter,DBD2A0aG0fZJrQ3KTYiJttMihfp1,html-keyboard-response,177,844110,0.0-46.0-6.0-0.0-1.0-1.0,,,,,,,,,,,,,,,5feb9a64d42dc5c4926ffe03,10:51:18,03/04/2024
2112.0,,,ospan,symmetry,DBD2A0aG0fZJrQ3KTYiJttMihfp1,symmetry-judgement-task,178,848126,0.0-46.0-6.0-0.0-1.0-2.0,,,,,,,,,,1.0,1.0,,,,5feb9a64d42dc5c4926ffe03,10:51:18,03/04/2024
,"<div style=""font-size: 10rem; color: #0000FF"">Q</div>",,ospan,letter,DBD2A0aG0fZJrQ3KTYiJttMihfp1,html-keyboard-response,179,849131,0.0-46.0-6.0-0.0-1.0-3.0,,,,,,,,,,,,,,,5feb9a64d42dc5c4926ffe03,10:51:18,03/04/2024
1822.0,,,ospan,symmetry,DBD2A0aG0fZJrQ3KTYiJttMihfp1,symmetry-judgement-task,180,852880,0.0-46.0-6.0-0.0-1.0-4.0,,,,,,,,,,1.0,1.0,,,,5feb9a64d42dc5c4926ffe03,10:51:18,03/04/2024
,"<div style=""font-size: 10rem; color: #0000FF"">H</div>",,ospan,letter,DBD2A0aG0fZJrQ3KTYiJttMihfp1,html-keyboard-response,181,853891,0.0-46.0-6.0-0.0-1.0-5.0,,,,,,,,,,,,,,,5feb9a64d42dc5c4926ffe03,10:51:18,03/04/2024
1712.0,,,ospan,symmetry,DBD2A0aG0fZJrQ3KTYiJttMihfp1,symmetry-judgement-task,182,857510,0.0-46.0-6.0-0.0-1.0-6.0,,,,,,,,,,1.0,1.0,,,,5feb9a64d42dc5c4926ffe03,10:51:18,03/04/2024
,"<div style=""font-size: 10rem; color: #0000FF"">P</div>",,ospan,letter,DBD2A0aG0fZJrQ3KTYiJttMihfp1,html-keyboard-response,183,858520,0.0-46.0-6.0-0.0-1.0-7.0,,,,,,,,,,,,,,,5feb9a64d42dc5c4926ffe03,10:51:18,03/04/2024
2116.0,,,ospan,symmetry,DBD2A0aG0fZJrQ3KTYiJttMihfp1,symmetry-judgement-task,184,862558,0.0-46.0-6.0-0.0-1.0-8.0,,,,,,,,,,1.0,1.0,,,,5feb9a64d42dc5c4926ffe03,10:51:18,03/04/2024
,"<div style=""font-size: 10rem; color: #0000FF"">L</div>",,ospan,letter,DBD2A0aG0fZJrQ3KTYiJttMihfp1,html-keyboard-response,185,863569,0.0-46.0-6.0-0.0-1.0-9.0,,,,,,,,,,,,,,,5feb9a64d42dc5c4926ffe03,10:51:18,03/04/2024
4976.4000000059605,"<div class = numbox><p style=""font-size: 2.4rem"">Please recall the letters you saw to the best of your ability. If you do not remember a particular letter, use the SKIP button.<br><b>(When you are ready to lock in your answer, press ENTER)</b></p><button id = button_1 class = ""square num-button"" onclick = ""recordClick(this)""><div class = content><div class = numbers>C</div></div></button><button id = button_2 class = ""square num-button"" onclick = ""recordClick(this)""><div class = content><div class = numbers>G</div></div></button><button id = button_3 class = ""square num-button"" onclick = ""recordClick(this)""><div class = content><div class = numbers>H</div></div></button><button id = button_4 class = ""square num-button"" onclick = ""recordClick(this)""><div class = content><div class = numbers>J</div></div></button><button id = button_5 class = ""square num-button"" onclick = ""recordClick(this)""><div class = content><div class = numbers>K</div></div></button><button id = button_6 class = ""square num-button"" onclick = ""recordClick(this)""><div class = content><div class = numbers>L</div></div></button><button id = button_7 class = ""square num-button"" onclick = ""recordClick(this)""><div class = content><div class = numbers>N</div></div></button><button id = button_8 class = ""square num-button"" onclick = ""recordClick(this)""><div class = content><div class = numbers>P</div></div></button><button id = button_9 class = ""square num-button"" onclick = ""recordClick(this)""><div class = content><div class = numbers>Q</div></div></button><button id = button_10 class = ""square num-button"" onclick = ""recordClick(this)""><div class = content><div class = numbers>R</div></div></button><button id = button_11 class = ""square num-button"" onclick = ""recordClick(this)""><div class = content><div class = numbers>S</div></div></button><button id = button_12 class = ""square num-button"" onclick = ""recordClick(this)""><div class = content><div class = numbers>Y</div></div></button><button class = clear_button id = ""ClearButton"" onclick = ""clearResponse()"">BACKSPACE</button><button class = blank_button id = ""BlankButton"" onclick = ""blankResponse()"">SKIP</button><p style=""font-size: 2.4rem""><u><b>Current Answer:</b></u></p><br><br><div id=echoed_txt style=""font-size: 5rem; color:blue;""><b></b></div></div>",enter,ospan,retrieval,DBD2A0aG0fZJrQ3KTYiJttMihfp1,html-keyboard-response,186,869310,0.0-46.0-6.0-0.0-2.0,33,21,15,5.0,"[""J"",""H"",""Q"",""P"",""L""]","[""J"",""Q"",""H"",""P"",""L""]",0.0,3.0,,,,,,,5feb9a64d42dc5c4926ffe03,10:51:18,03/04/2024
24396.600000023842,[''],0,ospan,feedback,DBD2A0aG0fZJrQ3KTYiJttMihfp1,html-button-response,187,894211,0.0-46.0-6.0-0.0-3.0,,,,,,,,,,,,94.0,0.0,,5feb9a64d42dc5c4926ffe03,10:51:18,03/04/2024
,"<p style=""font-size:75px;"">...</p>",,ospan,iti,DBD2A0aG0fZJrQ3KTYiJttMihfp1,html-keyboard-response,188,895217,0.0-46.0-6.0-1.0-0.0,,,,,,,,,,,,,,,5feb9a64d42dc5c4926ffe03,10:51:18,03/04/2024
1926.0,,,ospan,symmetry,DBD2A0aG0fZJrQ3KTYiJttMihfp1,symmetry-judgement-task,189,898295,0.0-46.0-6.0-1.0-1.0-0.0,,,,,,,,,,1.0,1.0,,,,5feb9a64d42dc5c4926ffe03,10:51:18,03/04/2024
,"<div style=""font-size: 10rem; color: #0000FF"">G</div>",,ospan,letter,DBD2A0aG0fZJrQ3KTYiJttMihfp1,html-keyboard-response,190,899307,0.0-46.0-6.0-1.0-1.0-1.0,,,,,,,,,,,,,,,5feb9a64d42dc5c4926ffe03,10:51:18,03/04/2024
2822.0,,,ospan,symmetry,DBD2A0aG0fZJrQ3KTYiJttMihfp1,symmetry-judgement-task,191,904022,0.0-46.0-6.0-1.0-1.0-2.0,,,,,,,,,,1.0,1.0,,,,5feb9a64d42dc5c4926ffe03,10:51:18,03/04/2024
,"<div style=""font-size: 10rem; color: #0000FF"">Q</div>",,ospan,letter,DBD2A0aG0fZJrQ3KTYiJttMihfp1,html-keyboard-response,192,905039,0.0-46.0-6.0-1.0-1.0-3.0,,,,,,,,,,,,,,,5feb9a64d42dc5c4926ffe03,10:51:18,03/04/2024
4236.0,,,ospan,symmetry,DBD2A0aG0fZJrQ3KTYiJttMihfp1,symmetry-judgement-task,193,911188,0.0-46.0-6.0-1.0-1.0-4.0,,,,,,,,,,1.0,1.0,,,,5feb9a64d42dc5c4926ffe03,10:51:18,03/04/2024
,"<div style=""font-size: 10rem; color: #0000FF"">K</div>",,ospan,letter,DBD2A0aG0fZJrQ3KTYiJttMihfp1,html-keyboard-response,194,912196,0.0-46.0-6.0-1.0-1.0-5.0,,,,,,,,,,,,,,,5feb9a64d42dc5c4926ffe03,10:51:18,03/04/2024
1321.0,,,ospan,symmetry,DBD2A0aG0fZJrQ3KTYiJttMihfp1,symmetry-judgement-task,195,915414,0.0-46.0-6.0-1.0-1.0-6.0,,,,,,,,,,1.0,1.0,,,,5feb9a64d42dc5c4926ffe03,10:51:18,03/04/2024
,"<div style=""font-size: 10rem; color: #0000FF"">Y</div>",,ospan,letter,DBD2A0aG0fZJrQ3KTYiJttMihfp1,html-keyboard-response,196,916427,0.0-46.0-6.0-1.0-1.0-7.0,,,,,,,,,,,,,,,5feb9a64d42dc5c4926ffe03,10:51:18,03/04/2024
3145.0,,,ospan,symmetry,DBD2A0aG0fZJrQ3KTYiJttMihfp1,symmetry-judgement-task,197,921491,0.0-46.0-6.0-1.0-1.0-8.0,,,,,,,,,,1.0,1.0,,,,5feb9a64d42dc5c4926ffe03,10:51:18,03/04/2024
,"<div style=""font-size: 10rem; color: #0000FF"">L</div>",,ospan,letter,DBD2A0aG0fZJrQ3KTYiJttMihfp1,html-keyboard-response,198,922501,0.0-46.0-6.0-1.0-1.0-9.0,,,,,,,,,,,,,,,5feb9a64d42dc5c4926ffe03,10:51:18,03/04/2024
1455.0,,,ospan,symmetry,DBD2A0aG0fZJrQ3KTYiJttMihfp1,symmetry-judgement-task,199,925880,0.0-46.0-6.0-1.0-1.0-10.0,,,,,,,,,,1.0,1.0,,,,5feb9a64d42dc5c4926ffe03,10:51:18,03/04/2024
,"<div style=""font-size: 10rem; color: #0000FF"">J</div>",,ospan,letter,DBD2A0aG0fZJrQ3KTYiJttMihfp1,html-keyboard-response,200,926893,0.0-46.0-6.0-1.0-1.0-11.0,,,,,,,,,,,,,,,5feb9a64d42dc5c4926ffe03,10:51:18,03/04/2024
1234.0,,,ospan,symmetry,DBD2A0aG0fZJrQ3KTYiJttMihfp1,symmetry-judgement-task,201,930047,0.0-46.0-6.0-1.0-1.0-12.0,,,,,,,,,,1.0,1.0,,,,5feb9a64d42dc5c4926ffe03,10:51:18,03/04/2024
,"<div style=""font-size: 10rem; color: #0000FF"">N</div>",,ospan,letter,DBD2A0aG0fZJrQ3KTYiJttMihfp1,html-keyboard-response,202,931056,0.0-46.0-6.0-1.0-1.0-13.0,,,,,,,,,,,,,,,5feb9a64d42dc5c4926ffe03,10:51:18,03/04/2024
1527.0,,,ospan,symmetry,DBD2A0aG0fZJrQ3KTYiJttMihfp1,symmetry-judgement-task,203,934492,0.0-46.0-6.0-1.0-1.0-14.0,,,,,,,,,,1.0,1.0,,,,5feb9a64d42dc5c4926ffe03,10:51:18,03/04/2024
,"<div style=""font-size: 10rem; color: #0000FF"">C</div>",,ospan,letter,DBD2A0aG0fZJrQ3KTYiJttMihfp1,html-keyboard-response,204,935503,0.0-46.0-6.0-1.0-1.0-15.0,,,,,,,,,,,,,,,5feb9a64d42dc5c4926ffe03,10:51:18,03/04/2024
10035.40000000596,"<div class = numbox><p style=""font-size: 2.4rem"">Please recall the letters you saw to the best of your ability. If you do not remember a particular letter, use the SKIP button.<br><b>(When you are ready to lock in your answer, press ENTER)</b></p><button id = button_1 class = ""square num-button"" onclick = ""recordClick(this)""><div class = content><div class = numbers>C</div></div></button><button id = button_2 class = ""square num-button"" onclick = ""recordClick(this)""><div class = content><div class = numbers>G</div></div></button><button id = button_3 class = ""square num-button"" onclick = ""recordClick(this)""><div class = content><div class = numbers>H</div></div></button><button id = button_4 class = ""square num-button"" onclick = ""recordClick(this)""><div class = content><div class = numbers>J</div></div></button><button id = button_5 class = ""square num-button"" onclick = ""recordClick(this)""><div class = content><div class = numbers>K</div></div></button><button id = button_6 class = ""square num-button"" onclick = ""recordClick(this)""><div class = content><div class = numbers>L</div></div></button><button id = button_7 class = ""square num-button"" onclick = ""recordClick(this)""><div class = content><div class = numbers>N</div></div></button><button id = button_8 class = ""square num-button"" onclick = ""recordClick(this)""><div class = content><div class = numbers>P</div></div></button><button id = button_9 class = ""square num-button"" onclick = ""recordClick(this)""><div class = content><div class = numbers>Q</div></div></button><button id = button_10 class = ""square num-button"" onclick = ""recordClick(this)""><div class = content><div class = numbers>R</div></div></button><button id = button_11 class = ""square num-button"" onclick = ""recordClick(this)""><div class = content><div class = numbers>S</div></div></button><button id = button_12 class = ""square num-button"" onclick = ""recordClick(this)""><div class = content><div class = numbers>Y</div></div></button><button class = clear_button id = ""ClearButton"" onclick = ""clearResponse()"">BACKSPACE</button><button class = blank_button id = ""BlankButton"" onclick = ""blankResponse()"">SKIP</button><p style=""font-size: 2.4rem""><u><b>Current Answer:</b></u></p><br><br><div id=echoed_txt style=""font-size: 5rem; color:blue;""><b></b></div></div>",enter,ospan,retrieval,DBD2A0aG0fZJrQ3KTYiJttMihfp1,html-keyboard-response,205,946304,0.0-46.0-6.0-1.0-2.0,41,27,15,8.0,"[""G"",""Q"",""K"",""Y"",""L"",""C"",""N""]","[""G"",""Q"",""K"",""Y"",""L"",""J"",""N"",""C""]",0.0,6.0,,,,,,,5feb9a64d42dc5c4926ffe03,10:51:18,03/04/2024
760.2000000178814,[''],0,ospan,feedback,DBD2A0aG0fZJrQ3KTYiJttMihfp1,html-button-response,206,947580,0.0-46.0-6.0-1.0-3.0,,,,,,,,,,,,95.0,0.0,,5feb9a64d42dc5c4926ffe03,10:51:18,03/04/2024
8574.5,,{'Q0': 'Was hard to remember the letters'},ospan,survey_ospan,DBD2A0aG0fZJrQ3KTYiJttMihfp1,lmdlab-survey-text,207,956910,0.0-46.0-7.0,,,,,,,,,,,,,,DBD2A0aG0fZJrQ3KTYiJttMihfp1,5feb9a64d42dc5c4926ffe03,10:51:18,03/04/2024
1609.5,<p><p style='font-size: 3rem'>Great work!<br><br>This completes the symmetry and memory task.</p><br><br><br>,0,ospan,finish,DBD2A0aG0fZJrQ3KTYiJttMihfp1,html-button-response,208,958525,0.0-46.0-8.0,41,27,15,,,,,,,,,95.0,,,5feb9a64d42dc5c4926ffe03,10:51:18,03/04/2024
