rt,stimulus,response,exp_name,exp_stage,subjectID,trial_type,trial_index,time_elapsed,internal_node_id,ospan_shown,ospan_total,ospan_abs,length,resp_actual,resp_correct,full_correct,num_correct,feedback,accuracy,correct,math_acc,math_warning,databaseID,prolificID,start_time,date
4259.399999976158,<div class = 'left_align' style='font-size: 3.25rem; line-height: 1.3;'><p class = 'center_align'><b>Welcome to the Symmetry and Memory Task</b><br><br><br><br></p>Press 'continue' to show the instructions.<br><br><br><br></div>,0,ospan,instruct,GvK8ubml0aRGNja4sy3CpfTnO4W2,html-button-response,51,816253,0.0-43.0-0.0-0.0-0.0,,,,,,,,,,,,,,,59d65ad8e2762800015eb51b,09:51:43,05/03/2024
191424.10000002384,"<div class = 'left_align' style='font-size: 3.25rem; line-height: 1.3;'><p class = 'center_align'><b>Symmetry and Memory Task</b><br><br></p>In this task, you will try to memorize letters you see on the screen<br>while you also view black and white grid pictures.<br><br>In the next few minutes, you will have some practice to get you familiar<br>with how the task works.<br><br>It may be difficult sometimes, but please do not worry about making mistakes!<br><br>We will begin by practicing the letter part of the task.<br><br><br><br></div>",0,ospan,instruct,GvK8ubml0aRGNja4sy3CpfTnO4W2,html-button-response,52,1007939,0.0-43.0-0.0-0.0-1.0,,,,,,,,,,,,,,,59d65ad8e2762800015eb51b,09:51:43,05/03/2024
69267.69999992847,"<div class = 'left_align' style='font-size: 3.25rem; line-height: 1.3;'>For this practice part, letters will appear on the screen one at a time.<br><br>Try to remember each letter in the order presented.<br><br>After some letters have been shown, you will see a response screen. Your<br>goal is to report the letters you saw <b>in order</b>. If you do not remember<br>a particular letter, you will have the option to leave it blank.<br><br><br><br></div>",0,ospan,instruct,GvK8ubml0aRGNja4sy3CpfTnO4W2,html-button-response,53,1077466,0.0-43.0-0.0-0.0-2.0,,,,,,,,,,,,,,,59d65ad8e2762800015eb51b,09:51:43,05/03/2024
25909.200000047684,"<div class = 'left_align' style='font-size: 3.25rem; line-height: 1.3;'>Remember, it is very important to get the letters in the same<br>order as you see them.<br><br>When you are ready, you may begin the letter practice.</div><br><br><br><br>",0,ospan,instruct,GvK8ubml0aRGNja4sy3CpfTnO4W2,html-button-response,54,1103635,0.0-43.0-0.0-0.0-3.0,,,,,,,,,,,,,,,59d65ad8e2762800015eb51b,09:51:43,05/03/2024
,"<p style=""font-size:75px;"">...</p>",,ospan,iti,GvK8ubml0aRGNja4sy3CpfTnO4W2,html-keyboard-response,55,1104895,0.0-43.0-0.0-1.0-0.0,,,,,,,,,,,,,,,59d65ad8e2762800015eb51b,09:51:43,05/03/2024
,"<div style=""font-size: 10rem; color: #0000FF"">K</div>",,ospan,letter,GvK8ubml0aRGNja4sy3CpfTnO4W2,html-keyboard-response,56,1105902,0.0-43.0-0.0-1.0-1.0,,,,,,,,,,,,,,,59d65ad8e2762800015eb51b,09:51:43,05/03/2024
,"<div style=""font-size: 10rem; color: #0000FF"">S</div>",,ospan,letter,GvK8ubml0aRGNja4sy3CpfTnO4W2,html-keyboard-response,57,1107663,0.0-43.0-0.0-1.0-2.0,,,,,,,,,,,,,,,59d65ad8e2762800015eb51b,09:51:43,05/03/2024
28200.5,"<div class = numbox><p style=""font-size: 2.4rem"">Please recall the letters you saw to the best of your ability. If you do not remember a particular letter, use the SKIP button.<br><b>(When you are ready to lock in your answer, press ENTER)</b></p><button id = button_1 class = ""square num-button"" onclick = ""recordClick(this)""><div class = content><div class = numbers>C</div></div></button><button id = button_2 class = ""square num-button"" onclick = ""recordClick(this)""><div class = content><div class = numbers>G</div></div></button><button id = button_3 class = ""square num-button"" onclick = ""recordClick(this)""><div class = content><div class = numbers>H</div></div></button><button id = button_4 class = ""square num-button"" onclick = ""recordClick(this)""><div class = content><div class = numbers>J</div></div></button><button id = button_5 class = ""square num-button"" onclick = ""recordClick(this)""><div class = content><div class = numbers>K</div></div></button><button id = button_6 class = ""square num-button"" onclick = ""recordClick(this)""><div class = content><div class = numbers>L</div></div></button><button id = button_7 class = ""square num-button"" onclick = ""recordClick(this)""><div class = content><div class = numbers>N</div></div></button><button id = button_8 class = ""square num-button"" onclick = ""recordClick(this)""><div class = content><div class = numbers>P</div></div></button><button id = button_9 class = ""square num-button"" onclick = ""recordClick(this)""><div class = content><div class = numbers>Q</div></div></button><button id = button_10 class = ""square num-button"" onclick = ""recordClick(this)""><div class = content><div class = numbers>R</div></div></button><button id = button_11 class = ""square num-button"" onclick = ""recordClick(this)""><div class = content><div class = numbers>S</div></div></button><button id = button_12 class = ""square num-button"" onclick = ""recordClick(this)""><div class = content><div class = numbers>Y</div></div></button><button class = clear_button id = ""ClearButton"" onclick = ""clearResponse()"">BACKSPACE</button><button class = blank_button id = ""BlankButton"" onclick = ""blankResponse()"">SKIP</button><p style=""font-size: 2.4rem""><u><b>Current Answer:</b></u></p><br><br><div id=echoed_txt style=""font-size: 5rem; color:blue;""><b></b></div></div>",enter,ospan,retrieval,GvK8ubml0aRGNja4sy3CpfTnO4W2,html-keyboard-response,58,1136625,0.0-43.0-0.0-1.0-3.0,NA,NA,NA,2.0,"[""K"",""S""]","[""K"",""S""]",1.0,2.0,"['<font color=""green"">K</font>', '<font color=""green"">S</font>']",,,,,,59d65ad8e2762800015eb51b,09:51:43,05/03/2024
4183.799999952316,"['<p style=""font-size:44px"">Letters:<br><br><br><font color=""green"">K</font> <font color=""green"">S</font></p><br><br>']",0,ospan,practice_feedback,GvK8ubml0aRGNja4sy3CpfTnO4W2,html-button-response,59,1141322,0.0-43.0-0.0-1.0-4.0,,,,,,,,,,,,,,,59d65ad8e2762800015eb51b,09:51:43,05/03/2024
,"<p style=""font-size:75px;"">...</p>",,ospan,iti,GvK8ubml0aRGNja4sy3CpfTnO4W2,html-keyboard-response,60,1142335,0.0-43.0-0.0-2.0-0.0,,,,,,,,,,,,,,,59d65ad8e2762800015eb51b,09:51:43,05/03/2024
,"<div style=""font-size: 10rem; color: #0000FF"">R</div>",,ospan,letter,GvK8ubml0aRGNja4sy3CpfTnO4W2,html-keyboard-response,61,1143342,0.0-43.0-0.0-2.0-1.0,,,,,,,,,,,,,,,59d65ad8e2762800015eb51b,09:51:43,05/03/2024
,"<div style=""font-size: 10rem; color: #0000FF"">G</div>",,ospan,letter,GvK8ubml0aRGNja4sy3CpfTnO4W2,html-keyboard-response,62,1145103,0.0-43.0-0.0-2.0-2.0,,,,,,,,,,,,,,,59d65ad8e2762800015eb51b,09:51:43,05/03/2024
,"<div style=""font-size: 10rem; color: #0000FF"">H</div>",,ospan,letter,GvK8ubml0aRGNja4sy3CpfTnO4W2,html-keyboard-response,63,1146864,0.0-43.0-0.0-2.0-3.0,,,,,,,,,,,,,,,59d65ad8e2762800015eb51b,09:51:43,05/03/2024
12993.5,"<div class = numbox><p style=""font-size: 2.4rem"">Please recall the letters you saw to the best of your ability. If you do not remember a particular letter, use the SKIP button.<br><b>(When you are ready to lock in your answer, press ENTER)</b></p><button id = button_1 class = ""square num-button"" onclick = ""recordClick(this)""><div class = content><div class = numbers>C</div></div></button><button id = button_2 class = ""square num-button"" onclick = ""recordClick(this)""><div class = content><div class = numbers>G</div></div></button><button id = button_3 class = ""square num-button"" onclick = ""recordClick(this)""><div class = content><div class = numbers>H</div></div></button><button id = button_4 class = ""square num-button"" onclick = ""recordClick(this)""><div class = content><div class = numbers>J</div></div></button><button id = button_5 class = ""square num-button"" onclick = ""recordClick(this)""><div class = content><div class = numbers>K</div></div></button><button id = button_6 class = ""square num-button"" onclick = ""recordClick(this)""><div class = content><div class = numbers>L</div></div></button><button id = button_7 class = ""square num-button"" onclick = ""recordClick(this)""><div class = content><div class = numbers>N</div></div></button><button id = button_8 class = ""square num-button"" onclick = ""recordClick(this)""><div class = content><div class = numbers>P</div></div></button><button id = button_9 class = ""square num-button"" onclick = ""recordClick(this)""><div class = content><div class = numbers>Q</div></div></button><button id = button_10 class = ""square num-button"" onclick = ""recordClick(this)""><div class = content><div class = numbers>R</div></div></button><button id = button_11 class = ""square num-button"" onclick = ""recordClick(this)""><div class = content><div class = numbers>S</div></div></button><button id = button_12 class = ""square num-button"" onclick = ""recordClick(this)""><div class = content><div class = numbers>Y</div></div></button><button class = clear_button id = ""ClearButton"" onclick = ""clearResponse()"">BACKSPACE</button><button class = blank_button id = ""BlankButton"" onclick = ""blankResponse()"">SKIP</button><p style=""font-size: 2.4rem""><u><b>Current Answer:</b></u></p><br><br><div id=echoed_txt style=""font-size: 5rem; color:blue;""><b></b></div></div>",enter,ospan,retrieval,GvK8ubml0aRGNja4sy3CpfTnO4W2,html-keyboard-response,64,1160619,0.0-43.0-0.0-2.0-4.0,NA,NA,NA,3.0,"[""R"",""G"",""H""]","[""R"",""G"",""H""]",1.0,3.0,"['<font color=""green"">R</font>', '<font color=""green"">G</font>', '<font color=""green"">H</font>']",,,,,,59d65ad8e2762800015eb51b,09:51:43,05/03/2024
4182.799999952316,"['<p style=""font-size:44px"">Letters:<br><br><br><font color=""green"">R</font> <font color=""green"">G</font> <font color=""green"">H</font></p><br><br>']",0,ospan,practice_feedback,GvK8ubml0aRGNja4sy3CpfTnO4W2,html-button-response,65,1165314,0.0-43.0-0.0-2.0-5.0,,,,,,,,,,,,,,,59d65ad8e2762800015eb51b,09:51:43,05/03/2024
63235.0,"<div class = 'left_align' style='font-size: 3.25rem; line-height: 1.3;'>Now you will practice doing the <b>symmetry judgment part</b> of the experiment.<br><br>A black and white grid picture will appear on the screen and you have to judge if it is <br>symmetrical or asymetrical.<br><br>A picture is 'mirror' symmetrical if its left half is identical to the right half when flipped.<br>Here are examples of a symmetrical and an asymetrical picture:<br><br><center><img src='Stimuli/img/symm_instructions_extra.png' style='height:420px; width:900'></img></center><br>To judge symmetry, imagine you were to fold each picture down the middle, like a book –<br>would the left half match the right half when folded onto each other?<br><br></div><br>",0,ospan,instruct,GvK8ubml0aRGNja4sy3CpfTnO4W2,html-button-response,66,1228555,0.0-43.0-1.0-0.0-0.0,,,,,,,,,,,,,,,59d65ad8e2762800015eb51b,09:51:43,05/03/2024
17134.300000071526,"<div class = 'left_align' style='font-size: 3.25rem; line-height: 1.3;'>When you have viewed the picture and determined whether it is symmetrical or not,<br>you can <b>click the Yes or No button</b> below to answer.<br><br>If you take longer than 15 seconds, it will continue automatically<br>and record the answer as an error.</div><br>",0,ospan,instruct,GvK8ubml0aRGNja4sy3CpfTnO4W2,html-button-response,67,1245946,0.0-43.0-1.0-0.0-1.0,,,,,,,,,,,,,,,59d65ad8e2762800015eb51b,09:51:43,05/03/2024
6182.599999904633,"<div class = 'left_align' style='font-size: 3.25rem; line-height: 1.3;'>It is <b>very</b> important that you make the symmetry judgment correctly.<br><br>It is also important that you try and judge the picture as quickly as you can.<br><br>When you are ready, click on the button below to try some practice problems.</div><br><br><br><br>",0,ospan,instruct,GvK8ubml0aRGNja4sy3CpfTnO4W2,html-button-response,68,1252386,0.0-43.0-1.0-0.0-2.0,,,,,,,,,,,,,,,59d65ad8e2762800015eb51b,09:51:43,05/03/2024
4611.0,,,ospan,symmetry,GvK8ubml0aRGNja4sy3CpfTnO4W2,symmetry-judgement-task,69,1258576,0.0-43.0-1.0-1.0-0.0,,,,,,,,,,1.0,1.0,,,,59d65ad8e2762800015eb51b,09:51:43,05/03/2024
,"<p style=""color:green; font-size: 35px"">Correct</p>",,ospan,feedback,GvK8ubml0aRGNja4sy3CpfTnO4W2,html-keyboard-response,70,1259336,0.0-43.0-1.0-1.0-1.0,,,,,,,,,,,,,,,59d65ad8e2762800015eb51b,09:51:43,05/03/2024
2562.0,,,ospan,symmetry,GvK8ubml0aRGNja4sy3CpfTnO4W2,symmetry-judgement-task,71,1265872,0.0-43.0-1.0-1.0-2.0,,,,,,,,,,1.0,1.0,,,,59d65ad8e2762800015eb51b,09:51:43,05/03/2024
,"<p style=""color:green; font-size: 35px"">Correct</p>",,ospan,feedback,GvK8ubml0aRGNja4sy3CpfTnO4W2,html-keyboard-response,72,1266632,0.0-43.0-1.0-1.0-3.0,,,,,,,,,,,,,,,59d65ad8e2762800015eb51b,09:51:43,05/03/2024
1372.0,,,ospan,symmetry,GvK8ubml0aRGNja4sy3CpfTnO4W2,symmetry-judgement-task,73,1271968,0.0-43.0-1.0-1.0-4.0,,,,,,,,,,1.0,1.0,,,,59d65ad8e2762800015eb51b,09:51:43,05/03/2024
,"<p style=""color:green; font-size: 35px"">Correct</p>",,ospan,feedback,GvK8ubml0aRGNja4sy3CpfTnO4W2,html-keyboard-response,74,1272729,0.0-43.0-1.0-1.0-5.0,,,,,,,,,,,,,,,59d65ad8e2762800015eb51b,09:51:43,05/03/2024
5109.799999952316,"<p style=""font-size: 3rem;"">You responded correctly on 3 of 3 symmetry judgments. Good job!</p><br><br>",0,ospan,practice,GvK8ubml0aRGNja4sy3CpfTnO4W2,html-button-response,75,1279849,0.0-43.0-1.0-2.0,,,,,,,,,,,,,,,59d65ad8e2762800015eb51b,09:51:43,05/03/2024
28126.799999952316,"<div class = 'left_align' style='font-size: 3.25rem; line-height: 1.3;'>Now you will practice doing both parts of the experiment at the same time.<br><br>In the next practice set, you will be given one grid picture to judge.<br>Then letter will appear on the screen. Try to remember the letter.<br><br>It is <b>very important</b> to make the symmetry judgment as quickly and accurately as possible.<br><br>Just as before, once you have make the symmetry judgment, you can click Yes or No.<br><b>Note that you will no longer see Correct or Incorrect feedback.</div><br><br><br><br>",0,ospan,instruct,GvK8ubml0aRGNja4sy3CpfTnO4W2,html-button-response,76,1308233,0.0-43.0-2.0-0.0-0.0,,,,,,,,,,,,,,,59d65ad8e2762800015eb51b,09:51:43,05/03/2024
15076.200000047684,"<div class = 'left_align' style='font-size: 3.25rem; line-height: 1.3;'>After the letter goes away, another grid picture will appear, and then<br>another letter.<br><br>At the end of each set of letters and grids, you will recall the letters to the best<br>of your ability. Remember, try your best to get the letters in the correct order.<br><br>It is important to <b>quickly</b> and <b>accurately</b> make the symmetry judgments.</div><br><br><br><br>",0,ospan,instruct,GvK8ubml0aRGNja4sy3CpfTnO4W2,html-button-response,77,1323568,0.0-43.0-2.0-0.0-1.0,,,,,,,,,,,,,,,59d65ad8e2762800015eb51b,09:51:43,05/03/2024
34375.09999990463,"<div class = 'left_align' style='font-size: 3.25rem; line-height: 1.3;'>On the feedback screen, if you are not doing well at the symmetry judgments,<br>you will also see a warning in the middle. This indicates your percent <br>correct for the grid pictures for the entire experiment.<br><br>It is <b>very</b> important for you to keep accuracy at least at 85%: <u>We can only use<br>data where the participant was at least 85% accurate on the judgments.</u> Therefore,<br> please try your best to perform well on the symmetry judgments, <b>at the same time</b><br>doing your best to recall as many letters as possible.<br><br>Click the button to try some practice problems.</div><br><br><br><br>",0,ospan,instruct,GvK8ubml0aRGNja4sy3CpfTnO4W2,html-button-response,78,1358201,0.0-43.0-2.0-0.0-2.0,,,,,,,,,,,,,,,59d65ad8e2762800015eb51b,09:51:43,05/03/2024
,"<p style=""font-size:75px;"">...</p>",,ospan,iti,GvK8ubml0aRGNja4sy3CpfTnO4W2,html-keyboard-response,79,1359467,0.0-43.0-2.0-1.0-0.0,,,,,,,,,,,,,,,59d65ad8e2762800015eb51b,09:51:43,05/03/2024
1929.0,,,ospan,symmetry,GvK8ubml0aRGNja4sy3CpfTnO4W2,symmetry-judgement-task,80,1363906,0.0-43.0-2.0-1.0-1.0-0.0,,,,,,,,,,1.0,1.0,,,,59d65ad8e2762800015eb51b,09:51:43,05/03/2024
,"<div style=""font-size: 10rem; color: #0000FF"">Q</div>",,ospan,letter,GvK8ubml0aRGNja4sy3CpfTnO4W2,html-keyboard-response,81,1364914,0.0-43.0-2.0-1.0-1.0-1.0,,,,,,,,,,,,,,,59d65ad8e2762800015eb51b,09:51:43,05/03/2024
2560.0,,,ospan,symmetry,GvK8ubml0aRGNja4sy3CpfTnO4W2,symmetry-judgement-task,82,1370826,0.0-43.0-2.0-1.0-1.0-2.0,,,,,,,,,,1.0,1.0,,,,59d65ad8e2762800015eb51b,09:51:43,05/03/2024
,"<div style=""font-size: 10rem; color: #0000FF"">H</div>",,ospan,letter,GvK8ubml0aRGNja4sy3CpfTnO4W2,html-keyboard-response,83,1371834,0.0-43.0-2.0-1.0-1.0-3.0,,,,,,,,,,,,,,,59d65ad8e2762800015eb51b,09:51:43,05/03/2024
2302.0,,,ospan,symmetry,GvK8ubml0aRGNja4sy3CpfTnO4W2,symmetry-judgement-task,84,1377209,0.0-43.0-2.0-1.0-1.0-4.0,,,,,,,,,,1.0,1.0,,,,59d65ad8e2762800015eb51b,09:51:43,05/03/2024
,"<div style=""font-size: 10rem; color: #0000FF"">R</div>",,ospan,letter,GvK8ubml0aRGNja4sy3CpfTnO4W2,html-keyboard-response,85,1378218,0.0-43.0-2.0-1.0-1.0-5.0,,,,,,,,,,,,,,,59d65ad8e2762800015eb51b,09:51:43,05/03/2024
14204.300000071526,"<div class = numbox><p style=""font-size: 2.4rem"">Please recall the letters you saw to the best of your ability. If you do not remember a particular letter, use the SKIP button.<br><b>(When you are ready to lock in your answer, press ENTER)</b></p><button id = button_1 class = ""square num-button"" onclick = ""recordClick(this)""><div class = content><div class = numbers>C</div></div></button><button id = button_2 class = ""square num-button"" onclick = ""recordClick(this)""><div class = content><div class = numbers>G</div></div></button><button id = button_3 class = ""square num-button"" onclick = ""recordClick(this)""><div class = content><div class = numbers>H</div></div></button><button id = button_4 class = ""square num-button"" onclick = ""recordClick(this)""><div class = content><div class = numbers>J</div></div></button><button id = button_5 class = ""square num-button"" onclick = ""recordClick(this)""><div class = content><div class = numbers>K</div></div></button><button id = button_6 class = ""square num-button"" onclick = ""recordClick(this)""><div class = content><div class = numbers>L</div></div></button><button id = button_7 class = ""square num-button"" onclick = ""recordClick(this)""><div class = content><div class = numbers>N</div></div></button><button id = button_8 class = ""square num-button"" onclick = ""recordClick(this)""><div class = content><div class = numbers>P</div></div></button><button id = button_9 class = ""square num-button"" onclick = ""recordClick(this)""><div class = content><div class = numbers>Q</div></div></button><button id = button_10 class = ""square num-button"" onclick = ""recordClick(this)""><div class = content><div class = numbers>R</div></div></button><button id = button_11 class = ""square num-button"" onclick = ""recordClick(this)""><div class = content><div class = numbers>S</div></div></button><button id = button_12 class = ""square num-button"" onclick = ""recordClick(this)""><div class = content><div class = numbers>Y</div></div></button><button class = clear_button id = ""ClearButton"" onclick = ""clearResponse()"">BACKSPACE</button><button class = blank_button id = ""BlankButton"" onclick = ""blankResponse()"">SKIP</button><p style=""font-size: 2.4rem""><u><b>Current Answer:</b></u></p><br><br><div id=echoed_txt style=""font-size: 5rem; color:blue;""><b></b></div></div>",enter,ospan,retrieval,GvK8ubml0aRGNja4sy3CpfTnO4W2,html-keyboard-response,86,1393177,0.0-43.0-2.0-1.0-2.0-0.0,NA,NA,NA,3.0,"[""Q"",""H"",""R""]","[""Q"",""H"",""R""]",1.0,3.0,"['<font color=""green"">Q</font>', '<font color=""green"">H</font>', '<font color=""green"">R</font>']",,,,,,59d65ad8e2762800015eb51b,09:51:43,05/03/2024
21201.199999928474,"['<p style=""font-size:44px"">Letters:<br><br><br><font color=""green"">Q</font> <font color=""green"">H</font> <font color=""green"">R</font></p><br><br><p style=""font-size:30px"">Symmetry:<br><br><font color=""green"">100%</font></p><br><br>']",0,ospan,practice_feedback,GvK8ubml0aRGNja4sy3CpfTnO4W2,html-button-response,87,1414888,0.0-43.0-2.0-1.0-2.0-1.0,,,,,,,,,,,,,,,59d65ad8e2762800015eb51b,09:51:43,05/03/2024
,"<p style=""font-size:75px;"">...</p>",,ospan,iti,GvK8ubml0aRGNja4sy3CpfTnO4W2,html-keyboard-response,88,1415899,0.0-43.0-2.0-2.0-0.0,,,,,,,,,,,,,,,59d65ad8e2762800015eb51b,09:51:43,05/03/2024
1918.0,,,ospan,symmetry,GvK8ubml0aRGNja4sy3CpfTnO4W2,symmetry-judgement-task,89,1420490,0.0-43.0-2.0-2.0-1.0-0.0,,,,,,,,,,1.0,1.0,,,,59d65ad8e2762800015eb51b,09:51:43,05/03/2024
,"<div style=""font-size: 10rem; color: #0000FF"">P</div>",,ospan,letter,GvK8ubml0aRGNja4sy3CpfTnO4W2,html-keyboard-response,90,1421499,0.0-43.0-2.0-2.0-1.0-1.0,,,,,,,,,,,,,,,59d65ad8e2762800015eb51b,09:51:43,05/03/2024
2518.0,,,ospan,symmetry,GvK8ubml0aRGNja4sy3CpfTnO4W2,symmetry-judgement-task,91,1427186,0.0-43.0-2.0-2.0-1.0-2.0,,,,,,,,,,1.0,1.0,,,,59d65ad8e2762800015eb51b,09:51:43,05/03/2024
,"<div style=""font-size: 10rem; color: #0000FF"">Y</div>",,ospan,letter,GvK8ubml0aRGNja4sy3CpfTnO4W2,html-keyboard-response,92,1428195,0.0-43.0-2.0-2.0-1.0-3.0,,,,,,,,,,,,,,,59d65ad8e2762800015eb51b,09:51:43,05/03/2024
2331.0,,,ospan,symmetry,GvK8ubml0aRGNja4sy3CpfTnO4W2,symmetry-judgement-task,93,1433715,0.0-43.0-2.0-2.0-1.0-4.0,,,,,,,,,,1.0,1.0,,,,59d65ad8e2762800015eb51b,09:51:43,05/03/2024
,"<div style=""font-size: 10rem; color: #0000FF"">H</div>",,ospan,letter,GvK8ubml0aRGNja4sy3CpfTnO4W2,html-keyboard-response,94,1434724,0.0-43.0-2.0-2.0-1.0-5.0,,,,,,,,,,,,,,,59d65ad8e2762800015eb51b,09:51:43,05/03/2024
8827.900000095367,"<div class = numbox><p style=""font-size: 2.4rem"">Please recall the letters you saw to the best of your ability. If you do not remember a particular letter, use the SKIP button.<br><b>(When you are ready to lock in your answer, press ENTER)</b></p><button id = button_1 class = ""square num-button"" onclick = ""recordClick(this)""><div class = content><div class = numbers>C</div></div></button><button id = button_2 class = ""square num-button"" onclick = ""recordClick(this)""><div class = content><div class = numbers>G</div></div></button><button id = button_3 class = ""square num-button"" onclick = ""recordClick(this)""><div class = content><div class = numbers>H</div></div></button><button id = button_4 class = ""square num-button"" onclick = ""recordClick(this)""><div class = content><div class = numbers>J</div></div></button><button id = button_5 class = ""square num-button"" onclick = ""recordClick(this)""><div class = content><div class = numbers>K</div></div></button><button id = button_6 class = ""square num-button"" onclick = ""recordClick(this)""><div class = content><div class = numbers>L</div></div></button><button id = button_7 class = ""square num-button"" onclick = ""recordClick(this)""><div class = content><div class = numbers>N</div></div></button><button id = button_8 class = ""square num-button"" onclick = ""recordClick(this)""><div class = content><div class = numbers>P</div></div></button><button id = button_9 class = ""square num-button"" onclick = ""recordClick(this)""><div class = content><div class = numbers>Q</div></div></button><button id = button_10 class = ""square num-button"" onclick = ""recordClick(this)""><div class = content><div class = numbers>R</div></div></button><button id = button_11 class = ""square num-button"" onclick = ""recordClick(this)""><div class = content><div class = numbers>S</div></div></button><button id = button_12 class = ""square num-button"" onclick = ""recordClick(this)""><div class = content><div class = numbers>Y</div></div></button><button class = clear_button id = ""ClearButton"" onclick = ""clearResponse()"">BACKSPACE</button><button class = blank_button id = ""BlankButton"" onclick = ""blankResponse()"">SKIP</button><p style=""font-size: 2.4rem""><u><b>Current Answer:</b></u></p><br><br><div id=echoed_txt style=""font-size: 5rem; color:blue;""><b></b></div></div>",enter,ospan,retrieval,GvK8ubml0aRGNja4sy3CpfTnO4W2,html-keyboard-response,95,1444306,0.0-43.0-2.0-2.0-2.0-0.0,NA,NA,NA,3.0,"[""P"",""Y"",""H""]","[""P"",""Y"",""H""]",1.0,3.0,"['<font color=""green"">P</font>', '<font color=""green"">Y</font>', '<font color=""green"">H</font>']",,,,,,59d65ad8e2762800015eb51b,09:51:43,05/03/2024
8625.400000095367,"['<p style=""font-size:44px"">Letters:<br><br><br><font color=""green"">P</font> <font color=""green"">Y</font> <font color=""green"">H</font></p><br><br><p style=""font-size:30px"">Symmetry:<br><br><font color=""green"">100%</font></p><br><br>']",0,ospan,practice_feedback,GvK8ubml0aRGNja4sy3CpfTnO4W2,html-button-response,96,1453440,0.0-43.0-2.0-2.0-2.0-1.0,,,,,,,,,,,,,,,59d65ad8e2762800015eb51b,09:51:43,05/03/2024
23679.899999976158,"<div class = 'left_align' style='font-size: 3rem; line-height: 1.3;'><b>Great work! That is the end of practice.</b><br><br>The real trials will look just like the practice trials you just completed.<br><br><u>Here, you will not see feedback</u>. First, you will see an grid picture to judge,<br>then a letter to remember. When the recall screen appears, report the letters in the<br>order presented. If you forget a letter, remember to use the <b>blank</b> button to move to the<br>next letter. Some of the sets will have more symmetry grids and letters than others.<br><br>It is important that you do your best on both the symmetry judgments and the letter recall<br>parts of the experiment. For for the symmetry judgments, try to work as <b>quickly</b> and <br>as <b>accurately</b> as possible. Remember to keep your symmetry accuracy at 85% or above.<br><br><b>For the letters, do NOT use any external aid (e.g., writing on paper, electronic device).</b><br><br>It is <u>very important</u> to our experiment to have a <b>true</b> view of your real performance.<br><br>Do not worry if you miss some when it gets hard! This task is meant to be very challenging!<br><br>Click the button to begin.</div><br><br><br><br>",0,ospan,starting_real_here,GvK8ubml0aRGNja4sy3CpfTnO4W2,html-button-response,97,1477128,0.0-43.0-2.0-3.0,,,,,,,,,,,,,,,59d65ad8e2762800015eb51b,09:51:43,05/03/2024
,"<p style=""font-size:75px;"">...</p>",,ospan,iti,GvK8ubml0aRGNja4sy3CpfTnO4W2,html-keyboard-response,98,1478397,0.0-43.0-3.0-0.0-0.0,,,,,,,,,,,,,,,59d65ad8e2762800015eb51b,09:51:43,05/03/2024
1505.0,,,ospan,symmetry,GvK8ubml0aRGNja4sy3CpfTnO4W2,symmetry-judgement-task,99,1482493,0.0-43.0-3.0-0.0-1.0-0.0,,,,,,,,,,1.0,1.0,,,,59d65ad8e2762800015eb51b,09:51:43,05/03/2024
,"<div style=""font-size: 10rem; color: #0000FF"">K</div>",,ospan,letter,GvK8ubml0aRGNja4sy3CpfTnO4W2,html-keyboard-response,100,1483500,0.0-43.0-3.0-0.0-1.0-1.0,,,,,,,,,,,,,,,59d65ad8e2762800015eb51b,09:51:43,05/03/2024
2449.0,,,ospan,symmetry,GvK8ubml0aRGNja4sy3CpfTnO4W2,symmetry-judgement-task,101,1488995,0.0-43.0-3.0-0.0-1.0-2.0,,,,,,,,,,1.0,1.0,,,,59d65ad8e2762800015eb51b,09:51:43,05/03/2024
,"<div style=""font-size: 10rem; color: #0000FF"">Y</div>",,ospan,letter,GvK8ubml0aRGNja4sy3CpfTnO4W2,html-keyboard-response,102,1490003,0.0-43.0-3.0-0.0-1.0-3.0,,,,,,,,,,,,,,,59d65ad8e2762800015eb51b,09:51:43,05/03/2024
3316.0,,,ospan,symmetry,GvK8ubml0aRGNja4sy3CpfTnO4W2,symmetry-judgement-task,103,1496499,0.0-43.0-3.0-0.0-1.0-4.0,,,,,,,,,,1.0,1.0,,,,59d65ad8e2762800015eb51b,09:51:43,05/03/2024
,"<div style=""font-size: 10rem; color: #0000FF"">G</div>",,ospan,letter,GvK8ubml0aRGNja4sy3CpfTnO4W2,html-keyboard-response,104,1497508,0.0-43.0-3.0-0.0-1.0-5.0,,,,,,,,,,,,,,,59d65ad8e2762800015eb51b,09:51:43,05/03/2024
11266.299999952316,"<div class = numbox><p style=""font-size: 2.4rem"">Please recall the letters you saw to the best of your ability. If you do not remember a particular letter, use the SKIP button.<br><b>(When you are ready to lock in your answer, press ENTER)</b></p><button id = button_1 class = ""square num-button"" onclick = ""recordClick(this)""><div class = content><div class = numbers>C</div></div></button><button id = button_2 class = ""square num-button"" onclick = ""recordClick(this)""><div class = content><div class = numbers>G</div></div></button><button id = button_3 class = ""square num-button"" onclick = ""recordClick(this)""><div class = content><div class = numbers>H</div></div></button><button id = button_4 class = ""square num-button"" onclick = ""recordClick(this)""><div class = content><div class = numbers>J</div></div></button><button id = button_5 class = ""square num-button"" onclick = ""recordClick(this)""><div class = content><div class = numbers>K</div></div></button><button id = button_6 class = ""square num-button"" onclick = ""recordClick(this)""><div class = content><div class = numbers>L</div></div></button><button id = button_7 class = ""square num-button"" onclick = ""recordClick(this)""><div class = content><div class = numbers>N</div></div></button><button id = button_8 class = ""square num-button"" onclick = ""recordClick(this)""><div class = content><div class = numbers>P</div></div></button><button id = button_9 class = ""square num-button"" onclick = ""recordClick(this)""><div class = content><div class = numbers>Q</div></div></button><button id = button_10 class = ""square num-button"" onclick = ""recordClick(this)""><div class = content><div class = numbers>R</div></div></button><button id = button_11 class = ""square num-button"" onclick = ""recordClick(this)""><div class = content><div class = numbers>S</div></div></button><button id = button_12 class = ""square num-button"" onclick = ""recordClick(this)""><div class = content><div class = numbers>Y</div></div></button><button class = clear_button id = ""ClearButton"" onclick = ""clearResponse()"">BACKSPACE</button><button class = blank_button id = ""BlankButton"" onclick = ""blankResponse()"">SKIP</button><p style=""font-size: 2.4rem""><u><b>Current Answer:</b></u></p><br><br><div id=echoed_txt style=""font-size: 5rem; color:blue;""><b></b></div></div>",enter,ospan,retrieval,GvK8ubml0aRGNja4sy3CpfTnO4W2,html-keyboard-response,105,1509528,0.0-43.0-3.0-0.0-2.0,3,3,3,3.0,"[""K"",""Y"",""G""]","[""K"",""Y"",""G""]",1.0,3.0,,,,,,,59d65ad8e2762800015eb51b,09:51:43,05/03/2024
6610.0,[''],0,ospan,feedback,GvK8ubml0aRGNja4sy3CpfTnO4W2,html-button-response,106,1516649,0.0-43.0-3.0-0.0-3.0,,,,,,,,,,,,100.0,0.0,,59d65ad8e2762800015eb51b,09:51:43,05/03/2024
,"<p style=""font-size:75px;"">...</p>",,ospan,iti,GvK8ubml0aRGNja4sy3CpfTnO4W2,html-keyboard-response,107,1517659,0.0-43.0-4.0-0.0-0.0,,,,,,,,,,,,,,,59d65ad8e2762800015eb51b,09:51:43,05/03/2024
2629.0,,,ospan,symmetry,GvK8ubml0aRGNja4sy3CpfTnO4W2,symmetry-judgement-task,108,1522851,0.0-43.0-4.0-0.0-1.0-0.0,,,,,,,,,,1.0,1.0,,,,59d65ad8e2762800015eb51b,09:51:43,05/03/2024
,"<div style=""font-size: 10rem; color: #0000FF"">Q</div>",,ospan,letter,GvK8ubml0aRGNja4sy3CpfTnO4W2,html-keyboard-response,109,1523860,0.0-43.0-4.0-0.0-1.0-1.0,,,,,,,,,,,,,,,59d65ad8e2762800015eb51b,09:51:43,05/03/2024
1746.0,,,ospan,symmetry,GvK8ubml0aRGNja4sy3CpfTnO4W2,symmetry-judgement-task,110,1528933,0.0-43.0-4.0-0.0-1.0-2.0,,,,,,,,,,1.0,1.0,,,,59d65ad8e2762800015eb51b,09:51:43,05/03/2024
,"<div style=""font-size: 10rem; color: #0000FF"">J</div>",,ospan,letter,GvK8ubml0aRGNja4sy3CpfTnO4W2,html-keyboard-response,111,1529941,0.0-43.0-4.0-0.0-1.0-3.0,,,,,,,,,,,,,,,59d65ad8e2762800015eb51b,09:51:43,05/03/2024
3649.0,,,ospan,symmetry,GvK8ubml0aRGNja4sy3CpfTnO4W2,symmetry-judgement-task,112,1536708,0.0-43.0-4.0-0.0-1.0-4.0,,,,,,,,,,1.0,1.0,,,,59d65ad8e2762800015eb51b,09:51:43,05/03/2024
,"<div style=""font-size: 10rem; color: #0000FF"">H</div>",,ospan,letter,GvK8ubml0aRGNja4sy3CpfTnO4W2,html-keyboard-response,113,1537717,0.0-43.0-4.0-0.0-1.0-5.0,,,,,,,,,,,,,,,59d65ad8e2762800015eb51b,09:51:43,05/03/2024
2468.0,,,ospan,symmetry,GvK8ubml0aRGNja4sy3CpfTnO4W2,symmetry-judgement-task,114,1543292,0.0-43.0-4.0-0.0-1.0-6.0,,,,,,,,,,1.0,1.0,,,,59d65ad8e2762800015eb51b,09:51:43,05/03/2024
,"<div style=""font-size: 10rem; color: #0000FF"">C</div>",,ospan,letter,GvK8ubml0aRGNja4sy3CpfTnO4W2,html-keyboard-response,115,1544300,0.0-43.0-4.0-0.0-1.0-7.0,,,,,,,,,,,,,,,59d65ad8e2762800015eb51b,09:51:43,05/03/2024
13923.100000023842,"<div class = numbox><p style=""font-size: 2.4rem"">Please recall the letters you saw to the best of your ability. If you do not remember a particular letter, use the SKIP button.<br><b>(When you are ready to lock in your answer, press ENTER)</b></p><button id = button_1 class = ""square num-button"" onclick = ""recordClick(this)""><div class = content><div class = numbers>C</div></div></button><button id = button_2 class = ""square num-button"" onclick = ""recordClick(this)""><div class = content><div class = numbers>G</div></div></button><button id = button_3 class = ""square num-button"" onclick = ""recordClick(this)""><div class = content><div class = numbers>H</div></div></button><button id = button_4 class = ""square num-button"" onclick = ""recordClick(this)""><div class = content><div class = numbers>J</div></div></button><button id = button_5 class = ""square num-button"" onclick = ""recordClick(this)""><div class = content><div class = numbers>K</div></div></button><button id = button_6 class = ""square num-button"" onclick = ""recordClick(this)""><div class = content><div class = numbers>L</div></div></button><button id = button_7 class = ""square num-button"" onclick = ""recordClick(this)""><div class = content><div class = numbers>N</div></div></button><button id = button_8 class = ""square num-button"" onclick = ""recordClick(this)""><div class = content><div class = numbers>P</div></div></button><button id = button_9 class = ""square num-button"" onclick = ""recordClick(this)""><div class = content><div class = numbers>Q</div></div></button><button id = button_10 class = ""square num-button"" onclick = ""recordClick(this)""><div class = content><div class = numbers>R</div></div></button><button id = button_11 class = ""square num-button"" onclick = ""recordClick(this)""><div class = content><div class = numbers>S</div></div></button><button id = button_12 class = ""square num-button"" onclick = ""recordClick(this)""><div class = content><div class = numbers>Y</div></div></button><button class = clear_button id = ""ClearButton"" onclick = ""clearResponse()"">BACKSPACE</button><button class = blank_button id = ""BlankButton"" onclick = ""blankResponse()"">SKIP</button><p style=""font-size: 2.4rem""><u><b>Current Answer:</b></u></p><br><br><div id=echoed_txt style=""font-size: 5rem; color:blue;""><b></b></div></div>",enter,ospan,retrieval,GvK8ubml0aRGNja4sy3CpfTnO4W2,html-keyboard-response,116,1558978,0.0-43.0-4.0-0.0-2.0,7,7,7,4.0,"[""Q"",""J"",""H"",""C""]","[""Q"",""J"",""H"",""C""]",1.0,4.0,,,,,,,59d65ad8e2762800015eb51b,09:51:43,05/03/2024
5503.299999952316,[''],0,ospan,feedback,GvK8ubml0aRGNja4sy3CpfTnO4W2,html-button-response,117,1564991,0.0-43.0-4.0-0.0-3.0,,,,,,,,,,,,100.0,0.0,,59d65ad8e2762800015eb51b,09:51:43,05/03/2024
,"<p style=""font-size:75px;"">...</p>",,ospan,iti,GvK8ubml0aRGNja4sy3CpfTnO4W2,html-keyboard-response,118,1565997,0.0-43.0-4.0-1.0-0.0,,,,,,,,,,,,,,,59d65ad8e2762800015eb51b,09:51:43,05/03/2024
2281.0,,,ospan,symmetry,GvK8ubml0aRGNja4sy3CpfTnO4W2,symmetry-judgement-task,119,1570877,0.0-43.0-4.0-1.0-1.0-0.0,,,,,,,,,,1.0,1.0,,,,59d65ad8e2762800015eb51b,09:51:43,05/03/2024
,"<div style=""font-size: 10rem; color: #0000FF"">Q</div>",,ospan,letter,GvK8ubml0aRGNja4sy3CpfTnO4W2,html-keyboard-response,120,1571885,0.0-43.0-4.0-1.0-1.0-1.0,,,,,,,,,,,,,,,59d65ad8e2762800015eb51b,09:51:43,05/03/2024
3232.0,,,ospan,symmetry,GvK8ubml0aRGNja4sy3CpfTnO4W2,symmetry-judgement-task,121,1578421,0.0-43.0-4.0-1.0-1.0-2.0,,,,,,,,,,1.0,1.0,,,,59d65ad8e2762800015eb51b,09:51:43,05/03/2024
,"<div style=""font-size: 10rem; color: #0000FF"">K</div>",,ospan,letter,GvK8ubml0aRGNja4sy3CpfTnO4W2,html-keyboard-response,122,1579429,0.0-43.0-4.0-1.0-1.0-3.0,,,,,,,,,,,,,,,59d65ad8e2762800015eb51b,09:51:43,05/03/2024
1960.0,,,ospan,symmetry,GvK8ubml0aRGNja4sy3CpfTnO4W2,symmetry-judgement-task,123,1584468,0.0-43.0-4.0-1.0-1.0-4.0,,,,,,,,,,1.0,1.0,,,,59d65ad8e2762800015eb51b,09:51:43,05/03/2024
,"<div style=""font-size: 10rem; color: #0000FF"">C</div>",,ospan,letter,GvK8ubml0aRGNja4sy3CpfTnO4W2,html-keyboard-response,124,1585477,0.0-43.0-4.0-1.0-1.0-5.0,,,,,,,,,,,,,,,59d65ad8e2762800015eb51b,09:51:43,05/03/2024
11792.600000023842,"<div class = numbox><p style=""font-size: 2.4rem"">Please recall the letters you saw to the best of your ability. If you do not remember a particular letter, use the SKIP button.<br><b>(When you are ready to lock in your answer, press ENTER)</b></p><button id = button_1 class = ""square num-button"" onclick = ""recordClick(this)""><div class = content><div class = numbers>C</div></div></button><button id = button_2 class = ""square num-button"" onclick = ""recordClick(this)""><div class = content><div class = numbers>G</div></div></button><button id = button_3 class = ""square num-button"" onclick = ""recordClick(this)""><div class = content><div class = numbers>H</div></div></button><button id = button_4 class = ""square num-button"" onclick = ""recordClick(this)""><div class = content><div class = numbers>J</div></div></button><button id = button_5 class = ""square num-button"" onclick = ""recordClick(this)""><div class = content><div class = numbers>K</div></div></button><button id = button_6 class = ""square num-button"" onclick = ""recordClick(this)""><div class = content><div class = numbers>L</div></div></button><button id = button_7 class = ""square num-button"" onclick = ""recordClick(this)""><div class = content><div class = numbers>N</div></div></button><button id = button_8 class = ""square num-button"" onclick = ""recordClick(this)""><div class = content><div class = numbers>P</div></div></button><button id = button_9 class = ""square num-button"" onclick = ""recordClick(this)""><div class = content><div class = numbers>Q</div></div></button><button id = button_10 class = ""square num-button"" onclick = ""recordClick(this)""><div class = content><div class = numbers>R</div></div></button><button id = button_11 class = ""square num-button"" onclick = ""recordClick(this)""><div class = content><div class = numbers>S</div></div></button><button id = button_12 class = ""square num-button"" onclick = ""recordClick(this)""><div class = content><div class = numbers>Y</div></div></button><button class = clear_button id = ""ClearButton"" onclick = ""clearResponse()"">BACKSPACE</button><button class = blank_button id = ""BlankButton"" onclick = ""blankResponse()"">SKIP</button><p style=""font-size: 2.4rem""><u><b>Current Answer:</b></u></p><br><br><div id=echoed_txt style=""font-size: 5rem; color:blue;""><b></b></div></div>",enter,ospan,retrieval,GvK8ubml0aRGNja4sy3CpfTnO4W2,html-keyboard-response,125,1598024,0.0-43.0-4.0-1.0-2.0,10,10,10,3.0,"[""Q"",""K"",""C""]","[""Q"",""K"",""C""]",1.0,3.0,,,,,,,59d65ad8e2762800015eb51b,09:51:43,05/03/2024
4749.899999976158,[''],0,ospan,feedback,GvK8ubml0aRGNja4sy3CpfTnO4W2,html-button-response,126,1603279,0.0-43.0-4.0-1.0-3.0,,,,,,,,,,,,100.0,0.0,,59d65ad8e2762800015eb51b,09:51:43,05/03/2024
,"<p style=""font-size:75px;"">...</p>",,ospan,iti,GvK8ubml0aRGNja4sy3CpfTnO4W2,html-keyboard-response,127,1604285,0.0-43.0-4.0-2.0-0.0,,,,,,,,,,,,,,,59d65ad8e2762800015eb51b,09:51:43,05/03/2024
4106.0,,,ospan,symmetry,GvK8ubml0aRGNja4sy3CpfTnO4W2,symmetry-judgement-task,128,1610901,0.0-43.0-4.0-2.0-1.0-0.0,,,,,,,,,,1.0,1.0,,,,59d65ad8e2762800015eb51b,09:51:43,05/03/2024
,"<div style=""font-size: 10rem; color: #0000FF"">N</div>",,ospan,letter,GvK8ubml0aRGNja4sy3CpfTnO4W2,html-keyboard-response,129,1611910,0.0-43.0-4.0-2.0-1.0-1.0,,,,,,,,,,,,,,,59d65ad8e2762800015eb51b,09:51:43,05/03/2024
2154.0,,,ospan,symmetry,GvK8ubml0aRGNja4sy3CpfTnO4W2,symmetry-judgement-task,130,1617237,0.0-43.0-4.0-2.0-1.0-2.0,,,,,,,,,,1.0,1.0,,,,59d65ad8e2762800015eb51b,09:51:43,05/03/2024
,"<div style=""font-size: 10rem; color: #0000FF"">R</div>",,ospan,letter,GvK8ubml0aRGNja4sy3CpfTnO4W2,html-keyboard-response,131,1618245,0.0-43.0-4.0-2.0-1.0-3.0,,,,,,,,,,,,,,,59d65ad8e2762800015eb51b,09:51:43,05/03/2024
2335.0,,,ospan,symmetry,GvK8ubml0aRGNja4sy3CpfTnO4W2,symmetry-judgement-task,132,1623765,0.0-43.0-4.0-2.0-1.0-4.0,,,,,,,,,,1.0,1.0,,,,59d65ad8e2762800015eb51b,09:51:43,05/03/2024
,"<div style=""font-size: 10rem; color: #0000FF"">Q</div>",,ospan,letter,GvK8ubml0aRGNja4sy3CpfTnO4W2,html-keyboard-response,133,1624773,0.0-43.0-4.0-2.0-1.0-5.0,,,,,,,,,,,,,,,59d65ad8e2762800015eb51b,09:51:43,05/03/2024
2020.0,,,ospan,symmetry,GvK8ubml0aRGNja4sy3CpfTnO4W2,symmetry-judgement-task,134,1629861,0.0-43.0-4.0-2.0-1.0-6.0,,,,,,,,,,1.0,1.0,,,,59d65ad8e2762800015eb51b,09:51:43,05/03/2024
,"<div style=""font-size: 10rem; color: #0000FF"">P</div>",,ospan,letter,GvK8ubml0aRGNja4sy3CpfTnO4W2,html-keyboard-response,135,1630869,0.0-43.0-4.0-2.0-1.0-7.0,,,,,,,,,,,,,,,59d65ad8e2762800015eb51b,09:51:43,05/03/2024
2934.0,,,ospan,symmetry,GvK8ubml0aRGNja4sy3CpfTnO4W2,symmetry-judgement-task,136,1636901,0.0-43.0-4.0-2.0-1.0-8.0,,,,,,,,,,1.0,1.0,,,,59d65ad8e2762800015eb51b,09:51:43,05/03/2024
,"<div style=""font-size: 10rem; color: #0000FF"">J</div>",,ospan,letter,GvK8ubml0aRGNja4sy3CpfTnO4W2,html-keyboard-response,137,1637909,0.0-43.0-4.0-2.0-1.0-9.0,,,,,,,,,,,,,,,59d65ad8e2762800015eb51b,09:51:43,05/03/2024
20091.299999952316,"<div class = numbox><p style=""font-size: 2.4rem"">Please recall the letters you saw to the best of your ability. If you do not remember a particular letter, use the SKIP button.<br><b>(When you are ready to lock in your answer, press ENTER)</b></p><button id = button_1 class = ""square num-button"" onclick = ""recordClick(this)""><div class = content><div class = numbers>C</div></div></button><button id = button_2 class = ""square num-button"" onclick = ""recordClick(this)""><div class = content><div class = numbers>G</div></div></button><button id = button_3 class = ""square num-button"" onclick = ""recordClick(this)""><div class = content><div class = numbers>H</div></div></button><button id = button_4 class = ""square num-button"" onclick = ""recordClick(this)""><div class = content><div class = numbers>J</div></div></button><button id = button_5 class = ""square num-button"" onclick = ""recordClick(this)""><div class = content><div class = numbers>K</div></div></button><button id = button_6 class = ""square num-button"" onclick = ""recordClick(this)""><div class = content><div class = numbers>L</div></div></button><button id = button_7 class = ""square num-button"" onclick = ""recordClick(this)""><div class = content><div class = numbers>N</div></div></button><button id = button_8 class = ""square num-button"" onclick = ""recordClick(this)""><div class = content><div class = numbers>P</div></div></button><button id = button_9 class = ""square num-button"" onclick = ""recordClick(this)""><div class = content><div class = numbers>Q</div></div></button><button id = button_10 class = ""square num-button"" onclick = ""recordClick(this)""><div class = content><div class = numbers>R</div></div></button><button id = button_11 class = ""square num-button"" onclick = ""recordClick(this)""><div class = content><div class = numbers>S</div></div></button><button id = button_12 class = ""square num-button"" onclick = ""recordClick(this)""><div class = content><div class = numbers>Y</div></div></button><button class = clear_button id = ""ClearButton"" onclick = ""clearResponse()"">BACKSPACE</button><button class = blank_button id = ""BlankButton"" onclick = ""blankResponse()"">SKIP</button><p style=""font-size: 2.4rem""><u><b>Current Answer:</b></u></p><br><br><div id=echoed_txt style=""font-size: 5rem; color:blue;""><b></b></div></div>",enter,ospan,retrieval,GvK8ubml0aRGNja4sy3CpfTnO4W2,html-keyboard-response,138,1658756,0.0-43.0-4.0-2.0-2.0,15,15,15,5.0,"[""N"",""R"",""Q"",""P"",""J""]","[""N"",""R"",""Q"",""P"",""J""]",1.0,5.0,,,,,,,59d65ad8e2762800015eb51b,09:51:43,05/03/2024
11756.700000047684,[''],0,ospan,feedback,GvK8ubml0aRGNja4sy3CpfTnO4W2,html-button-response,139,1671023,0.0-43.0-4.0-2.0-3.0,,,,,,,,,,,,100.0,0.0,,59d65ad8e2762800015eb51b,09:51:43,05/03/2024
,"<p style=""font-size:75px;"">...</p>",,ospan,iti,GvK8ubml0aRGNja4sy3CpfTnO4W2,html-keyboard-response,140,1672031,0.0-43.0-5.0-0.0-0.0,,,,,,,,,,,,,,,59d65ad8e2762800015eb51b,09:51:43,05/03/2024
2376.0,,,ospan,symmetry,GvK8ubml0aRGNja4sy3CpfTnO4W2,symmetry-judgement-task,141,1677086,0.0-43.0-5.0-0.0-1.0-0.0,,,,,,,,,,1.0,1.0,,,,59d65ad8e2762800015eb51b,09:51:43,05/03/2024
,"<div style=""font-size: 10rem; color: #0000FF"">L</div>",,ospan,letter,GvK8ubml0aRGNja4sy3CpfTnO4W2,html-keyboard-response,142,1678095,0.0-43.0-5.0-0.0-1.0-1.0,,,,,,,,,,,,,,,59d65ad8e2762800015eb51b,09:51:43,05/03/2024
2916.0,,,ospan,symmetry,GvK8ubml0aRGNja4sy3CpfTnO4W2,symmetry-judgement-task,143,1684510,0.0-43.0-5.0-0.0-1.0-2.0,,,,,,,,,,1.0,1.0,,,,59d65ad8e2762800015eb51b,09:51:43,05/03/2024
,"<div style=""font-size: 10rem; color: #0000FF"">Q</div>",,ospan,letter,GvK8ubml0aRGNja4sy3CpfTnO4W2,html-keyboard-response,144,1685520,0.0-43.0-5.0-0.0-1.0-3.0,,,,,,,,,,,,,,,59d65ad8e2762800015eb51b,09:51:43,05/03/2024
3529.0,,,ospan,symmetry,GvK8ubml0aRGNja4sy3CpfTnO4W2,symmetry-judgement-task,145,1692167,0.0-43.0-5.0-0.0-1.0-4.0,,,,,,,,,,1.0,1.0,,,,59d65ad8e2762800015eb51b,09:51:43,05/03/2024
,"<div style=""font-size: 10rem; color: #0000FF"">N</div>",,ospan,letter,GvK8ubml0aRGNja4sy3CpfTnO4W2,html-keyboard-response,146,1693176,0.0-43.0-5.0-0.0-1.0-5.0,,,,,,,,,,,,,,,59d65ad8e2762800015eb51b,09:51:43,05/03/2024
2123.0,,,ospan,symmetry,GvK8ubml0aRGNja4sy3CpfTnO4W2,symmetry-judgement-task,147,1698422,0.0-43.0-5.0-0.0-1.0-6.0,,,,,,,,,,1.0,1.0,,,,59d65ad8e2762800015eb51b,09:51:43,05/03/2024
,"<div style=""font-size: 10rem; color: #0000FF"">K</div>",,ospan,letter,GvK8ubml0aRGNja4sy3CpfTnO4W2,html-keyboard-response,148,1699430,0.0-43.0-5.0-0.0-1.0-7.0,,,,,,,,,,,,,,,59d65ad8e2762800015eb51b,09:51:43,05/03/2024
2436.0,,,ospan,symmetry,GvK8ubml0aRGNja4sy3CpfTnO4W2,symmetry-judgement-task,149,1705014,0.0-43.0-5.0-0.0-1.0-8.0,,,,,,,,,,1.0,1.0,,,,59d65ad8e2762800015eb51b,09:51:43,05/03/2024
,"<div style=""font-size: 10rem; color: #0000FF"">R</div>",,ospan,letter,GvK8ubml0aRGNja4sy3CpfTnO4W2,html-keyboard-response,150,1706023,0.0-43.0-5.0-0.0-1.0-9.0,,,,,,,,,,,,,,,59d65ad8e2762800015eb51b,09:51:43,05/03/2024
2123.0,,,ospan,symmetry,GvK8ubml0aRGNja4sy3CpfTnO4W2,symmetry-judgement-task,151,1711272,0.0-43.0-5.0-0.0-1.0-10.0,,,,,,,,,,1.0,1.0,,,,59d65ad8e2762800015eb51b,09:51:43,05/03/2024
,"<div style=""font-size: 10rem; color: #0000FF"">P</div>",,ospan,letter,GvK8ubml0aRGNja4sy3CpfTnO4W2,html-keyboard-response,152,1712281,0.0-43.0-5.0-0.0-1.0-11.0,,,,,,,,,,,,,,,59d65ad8e2762800015eb51b,09:51:43,05/03/2024
22049.399999976158,"<div class = numbox><p style=""font-size: 2.4rem"">Please recall the letters you saw to the best of your ability. If you do not remember a particular letter, use the SKIP button.<br><b>(When you are ready to lock in your answer, press ENTER)</b></p><button id = button_1 class = ""square num-button"" onclick = ""recordClick(this)""><div class = content><div class = numbers>C</div></div></button><button id = button_2 class = ""square num-button"" onclick = ""recordClick(this)""><div class = content><div class = numbers>G</div></div></button><button id = button_3 class = ""square num-button"" onclick = ""recordClick(this)""><div class = content><div class = numbers>H</div></div></button><button id = button_4 class = ""square num-button"" onclick = ""recordClick(this)""><div class = content><div class = numbers>J</div></div></button><button id = button_5 class = ""square num-button"" onclick = ""recordClick(this)""><div class = content><div class = numbers>K</div></div></button><button id = button_6 class = ""square num-button"" onclick = ""recordClick(this)""><div class = content><div class = numbers>L</div></div></button><button id = button_7 class = ""square num-button"" onclick = ""recordClick(this)""><div class = content><div class = numbers>N</div></div></button><button id = button_8 class = ""square num-button"" onclick = ""recordClick(this)""><div class = content><div class = numbers>P</div></div></button><button id = button_9 class = ""square num-button"" onclick = ""recordClick(this)""><div class = content><div class = numbers>Q</div></div></button><button id = button_10 class = ""square num-button"" onclick = ""recordClick(this)""><div class = content><div class = numbers>R</div></div></button><button id = button_11 class = ""square num-button"" onclick = ""recordClick(this)""><div class = content><div class = numbers>S</div></div></button><button id = button_12 class = ""square num-button"" onclick = ""recordClick(this)""><div class = content><div class = numbers>Y</div></div></button><button class = clear_button id = ""ClearButton"" onclick = ""clearResponse()"">BACKSPACE</button><button class = blank_button id = ""BlankButton"" onclick = ""blankResponse()"">SKIP</button><p style=""font-size: 2.4rem""><u><b>Current Answer:</b></u></p><br><br><div id=echoed_txt style=""font-size: 5rem; color:blue;""><b></b></div></div>",enter,ospan,retrieval,GvK8ubml0aRGNja4sy3CpfTnO4W2,html-keyboard-response,153,1735091,0.0-43.0-5.0-0.0-2.0,21,21,21,6.0,"[""L"",""Q"",""N"",""K"",""R"",""P""]","[""L"",""Q"",""N"",""K"",""R"",""P""]",1.0,6.0,,,,,,,59d65ad8e2762800015eb51b,09:51:43,05/03/2024
4163.100000023842,[''],0,ospan,feedback,GvK8ubml0aRGNja4sy3CpfTnO4W2,html-button-response,154,1739766,0.0-43.0-5.0-0.0-3.0,,,,,,,,,,,,100.0,0.0,,59d65ad8e2762800015eb51b,09:51:43,05/03/2024
,"<p style=""font-size:75px;"">...</p>",,ospan,iti,GvK8ubml0aRGNja4sy3CpfTnO4W2,html-keyboard-response,155,1740776,0.0-43.0-5.0-1.0-0.0,,,,,,,,,,,,,,,59d65ad8e2762800015eb51b,09:51:43,05/03/2024
1808.0,,,ospan,symmetry,GvK8ubml0aRGNja4sy3CpfTnO4W2,symmetry-judgement-task,156,1745191,0.0-43.0-5.0-1.0-1.0-0.0,,,,,,,,,,1.0,1.0,,,,59d65ad8e2762800015eb51b,09:51:43,05/03/2024
,"<div style=""font-size: 10rem; color: #0000FF"">J</div>",,ospan,letter,GvK8ubml0aRGNja4sy3CpfTnO4W2,html-keyboard-response,157,1746199,0.0-43.0-5.0-1.0-1.0-1.0,,,,,,,,,,,,,,,59d65ad8e2762800015eb51b,09:51:43,05/03/2024
2135.0,,,ospan,symmetry,GvK8ubml0aRGNja4sy3CpfTnO4W2,symmetry-judgement-task,158,1751655,0.0-43.0-5.0-1.0-1.0-2.0,,,,,,,,,,1.0,1.0,,,,59d65ad8e2762800015eb51b,09:51:43,05/03/2024
,"<div style=""font-size: 10rem; color: #0000FF"">Y</div>",,ospan,letter,GvK8ubml0aRGNja4sy3CpfTnO4W2,html-keyboard-response,159,1752663,0.0-43.0-5.0-1.0-1.0-3.0,,,,,,,,,,,,,,,59d65ad8e2762800015eb51b,09:51:43,05/03/2024
2378.0,,,ospan,symmetry,GvK8ubml0aRGNja4sy3CpfTnO4W2,symmetry-judgement-task,160,1758095,0.0-43.0-5.0-1.0-1.0-4.0,,,,,,,,,,1.0,1.0,,,,59d65ad8e2762800015eb51b,09:51:43,05/03/2024
,"<div style=""font-size: 10rem; color: #0000FF"">Q</div>",,ospan,letter,GvK8ubml0aRGNja4sy3CpfTnO4W2,html-keyboard-response,161,1759105,0.0-43.0-5.0-1.0-1.0-5.0,,,,,,,,,,,,,,,59d65ad8e2762800015eb51b,09:51:43,05/03/2024
2070.0,,,ospan,symmetry,GvK8ubml0aRGNja4sy3CpfTnO4W2,symmetry-judgement-task,162,1764408,0.0-43.0-5.0-1.0-1.0-6.0,,,,,,,,,,1.0,1.0,,,,59d65ad8e2762800015eb51b,09:51:43,05/03/2024
,"<div style=""font-size: 10rem; color: #0000FF"">L</div>",,ospan,letter,GvK8ubml0aRGNja4sy3CpfTnO4W2,html-keyboard-response,163,1765416,0.0-43.0-5.0-1.0-1.0-7.0,,,,,,,,,,,,,,,59d65ad8e2762800015eb51b,09:51:43,05/03/2024
1634.0,,,ospan,symmetry,GvK8ubml0aRGNja4sy3CpfTnO4W2,symmetry-judgement-task,164,1770111,0.0-43.0-5.0-1.0-1.0-8.0,,,,,,,,,,1.0,1.0,,,,59d65ad8e2762800015eb51b,09:51:43,05/03/2024
,"<div style=""font-size: 10rem; color: #0000FF"">H</div>",,ospan,letter,GvK8ubml0aRGNja4sy3CpfTnO4W2,html-keyboard-response,165,1771120,0.0-43.0-5.0-1.0-1.0-9.0,,,,,,,,,,,,,,,59d65ad8e2762800015eb51b,09:51:43,05/03/2024
2915.0,,,ospan,symmetry,GvK8ubml0aRGNja4sy3CpfTnO4W2,symmetry-judgement-task,166,1777231,0.0-43.0-5.0-1.0-1.0-10.0,,,,,,,,,,1.0,1.0,,,,59d65ad8e2762800015eb51b,09:51:43,05/03/2024
,"<div style=""font-size: 10rem; color: #0000FF"">K</div>",,ospan,letter,GvK8ubml0aRGNja4sy3CpfTnO4W2,html-keyboard-response,167,1778240,0.0-43.0-5.0-1.0-1.0-11.0,,,,,,,,,,,,,,,59d65ad8e2762800015eb51b,09:51:43,05/03/2024
3163.0,,,ospan,symmetry,GvK8ubml0aRGNja4sy3CpfTnO4W2,symmetry-judgement-task,168,1784488,0.0-43.0-5.0-1.0-1.0-12.0,,,,,,,,,,1.0,1.0,,,,59d65ad8e2762800015eb51b,09:51:43,05/03/2024
,"<div style=""font-size: 10rem; color: #0000FF"">C</div>",,ospan,letter,GvK8ubml0aRGNja4sy3CpfTnO4W2,html-keyboard-response,169,1785496,0.0-43.0-5.0-1.0-1.0-13.0,,,,,,,,,,,,,,,59d65ad8e2762800015eb51b,09:51:43,05/03/2024
51445.800000071526,"<div class = numbox><p style=""font-size: 2.4rem"">Please recall the letters you saw to the best of your ability. If you do not remember a particular letter, use the SKIP button.<br><b>(When you are ready to lock in your answer, press ENTER)</b></p><button id = button_1 class = ""square num-button"" onclick = ""recordClick(this)""><div class = content><div class = numbers>C</div></div></button><button id = button_2 class = ""square num-button"" onclick = ""recordClick(this)""><div class = content><div class = numbers>G</div></div></button><button id = button_3 class = ""square num-button"" onclick = ""recordClick(this)""><div class = content><div class = numbers>H</div></div></button><button id = button_4 class = ""square num-button"" onclick = ""recordClick(this)""><div class = content><div class = numbers>J</div></div></button><button id = button_5 class = ""square num-button"" onclick = ""recordClick(this)""><div class = content><div class = numbers>K</div></div></button><button id = button_6 class = ""square num-button"" onclick = ""recordClick(this)""><div class = content><div class = numbers>L</div></div></button><button id = button_7 class = ""square num-button"" onclick = ""recordClick(this)""><div class = content><div class = numbers>N</div></div></button><button id = button_8 class = ""square num-button"" onclick = ""recordClick(this)""><div class = content><div class = numbers>P</div></div></button><button id = button_9 class = ""square num-button"" onclick = ""recordClick(this)""><div class = content><div class = numbers>Q</div></div></button><button id = button_10 class = ""square num-button"" onclick = ""recordClick(this)""><div class = content><div class = numbers>R</div></div></button><button id = button_11 class = ""square num-button"" onclick = ""recordClick(this)""><div class = content><div class = numbers>S</div></div></button><button id = button_12 class = ""square num-button"" onclick = ""recordClick(this)""><div class = content><div class = numbers>Y</div></div></button><button class = clear_button id = ""ClearButton"" onclick = ""clearResponse()"">BACKSPACE</button><button class = blank_button id = ""BlankButton"" onclick = ""blankResponse()"">SKIP</button><p style=""font-size: 2.4rem""><u><b>Current Answer:</b></u></p><br><br><div id=echoed_txt style=""font-size: 5rem; color:blue;""><b></b></div></div>",enter,ospan,retrieval,GvK8ubml0aRGNja4sy3CpfTnO4W2,html-keyboard-response,170,1837705,0.0-43.0-5.0-1.0-2.0,28,21,21,7.0,"[""Y"",""J"",""Y"",""Q"",""L"",""H"",""K"",""C""]","[""J"",""Y"",""Q"",""L"",""H"",""K"",""C""]",0.0,0.0,,,,,,,59d65ad8e2762800015eb51b,09:51:43,05/03/2024
8161.299999952316,[''],0,ospan,feedback,GvK8ubml0aRGNja4sy3CpfTnO4W2,html-button-response,171,1846373,0.0-43.0-5.0-1.0-3.0,,,,,,,,,,,,100.0,0.0,,59d65ad8e2762800015eb51b,09:51:43,05/03/2024
,"<p style=""font-size:75px;"">...</p>",,ospan,iti,GvK8ubml0aRGNja4sy3CpfTnO4W2,html-keyboard-response,172,1847385,0.0-43.0-6.0-0.0-0.0,,,,,,,,,,,,,,,59d65ad8e2762800015eb51b,09:51:43,05/03/2024
3100.0,,,ospan,symmetry,GvK8ubml0aRGNja4sy3CpfTnO4W2,symmetry-judgement-task,173,1853177,0.0-43.0-6.0-0.0-1.0-0.0,,,,,,,,,,1.0,1.0,,,,59d65ad8e2762800015eb51b,09:51:43,05/03/2024
,"<div style=""font-size: 10rem; color: #0000FF"">G</div>",,ospan,letter,GvK8ubml0aRGNja4sy3CpfTnO4W2,html-keyboard-response,174,1854185,0.0-43.0-6.0-0.0-1.0-1.0,,,,,,,,,,,,,,,59d65ad8e2762800015eb51b,09:51:43,05/03/2024
2004.0,,,ospan,symmetry,GvK8ubml0aRGNja4sy3CpfTnO4W2,symmetry-judgement-task,175,1859384,0.0-43.0-6.0-0.0-1.0-2.0,,,,,,,,,,1.0,1.0,,,,59d65ad8e2762800015eb51b,09:51:43,05/03/2024
,"<div style=""font-size: 10rem; color: #0000FF"">J</div>",,ospan,letter,GvK8ubml0aRGNja4sy3CpfTnO4W2,html-keyboard-response,176,1860392,0.0-43.0-6.0-0.0-1.0-3.0,,,,,,,,,,,,,,,59d65ad8e2762800015eb51b,09:51:43,05/03/2024
1776.0,,,ospan,symmetry,GvK8ubml0aRGNja4sy3CpfTnO4W2,symmetry-judgement-task,177,1865360,0.0-43.0-6.0-0.0-1.0-4.0,,,,,,,,,,1.0,1.0,,,,59d65ad8e2762800015eb51b,09:51:43,05/03/2024
,"<div style=""font-size: 10rem; color: #0000FF"">Q</div>",,ospan,letter,GvK8ubml0aRGNja4sy3CpfTnO4W2,html-keyboard-response,178,1866369,0.0-43.0-6.0-0.0-1.0-5.0,,,,,,,,,,,,,,,59d65ad8e2762800015eb51b,09:51:43,05/03/2024
4275.0,,,ospan,symmetry,GvK8ubml0aRGNja4sy3CpfTnO4W2,symmetry-judgement-task,179,1873785,0.0-43.0-6.0-0.0-1.0-6.0,,,,,,,,,,1.0,1.0,,,,59d65ad8e2762800015eb51b,09:51:43,05/03/2024
,"<div style=""font-size: 10rem; color: #0000FF"">P</div>",,ospan,letter,GvK8ubml0aRGNja4sy3CpfTnO4W2,html-keyboard-response,180,1874793,0.0-43.0-6.0-0.0-1.0-7.0,,,,,,,,,,,,,,,59d65ad8e2762800015eb51b,09:51:43,05/03/2024
2435.0,,,ospan,symmetry,GvK8ubml0aRGNja4sy3CpfTnO4W2,symmetry-judgement-task,181,1880345,0.0-43.0-6.0-0.0-1.0-8.0,,,,,,,,,,1.0,1.0,,,,59d65ad8e2762800015eb51b,09:51:43,05/03/2024
,"<div style=""font-size: 10rem; color: #0000FF"">Y</div>",,ospan,letter,GvK8ubml0aRGNja4sy3CpfTnO4W2,html-keyboard-response,182,1881354,0.0-43.0-6.0-0.0-1.0-9.0,,,,,,,,,,,,,,,59d65ad8e2762800015eb51b,09:51:43,05/03/2024
19714.700000047684,"<div class = numbox><p style=""font-size: 2.4rem"">Please recall the letters you saw to the best of your ability. If you do not remember a particular letter, use the SKIP button.<br><b>(When you are ready to lock in your answer, press ENTER)</b></p><button id = button_1 class = ""square num-button"" onclick = ""recordClick(this)""><div class = content><div class = numbers>C</div></div></button><button id = button_2 class = ""square num-button"" onclick = ""recordClick(this)""><div class = content><div class = numbers>G</div></div></button><button id = button_3 class = ""square num-button"" onclick = ""recordClick(this)""><div class = content><div class = numbers>H</div></div></button><button id = button_4 class = ""square num-button"" onclick = ""recordClick(this)""><div class = content><div class = numbers>J</div></div></button><button id = button_5 class = ""square num-button"" onclick = ""recordClick(this)""><div class = content><div class = numbers>K</div></div></button><button id = button_6 class = ""square num-button"" onclick = ""recordClick(this)""><div class = content><div class = numbers>L</div></div></button><button id = button_7 class = ""square num-button"" onclick = ""recordClick(this)""><div class = content><div class = numbers>N</div></div></button><button id = button_8 class = ""square num-button"" onclick = ""recordClick(this)""><div class = content><div class = numbers>P</div></div></button><button id = button_9 class = ""square num-button"" onclick = ""recordClick(this)""><div class = content><div class = numbers>Q</div></div></button><button id = button_10 class = ""square num-button"" onclick = ""recordClick(this)""><div class = content><div class = numbers>R</div></div></button><button id = button_11 class = ""square num-button"" onclick = ""recordClick(this)""><div class = content><div class = numbers>S</div></div></button><button id = button_12 class = ""square num-button"" onclick = ""recordClick(this)""><div class = content><div class = numbers>Y</div></div></button><button class = clear_button id = ""ClearButton"" onclick = ""clearResponse()"">BACKSPACE</button><button class = blank_button id = ""BlankButton"" onclick = ""blankResponse()"">SKIP</button><p style=""font-size: 2.4rem""><u><b>Current Answer:</b></u></p><br><br><div id=echoed_txt style=""font-size: 5rem; color:blue;""><b></b></div></div>",enter,ospan,retrieval,GvK8ubml0aRGNja4sy3CpfTnO4W2,html-keyboard-response,183,1901830,0.0-43.0-6.0-0.0-2.0,33,26,26,5.0,"[""G"",""J"",""Q"",""P"",""Y""]","[""G"",""J"",""Q"",""P"",""Y""]",1.0,5.0,,,,,,,59d65ad8e2762800015eb51b,09:51:43,05/03/2024
2879.5,[''],0,ospan,feedback,GvK8ubml0aRGNja4sy3CpfTnO4W2,html-button-response,184,1905221,0.0-43.0-6.0-0.0-3.0,,,,,,,,,,,,100.0,0.0,,59d65ad8e2762800015eb51b,09:51:43,05/03/2024
,"<p style=""font-size:75px;"">...</p>",,ospan,iti,GvK8ubml0aRGNja4sy3CpfTnO4W2,html-keyboard-response,185,1906234,0.0-43.0-6.0-1.0-0.0,,,,,,,,,,,,,,,59d65ad8e2762800015eb51b,09:51:43,05/03/2024
4914.0,,,ospan,symmetry,GvK8ubml0aRGNja4sy3CpfTnO4W2,symmetry-judgement-task,186,1913713,0.0-43.0-6.0-1.0-1.0-0.0,,,,,,,,,,1.0,1.0,,,,59d65ad8e2762800015eb51b,09:51:43,05/03/2024
,"<div style=""font-size: 10rem; color: #0000FF"">S</div>",,ospan,letter,GvK8ubml0aRGNja4sy3CpfTnO4W2,html-keyboard-response,187,1914722,0.0-43.0-6.0-1.0-1.0-1.0,,,,,,,,,,,,,,,59d65ad8e2762800015eb51b,09:51:43,05/03/2024
1595.0,,,ospan,symmetry,GvK8ubml0aRGNja4sy3CpfTnO4W2,symmetry-judgement-task,188,1919386,0.0-43.0-6.0-1.0-1.0-2.0,,,,,,,,,,1.0,1.0,,,,59d65ad8e2762800015eb51b,09:51:43,05/03/2024
,"<div style=""font-size: 10rem; color: #0000FF"">L</div>",,ospan,letter,GvK8ubml0aRGNja4sy3CpfTnO4W2,html-keyboard-response,189,1920394,0.0-43.0-6.0-1.0-1.0-3.0,,,,,,,,,,,,,,,59d65ad8e2762800015eb51b,09:51:43,05/03/2024
2637.0,,,ospan,symmetry,GvK8ubml0aRGNja4sy3CpfTnO4W2,symmetry-judgement-task,190,1926194,0.0-43.0-6.0-1.0-1.0-4.0,,,,,,,,,,1.0,1.0,,,,59d65ad8e2762800015eb51b,09:51:43,05/03/2024
,"<div style=""font-size: 10rem; color: #0000FF"">J</div>",,ospan,letter,GvK8ubml0aRGNja4sy3CpfTnO4W2,html-keyboard-response,191,1927202,0.0-43.0-6.0-1.0-1.0-5.0,,,,,,,,,,,,,,,59d65ad8e2762800015eb51b,09:51:43,05/03/2024
2792.0,,,ospan,symmetry,GvK8ubml0aRGNja4sy3CpfTnO4W2,symmetry-judgement-task,192,1933089,0.0-43.0-6.0-1.0-1.0-6.0,,,,,,,,,,1.0,1.0,,,,59d65ad8e2762800015eb51b,09:51:43,05/03/2024
,"<div style=""font-size: 10rem; color: #0000FF"">H</div>",,ospan,letter,GvK8ubml0aRGNja4sy3CpfTnO4W2,html-keyboard-response,193,1934098,0.0-43.0-6.0-1.0-1.0-7.0,,,,,,,,,,,,,,,59d65ad8e2762800015eb51b,09:51:43,05/03/2024
2534.0,,,ospan,symmetry,GvK8ubml0aRGNja4sy3CpfTnO4W2,symmetry-judgement-task,194,1939729,0.0-43.0-6.0-1.0-1.0-8.0,,,,,,,,,,1.0,1.0,,,,59d65ad8e2762800015eb51b,09:51:43,05/03/2024
,"<div style=""font-size: 10rem; color: #0000FF"">G</div>",,ospan,letter,GvK8ubml0aRGNja4sy3CpfTnO4W2,html-keyboard-response,195,1940738,0.0-43.0-6.0-1.0-1.0-9.0,,,,,,,,,,,,,,,59d65ad8e2762800015eb51b,09:51:43,05/03/2024
3381.0,,,ospan,symmetry,GvK8ubml0aRGNja4sy3CpfTnO4W2,symmetry-judgement-task,196,1947226,0.0-43.0-6.0-1.0-1.0-10.0,,,,,,,,,,1.0,1.0,,,,59d65ad8e2762800015eb51b,09:51:43,05/03/2024
,"<div style=""font-size: 10rem; color: #0000FF"">R</div>",,ospan,letter,GvK8ubml0aRGNja4sy3CpfTnO4W2,html-keyboard-response,197,1948235,0.0-43.0-6.0-1.0-1.0-11.0,,,,,,,,,,,,,,,59d65ad8e2762800015eb51b,09:51:43,05/03/2024
2405.0,,,ospan,symmetry,GvK8ubml0aRGNja4sy3CpfTnO4W2,symmetry-judgement-task,198,1953737,0.0-43.0-6.0-1.0-1.0-12.0,,,,,,,,,,1.0,1.0,,,,59d65ad8e2762800015eb51b,09:51:43,05/03/2024
,"<div style=""font-size: 10rem; color: #0000FF"">N</div>",,ospan,letter,GvK8ubml0aRGNja4sy3CpfTnO4W2,html-keyboard-response,199,1954746,0.0-43.0-6.0-1.0-1.0-13.0,,,,,,,,,,,,,,,59d65ad8e2762800015eb51b,09:51:43,05/03/2024
2489.0,,,ospan,symmetry,GvK8ubml0aRGNja4sy3CpfTnO4W2,symmetry-judgement-task,200,1960394,0.0-43.0-6.0-1.0-1.0-14.0,,,,,,,,,,1.0,1.0,,,,59d65ad8e2762800015eb51b,09:51:43,05/03/2024
,"<div style=""font-size: 10rem; color: #0000FF"">Q</div>",,ospan,letter,GvK8ubml0aRGNja4sy3CpfTnO4W2,html-keyboard-response,201,1961402,0.0-43.0-6.0-1.0-1.0-15.0,,,,,,,,,,,,,,,59d65ad8e2762800015eb51b,09:51:43,05/03/2024
19364.299999952316,"<div class = numbox><p style=""font-size: 2.4rem"">Please recall the letters you saw to the best of your ability. If you do not remember a particular letter, use the SKIP button.<br><b>(When you are ready to lock in your answer, press ENTER)</b></p><button id = button_1 class = ""square num-button"" onclick = ""recordClick(this)""><div class = content><div class = numbers>C</div></div></button><button id = button_2 class = ""square num-button"" onclick = ""recordClick(this)""><div class = content><div class = numbers>G</div></div></button><button id = button_3 class = ""square num-button"" onclick = ""recordClick(this)""><div class = content><div class = numbers>H</div></div></button><button id = button_4 class = ""square num-button"" onclick = ""recordClick(this)""><div class = content><div class = numbers>J</div></div></button><button id = button_5 class = ""square num-button"" onclick = ""recordClick(this)""><div class = content><div class = numbers>K</div></div></button><button id = button_6 class = ""square num-button"" onclick = ""recordClick(this)""><div class = content><div class = numbers>L</div></div></button><button id = button_7 class = ""square num-button"" onclick = ""recordClick(this)""><div class = content><div class = numbers>N</div></div></button><button id = button_8 class = ""square num-button"" onclick = ""recordClick(this)""><div class = content><div class = numbers>P</div></div></button><button id = button_9 class = ""square num-button"" onclick = ""recordClick(this)""><div class = content><div class = numbers>Q</div></div></button><button id = button_10 class = ""square num-button"" onclick = ""recordClick(this)""><div class = content><div class = numbers>R</div></div></button><button id = button_11 class = ""square num-button"" onclick = ""recordClick(this)""><div class = content><div class = numbers>S</div></div></button><button id = button_12 class = ""square num-button"" onclick = ""recordClick(this)""><div class = content><div class = numbers>Y</div></div></button><button class = clear_button id = ""ClearButton"" onclick = ""clearResponse()"">BACKSPACE</button><button class = blank_button id = ""BlankButton"" onclick = ""blankResponse()"">SKIP</button><p style=""font-size: 2.4rem""><u><b>Current Answer:</b></u></p><br><br><div id=echoed_txt style=""font-size: 5rem; color:blue;""><b></b></div></div>",enter,ospan,retrieval,GvK8ubml0aRGNja4sy3CpfTnO4W2,html-keyboard-response,202,1981521,0.0-43.0-6.0-1.0-2.0,41,34,34,8.0,"[""S"",""L"",""J"",""H"",""G"",""R"",""N"",""Q""]","[""S"",""L"",""J"",""H"",""G"",""R"",""N"",""Q""]",1.0,8.0,,,,,,,59d65ad8e2762800015eb51b,09:51:43,05/03/2024
9534.200000047684,[''],0,ospan,feedback,GvK8ubml0aRGNja4sy3CpfTnO4W2,html-button-response,203,1991564,0.0-43.0-6.0-1.0-3.0,,,,,,,,,,,,100.0,0.0,,59d65ad8e2762800015eb51b,09:51:43,05/03/2024
30664.899999976158,,{'Q0': 'Good study. The shapes were good.'},ospan,survey_ospan,GvK8ubml0aRGNja4sy3CpfTnO4W2,lmdlab-survey-text,204,2022995,0.0-43.0-7.0,,,,,,,,,,,,,,GvK8ubml0aRGNja4sy3CpfTnO4W2,59d65ad8e2762800015eb51b,09:51:43,05/03/2024
3635.0,<p><p style='font-size: 3rem'>Great work!<br><br>This completes the symmetry and memory task.</p><br><br><br>,0,ospan,finish,GvK8ubml0aRGNja4sy3CpfTnO4W2,html-button-response,205,2026636,0.0-43.0-8.0,41,34,34,,,,,,,,,100.0,,,59d65ad8e2762800015eb51b,09:51:43,05/03/2024
