rt,stimulus,response,exp_name,exp_stage,subjectID,trial_type,trial_index,time_elapsed,internal_node_id,ospan_shown,ospan_total,ospan_abs,length,resp_actual,resp_correct,full_correct,num_correct,feedback,accuracy,correct,math_acc,math_warning,databaseID,prolificID,start_time,date
1473.3000001907349,<div class = 'left_align' style='font-size: 3.25rem; line-height: 1.3;'><p class = 'center_align'><b>Welcome to the Symmetry and Memory Task</b><br><br><br><br></p>Press 'continue' to show the instructions.<br><br><br><br></div>,0,ospan,instruct,lcPxvkUYUya7Qe119QQwGRlr57E3,html-button-response,54,833512,0.0-46.0-0.0-0.0-0.0,,,,,,,,,,,,,,,632c78dac01ee4ebd60f742c,09:14:09,03/04/2024
5115.599999904633,"<div class = 'left_align' style='font-size: 3.25rem; line-height: 1.3;'><p class = 'center_align'><b>Symmetry and Memory Task</b><br><br></p>In this task, you will try to memorize letters you see on the screen<br>while you also view black and white grid pictures.<br><br>In the next few minutes, you will have some practice to get you familiar<br>with how the task works.<br><br>It may be difficult sometimes, but please do not worry about making mistakes!<br><br>We will begin by practicing the letter part of the task.<br><br><br><br></div>",0,ospan,instruct,lcPxvkUYUya7Qe119QQwGRlr57E3,html-button-response,55,838886,0.0-46.0-0.0-0.0-1.0,,,,,,,,,,,,,,,632c78dac01ee4ebd60f742c,09:14:09,03/04/2024
3708.7999999523163,"<div class = 'left_align' style='font-size: 3.25rem; line-height: 1.3;'>For this practice part, letters will appear on the screen one at a time.<br><br>Try to remember each letter in the order presented.<br><br>After some letters have been shown, you will see a response screen. Your<br>goal is to report the letters you saw <b>in order</b>. If you do not remember<br>a particular letter, you will have the option to leave it blank.<br><br><br><br></div>",0,ospan,instruct,lcPxvkUYUya7Qe119QQwGRlr57E3,html-button-response,56,842848,0.0-46.0-0.0-0.0-2.0,,,,,,,,,,,,,,,632c78dac01ee4ebd60f742c,09:14:09,03/04/2024
4145.299999952316,"<div class = 'left_align' style='font-size: 3.25rem; line-height: 1.3;'>Remember, it is very important to get the letters in the same<br>order as you see them.<br><br>When you are ready, you may begin the letter practice.</div><br><br><br><br>",0,ospan,instruct,lcPxvkUYUya7Qe119QQwGRlr57E3,html-button-response,57,847249,0.0-46.0-0.0-0.0-3.0,,,,,,,,,,,,,,,632c78dac01ee4ebd60f742c,09:14:09,03/04/2024
,"<p style=""font-size:75px;"">...</p>",,ospan,iti,lcPxvkUYUya7Qe119QQwGRlr57E3,html-keyboard-response,58,848518,0.0-46.0-0.0-1.0-0.0,,,,,,,,,,,,,,,632c78dac01ee4ebd60f742c,09:14:09,03/04/2024
,"<div style=""font-size: 10rem; color: #0000FF"">R</div>",,ospan,letter,lcPxvkUYUya7Qe119QQwGRlr57E3,html-keyboard-response,59,849535,0.0-46.0-0.0-1.0-1.0,,,,,,,,,,,,,,,632c78dac01ee4ebd60f742c,09:14:09,03/04/2024
,"<div style=""font-size: 10rem; color: #0000FF"">G</div>",,ospan,letter,lcPxvkUYUya7Qe119QQwGRlr57E3,html-keyboard-response,60,851311,0.0-46.0-0.0-1.0-2.0,,,,,,,,,,,,,,,632c78dac01ee4ebd60f742c,09:14:09,03/04/2024
11973.199999809265,"<div class = numbox><p style=""font-size: 2.4rem"">Please recall the letters you saw to the best of your ability. If you do not remember a particular letter, use the SKIP button.<br><b>(When you are ready to lock in your answer, press ENTER)</b></p><button id = button_1 class = ""square num-button"" onclick = ""recordClick(this)""><div class = content><div class = numbers>C</div></div></button><button id = button_2 class = ""square num-button"" onclick = ""recordClick(this)""><div class = content><div class = numbers>G</div></div></button><button id = button_3 class = ""square num-button"" onclick = ""recordClick(this)""><div class = content><div class = numbers>H</div></div></button><button id = button_4 class = ""square num-button"" onclick = ""recordClick(this)""><div class = content><div class = numbers>J</div></div></button><button id = button_5 class = ""square num-button"" onclick = ""recordClick(this)""><div class = content><div class = numbers>K</div></div></button><button id = button_6 class = ""square num-button"" onclick = ""recordClick(this)""><div class = content><div class = numbers>L</div></div></button><button id = button_7 class = ""square num-button"" onclick = ""recordClick(this)""><div class = content><div class = numbers>N</div></div></button><button id = button_8 class = ""square num-button"" onclick = ""recordClick(this)""><div class = content><div class = numbers>P</div></div></button><button id = button_9 class = ""square num-button"" onclick = ""recordClick(this)""><div class = content><div class = numbers>Q</div></div></button><button id = button_10 class = ""square num-button"" onclick = ""recordClick(this)""><div class = content><div class = numbers>R</div></div></button><button id = button_11 class = ""square num-button"" onclick = ""recordClick(this)""><div class = content><div class = numbers>S</div></div></button><button id = button_12 class = ""square num-button"" onclick = ""recordClick(this)""><div class = content><div class = numbers>Y</div></div></button><button class = clear_button id = ""ClearButton"" onclick = ""clearResponse()"">BACKSPACE</button><button class = blank_button id = ""BlankButton"" onclick = ""blankResponse()"">SKIP</button><p style=""font-size: 2.4rem""><u><b>Current Answer:</b></u></p><br><br><div id=echoed_txt style=""font-size: 5rem; color:blue;""><b></b></div></div>",enter,ospan,retrieval,lcPxvkUYUya7Qe119QQwGRlr57E3,html-keyboard-response,61,864043,0.0-46.0-0.0-1.0-3.0,NA,NA,NA,2.0,"[""G"",""G"",""_"",""G""]","[""R"",""G""]",0.0,1.0,"['<font color=""red"">R</font>', '<font color=""green"">G</font>']",,,,,,632c78dac01ee4ebd60f742c,09:14:09,03/04/2024
1837.7000000476837,"['<p style=""font-size:44px"">Letters:<br><br><br><font color=""red"">R</font> <font color=""green"">G</font></p><br><br>']",0,ospan,practice_feedback,lcPxvkUYUya7Qe119QQwGRlr57E3,html-button-response,62,866389,0.0-46.0-0.0-1.0-4.0,,,,,,,,,,,,,,,632c78dac01ee4ebd60f742c,09:14:09,03/04/2024
,"<p style=""font-size:75px;"">...</p>",,ospan,iti,lcPxvkUYUya7Qe119QQwGRlr57E3,html-keyboard-response,63,867404,0.0-46.0-0.0-2.0-0.0,,,,,,,,,,,,,,,632c78dac01ee4ebd60f742c,09:14:09,03/04/2024
,"<div style=""font-size: 10rem; color: #0000FF"">G</div>",,ospan,letter,lcPxvkUYUya7Qe119QQwGRlr57E3,html-keyboard-response,64,868414,0.0-46.0-0.0-2.0-1.0,,,,,,,,,,,,,,,632c78dac01ee4ebd60f742c,09:14:09,03/04/2024
,"<div style=""font-size: 10rem; color: #0000FF"">Q</div>",,ospan,letter,lcPxvkUYUya7Qe119QQwGRlr57E3,html-keyboard-response,65,870184,0.0-46.0-0.0-2.0-2.0,,,,,,,,,,,,,,,632c78dac01ee4ebd60f742c,09:14:09,03/04/2024
,"<div style=""font-size: 10rem; color: #0000FF"">H</div>",,ospan,letter,lcPxvkUYUya7Qe119QQwGRlr57E3,html-keyboard-response,66,871958,0.0-46.0-0.0-2.0-3.0,,,,,,,,,,,,,,,632c78dac01ee4ebd60f742c,09:14:09,03/04/2024
5729.899999856949,"<div class = numbox><p style=""font-size: 2.4rem"">Please recall the letters you saw to the best of your ability. If you do not remember a particular letter, use the SKIP button.<br><b>(When you are ready to lock in your answer, press ENTER)</b></p><button id = button_1 class = ""square num-button"" onclick = ""recordClick(this)""><div class = content><div class = numbers>C</div></div></button><button id = button_2 class = ""square num-button"" onclick = ""recordClick(this)""><div class = content><div class = numbers>G</div></div></button><button id = button_3 class = ""square num-button"" onclick = ""recordClick(this)""><div class = content><div class = numbers>H</div></div></button><button id = button_4 class = ""square num-button"" onclick = ""recordClick(this)""><div class = content><div class = numbers>J</div></div></button><button id = button_5 class = ""square num-button"" onclick = ""recordClick(this)""><div class = content><div class = numbers>K</div></div></button><button id = button_6 class = ""square num-button"" onclick = ""recordClick(this)""><div class = content><div class = numbers>L</div></div></button><button id = button_7 class = ""square num-button"" onclick = ""recordClick(this)""><div class = content><div class = numbers>N</div></div></button><button id = button_8 class = ""square num-button"" onclick = ""recordClick(this)""><div class = content><div class = numbers>P</div></div></button><button id = button_9 class = ""square num-button"" onclick = ""recordClick(this)""><div class = content><div class = numbers>Q</div></div></button><button id = button_10 class = ""square num-button"" onclick = ""recordClick(this)""><div class = content><div class = numbers>R</div></div></button><button id = button_11 class = ""square num-button"" onclick = ""recordClick(this)""><div class = content><div class = numbers>S</div></div></button><button id = button_12 class = ""square num-button"" onclick = ""recordClick(this)""><div class = content><div class = numbers>Y</div></div></button><button class = clear_button id = ""ClearButton"" onclick = ""clearResponse()"">BACKSPACE</button><button class = blank_button id = ""BlankButton"" onclick = ""blankResponse()"">SKIP</button><p style=""font-size: 2.4rem""><u><b>Current Answer:</b></u></p><br><br><div id=echoed_txt style=""font-size: 5rem; color:blue;""><b></b></div></div>",enter,ospan,retrieval,lcPxvkUYUya7Qe119QQwGRlr57E3,html-keyboard-response,67,878447,0.0-46.0-0.0-2.0-4.0,NA,NA,NA,3.0,"[""G"",""Q""]","[""G"",""Q"",""H""]",0.0,2.0,"['<font color=""green"">G</font>', '<font color=""green"">Q</font>', '<font color=""red"">H</font>']",,,,,,632c78dac01ee4ebd60f742c,09:14:09,03/04/2024
3460.199999809265,"['<p style=""font-size:44px"">Letters:<br><br><br><font color=""green"">G</font> <font color=""green"">Q</font> <font color=""red"">H</font></p><br><br>']",0,ospan,practice_feedback,lcPxvkUYUya7Qe119QQwGRlr57E3,html-button-response,68,882418,0.0-46.0-0.0-2.0-5.0,,,,,,,,,,,,,,,632c78dac01ee4ebd60f742c,09:14:09,03/04/2024
4871.700000047684,"<div class = 'left_align' style='font-size: 3.25rem; line-height: 1.3;'>Now you will practice doing the <b>symmetry judgment part</b> of the experiment.<br><br>A black and white grid picture will appear on the screen and you have to judge if it is <br>symmetrical or asymetrical.<br><br>A picture is 'mirror' symmetrical if its left half is identical to the right half when flipped.<br>Here are examples of a symmetrical and an asymetrical picture:<br><br><center><img src='Stimuli/img/symm_instructions_extra.png' style='height:420px; width:900'></img></center><br>To judge symmetry, imagine you were to fold each picture down the middle, like a book –<br>would the left half match the right half when folded onto each other?<br><br></div><br>",0,ospan,instruct,lcPxvkUYUya7Qe119QQwGRlr57E3,html-button-response,69,887293,0.0-46.0-1.0-0.0-0.0,,,,,,,,,,,,,,,632c78dac01ee4ebd60f742c,09:14:09,03/04/2024
2476.5,"<div class = 'left_align' style='font-size: 3.25rem; line-height: 1.3;'>When you have viewed the picture and determined whether it is symmetrical or not,<br>you can <b>click the Yes or No button</b> below to answer.<br><br>If you take longer than 15 seconds, it will continue automatically<br>and record the answer as an error.</div><br>",0,ospan,instruct,lcPxvkUYUya7Qe119QQwGRlr57E3,html-button-response,70,890026,0.0-46.0-1.0-0.0-1.0,,,,,,,,,,,,,,,632c78dac01ee4ebd60f742c,09:14:09,03/04/2024
3555.2000000476837,"<div class = 'left_align' style='font-size: 3.25rem; line-height: 1.3;'>It is <b>very</b> important that you make the symmetry judgment correctly.<br><br>It is also important that you try and judge the picture as quickly as you can.<br><br>When you are ready, click on the button below to try some practice problems.</div><br><br><br><br>",0,ospan,instruct,lcPxvkUYUya7Qe119QQwGRlr57E3,html-button-response,71,893841,0.0-46.0-1.0-0.0-2.0,,,,,,,,,,,,,,,632c78dac01ee4ebd60f742c,09:14:09,03/04/2024
3502.0,,,ospan,symmetry,lcPxvkUYUya7Qe119QQwGRlr57E3,symmetry-judgement-task,72,898182,0.0-46.0-1.0-1.0-0.0,,,,,,,,,,1.0,1.0,,,,632c78dac01ee4ebd60f742c,09:14:09,03/04/2024
,"<p style=""color:green; font-size: 35px"">Correct</p>",,ospan,feedback,lcPxvkUYUya7Qe119QQwGRlr57E3,html-keyboard-response,73,898941,0.0-46.0-1.0-1.0-1.0,,,,,,,,,,,,,,,632c78dac01ee4ebd60f742c,09:14:09,03/04/2024
1458.0,,,ospan,symmetry,lcPxvkUYUya7Qe119QQwGRlr57E3,symmetry-judgement-task,74,903251,0.0-46.0-1.0-1.0-2.0,,,,,,,,,,1.0,1.0,,,,632c78dac01ee4ebd60f742c,09:14:09,03/04/2024
,"<p style=""color:green; font-size: 35px"">Correct</p>",,ospan,feedback,lcPxvkUYUya7Qe119QQwGRlr57E3,html-keyboard-response,75,904006,0.0-46.0-1.0-1.0-3.0,,,,,,,,,,,,,,,632c78dac01ee4ebd60f742c,09:14:09,03/04/2024
1582.0,,,ospan,symmetry,lcPxvkUYUya7Qe119QQwGRlr57E3,symmetry-judgement-task,76,908233,0.0-46.0-1.0-1.0-4.0,,,,,,,,,,1.0,1.0,,,,632c78dac01ee4ebd60f742c,09:14:09,03/04/2024
,"<p style=""color:green; font-size: 35px"">Correct</p>",,ospan,feedback,lcPxvkUYUya7Qe119QQwGRlr57E3,html-keyboard-response,77,908994,0.0-46.0-1.0-1.0-5.0,,,,,,,,,,,,,,,632c78dac01ee4ebd60f742c,09:14:09,03/04/2024
5405.5,"<p style=""font-size: 3rem;"">You responded correctly on 3 of 3 symmetry judgments. Good job!</p><br><br>",0,ospan,practice,lcPxvkUYUya7Qe119QQwGRlr57E3,html-button-response,78,916411,0.0-46.0-1.0-2.0,,,,,,,,,,,,,,,632c78dac01ee4ebd60f742c,09:14:09,03/04/2024
3496.0999999046326,"<div class = 'left_align' style='font-size: 3.25rem; line-height: 1.3;'>Now you will practice doing both parts of the experiment at the same time.<br><br>In the next practice set, you will be given one grid picture to judge.<br>Then letter will appear on the screen. Try to remember the letter.<br><br>It is <b>very important</b> to make the symmetry judgment as quickly and accurately as possible.<br><br>Just as before, once you have make the symmetry judgment, you can click Yes or No.<br><b>Note that you will no longer see Correct or Incorrect feedback.</div><br><br><br><br>",0,ospan,instruct,lcPxvkUYUya7Qe119QQwGRlr57E3,html-button-response,79,920166,0.0-46.0-2.0-0.0-0.0,,,,,,,,,,,,,,,632c78dac01ee4ebd60f742c,09:14:09,03/04/2024
2257.4000000953674,"<div class = 'left_align' style='font-size: 3.25rem; line-height: 1.3;'>After the letter goes away, another grid picture will appear, and then<br>another letter.<br><br>At the end of each set of letters and grids, you will recall the letters to the best<br>of your ability. Remember, try your best to get the letters in the correct order.<br><br>It is important to <b>quickly</b> and <b>accurately</b> make the symmetry judgments.</div><br><br><br><br>",0,ospan,instruct,lcPxvkUYUya7Qe119QQwGRlr57E3,html-button-response,80,922675,0.0-46.0-2.0-0.0-1.0,,,,,,,,,,,,,,,632c78dac01ee4ebd60f742c,09:14:09,03/04/2024
5211.5,"<div class = 'left_align' style='font-size: 3.25rem; line-height: 1.3;'>On the feedback screen, if you are not doing well at the symmetry judgments,<br>you will also see a warning in the middle. This indicates your percent <br>correct for the grid pictures for the entire experiment.<br><br>It is <b>very</b> important for you to keep accuracy at least at 85%: <u>We can only use<br>data where the participant was at least 85% accurate on the judgments.</u> Therefore,<br> please try your best to perform well on the symmetry judgments, <b>at the same time</b><br>doing your best to recall as many letters as possible.<br><br>Click the button to try some practice problems.</div><br><br><br><br>",0,ospan,instruct,lcPxvkUYUya7Qe119QQwGRlr57E3,html-button-response,81,928141,0.0-46.0-2.0-0.0-2.0,,,,,,,,,,,,,,,632c78dac01ee4ebd60f742c,09:14:09,03/04/2024
,"<p style=""font-size:75px;"">...</p>",,ospan,iti,lcPxvkUYUya7Qe119QQwGRlr57E3,html-keyboard-response,82,929415,0.0-46.0-2.0-1.0-0.0,,,,,,,,,,,,,,,632c78dac01ee4ebd60f742c,09:14:09,03/04/2024
1720.0,,,ospan,symmetry,lcPxvkUYUya7Qe119QQwGRlr57E3,symmetry-judgement-task,83,932217,0.0-46.0-2.0-1.0-1.0-0.0,,,,,,,,,,1.0,1.0,,,,632c78dac01ee4ebd60f742c,09:14:09,03/04/2024
,"<div style=""font-size: 10rem; color: #0000FF"">K</div>",,ospan,letter,lcPxvkUYUya7Qe119QQwGRlr57E3,html-keyboard-response,84,933233,0.0-46.0-2.0-1.0-1.0-1.0,,,,,,,,,,,,,,,632c78dac01ee4ebd60f742c,09:14:09,03/04/2024
1491.0,,,ospan,symmetry,lcPxvkUYUya7Qe119QQwGRlr57E3,symmetry-judgement-task,85,936827,0.0-46.0-2.0-1.0-1.0-2.0,,,,,,,,,,1.0,1.0,,,,632c78dac01ee4ebd60f742c,09:14:09,03/04/2024
,"<div style=""font-size: 10rem; color: #0000FF"">S</div>",,ospan,letter,lcPxvkUYUya7Qe119QQwGRlr57E3,html-keyboard-response,86,937838,0.0-46.0-2.0-1.0-1.0-3.0,,,,,,,,,,,,,,,632c78dac01ee4ebd60f742c,09:14:09,03/04/2024
1055.0,,,ospan,symmetry,lcPxvkUYUya7Qe119QQwGRlr57E3,symmetry-judgement-task,87,940986,0.0-46.0-2.0-1.0-1.0-4.0,,,,,,,,,,1.0,1.0,,,,632c78dac01ee4ebd60f742c,09:14:09,03/04/2024
,"<div style=""font-size: 10rem; color: #0000FF"">H</div>",,ospan,letter,lcPxvkUYUya7Qe119QQwGRlr57E3,html-keyboard-response,88,941992,0.0-46.0-2.0-1.0-1.0-5.0,,,,,,,,,,,,,,,632c78dac01ee4ebd60f742c,09:14:09,03/04/2024
5299.800000190735,"<div class = numbox><p style=""font-size: 2.4rem"">Please recall the letters you saw to the best of your ability. If you do not remember a particular letter, use the SKIP button.<br><b>(When you are ready to lock in your answer, press ENTER)</b></p><button id = button_1 class = ""square num-button"" onclick = ""recordClick(this)""><div class = content><div class = numbers>C</div></div></button><button id = button_2 class = ""square num-button"" onclick = ""recordClick(this)""><div class = content><div class = numbers>G</div></div></button><button id = button_3 class = ""square num-button"" onclick = ""recordClick(this)""><div class = content><div class = numbers>H</div></div></button><button id = button_4 class = ""square num-button"" onclick = ""recordClick(this)""><div class = content><div class = numbers>J</div></div></button><button id = button_5 class = ""square num-button"" onclick = ""recordClick(this)""><div class = content><div class = numbers>K</div></div></button><button id = button_6 class = ""square num-button"" onclick = ""recordClick(this)""><div class = content><div class = numbers>L</div></div></button><button id = button_7 class = ""square num-button"" onclick = ""recordClick(this)""><div class = content><div class = numbers>N</div></div></button><button id = button_8 class = ""square num-button"" onclick = ""recordClick(this)""><div class = content><div class = numbers>P</div></div></button><button id = button_9 class = ""square num-button"" onclick = ""recordClick(this)""><div class = content><div class = numbers>Q</div></div></button><button id = button_10 class = ""square num-button"" onclick = ""recordClick(this)""><div class = content><div class = numbers>R</div></div></button><button id = button_11 class = ""square num-button"" onclick = ""recordClick(this)""><div class = content><div class = numbers>S</div></div></button><button id = button_12 class = ""square num-button"" onclick = ""recordClick(this)""><div class = content><div class = numbers>Y</div></div></button><button class = clear_button id = ""ClearButton"" onclick = ""clearResponse()"">BACKSPACE</button><button class = blank_button id = ""BlankButton"" onclick = ""blankResponse()"">SKIP</button><p style=""font-size: 2.4rem""><u><b>Current Answer:</b></u></p><br><br><div id=echoed_txt style=""font-size: 5rem; color:blue;""><b></b></div></div>",enter,ospan,retrieval,lcPxvkUYUya7Qe119QQwGRlr57E3,html-keyboard-response,89,948047,0.0-46.0-2.0-1.0-2.0-0.0,NA,NA,NA,3.0,"[""K"",""S"",""H""]","[""K"",""S"",""H""]",1.0,3.0,"['<font color=""green"">K</font>', '<font color=""green"">S</font>', '<font color=""green"">H</font>']",,,,,,632c78dac01ee4ebd60f742c,09:14:09,03/04/2024
1267.9000000953674,"['<p style=""font-size:44px"">Letters:<br><br><br><font color=""green"">K</font> <font color=""green"">S</font> <font color=""green"">H</font></p><br><br><p style=""font-size:30px"">Symmetry:<br><br><font color=""green"">100%</font></p><br><br>']",0,ospan,practice_feedback,lcPxvkUYUya7Qe119QQwGRlr57E3,html-button-response,90,949827,0.0-46.0-2.0-1.0-2.0-1.0,,,,,,,,,,,,,,,632c78dac01ee4ebd60f742c,09:14:09,03/04/2024
,"<p style=""font-size:75px;"">...</p>",,ospan,iti,lcPxvkUYUya7Qe119QQwGRlr57E3,html-keyboard-response,91,950842,0.0-46.0-2.0-2.0-0.0,,,,,,,,,,,,,,,632c78dac01ee4ebd60f742c,09:14:09,03/04/2024
1184.0,,,ospan,symmetry,lcPxvkUYUya7Qe119QQwGRlr57E3,symmetry-judgement-task,92,953428,0.0-46.0-2.0-2.0-1.0-0.0,,,,,,,,,,1.0,1.0,,,,632c78dac01ee4ebd60f742c,09:14:09,03/04/2024
,"<div style=""font-size: 10rem; color: #0000FF"">S</div>",,ospan,letter,lcPxvkUYUya7Qe119QQwGRlr57E3,html-keyboard-response,93,954441,0.0-46.0-2.0-2.0-1.0-1.0,,,,,,,,,,,,,,,632c78dac01ee4ebd60f742c,09:14:09,03/04/2024
1027.0,,,ospan,symmetry,lcPxvkUYUya7Qe119QQwGRlr57E3,symmetry-judgement-task,94,957591,0.0-46.0-2.0-2.0-1.0-2.0,,,,,,,,,,1.0,1.0,,,,632c78dac01ee4ebd60f742c,09:14:09,03/04/2024
,"<div style=""font-size: 10rem; color: #0000FF"">P</div>",,ospan,letter,lcPxvkUYUya7Qe119QQwGRlr57E3,html-keyboard-response,95,958600,0.0-46.0-2.0-2.0-1.0-3.0,,,,,,,,,,,,,,,632c78dac01ee4ebd60f742c,09:14:09,03/04/2024
1316.0,,,ospan,symmetry,lcPxvkUYUya7Qe119QQwGRlr57E3,symmetry-judgement-task,96,962061,0.0-46.0-2.0-2.0-1.0-4.0,,,,,,,,,,1.0,1.0,,,,632c78dac01ee4ebd60f742c,09:14:09,03/04/2024
,"<div style=""font-size: 10rem; color: #0000FF"">C</div>",,ospan,letter,lcPxvkUYUya7Qe119QQwGRlr57E3,html-keyboard-response,97,963071,0.0-46.0-2.0-2.0-1.0-5.0,,,,,,,,,,,,,,,632c78dac01ee4ebd60f742c,09:14:09,03/04/2024
6138.300000190735,"<div class = numbox><p style=""font-size: 2.4rem"">Please recall the letters you saw to the best of your ability. If you do not remember a particular letter, use the SKIP button.<br><b>(When you are ready to lock in your answer, press ENTER)</b></p><button id = button_1 class = ""square num-button"" onclick = ""recordClick(this)""><div class = content><div class = numbers>C</div></div></button><button id = button_2 class = ""square num-button"" onclick = ""recordClick(this)""><div class = content><div class = numbers>G</div></div></button><button id = button_3 class = ""square num-button"" onclick = ""recordClick(this)""><div class = content><div class = numbers>H</div></div></button><button id = button_4 class = ""square num-button"" onclick = ""recordClick(this)""><div class = content><div class = numbers>J</div></div></button><button id = button_5 class = ""square num-button"" onclick = ""recordClick(this)""><div class = content><div class = numbers>K</div></div></button><button id = button_6 class = ""square num-button"" onclick = ""recordClick(this)""><div class = content><div class = numbers>L</div></div></button><button id = button_7 class = ""square num-button"" onclick = ""recordClick(this)""><div class = content><div class = numbers>N</div></div></button><button id = button_8 class = ""square num-button"" onclick = ""recordClick(this)""><div class = content><div class = numbers>P</div></div></button><button id = button_9 class = ""square num-button"" onclick = ""recordClick(this)""><div class = content><div class = numbers>Q</div></div></button><button id = button_10 class = ""square num-button"" onclick = ""recordClick(this)""><div class = content><div class = numbers>R</div></div></button><button id = button_11 class = ""square num-button"" onclick = ""recordClick(this)""><div class = content><div class = numbers>S</div></div></button><button id = button_12 class = ""square num-button"" onclick = ""recordClick(this)""><div class = content><div class = numbers>Y</div></div></button><button class = clear_button id = ""ClearButton"" onclick = ""clearResponse()"">BACKSPACE</button><button class = blank_button id = ""BlankButton"" onclick = ""blankResponse()"">SKIP</button><p style=""font-size: 2.4rem""><u><b>Current Answer:</b></u></p><br><br><div id=echoed_txt style=""font-size: 5rem; color:blue;""><b></b></div></div>",enter,ospan,retrieval,lcPxvkUYUya7Qe119QQwGRlr57E3,html-keyboard-response,98,969964,0.0-46.0-2.0-2.0-2.0-0.0,NA,NA,NA,3.0,"[""S"",""P"",""C""]","[""S"",""P"",""C""]",1.0,3.0,"['<font color=""green"">S</font>', '<font color=""green"">P</font>', '<font color=""green"">C</font>']",,,,,,632c78dac01ee4ebd60f742c,09:14:09,03/04/2024
1206.7999999523163,"['<p style=""font-size:44px"">Letters:<br><br><br><font color=""green"">S</font> <font color=""green"">P</font> <font color=""green"">C</font></p><br><br><p style=""font-size:30px"">Symmetry:<br><br><font color=""green"">100%</font></p><br><br>']",0,ospan,practice_feedback,lcPxvkUYUya7Qe119QQwGRlr57E3,html-button-response,99,971675,0.0-46.0-2.0-2.0-2.0-1.0,,,,,,,,,,,,,,,632c78dac01ee4ebd60f742c,09:14:09,03/04/2024
3390.300000190735,"<div class = 'left_align' style='font-size: 3rem; line-height: 1.3;'><b>Great work! That is the end of practice.</b><br><br>The real trials will look just like the practice trials you just completed.<br><br><u>Here, you will not see feedback</u>. First, you will see an grid picture to judge,<br>then a letter to remember. When the recall screen appears, report the letters in the<br>order presented. If you forget a letter, remember to use the <b>blank</b> button to move to the<br>next letter. Some of the sets will have more symmetry grids and letters than others.<br><br>It is important that you do your best on both the symmetry judgments and the letter recall<br>parts of the experiment. For for the symmetry judgments, try to work as <b>quickly</b> and <br>as <b>accurately</b> as possible. Remember to keep your symmetry accuracy at 85% or above.<br><br><b>For the letters, do NOT use any external aid (e.g., writing on paper, electronic device).</b><br><br>It is <u>very important</u> to our experiment to have a <b>true</b> view of your real performance.<br><br>Do not worry if you miss some when it gets hard! This task is meant to be very challenging!<br><br>Click the button to begin.</div><br><br><br><br>",0,ospan,starting_real_here,lcPxvkUYUya7Qe119QQwGRlr57E3,html-button-response,100,975067,0.0-46.0-2.0-3.0,,,,,,,,,,,,,,,632c78dac01ee4ebd60f742c,09:14:09,03/04/2024
,"<p style=""font-size:75px;"">...</p>",,ospan,iti,lcPxvkUYUya7Qe119QQwGRlr57E3,html-keyboard-response,101,976329,0.0-46.0-3.0-0.0-0.0,,,,,,,,,,,,,,,632c78dac01ee4ebd60f742c,09:14:09,03/04/2024
1269.0,,,ospan,symmetry,lcPxvkUYUya7Qe119QQwGRlr57E3,symmetry-judgement-task,102,978970,0.0-46.0-3.0-0.0-1.0-0.0,,,,,,,,,,1.0,1.0,,,,632c78dac01ee4ebd60f742c,09:14:09,03/04/2024
,"<div style=""font-size: 10rem; color: #0000FF"">J</div>",,ospan,letter,lcPxvkUYUya7Qe119QQwGRlr57E3,html-keyboard-response,103,979972,0.0-46.0-3.0-0.0-1.0-1.0,,,,,,,,,,,,,,,632c78dac01ee4ebd60f742c,09:14:09,03/04/2024
1108.0,,,ospan,symmetry,lcPxvkUYUya7Qe119QQwGRlr57E3,symmetry-judgement-task,104,983169,0.0-46.0-3.0-0.0-1.0-2.0,,,,,,,,,,1.0,1.0,,,,632c78dac01ee4ebd60f742c,09:14:09,03/04/2024
,"<div style=""font-size: 10rem; color: #0000FF"">Y</div>",,ospan,letter,lcPxvkUYUya7Qe119QQwGRlr57E3,html-keyboard-response,105,984182,0.0-46.0-3.0-0.0-1.0-3.0,,,,,,,,,,,,,,,632c78dac01ee4ebd60f742c,09:14:09,03/04/2024
1073.0,,,ospan,symmetry,lcPxvkUYUya7Qe119QQwGRlr57E3,symmetry-judgement-task,106,987351,0.0-46.0-3.0-0.0-1.0-4.0,,,,,,,,,,1.0,1.0,,,,632c78dac01ee4ebd60f742c,09:14:09,03/04/2024
,"<div style=""font-size: 10rem; color: #0000FF"">N</div>",,ospan,letter,lcPxvkUYUya7Qe119QQwGRlr57E3,html-keyboard-response,107,988367,0.0-46.0-3.0-0.0-1.0-5.0,,,,,,,,,,,,,,,632c78dac01ee4ebd60f742c,09:14:09,03/04/2024
5238.5,"<div class = numbox><p style=""font-size: 2.4rem"">Please recall the letters you saw to the best of your ability. If you do not remember a particular letter, use the SKIP button.<br><b>(When you are ready to lock in your answer, press ENTER)</b></p><button id = button_1 class = ""square num-button"" onclick = ""recordClick(this)""><div class = content><div class = numbers>C</div></div></button><button id = button_2 class = ""square num-button"" onclick = ""recordClick(this)""><div class = content><div class = numbers>G</div></div></button><button id = button_3 class = ""square num-button"" onclick = ""recordClick(this)""><div class = content><div class = numbers>H</div></div></button><button id = button_4 class = ""square num-button"" onclick = ""recordClick(this)""><div class = content><div class = numbers>J</div></div></button><button id = button_5 class = ""square num-button"" onclick = ""recordClick(this)""><div class = content><div class = numbers>K</div></div></button><button id = button_6 class = ""square num-button"" onclick = ""recordClick(this)""><div class = content><div class = numbers>L</div></div></button><button id = button_7 class = ""square num-button"" onclick = ""recordClick(this)""><div class = content><div class = numbers>N</div></div></button><button id = button_8 class = ""square num-button"" onclick = ""recordClick(this)""><div class = content><div class = numbers>P</div></div></button><button id = button_9 class = ""square num-button"" onclick = ""recordClick(this)""><div class = content><div class = numbers>Q</div></div></button><button id = button_10 class = ""square num-button"" onclick = ""recordClick(this)""><div class = content><div class = numbers>R</div></div></button><button id = button_11 class = ""square num-button"" onclick = ""recordClick(this)""><div class = content><div class = numbers>S</div></div></button><button id = button_12 class = ""square num-button"" onclick = ""recordClick(this)""><div class = content><div class = numbers>Y</div></div></button><button class = clear_button id = ""ClearButton"" onclick = ""clearResponse()"">BACKSPACE</button><button class = blank_button id = ""BlankButton"" onclick = ""blankResponse()"">SKIP</button><p style=""font-size: 2.4rem""><u><b>Current Answer:</b></u></p><br><br><div id=echoed_txt style=""font-size: 5rem; color:blue;""><b></b></div></div>",enter,ospan,retrieval,lcPxvkUYUya7Qe119QQwGRlr57E3,html-keyboard-response,108,994370,0.0-46.0-3.0-0.0-2.0,3,3,3,3.0,"[""J"",""Y"",""N""]","[""J"",""Y"",""N""]",1.0,3.0,,,,,,,632c78dac01ee4ebd60f742c,09:14:09,03/04/2024
1467.8000001907349,[''],0,ospan,feedback,lcPxvkUYUya7Qe119QQwGRlr57E3,html-button-response,109,996353,0.0-46.0-3.0-0.0-3.0,,,,,,,,,,,,100.0,0.0,,632c78dac01ee4ebd60f742c,09:14:09,03/04/2024
,"<p style=""font-size:75px;"">...</p>",,ospan,iti,lcPxvkUYUya7Qe119QQwGRlr57E3,html-keyboard-response,110,997372,0.0-46.0-4.0-0.0-0.0,,,,,,,,,,,,,,,632c78dac01ee4ebd60f742c,09:14:09,03/04/2024
1582.0,,,ospan,symmetry,lcPxvkUYUya7Qe119QQwGRlr57E3,symmetry-judgement-task,111,1000323,0.0-46.0-4.0-0.0-1.0-0.0,,,,,,,,,,1.0,1.0,,,,632c78dac01ee4ebd60f742c,09:14:09,03/04/2024
,"<div style=""font-size: 10rem; color: #0000FF"">C</div>",,ospan,letter,lcPxvkUYUya7Qe119QQwGRlr57E3,html-keyboard-response,112,1001340,0.0-46.0-4.0-0.0-1.0-1.0,,,,,,,,,,,,,,,632c78dac01ee4ebd60f742c,09:14:09,03/04/2024
1032.0,,,ospan,symmetry,lcPxvkUYUya7Qe119QQwGRlr57E3,symmetry-judgement-task,113,1004469,0.0-46.0-4.0-0.0-1.0-2.0,,,,,,,,,,1.0,1.0,,,,632c78dac01ee4ebd60f742c,09:14:09,03/04/2024
,"<div style=""font-size: 10rem; color: #0000FF"">R</div>",,ospan,letter,lcPxvkUYUya7Qe119QQwGRlr57E3,html-keyboard-response,114,1005482,0.0-46.0-4.0-0.0-1.0-3.0,,,,,,,,,,,,,,,632c78dac01ee4ebd60f742c,09:14:09,03/04/2024
1387.0,,,ospan,symmetry,lcPxvkUYUya7Qe119QQwGRlr57E3,symmetry-judgement-task,115,1009105,0.0-46.0-4.0-0.0-1.0-4.0,,,,,,,,,,1.0,1.0,,,,632c78dac01ee4ebd60f742c,09:14:09,03/04/2024
,"<div style=""font-size: 10rem; color: #0000FF"">L</div>",,ospan,letter,lcPxvkUYUya7Qe119QQwGRlr57E3,html-keyboard-response,116,1010112,0.0-46.0-4.0-0.0-1.0-5.0,,,,,,,,,,,,,,,632c78dac01ee4ebd60f742c,09:14:09,03/04/2024
1031.0,,,ospan,symmetry,lcPxvkUYUya7Qe119QQwGRlr57E3,symmetry-judgement-task,117,1013261,0.0-46.0-4.0-0.0-1.0-6.0,,,,,,,,,,1.0,1.0,,,,632c78dac01ee4ebd60f742c,09:14:09,03/04/2024
,"<div style=""font-size: 10rem; color: #0000FF"">P</div>",,ospan,letter,lcPxvkUYUya7Qe119QQwGRlr57E3,html-keyboard-response,118,1014274,0.0-46.0-4.0-0.0-1.0-7.0,,,,,,,,,,,,,,,632c78dac01ee4ebd60f742c,09:14:09,03/04/2024
5199.599999904633,"<div class = numbox><p style=""font-size: 2.4rem"">Please recall the letters you saw to the best of your ability. If you do not remember a particular letter, use the SKIP button.<br><b>(When you are ready to lock in your answer, press ENTER)</b></p><button id = button_1 class = ""square num-button"" onclick = ""recordClick(this)""><div class = content><div class = numbers>C</div></div></button><button id = button_2 class = ""square num-button"" onclick = ""recordClick(this)""><div class = content><div class = numbers>G</div></div></button><button id = button_3 class = ""square num-button"" onclick = ""recordClick(this)""><div class = content><div class = numbers>H</div></div></button><button id = button_4 class = ""square num-button"" onclick = ""recordClick(this)""><div class = content><div class = numbers>J</div></div></button><button id = button_5 class = ""square num-button"" onclick = ""recordClick(this)""><div class = content><div class = numbers>K</div></div></button><button id = button_6 class = ""square num-button"" onclick = ""recordClick(this)""><div class = content><div class = numbers>L</div></div></button><button id = button_7 class = ""square num-button"" onclick = ""recordClick(this)""><div class = content><div class = numbers>N</div></div></button><button id = button_8 class = ""square num-button"" onclick = ""recordClick(this)""><div class = content><div class = numbers>P</div></div></button><button id = button_9 class = ""square num-button"" onclick = ""recordClick(this)""><div class = content><div class = numbers>Q</div></div></button><button id = button_10 class = ""square num-button"" onclick = ""recordClick(this)""><div class = content><div class = numbers>R</div></div></button><button id = button_11 class = ""square num-button"" onclick = ""recordClick(this)""><div class = content><div class = numbers>S</div></div></button><button id = button_12 class = ""square num-button"" onclick = ""recordClick(this)""><div class = content><div class = numbers>Y</div></div></button><button class = clear_button id = ""ClearButton"" onclick = ""clearResponse()"">BACKSPACE</button><button class = blank_button id = ""BlankButton"" onclick = ""blankResponse()"">SKIP</button><p style=""font-size: 2.4rem""><u><b>Current Answer:</b></u></p><br><br><div id=echoed_txt style=""font-size: 5rem; color:blue;""><b></b></div></div>",enter,ospan,retrieval,lcPxvkUYUya7Qe119QQwGRlr57E3,html-keyboard-response,119,1020238,0.0-46.0-4.0-0.0-2.0,7,7,7,4.0,"[""C"",""R"",""L"",""P""]","[""C"",""R"",""L"",""P""]",1.0,4.0,,,,,,,632c78dac01ee4ebd60f742c,09:14:09,03/04/2024
1137.0,[''],0,ospan,feedback,lcPxvkUYUya7Qe119QQwGRlr57E3,html-button-response,120,1021881,0.0-46.0-4.0-0.0-3.0,,,,,,,,,,,,100.0,0.0,,632c78dac01ee4ebd60f742c,09:14:09,03/04/2024
,"<p style=""font-size:75px;"">...</p>",,ospan,iti,lcPxvkUYUya7Qe119QQwGRlr57E3,html-keyboard-response,121,1022890,0.0-46.0-4.0-1.0-0.0,,,,,,,,,,,,,,,632c78dac01ee4ebd60f742c,09:14:09,03/04/2024
1523.0,,,ospan,symmetry,lcPxvkUYUya7Qe119QQwGRlr57E3,symmetry-judgement-task,122,1025739,0.0-46.0-4.0-1.0-1.0-0.0,,,,,,,,,,1.0,1.0,,,,632c78dac01ee4ebd60f742c,09:14:09,03/04/2024
,"<div style=""font-size: 10rem; color: #0000FF"">S</div>",,ospan,letter,lcPxvkUYUya7Qe119QQwGRlr57E3,html-keyboard-response,123,1026747,0.0-46.0-4.0-1.0-1.0-1.0,,,,,,,,,,,,,,,632c78dac01ee4ebd60f742c,09:14:09,03/04/2024
1122.0,,,ospan,symmetry,lcPxvkUYUya7Qe119QQwGRlr57E3,symmetry-judgement-task,124,1029966,0.0-46.0-4.0-1.0-1.0-2.0,,,,,,,,,,1.0,1.0,,,,632c78dac01ee4ebd60f742c,09:14:09,03/04/2024
,"<div style=""font-size: 10rem; color: #0000FF"">Y</div>",,ospan,letter,lcPxvkUYUya7Qe119QQwGRlr57E3,html-keyboard-response,125,1030969,0.0-46.0-4.0-1.0-1.0-3.0,,,,,,,,,,,,,,,632c78dac01ee4ebd60f742c,09:14:09,03/04/2024
1428.0,,,ospan,symmetry,lcPxvkUYUya7Qe119QQwGRlr57E3,symmetry-judgement-task,126,1034538,0.0-46.0-4.0-1.0-1.0-4.0,,,,,,,,,,1.0,1.0,,,,632c78dac01ee4ebd60f742c,09:14:09,03/04/2024
,"<div style=""font-size: 10rem; color: #0000FF"">N</div>",,ospan,letter,lcPxvkUYUya7Qe119QQwGRlr57E3,html-keyboard-response,127,1035542,0.0-46.0-4.0-1.0-1.0-5.0,,,,,,,,,,,,,,,632c78dac01ee4ebd60f742c,09:14:09,03/04/2024
1103.0,,,ospan,symmetry,lcPxvkUYUya7Qe119QQwGRlr57E3,symmetry-judgement-task,128,1038762,0.0-46.0-4.0-1.0-1.0-6.0,,,,,,,,,,1.0,1.0,,,,632c78dac01ee4ebd60f742c,09:14:09,03/04/2024
,"<div style=""font-size: 10rem; color: #0000FF"">Q</div>",,ospan,letter,lcPxvkUYUya7Qe119QQwGRlr57E3,html-keyboard-response,129,1039767,0.0-46.0-4.0-1.0-1.0-7.0,,,,,,,,,,,,,,,632c78dac01ee4ebd60f742c,09:14:09,03/04/2024
1277.0,,,ospan,symmetry,lcPxvkUYUya7Qe119QQwGRlr57E3,symmetry-judgement-task,130,1043124,0.0-46.0-4.0-1.0-1.0-8.0,,,,,,,,,,1.0,1.0,,,,632c78dac01ee4ebd60f742c,09:14:09,03/04/2024
,"<div style=""font-size: 10rem; color: #0000FF"">P</div>",,ospan,letter,lcPxvkUYUya7Qe119QQwGRlr57E3,html-keyboard-response,131,1044134,0.0-46.0-4.0-1.0-1.0-9.0,,,,,,,,,,,,,,,632c78dac01ee4ebd60f742c,09:14:09,03/04/2024
5565.900000095367,"<div class = numbox><p style=""font-size: 2.4rem"">Please recall the letters you saw to the best of your ability. If you do not remember a particular letter, use the SKIP button.<br><b>(When you are ready to lock in your answer, press ENTER)</b></p><button id = button_1 class = ""square num-button"" onclick = ""recordClick(this)""><div class = content><div class = numbers>C</div></div></button><button id = button_2 class = ""square num-button"" onclick = ""recordClick(this)""><div class = content><div class = numbers>G</div></div></button><button id = button_3 class = ""square num-button"" onclick = ""recordClick(this)""><div class = content><div class = numbers>H</div></div></button><button id = button_4 class = ""square num-button"" onclick = ""recordClick(this)""><div class = content><div class = numbers>J</div></div></button><button id = button_5 class = ""square num-button"" onclick = ""recordClick(this)""><div class = content><div class = numbers>K</div></div></button><button id = button_6 class = ""square num-button"" onclick = ""recordClick(this)""><div class = content><div class = numbers>L</div></div></button><button id = button_7 class = ""square num-button"" onclick = ""recordClick(this)""><div class = content><div class = numbers>N</div></div></button><button id = button_8 class = ""square num-button"" onclick = ""recordClick(this)""><div class = content><div class = numbers>P</div></div></button><button id = button_9 class = ""square num-button"" onclick = ""recordClick(this)""><div class = content><div class = numbers>Q</div></div></button><button id = button_10 class = ""square num-button"" onclick = ""recordClick(this)""><div class = content><div class = numbers>R</div></div></button><button id = button_11 class = ""square num-button"" onclick = ""recordClick(this)""><div class = content><div class = numbers>S</div></div></button><button id = button_12 class = ""square num-button"" onclick = ""recordClick(this)""><div class = content><div class = numbers>Y</div></div></button><button class = clear_button id = ""ClearButton"" onclick = ""clearResponse()"">BACKSPACE</button><button class = blank_button id = ""BlankButton"" onclick = ""blankResponse()"">SKIP</button><p style=""font-size: 2.4rem""><u><b>Current Answer:</b></u></p><br><br><div id=echoed_txt style=""font-size: 5rem; color:blue;""><b></b></div></div>",enter,ospan,retrieval,lcPxvkUYUya7Qe119QQwGRlr57E3,html-keyboard-response,132,1050465,0.0-46.0-4.0-1.0-2.0,12,12,12,5.0,"[""S"",""Y"",""N"",""Q"",""P""]","[""S"",""Y"",""N"",""Q"",""P""]",1.0,5.0,,,,,,,632c78dac01ee4ebd60f742c,09:14:09,03/04/2024
1131.8999998569489,[''],0,ospan,feedback,lcPxvkUYUya7Qe119QQwGRlr57E3,html-button-response,133,1052106,0.0-46.0-4.0-1.0-3.0,,,,,,,,,,,,100.0,0.0,,632c78dac01ee4ebd60f742c,09:14:09,03/04/2024
,"<p style=""font-size:75px;"">...</p>",,ospan,iti,lcPxvkUYUya7Qe119QQwGRlr57E3,html-keyboard-response,134,1053117,0.0-46.0-4.0-2.0-0.0,,,,,,,,,,,,,,,632c78dac01ee4ebd60f742c,09:14:09,03/04/2024
1310.0,,,ospan,symmetry,lcPxvkUYUya7Qe119QQwGRlr57E3,symmetry-judgement-task,135,1055796,0.0-46.0-4.0-2.0-1.0-0.0,,,,,,,,,,1.0,1.0,,,,632c78dac01ee4ebd60f742c,09:14:09,03/04/2024
,"<div style=""font-size: 10rem; color: #0000FF"">Y</div>",,ospan,letter,lcPxvkUYUya7Qe119QQwGRlr57E3,html-keyboard-response,136,1056804,0.0-46.0-4.0-2.0-1.0-1.0,,,,,,,,,,,,,,,632c78dac01ee4ebd60f742c,09:14:09,03/04/2024
1195.0,,,ospan,symmetry,lcPxvkUYUya7Qe119QQwGRlr57E3,symmetry-judgement-task,137,1060087,0.0-46.0-4.0-2.0-1.0-2.0,,,,,,,,,,1.0,1.0,,,,632c78dac01ee4ebd60f742c,09:14:09,03/04/2024
,"<div style=""font-size: 10rem; color: #0000FF"">J</div>",,ospan,letter,lcPxvkUYUya7Qe119QQwGRlr57E3,html-keyboard-response,138,1061101,0.0-46.0-4.0-2.0-1.0-3.0,,,,,,,,,,,,,,,632c78dac01ee4ebd60f742c,09:14:09,03/04/2024
676.0,,,ospan,symmetry,lcPxvkUYUya7Qe119QQwGRlr57E3,symmetry-judgement-task,139,1063925,0.0-46.0-4.0-2.0-1.0-4.0,,,,,,,,,,1.0,1.0,,,,632c78dac01ee4ebd60f742c,09:14:09,03/04/2024
,"<div style=""font-size: 10rem; color: #0000FF"">Q</div>",,ospan,letter,lcPxvkUYUya7Qe119QQwGRlr57E3,html-keyboard-response,140,1064939,0.0-46.0-4.0-2.0-1.0-5.0,,,,,,,,,,,,,,,632c78dac01ee4ebd60f742c,09:14:09,03/04/2024
4916.0,"<div class = numbox><p style=""font-size: 2.4rem"">Please recall the letters you saw to the best of your ability. If you do not remember a particular letter, use the SKIP button.<br><b>(When you are ready to lock in your answer, press ENTER)</b></p><button id = button_1 class = ""square num-button"" onclick = ""recordClick(this)""><div class = content><div class = numbers>C</div></div></button><button id = button_2 class = ""square num-button"" onclick = ""recordClick(this)""><div class = content><div class = numbers>G</div></div></button><button id = button_3 class = ""square num-button"" onclick = ""recordClick(this)""><div class = content><div class = numbers>H</div></div></button><button id = button_4 class = ""square num-button"" onclick = ""recordClick(this)""><div class = content><div class = numbers>J</div></div></button><button id = button_5 class = ""square num-button"" onclick = ""recordClick(this)""><div class = content><div class = numbers>K</div></div></button><button id = button_6 class = ""square num-button"" onclick = ""recordClick(this)""><div class = content><div class = numbers>L</div></div></button><button id = button_7 class = ""square num-button"" onclick = ""recordClick(this)""><div class = content><div class = numbers>N</div></div></button><button id = button_8 class = ""square num-button"" onclick = ""recordClick(this)""><div class = content><div class = numbers>P</div></div></button><button id = button_9 class = ""square num-button"" onclick = ""recordClick(this)""><div class = content><div class = numbers>Q</div></div></button><button id = button_10 class = ""square num-button"" onclick = ""recordClick(this)""><div class = content><div class = numbers>R</div></div></button><button id = button_11 class = ""square num-button"" onclick = ""recordClick(this)""><div class = content><div class = numbers>S</div></div></button><button id = button_12 class = ""square num-button"" onclick = ""recordClick(this)""><div class = content><div class = numbers>Y</div></div></button><button class = clear_button id = ""ClearButton"" onclick = ""clearResponse()"">BACKSPACE</button><button class = blank_button id = ""BlankButton"" onclick = ""blankResponse()"">SKIP</button><p style=""font-size: 2.4rem""><u><b>Current Answer:</b></u></p><br><br><div id=echoed_txt style=""font-size: 5rem; color:blue;""><b></b></div></div>",enter,ospan,retrieval,lcPxvkUYUya7Qe119QQwGRlr57E3,html-keyboard-response,141,1070609,0.0-46.0-4.0-2.0-2.0,15,15,15,3.0,"[""Y"",""J"",""Q""]","[""Y"",""J"",""Q""]",1.0,3.0,,,,,,,632c78dac01ee4ebd60f742c,09:14:09,03/04/2024
1390.7999999523163,[''],0,ospan,feedback,lcPxvkUYUya7Qe119QQwGRlr57E3,html-button-response,142,1072514,0.0-46.0-4.0-2.0-3.0,,,,,,,,,,,,100.0,0.0,,632c78dac01ee4ebd60f742c,09:14:09,03/04/2024
,"<p style=""font-size:75px;"">...</p>",,ospan,iti,lcPxvkUYUya7Qe119QQwGRlr57E3,html-keyboard-response,143,1073519,0.0-46.0-5.0-0.0-0.0,,,,,,,,,,,,,,,632c78dac01ee4ebd60f742c,09:14:09,03/04/2024
1664.0,,,ospan,symmetry,lcPxvkUYUya7Qe119QQwGRlr57E3,symmetry-judgement-task,144,1076556,0.0-46.0-5.0-0.0-1.0-0.0,,,,,,,,,,1.0,1.0,,,,632c78dac01ee4ebd60f742c,09:14:09,03/04/2024
,"<div style=""font-size: 10rem; color: #0000FF"">J</div>",,ospan,letter,lcPxvkUYUya7Qe119QQwGRlr57E3,html-keyboard-response,145,1077565,0.0-46.0-5.0-0.0-1.0-1.0,,,,,,,,,,,,,,,632c78dac01ee4ebd60f742c,09:14:09,03/04/2024
1237.0,,,ospan,symmetry,lcPxvkUYUya7Qe119QQwGRlr57E3,symmetry-judgement-task,146,1080666,0.0-46.0-5.0-0.0-1.0-2.0,,,,,,,,,,1.0,1.0,,,,632c78dac01ee4ebd60f742c,09:14:09,03/04/2024
,"<div style=""font-size: 10rem; color: #0000FF"">P</div>",,ospan,letter,lcPxvkUYUya7Qe119QQwGRlr57E3,html-keyboard-response,147,1081669,0.0-46.0-5.0-0.0-1.0-3.0,,,,,,,,,,,,,,,632c78dac01ee4ebd60f742c,09:14:09,03/04/2024
996.0,,,ospan,symmetry,lcPxvkUYUya7Qe119QQwGRlr57E3,symmetry-judgement-task,148,1084760,0.0-46.0-5.0-0.0-1.0-4.0,,,,,,,,,,1.0,1.0,,,,632c78dac01ee4ebd60f742c,09:14:09,03/04/2024
,"<div style=""font-size: 10rem; color: #0000FF"">R</div>",,ospan,letter,lcPxvkUYUya7Qe119QQwGRlr57E3,html-keyboard-response,149,1085769,0.0-46.0-5.0-0.0-1.0-5.0,,,,,,,,,,,,,,,632c78dac01ee4ebd60f742c,09:14:09,03/04/2024
1298.0,,,ospan,symmetry,lcPxvkUYUya7Qe119QQwGRlr57E3,symmetry-judgement-task,150,1089174,0.0-46.0-5.0-0.0-1.0-6.0,,,,,,,,,,1.0,1.0,,,,632c78dac01ee4ebd60f742c,09:14:09,03/04/2024
,"<div style=""font-size: 10rem; color: #0000FF"">C</div>",,ospan,letter,lcPxvkUYUya7Qe119QQwGRlr57E3,html-keyboard-response,151,1090183,0.0-46.0-5.0-0.0-1.0-7.0,,,,,,,,,,,,,,,632c78dac01ee4ebd60f742c,09:14:09,03/04/2024
1123.0,,,ospan,symmetry,lcPxvkUYUya7Qe119QQwGRlr57E3,symmetry-judgement-task,152,1093452,0.0-46.0-5.0-0.0-1.0-8.0,,,,,,,,,,1.0,1.0,,,,632c78dac01ee4ebd60f742c,09:14:09,03/04/2024
,"<div style=""font-size: 10rem; color: #0000FF"">L</div>",,ospan,letter,lcPxvkUYUya7Qe119QQwGRlr57E3,html-keyboard-response,153,1094465,0.0-46.0-5.0-0.0-1.0-9.0,,,,,,,,,,,,,,,632c78dac01ee4ebd60f742c,09:14:09,03/04/2024
1437.0,,,ospan,symmetry,lcPxvkUYUya7Qe119QQwGRlr57E3,symmetry-judgement-task,154,1098029,0.0-46.0-5.0-0.0-1.0-10.0,,,,,,,,,,1.0,1.0,,,,632c78dac01ee4ebd60f742c,09:14:09,03/04/2024
,"<div style=""font-size: 10rem; color: #0000FF"">N</div>",,ospan,letter,lcPxvkUYUya7Qe119QQwGRlr57E3,html-keyboard-response,155,1099037,0.0-46.0-5.0-0.0-1.0-11.0,,,,,,,,,,,,,,,632c78dac01ee4ebd60f742c,09:14:09,03/04/2024
11967.299999952316,"<div class = numbox><p style=""font-size: 2.4rem"">Please recall the letters you saw to the best of your ability. If you do not remember a particular letter, use the SKIP button.<br><b>(When you are ready to lock in your answer, press ENTER)</b></p><button id = button_1 class = ""square num-button"" onclick = ""recordClick(this)""><div class = content><div class = numbers>C</div></div></button><button id = button_2 class = ""square num-button"" onclick = ""recordClick(this)""><div class = content><div class = numbers>G</div></div></button><button id = button_3 class = ""square num-button"" onclick = ""recordClick(this)""><div class = content><div class = numbers>H</div></div></button><button id = button_4 class = ""square num-button"" onclick = ""recordClick(this)""><div class = content><div class = numbers>J</div></div></button><button id = button_5 class = ""square num-button"" onclick = ""recordClick(this)""><div class = content><div class = numbers>K</div></div></button><button id = button_6 class = ""square num-button"" onclick = ""recordClick(this)""><div class = content><div class = numbers>L</div></div></button><button id = button_7 class = ""square num-button"" onclick = ""recordClick(this)""><div class = content><div class = numbers>N</div></div></button><button id = button_8 class = ""square num-button"" onclick = ""recordClick(this)""><div class = content><div class = numbers>P</div></div></button><button id = button_9 class = ""square num-button"" onclick = ""recordClick(this)""><div class = content><div class = numbers>Q</div></div></button><button id = button_10 class = ""square num-button"" onclick = ""recordClick(this)""><div class = content><div class = numbers>R</div></div></button><button id = button_11 class = ""square num-button"" onclick = ""recordClick(this)""><div class = content><div class = numbers>S</div></div></button><button id = button_12 class = ""square num-button"" onclick = ""recordClick(this)""><div class = content><div class = numbers>Y</div></div></button><button class = clear_button id = ""ClearButton"" onclick = ""clearResponse()"">BACKSPACE</button><button class = blank_button id = ""BlankButton"" onclick = ""blankResponse()"">SKIP</button><p style=""font-size: 2.4rem""><u><b>Current Answer:</b></u></p><br><br><div id=echoed_txt style=""font-size: 5rem; color:blue;""><b></b></div></div>",enter,ospan,retrieval,lcPxvkUYUya7Qe119QQwGRlr57E3,html-keyboard-response,156,1111757,0.0-46.0-5.0-0.0-2.0,21,21,21,6.0,"[""J"",""P"",""R"",""C"",""L"",""N""]","[""J"",""P"",""R"",""C"",""L"",""N""]",1.0,6.0,,,,,,,632c78dac01ee4ebd60f742c,09:14:09,03/04/2024
1321.9000000953674,[''],0,ospan,feedback,lcPxvkUYUya7Qe119QQwGRlr57E3,html-button-response,157,1113595,0.0-46.0-5.0-0.0-3.0,,,,,,,,,,,,100.0,0.0,,632c78dac01ee4ebd60f742c,09:14:09,03/04/2024
,"<p style=""font-size:75px;"">...</p>",,ospan,iti,lcPxvkUYUya7Qe119QQwGRlr57E3,html-keyboard-response,158,1114608,0.0-46.0-5.0-1.0-0.0,,,,,,,,,,,,,,,632c78dac01ee4ebd60f742c,09:14:09,03/04/2024
1557.0,,,ospan,symmetry,lcPxvkUYUya7Qe119QQwGRlr57E3,symmetry-judgement-task,159,1117263,0.0-46.0-5.0-1.0-1.0-0.0,,,,,,,,,,1.0,1.0,,,,632c78dac01ee4ebd60f742c,09:14:09,03/04/2024
,"<div style=""font-size: 10rem; color: #0000FF"">K</div>",,ospan,letter,lcPxvkUYUya7Qe119QQwGRlr57E3,html-keyboard-response,160,1118277,0.0-46.0-5.0-1.0-1.0-1.0,,,,,,,,,,,,,,,632c78dac01ee4ebd60f742c,09:14:09,03/04/2024
1724.0,,,ospan,symmetry,lcPxvkUYUya7Qe119QQwGRlr57E3,symmetry-judgement-task,161,1122105,0.0-46.0-5.0-1.0-1.0-2.0,,,,,,,,,,1.0,1.0,,,,632c78dac01ee4ebd60f742c,09:14:09,03/04/2024
,"<div style=""font-size: 10rem; color: #0000FF"">J</div>",,ospan,letter,lcPxvkUYUya7Qe119QQwGRlr57E3,html-keyboard-response,162,1123119,0.0-46.0-5.0-1.0-1.0-3.0,,,,,,,,,,,,,,,632c78dac01ee4ebd60f742c,09:14:09,03/04/2024
847.0,,,ospan,symmetry,lcPxvkUYUya7Qe119QQwGRlr57E3,symmetry-judgement-task,163,1126070,0.0-46.0-5.0-1.0-1.0-4.0,,,,,,,,,,1.0,1.0,,,,632c78dac01ee4ebd60f742c,09:14:09,03/04/2024
,"<div style=""font-size: 10rem; color: #0000FF"">S</div>",,ospan,letter,lcPxvkUYUya7Qe119QQwGRlr57E3,html-keyboard-response,164,1127080,0.0-46.0-5.0-1.0-1.0-5.0,,,,,,,,,,,,,,,632c78dac01ee4ebd60f742c,09:14:09,03/04/2024
1526.0,,,ospan,symmetry,lcPxvkUYUya7Qe119QQwGRlr57E3,symmetry-judgement-task,165,1130697,0.0-46.0-5.0-1.0-1.0-6.0,,,,,,,,,,1.0,1.0,,,,632c78dac01ee4ebd60f742c,09:14:09,03/04/2024
,"<div style=""font-size: 10rem; color: #0000FF"">Q</div>",,ospan,letter,lcPxvkUYUya7Qe119QQwGRlr57E3,html-keyboard-response,166,1131712,0.0-46.0-5.0-1.0-1.0-7.0,,,,,,,,,,,,,,,632c78dac01ee4ebd60f742c,09:14:09,03/04/2024
990.0,,,ospan,symmetry,lcPxvkUYUya7Qe119QQwGRlr57E3,symmetry-judgement-task,167,1134793,0.0-46.0-5.0-1.0-1.0-8.0,,,,,,,,,,1.0,1.0,,,,632c78dac01ee4ebd60f742c,09:14:09,03/04/2024
,"<div style=""font-size: 10rem; color: #0000FF"">N</div>",,ospan,letter,lcPxvkUYUya7Qe119QQwGRlr57E3,html-keyboard-response,168,1135805,0.0-46.0-5.0-1.0-1.0-9.0,,,,,,,,,,,,,,,632c78dac01ee4ebd60f742c,09:14:09,03/04/2024
1744.0,,,ospan,symmetry,lcPxvkUYUya7Qe119QQwGRlr57E3,symmetry-judgement-task,169,1139699,0.0-46.0-5.0-1.0-1.0-10.0,,,,,,,,,,1.0,1.0,,,,632c78dac01ee4ebd60f742c,09:14:09,03/04/2024
,"<div style=""font-size: 10rem; color: #0000FF"">P</div>",,ospan,letter,lcPxvkUYUya7Qe119QQwGRlr57E3,html-keyboard-response,170,1140717,0.0-46.0-5.0-1.0-1.0-11.0,,,,,,,,,,,,,,,632c78dac01ee4ebd60f742c,09:14:09,03/04/2024
1405.0,,,ospan,symmetry,lcPxvkUYUya7Qe119QQwGRlr57E3,symmetry-judgement-task,171,1144253,0.0-46.0-5.0-1.0-1.0-12.0,,,,,,,,,,1.0,1.0,,,,632c78dac01ee4ebd60f742c,09:14:09,03/04/2024
,"<div style=""font-size: 10rem; color: #0000FF"">L</div>",,ospan,letter,lcPxvkUYUya7Qe119QQwGRlr57E3,html-keyboard-response,172,1145268,0.0-46.0-5.0-1.0-1.0-13.0,,,,,,,,,,,,,,,632c78dac01ee4ebd60f742c,09:14:09,03/04/2024
8647.799999952316,"<div class = numbox><p style=""font-size: 2.4rem"">Please recall the letters you saw to the best of your ability. If you do not remember a particular letter, use the SKIP button.<br><b>(When you are ready to lock in your answer, press ENTER)</b></p><button id = button_1 class = ""square num-button"" onclick = ""recordClick(this)""><div class = content><div class = numbers>C</div></div></button><button id = button_2 class = ""square num-button"" onclick = ""recordClick(this)""><div class = content><div class = numbers>G</div></div></button><button id = button_3 class = ""square num-button"" onclick = ""recordClick(this)""><div class = content><div class = numbers>H</div></div></button><button id = button_4 class = ""square num-button"" onclick = ""recordClick(this)""><div class = content><div class = numbers>J</div></div></button><button id = button_5 class = ""square num-button"" onclick = ""recordClick(this)""><div class = content><div class = numbers>K</div></div></button><button id = button_6 class = ""square num-button"" onclick = ""recordClick(this)""><div class = content><div class = numbers>L</div></div></button><button id = button_7 class = ""square num-button"" onclick = ""recordClick(this)""><div class = content><div class = numbers>N</div></div></button><button id = button_8 class = ""square num-button"" onclick = ""recordClick(this)""><div class = content><div class = numbers>P</div></div></button><button id = button_9 class = ""square num-button"" onclick = ""recordClick(this)""><div class = content><div class = numbers>Q</div></div></button><button id = button_10 class = ""square num-button"" onclick = ""recordClick(this)""><div class = content><div class = numbers>R</div></div></button><button id = button_11 class = ""square num-button"" onclick = ""recordClick(this)""><div class = content><div class = numbers>S</div></div></button><button id = button_12 class = ""square num-button"" onclick = ""recordClick(this)""><div class = content><div class = numbers>Y</div></div></button><button class = clear_button id = ""ClearButton"" onclick = ""clearResponse()"">BACKSPACE</button><button class = blank_button id = ""BlankButton"" onclick = ""blankResponse()"">SKIP</button><p style=""font-size: 2.4rem""><u><b>Current Answer:</b></u></p><br><br><div id=echoed_txt style=""font-size: 5rem; color:blue;""><b></b></div></div>",enter,ospan,retrieval,lcPxvkUYUya7Qe119QQwGRlr57E3,html-keyboard-response,173,1154680,0.0-46.0-5.0-1.0-2.0,28,26,21,7.0,"[""K"",""J"",""S"",""Q"",""P"",""N"",""L""]","[""K"",""J"",""S"",""Q"",""N"",""P"",""L""]",0.0,5.0,,,,,,,632c78dac01ee4ebd60f742c,09:14:09,03/04/2024
1310.2999999523163,[''],0,ospan,feedback,lcPxvkUYUya7Qe119QQwGRlr57E3,html-button-response,174,1156496,0.0-46.0-5.0-1.0-3.0,,,,,,,,,,,,100.0,0.0,,632c78dac01ee4ebd60f742c,09:14:09,03/04/2024
,"<p style=""font-size:75px;"">...</p>",,ospan,iti,lcPxvkUYUya7Qe119QQwGRlr57E3,html-keyboard-response,175,1157503,0.0-46.0-6.0-0.0-0.0,,,,,,,,,,,,,,,632c78dac01ee4ebd60f742c,09:14:09,03/04/2024
1965.0,,,ospan,symmetry,lcPxvkUYUya7Qe119QQwGRlr57E3,symmetry-judgement-task,176,1160838,0.0-46.0-6.0-0.0-1.0-0.0,,,,,,,,,,1.0,1.0,,,,632c78dac01ee4ebd60f742c,09:14:09,03/04/2024
,"<div style=""font-size: 10rem; color: #0000FF"">G</div>",,ospan,letter,lcPxvkUYUya7Qe119QQwGRlr57E3,html-keyboard-response,177,1161848,0.0-46.0-6.0-0.0-1.0-1.0,,,,,,,,,,,,,,,632c78dac01ee4ebd60f742c,09:14:09,03/04/2024
1899.0,,,ospan,symmetry,lcPxvkUYUya7Qe119QQwGRlr57E3,symmetry-judgement-task,178,1165846,0.0-46.0-6.0-0.0-1.0-2.0,,,,,,,,,,1.0,1.0,,,,632c78dac01ee4ebd60f742c,09:14:09,03/04/2024
,"<div style=""font-size: 10rem; color: #0000FF"">J</div>",,ospan,letter,lcPxvkUYUya7Qe119QQwGRlr57E3,html-keyboard-response,179,1166848,0.0-46.0-6.0-0.0-1.0-3.0,,,,,,,,,,,,,,,632c78dac01ee4ebd60f742c,09:14:09,03/04/2024
1259.0,,,ospan,symmetry,lcPxvkUYUya7Qe119QQwGRlr57E3,symmetry-judgement-task,180,1170256,0.0-46.0-6.0-0.0-1.0-4.0,,,,,,,,,,1.0,1.0,,,,632c78dac01ee4ebd60f742c,09:14:09,03/04/2024
,"<div style=""font-size: 10rem; color: #0000FF"">H</div>",,ospan,letter,lcPxvkUYUya7Qe119QQwGRlr57E3,html-keyboard-response,181,1171263,0.0-46.0-6.0-0.0-1.0-5.0,,,,,,,,,,,,,,,632c78dac01ee4ebd60f742c,09:14:09,03/04/2024
1544.0,,,ospan,symmetry,lcPxvkUYUya7Qe119QQwGRlr57E3,symmetry-judgement-task,182,1174948,0.0-46.0-6.0-0.0-1.0-6.0,,,,,,,,,,1.0,1.0,,,,632c78dac01ee4ebd60f742c,09:14:09,03/04/2024
,"<div style=""font-size: 10rem; color: #0000FF"">N</div>",,ospan,letter,lcPxvkUYUya7Qe119QQwGRlr57E3,html-keyboard-response,183,1175964,0.0-46.0-6.0-0.0-1.0-7.0,,,,,,,,,,,,,,,632c78dac01ee4ebd60f742c,09:14:09,03/04/2024
2031.0,,,ospan,symmetry,lcPxvkUYUya7Qe119QQwGRlr57E3,symmetry-judgement-task,184,1180098,0.0-46.0-6.0-0.0-1.0-8.0,,,,,,,,,,1.0,1.0,,,,632c78dac01ee4ebd60f742c,09:14:09,03/04/2024
,"<div style=""font-size: 10rem; color: #0000FF"">Y</div>",,ospan,letter,lcPxvkUYUya7Qe119QQwGRlr57E3,html-keyboard-response,185,1181106,0.0-46.0-6.0-0.0-1.0-9.0,,,,,,,,,,,,,,,632c78dac01ee4ebd60f742c,09:14:09,03/04/2024
5404.899999856949,"<div class = numbox><p style=""font-size: 2.4rem"">Please recall the letters you saw to the best of your ability. If you do not remember a particular letter, use the SKIP button.<br><b>(When you are ready to lock in your answer, press ENTER)</b></p><button id = button_1 class = ""square num-button"" onclick = ""recordClick(this)""><div class = content><div class = numbers>C</div></div></button><button id = button_2 class = ""square num-button"" onclick = ""recordClick(this)""><div class = content><div class = numbers>G</div></div></button><button id = button_3 class = ""square num-button"" onclick = ""recordClick(this)""><div class = content><div class = numbers>H</div></div></button><button id = button_4 class = ""square num-button"" onclick = ""recordClick(this)""><div class = content><div class = numbers>J</div></div></button><button id = button_5 class = ""square num-button"" onclick = ""recordClick(this)""><div class = content><div class = numbers>K</div></div></button><button id = button_6 class = ""square num-button"" onclick = ""recordClick(this)""><div class = content><div class = numbers>L</div></div></button><button id = button_7 class = ""square num-button"" onclick = ""recordClick(this)""><div class = content><div class = numbers>N</div></div></button><button id = button_8 class = ""square num-button"" onclick = ""recordClick(this)""><div class = content><div class = numbers>P</div></div></button><button id = button_9 class = ""square num-button"" onclick = ""recordClick(this)""><div class = content><div class = numbers>Q</div></div></button><button id = button_10 class = ""square num-button"" onclick = ""recordClick(this)""><div class = content><div class = numbers>R</div></div></button><button id = button_11 class = ""square num-button"" onclick = ""recordClick(this)""><div class = content><div class = numbers>S</div></div></button><button id = button_12 class = ""square num-button"" onclick = ""recordClick(this)""><div class = content><div class = numbers>Y</div></div></button><button class = clear_button id = ""ClearButton"" onclick = ""clearResponse()"">BACKSPACE</button><button class = blank_button id = ""BlankButton"" onclick = ""blankResponse()"">SKIP</button><p style=""font-size: 2.4rem""><u><b>Current Answer:</b></u></p><br><br><div id=echoed_txt style=""font-size: 5rem; color:blue;""><b></b></div></div>",enter,ospan,retrieval,lcPxvkUYUya7Qe119QQwGRlr57E3,html-keyboard-response,186,1187273,0.0-46.0-6.0-0.0-2.0,33,31,26,5.0,"[""G"",""J"",""H"",""N"",""Y""]","[""G"",""J"",""H"",""N"",""Y""]",1.0,5.0,,,,,,,632c78dac01ee4ebd60f742c,09:14:09,03/04/2024
1182.5999999046326,[''],0,ospan,feedback,lcPxvkUYUya7Qe119QQwGRlr57E3,html-button-response,187,1188958,0.0-46.0-6.0-0.0-3.0,,,,,,,,,,,,100.0,0.0,,632c78dac01ee4ebd60f742c,09:14:09,03/04/2024
,"<p style=""font-size:75px;"">...</p>",,ospan,iti,lcPxvkUYUya7Qe119QQwGRlr57E3,html-keyboard-response,188,1189974,0.0-46.0-6.0-1.0-0.0,,,,,,,,,,,,,,,632c78dac01ee4ebd60f742c,09:14:09,03/04/2024
2612.0,,,ospan,symmetry,lcPxvkUYUya7Qe119QQwGRlr57E3,symmetry-judgement-task,189,1193941,0.0-46.0-6.0-1.0-1.0-0.0,,,,,,,,,,1.0,1.0,,,,632c78dac01ee4ebd60f742c,09:14:09,03/04/2024
,"<div style=""font-size: 10rem; color: #0000FF"">C</div>",,ospan,letter,lcPxvkUYUya7Qe119QQwGRlr57E3,html-keyboard-response,190,1194946,0.0-46.0-6.0-1.0-1.0-1.0,,,,,,,,,,,,,,,632c78dac01ee4ebd60f742c,09:14:09,03/04/2024
1881.0,,,ospan,symmetry,lcPxvkUYUya7Qe119QQwGRlr57E3,symmetry-judgement-task,191,1198936,0.0-46.0-6.0-1.0-1.0-2.0,,,,,,,,,,1.0,1.0,,,,632c78dac01ee4ebd60f742c,09:14:09,03/04/2024
,"<div style=""font-size: 10rem; color: #0000FF"">G</div>",,ospan,letter,lcPxvkUYUya7Qe119QQwGRlr57E3,html-keyboard-response,192,1199947,0.0-46.0-6.0-1.0-1.0-3.0,,,,,,,,,,,,,,,632c78dac01ee4ebd60f742c,09:14:09,03/04/2024
2221.0,,,ospan,symmetry,lcPxvkUYUya7Qe119QQwGRlr57E3,symmetry-judgement-task,193,1204293,0.0-46.0-6.0-1.0-1.0-4.0,,,,,,,,,,1.0,1.0,,,,632c78dac01ee4ebd60f742c,09:14:09,03/04/2024
,"<div style=""font-size: 10rem; color: #0000FF"">Q</div>",,ospan,letter,lcPxvkUYUya7Qe119QQwGRlr57E3,html-keyboard-response,194,1205308,0.0-46.0-6.0-1.0-1.0-5.0,,,,,,,,,,,,,,,632c78dac01ee4ebd60f742c,09:14:09,03/04/2024
1326.0,,,ospan,symmetry,lcPxvkUYUya7Qe119QQwGRlr57E3,symmetry-judgement-task,195,1208799,0.0-46.0-6.0-1.0-1.0-6.0,,,,,,,,,,1.0,1.0,,,,632c78dac01ee4ebd60f742c,09:14:09,03/04/2024
,"<div style=""font-size: 10rem; color: #0000FF"">R</div>",,ospan,letter,lcPxvkUYUya7Qe119QQwGRlr57E3,html-keyboard-response,196,1209805,0.0-46.0-6.0-1.0-1.0-7.0,,,,,,,,,,,,,,,632c78dac01ee4ebd60f742c,09:14:09,03/04/2024
1301.0,,,ospan,symmetry,lcPxvkUYUya7Qe119QQwGRlr57E3,symmetry-judgement-task,197,1213246,0.0-46.0-6.0-1.0-1.0-8.0,,,,,,,,,,1.0,1.0,,,,632c78dac01ee4ebd60f742c,09:14:09,03/04/2024
,"<div style=""font-size: 10rem; color: #0000FF"">J</div>",,ospan,letter,lcPxvkUYUya7Qe119QQwGRlr57E3,html-keyboard-response,198,1214264,0.0-46.0-6.0-1.0-1.0-9.0,,,,,,,,,,,,,,,632c78dac01ee4ebd60f742c,09:14:09,03/04/2024
2884.0,,,ospan,symmetry,lcPxvkUYUya7Qe119QQwGRlr57E3,symmetry-judgement-task,199,1219222,0.0-46.0-6.0-1.0-1.0-10.0,,,,,,,,,,1.0,1.0,,,,632c78dac01ee4ebd60f742c,09:14:09,03/04/2024
,"<div style=""font-size: 10rem; color: #0000FF"">K</div>",,ospan,letter,lcPxvkUYUya7Qe119QQwGRlr57E3,html-keyboard-response,200,1220227,0.0-46.0-6.0-1.0-1.0-11.0,,,,,,,,,,,,,,,632c78dac01ee4ebd60f742c,09:14:09,03/04/2024
826.0,,,ospan,symmetry,lcPxvkUYUya7Qe119QQwGRlr57E3,symmetry-judgement-task,201,1223181,0.0-46.0-6.0-1.0-1.0-12.0,,,,,,,,,,1.0,1.0,,,,632c78dac01ee4ebd60f742c,09:14:09,03/04/2024
,"<div style=""font-size: 10rem; color: #0000FF"">H</div>",,ospan,letter,lcPxvkUYUya7Qe119QQwGRlr57E3,html-keyboard-response,202,1224184,0.0-46.0-6.0-1.0-1.0-13.0,,,,,,,,,,,,,,,632c78dac01ee4ebd60f742c,09:14:09,03/04/2024
1294.0,,,ospan,symmetry,lcPxvkUYUya7Qe119QQwGRlr57E3,symmetry-judgement-task,203,1227562,0.0-46.0-6.0-1.0-1.0-14.0,,,,,,,,,,1.0,1.0,,,,632c78dac01ee4ebd60f742c,09:14:09,03/04/2024
,"<div style=""font-size: 10rem; color: #0000FF"">N</div>",,ospan,letter,lcPxvkUYUya7Qe119QQwGRlr57E3,html-keyboard-response,204,1228574,0.0-46.0-6.0-1.0-1.0-15.0,,,,,,,,,,,,,,,632c78dac01ee4ebd60f742c,09:14:09,03/04/2024
7759.899999856949,"<div class = numbox><p style=""font-size: 2.4rem"">Please recall the letters you saw to the best of your ability. If you do not remember a particular letter, use the SKIP button.<br><b>(When you are ready to lock in your answer, press ENTER)</b></p><button id = button_1 class = ""square num-button"" onclick = ""recordClick(this)""><div class = content><div class = numbers>C</div></div></button><button id = button_2 class = ""square num-button"" onclick = ""recordClick(this)""><div class = content><div class = numbers>G</div></div></button><button id = button_3 class = ""square num-button"" onclick = ""recordClick(this)""><div class = content><div class = numbers>H</div></div></button><button id = button_4 class = ""square num-button"" onclick = ""recordClick(this)""><div class = content><div class = numbers>J</div></div></button><button id = button_5 class = ""square num-button"" onclick = ""recordClick(this)""><div class = content><div class = numbers>K</div></div></button><button id = button_6 class = ""square num-button"" onclick = ""recordClick(this)""><div class = content><div class = numbers>L</div></div></button><button id = button_7 class = ""square num-button"" onclick = ""recordClick(this)""><div class = content><div class = numbers>N</div></div></button><button id = button_8 class = ""square num-button"" onclick = ""recordClick(this)""><div class = content><div class = numbers>P</div></div></button><button id = button_9 class = ""square num-button"" onclick = ""recordClick(this)""><div class = content><div class = numbers>Q</div></div></button><button id = button_10 class = ""square num-button"" onclick = ""recordClick(this)""><div class = content><div class = numbers>R</div></div></button><button id = button_11 class = ""square num-button"" onclick = ""recordClick(this)""><div class = content><div class = numbers>S</div></div></button><button id = button_12 class = ""square num-button"" onclick = ""recordClick(this)""><div class = content><div class = numbers>Y</div></div></button><button class = clear_button id = ""ClearButton"" onclick = ""clearResponse()"">BACKSPACE</button><button class = blank_button id = ""BlankButton"" onclick = ""blankResponse()"">SKIP</button><p style=""font-size: 2.4rem""><u><b>Current Answer:</b></u></p><br><br><div id=echoed_txt style=""font-size: 5rem; color:blue;""><b></b></div></div>",enter,ospan,retrieval,lcPxvkUYUya7Qe119QQwGRlr57E3,html-keyboard-response,205,1237101,0.0-46.0-6.0-1.0-2.0,41,36,26,8.0,"[""C"",""G"",""Q"",""R"",""J""]","[""C"",""G"",""Q"",""R"",""J"",""K"",""H"",""N""]",0.0,5.0,,,,,,,632c78dac01ee4ebd60f742c,09:14:09,03/04/2024
1287.7999999523163,[''],0,ospan,feedback,lcPxvkUYUya7Qe119QQwGRlr57E3,html-button-response,206,1238893,0.0-46.0-6.0-1.0-3.0,,,,,,,,,,,,100.0,0.0,,632c78dac01ee4ebd60f742c,09:14:09,03/04/2024
18844.900000095367,,{'Q0': 'enjoyed recalling in my head'},ospan,survey_ospan,lcPxvkUYUya7Qe119QQwGRlr57E3,lmdlab-survey-text,207,1258505,0.0-46.0-7.0,,,,,,,,,,,,,,lcPxvkUYUya7Qe119QQwGRlr57E3,632c78dac01ee4ebd60f742c,09:14:09,03/04/2024
2212.2000000476837,<p><p style='font-size: 3rem'>Great work!<br><br>This completes the symmetry and memory task.</p><br><br><br>,0,ospan,finish,lcPxvkUYUya7Qe119QQwGRlr57E3,html-button-response,208,1260724,0.0-46.0-8.0,41,36,26,,,,,,,,,100.0,,,632c78dac01ee4ebd60f742c,09:14:09,03/04/2024
