rt,stimulus,response,exp_name,exp_stage,subjectID,trial_type,trial_index,time_elapsed,internal_node_id,ospan_shown,ospan_total,ospan_abs,length,resp_actual,resp_correct,full_correct,num_correct,feedback,accuracy,correct,math_acc,math_warning,databaseID,prolificID,start_time,date
1908.0,<div class = 'left_align' style='font-size: 3.25rem; line-height: 1.3;'><p class = 'center_align'><b>Welcome to the Symmetry and Memory Task</b><br><br><br><br></p>Press 'continue' to show the instructions.<br><br><br><br></div>,0,ospan,instruct,W7GgjpN9ZHSiHW44EDxP0gHCR4k2,html-button-response,54,440268,0.0-46.0-0.0-0.0-0.0,,,,,,,,,,,,,,,5c4068a67f81e900012b281e,16:18:31,03/04/2024
8880.699999999953,"<div class = 'left_align' style='font-size: 3.25rem; line-height: 1.3;'><p class = 'center_align'><b>Symmetry and Memory Task</b><br><br></p>In this task, you will try to memorize letters you see on the screen<br>while you also view black and white grid pictures.<br><br>In the next few minutes, you will have some practice to get you familiar<br>with how the task works.<br><br>It may be difficult sometimes, but please do not worry about making mistakes!<br><br>We will begin by practicing the letter part of the task.<br><br><br><br></div>",0,ospan,instruct,W7GgjpN9ZHSiHW44EDxP0gHCR4k2,html-button-response,55,449400,0.0-46.0-0.0-0.0-1.0,,,,,,,,,,,,,,,5c4068a67f81e900012b281e,16:18:31,03/04/2024
12074.699999999953,"<div class = 'left_align' style='font-size: 3.25rem; line-height: 1.3;'>For this practice part, letters will appear on the screen one at a time.<br><br>Try to remember each letter in the order presented.<br><br>After some letters have been shown, you will see a response screen. Your<br>goal is to report the letters you saw <b>in order</b>. If you do not remember<br>a particular letter, you will have the option to leave it blank.<br><br><br><br></div>",0,ospan,instruct,W7GgjpN9ZHSiHW44EDxP0gHCR4k2,html-button-response,56,461727,0.0-46.0-0.0-0.0-2.0,,,,,,,,,,,,,,,5c4068a67f81e900012b281e,16:18:31,03/04/2024
3709.600000000093,"<div class = 'left_align' style='font-size: 3.25rem; line-height: 1.3;'>Remember, it is very important to get the letters in the same<br>order as you see them.<br><br>When you are ready, you may begin the letter practice.</div><br><br><br><br>",0,ospan,instruct,W7GgjpN9ZHSiHW44EDxP0gHCR4k2,html-button-response,57,465694,0.0-46.0-0.0-0.0-3.0,,,,,,,,,,,,,,,5c4068a67f81e900012b281e,16:18:31,03/04/2024
,"<p style=""font-size:75px;"">...</p>",,ospan,iti,W7GgjpN9ZHSiHW44EDxP0gHCR4k2,html-keyboard-response,58,466946,0.0-46.0-0.0-1.0-0.0,,,,,,,,,,,,,,,5c4068a67f81e900012b281e,16:18:31,03/04/2024
,"<div style=""font-size: 10rem; color: #0000FF"">N</div>",,ospan,letter,W7GgjpN9ZHSiHW44EDxP0gHCR4k2,html-keyboard-response,59,467955,0.0-46.0-0.0-1.0-1.0,,,,,,,,,,,,,,,5c4068a67f81e900012b281e,16:18:31,03/04/2024
,"<div style=""font-size: 10rem; color: #0000FF"">Y</div>",,ospan,letter,W7GgjpN9ZHSiHW44EDxP0gHCR4k2,html-keyboard-response,60,469706,0.0-46.0-0.0-1.0-2.0,,,,,,,,,,,,,,,5c4068a67f81e900012b281e,16:18:31,03/04/2024
9117.800000000047,"<div class = numbox><p style=""font-size: 2.4rem"">Please recall the letters you saw to the best of your ability. If you do not remember a particular letter, use the SKIP button.<br><b>(When you are ready to lock in your answer, press ENTER)</b></p><button id = button_1 class = ""square num-button"" onclick = ""recordClick(this)""><div class = content><div class = numbers>C</div></div></button><button id = button_2 class = ""square num-button"" onclick = ""recordClick(this)""><div class = content><div class = numbers>G</div></div></button><button id = button_3 class = ""square num-button"" onclick = ""recordClick(this)""><div class = content><div class = numbers>H</div></div></button><button id = button_4 class = ""square num-button"" onclick = ""recordClick(this)""><div class = content><div class = numbers>J</div></div></button><button id = button_5 class = ""square num-button"" onclick = ""recordClick(this)""><div class = content><div class = numbers>K</div></div></button><button id = button_6 class = ""square num-button"" onclick = ""recordClick(this)""><div class = content><div class = numbers>L</div></div></button><button id = button_7 class = ""square num-button"" onclick = ""recordClick(this)""><div class = content><div class = numbers>N</div></div></button><button id = button_8 class = ""square num-button"" onclick = ""recordClick(this)""><div class = content><div class = numbers>P</div></div></button><button id = button_9 class = ""square num-button"" onclick = ""recordClick(this)""><div class = content><div class = numbers>Q</div></div></button><button id = button_10 class = ""square num-button"" onclick = ""recordClick(this)""><div class = content><div class = numbers>R</div></div></button><button id = button_11 class = ""square num-button"" onclick = ""recordClick(this)""><div class = content><div class = numbers>S</div></div></button><button id = button_12 class = ""square num-button"" onclick = ""recordClick(this)""><div class = content><div class = numbers>Y</div></div></button><button class = clear_button id = ""ClearButton"" onclick = ""clearResponse()"">BACKSPACE</button><button class = blank_button id = ""BlankButton"" onclick = ""blankResponse()"">SKIP</button><p style=""font-size: 2.4rem""><u><b>Current Answer:</b></u></p><br><br><div id=echoed_txt style=""font-size: 5rem; color:blue;""><b></b></div></div>",enter,ospan,retrieval,W7GgjpN9ZHSiHW44EDxP0gHCR4k2,html-keyboard-response,61,479575,0.0-46.0-0.0-1.0-3.0,NA,NA,NA,2.0,"[""N"",""Y""]","[""N"",""Y""]",1.0,2.0,"['<font color=""green"">N</font>', '<font color=""green"">Y</font>']",,,,,,5c4068a67f81e900012b281e,16:18:31,03/04/2024
3913.600000000093,"['<p style=""font-size:44px"">Letters:<br><br><br><font color=""green"">N</font> <font color=""green"">Y</font></p><br><br>']",0,ospan,practice_feedback,W7GgjpN9ZHSiHW44EDxP0gHCR4k2,html-button-response,62,483991,0.0-46.0-0.0-1.0-4.0,,,,,,,,,,,,,,,5c4068a67f81e900012b281e,16:18:31,03/04/2024
,"<p style=""font-size:75px;"">...</p>",,ospan,iti,W7GgjpN9ZHSiHW44EDxP0gHCR4k2,html-keyboard-response,63,484993,0.0-46.0-0.0-2.0-0.0,,,,,,,,,,,,,,,5c4068a67f81e900012b281e,16:18:31,03/04/2024
,"<div style=""font-size: 10rem; color: #0000FF"">S</div>",,ospan,letter,W7GgjpN9ZHSiHW44EDxP0gHCR4k2,html-keyboard-response,64,485993,0.0-46.0-0.0-2.0-1.0,,,,,,,,,,,,,,,5c4068a67f81e900012b281e,16:18:31,03/04/2024
,"<div style=""font-size: 10rem; color: #0000FF"">H</div>",,ospan,letter,W7GgjpN9ZHSiHW44EDxP0gHCR4k2,html-keyboard-response,65,487745,0.0-46.0-0.0-2.0-2.0,,,,,,,,,,,,,,,5c4068a67f81e900012b281e,16:18:31,03/04/2024
,"<div style=""font-size: 10rem; color: #0000FF"">R</div>",,ospan,letter,W7GgjpN9ZHSiHW44EDxP0gHCR4k2,html-keyboard-response,66,489501,0.0-46.0-0.0-2.0-3.0,,,,,,,,,,,,,,,5c4068a67f81e900012b281e,16:18:31,03/04/2024
4203.100000000093,"<div class = numbox><p style=""font-size: 2.4rem"">Please recall the letters you saw to the best of your ability. If you do not remember a particular letter, use the SKIP button.<br><b>(When you are ready to lock in your answer, press ENTER)</b></p><button id = button_1 class = ""square num-button"" onclick = ""recordClick(this)""><div class = content><div class = numbers>C</div></div></button><button id = button_2 class = ""square num-button"" onclick = ""recordClick(this)""><div class = content><div class = numbers>G</div></div></button><button id = button_3 class = ""square num-button"" onclick = ""recordClick(this)""><div class = content><div class = numbers>H</div></div></button><button id = button_4 class = ""square num-button"" onclick = ""recordClick(this)""><div class = content><div class = numbers>J</div></div></button><button id = button_5 class = ""square num-button"" onclick = ""recordClick(this)""><div class = content><div class = numbers>K</div></div></button><button id = button_6 class = ""square num-button"" onclick = ""recordClick(this)""><div class = content><div class = numbers>L</div></div></button><button id = button_7 class = ""square num-button"" onclick = ""recordClick(this)""><div class = content><div class = numbers>N</div></div></button><button id = button_8 class = ""square num-button"" onclick = ""recordClick(this)""><div class = content><div class = numbers>P</div></div></button><button id = button_9 class = ""square num-button"" onclick = ""recordClick(this)""><div class = content><div class = numbers>Q</div></div></button><button id = button_10 class = ""square num-button"" onclick = ""recordClick(this)""><div class = content><div class = numbers>R</div></div></button><button id = button_11 class = ""square num-button"" onclick = ""recordClick(this)""><div class = content><div class = numbers>S</div></div></button><button id = button_12 class = ""square num-button"" onclick = ""recordClick(this)""><div class = content><div class = numbers>Y</div></div></button><button class = clear_button id = ""ClearButton"" onclick = ""clearResponse()"">BACKSPACE</button><button class = blank_button id = ""BlankButton"" onclick = ""blankResponse()"">SKIP</button><p style=""font-size: 2.4rem""><u><b>Current Answer:</b></u></p><br><br><div id=echoed_txt style=""font-size: 5rem; color:blue;""><b></b></div></div>",enter,ospan,retrieval,W7GgjpN9ZHSiHW44EDxP0gHCR4k2,html-keyboard-response,67,494457,0.0-46.0-0.0-2.0-4.0,NA,NA,NA,3.0,"[""S"",""H"",""R""]","[""S"",""H"",""R""]",1.0,3.0,"['<font color=""green"">S</font>', '<font color=""green"">H</font>', '<font color=""green"">R</font>']",,,,,,5c4068a67f81e900012b281e,16:18:31,03/04/2024
1016.1000000000931,"['<p style=""font-size:44px"">Letters:<br><br><br><font color=""green"">S</font> <font color=""green"">H</font> <font color=""green"">R</font></p><br><br>']",0,ospan,practice_feedback,W7GgjpN9ZHSiHW44EDxP0gHCR4k2,html-button-response,68,495975,0.0-46.0-0.0-2.0-5.0,,,,,,,,,,,,,,,5c4068a67f81e900012b281e,16:18:31,03/04/2024
16341.800000000047,"<div class = 'left_align' style='font-size: 3.25rem; line-height: 1.3;'>Now you will practice doing the <b>symmetry judgment part</b> of the experiment.<br><br>A black and white grid picture will appear on the screen and you have to judge if it is <br>symmetrical or asymetrical.<br><br>A picture is 'mirror' symmetrical if its left half is identical to the right half when flipped.<br>Here are examples of a symmetrical and an asymetrical picture:<br><br><center><img src='Stimuli/img/symm_instructions_extra.png' style='height:420px; width:900'></img></center><br>To judge symmetry, imagine you were to fold each picture down the middle, like a book –<br>would the left half match the right half when folded onto each other?<br><br></div><br>",0,ospan,instruct,W7GgjpN9ZHSiHW44EDxP0gHCR4k2,html-button-response,69,512318,0.0-46.0-1.0-0.0-0.0,,,,,,,,,,,,,,,5c4068a67f81e900012b281e,16:18:31,03/04/2024
6473.800000000047,"<div class = 'left_align' style='font-size: 3.25rem; line-height: 1.3;'>When you have viewed the picture and determined whether it is symmetrical or not,<br>you can <b>click the Yes or No button</b> below to answer.<br><br>If you take longer than 15 seconds, it will continue automatically<br>and record the answer as an error.</div><br>",0,ospan,instruct,W7GgjpN9ZHSiHW44EDxP0gHCR4k2,html-button-response,70,519042,0.0-46.0-1.0-0.0-1.0,,,,,,,,,,,,,,,5c4068a67f81e900012b281e,16:18:31,03/04/2024
3782.5,"<div class = 'left_align' style='font-size: 3.25rem; line-height: 1.3;'>It is <b>very</b> important that you make the symmetry judgment correctly.<br><br>It is also important that you try and judge the picture as quickly as you can.<br><br>When you are ready, click on the button below to try some practice problems.</div><br><br><br><br>",0,ospan,instruct,W7GgjpN9ZHSiHW44EDxP0gHCR4k2,html-button-response,71,523077,0.0-46.0-1.0-0.0-2.0,,,,,,,,,,,,,,,5c4068a67f81e900012b281e,16:18:31,03/04/2024
1449.0,,,ospan,symmetry,W7GgjpN9ZHSiHW44EDxP0gHCR4k2,symmetry-judgement-task,72,525304,0.0-46.0-1.0-1.0-0.0,,,,,,,,,,1.0,1.0,,,,5c4068a67f81e900012b281e,16:18:31,03/04/2024
,"<p style=""color:green; font-size: 35px"">Correct</p>",,ospan,feedback,W7GgjpN9ZHSiHW44EDxP0gHCR4k2,html-keyboard-response,73,526058,0.0-46.0-1.0-1.0-1.0,,,,,,,,,,,,,,,5c4068a67f81e900012b281e,16:18:31,03/04/2024
1217.0,,,ospan,symmetry,W7GgjpN9ZHSiHW44EDxP0gHCR4k2,symmetry-judgement-task,74,529803,0.0-46.0-1.0-1.0-2.0,,,,,,,,,,1.0,1.0,,,,5c4068a67f81e900012b281e,16:18:31,03/04/2024
,"<p style=""color:green; font-size: 35px"">Correct</p>",,ospan,feedback,W7GgjpN9ZHSiHW44EDxP0gHCR4k2,html-keyboard-response,75,530554,0.0-46.0-1.0-1.0-3.0,,,,,,,,,,,,,,,5c4068a67f81e900012b281e,16:18:31,03/04/2024
1917.0,,,ospan,symmetry,W7GgjpN9ZHSiHW44EDxP0gHCR4k2,symmetry-judgement-task,76,535086,0.0-46.0-1.0-1.0-4.0,,,,,,,,,,1.0,1.0,,,,5c4068a67f81e900012b281e,16:18:31,03/04/2024
,"<p style=""color:green; font-size: 35px"">Correct</p>",,ospan,feedback,W7GgjpN9ZHSiHW44EDxP0gHCR4k2,html-keyboard-response,77,535838,0.0-46.0-1.0-1.0-5.0,,,,,,,,,,,,,,,5c4068a67f81e900012b281e,16:18:31,03/04/2024
1167.5,"<p style=""font-size: 3rem;"">You responded correctly on 3 of 3 symmetry judgments. Good job!</p><br><br>",0,ospan,practice,W7GgjpN9ZHSiHW44EDxP0gHCR4k2,html-button-response,78,539006,0.0-46.0-1.0-2.0,,,,,,,,,,,,,,,5c4068a67f81e900012b281e,16:18:31,03/04/2024
10023.199999999953,"<div class = 'left_align' style='font-size: 3.25rem; line-height: 1.3;'>Now you will practice doing both parts of the experiment at the same time.<br><br>In the next practice set, you will be given one grid picture to judge.<br>Then letter will appear on the screen. Try to remember the letter.<br><br>It is <b>very important</b> to make the symmetry judgment as quickly and accurately as possible.<br><br>Just as before, once you have make the symmetry judgment, you can click Yes or No.<br><b>Note that you will no longer see Correct or Incorrect feedback.</div><br><br><br><br>",0,ospan,instruct,W7GgjpN9ZHSiHW44EDxP0gHCR4k2,html-button-response,79,549281,0.0-46.0-2.0-0.0-0.0,,,,,,,,,,,,,,,5c4068a67f81e900012b281e,16:18:31,03/04/2024
6321.799999999814,"<div class = 'left_align' style='font-size: 3.25rem; line-height: 1.3;'>After the letter goes away, another grid picture will appear, and then<br>another letter.<br><br>At the end of each set of letters and grids, you will recall the letters to the best<br>of your ability. Remember, try your best to get the letters in the correct order.<br><br>It is important to <b>quickly</b> and <b>accurately</b> make the symmetry judgments.</div><br><br><br><br>",0,ospan,instruct,W7GgjpN9ZHSiHW44EDxP0gHCR4k2,html-button-response,80,555855,0.0-46.0-2.0-0.0-1.0,,,,,,,,,,,,,,,5c4068a67f81e900012b281e,16:18:31,03/04/2024
12323.40000000014,"<div class = 'left_align' style='font-size: 3.25rem; line-height: 1.3;'>On the feedback screen, if you are not doing well at the symmetry judgments,<br>you will also see a warning in the middle. This indicates your percent <br>correct for the grid pictures for the entire experiment.<br><br>It is <b>very</b> important for you to keep accuracy at least at 85%: <u>We can only use<br>data where the participant was at least 85% accurate on the judgments.</u> Therefore,<br> please try your best to perform well on the symmetry judgments, <b>at the same time</b><br>doing your best to recall as many letters as possible.<br><br>Click the button to try some practice problems.</div><br><br><br><br>",0,ospan,instruct,W7GgjpN9ZHSiHW44EDxP0gHCR4k2,html-button-response,81,568431,0.0-46.0-2.0-0.0-2.0,,,,,,,,,,,,,,,5c4068a67f81e900012b281e,16:18:31,03/04/2024
,"<p style=""font-size:75px;"">...</p>",,ospan,iti,W7GgjpN9ZHSiHW44EDxP0gHCR4k2,html-keyboard-response,82,569689,0.0-46.0-2.0-1.0-0.0,,,,,,,,,,,,,,,5c4068a67f81e900012b281e,16:18:31,03/04/2024
1163.0,,,ospan,symmetry,W7GgjpN9ZHSiHW44EDxP0gHCR4k2,symmetry-judgement-task,83,571986,0.0-46.0-2.0-1.0-1.0-0.0,,,,,,,,,,1.0,1.0,,,,5c4068a67f81e900012b281e,16:18:31,03/04/2024
,"<div style=""font-size: 10rem; color: #0000FF"">S</div>",,ospan,letter,W7GgjpN9ZHSiHW44EDxP0gHCR4k2,html-keyboard-response,84,572988,0.0-46.0-2.0-1.0-1.0-1.0,,,,,,,,,,,,,,,5c4068a67f81e900012b281e,16:18:31,03/04/2024
1487.0,,,ospan,symmetry,W7GgjpN9ZHSiHW44EDxP0gHCR4k2,symmetry-judgement-task,85,576341,0.0-46.0-2.0-1.0-1.0-2.0,,,,,,,,,,1.0,1.0,,,,5c4068a67f81e900012b281e,16:18:31,03/04/2024
,"<div style=""font-size: 10rem; color: #0000FF"">R</div>",,ospan,letter,W7GgjpN9ZHSiHW44EDxP0gHCR4k2,html-keyboard-response,86,577343,0.0-46.0-2.0-1.0-1.0-3.0,,,,,,,,,,,,,,,5c4068a67f81e900012b281e,16:18:31,03/04/2024
1025.0,,,ospan,symmetry,W7GgjpN9ZHSiHW44EDxP0gHCR4k2,symmetry-judgement-task,87,580225,0.0-46.0-2.0-1.0-1.0-4.0,,,,,,,,,,1.0,1.0,,,,5c4068a67f81e900012b281e,16:18:31,03/04/2024
,"<div style=""font-size: 10rem; color: #0000FF"">P</div>",,ospan,letter,W7GgjpN9ZHSiHW44EDxP0gHCR4k2,html-keyboard-response,88,581226,0.0-46.0-2.0-1.0-1.0-5.0,,,,,,,,,,,,,,,5c4068a67f81e900012b281e,16:18:31,03/04/2024
3236.5999999998603,"<div class = numbox><p style=""font-size: 2.4rem"">Please recall the letters you saw to the best of your ability. If you do not remember a particular letter, use the SKIP button.<br><b>(When you are ready to lock in your answer, press ENTER)</b></p><button id = button_1 class = ""square num-button"" onclick = ""recordClick(this)""><div class = content><div class = numbers>C</div></div></button><button id = button_2 class = ""square num-button"" onclick = ""recordClick(this)""><div class = content><div class = numbers>G</div></div></button><button id = button_3 class = ""square num-button"" onclick = ""recordClick(this)""><div class = content><div class = numbers>H</div></div></button><button id = button_4 class = ""square num-button"" onclick = ""recordClick(this)""><div class = content><div class = numbers>J</div></div></button><button id = button_5 class = ""square num-button"" onclick = ""recordClick(this)""><div class = content><div class = numbers>K</div></div></button><button id = button_6 class = ""square num-button"" onclick = ""recordClick(this)""><div class = content><div class = numbers>L</div></div></button><button id = button_7 class = ""square num-button"" onclick = ""recordClick(this)""><div class = content><div class = numbers>N</div></div></button><button id = button_8 class = ""square num-button"" onclick = ""recordClick(this)""><div class = content><div class = numbers>P</div></div></button><button id = button_9 class = ""square num-button"" onclick = ""recordClick(this)""><div class = content><div class = numbers>Q</div></div></button><button id = button_10 class = ""square num-button"" onclick = ""recordClick(this)""><div class = content><div class = numbers>R</div></div></button><button id = button_11 class = ""square num-button"" onclick = ""recordClick(this)""><div class = content><div class = numbers>S</div></div></button><button id = button_12 class = ""square num-button"" onclick = ""recordClick(this)""><div class = content><div class = numbers>Y</div></div></button><button class = clear_button id = ""ClearButton"" onclick = ""clearResponse()"">BACKSPACE</button><button class = blank_button id = ""BlankButton"" onclick = ""blankResponse()"">SKIP</button><p style=""font-size: 2.4rem""><u><b>Current Answer:</b></u></p><br><br><div id=echoed_txt style=""font-size: 5rem; color:blue;""><b></b></div></div>",enter,ospan,retrieval,W7GgjpN9ZHSiHW44EDxP0gHCR4k2,html-keyboard-response,89,585218,0.0-46.0-2.0-1.0-2.0-0.0,NA,NA,NA,3.0,"[""S"",""R"",""P""]","[""S"",""R"",""P""]",1.0,3.0,"['<font color=""green"">S</font>', '<font color=""green"">R</font>', '<font color=""green"">P</font>']",,,,,,5c4068a67f81e900012b281e,16:18:31,03/04/2024
1651.7000000001863,"['<p style=""font-size:44px"">Letters:<br><br><br><font color=""green"">S</font> <font color=""green"">R</font> <font color=""green"">P</font></p><br><br><p style=""font-size:30px"">Symmetry:<br><br><font color=""green"">100%</font></p><br><br>']",0,ospan,practice_feedback,W7GgjpN9ZHSiHW44EDxP0gHCR4k2,html-button-response,90,587372,0.0-46.0-2.0-1.0-2.0-1.0,,,,,,,,,,,,,,,5c4068a67f81e900012b281e,16:18:31,03/04/2024
,"<p style=""font-size:75px;"">...</p>",,ospan,iti,W7GgjpN9ZHSiHW44EDxP0gHCR4k2,html-keyboard-response,91,588382,0.0-46.0-2.0-2.0-0.0,,,,,,,,,,,,,,,5c4068a67f81e900012b281e,16:18:31,03/04/2024
1701.0,,,ospan,symmetry,W7GgjpN9ZHSiHW44EDxP0gHCR4k2,symmetry-judgement-task,92,591110,0.0-46.0-2.0-2.0-1.0-0.0,,,,,,,,,,1.0,1.0,,,,5c4068a67f81e900012b281e,16:18:31,03/04/2024
,"<div style=""font-size: 10rem; color: #0000FF"">K</div>",,ospan,letter,W7GgjpN9ZHSiHW44EDxP0gHCR4k2,html-keyboard-response,93,592111,0.0-46.0-2.0-2.0-1.0-1.0,,,,,,,,,,,,,,,5c4068a67f81e900012b281e,16:18:31,03/04/2024
1369.0,,,ospan,symmetry,W7GgjpN9ZHSiHW44EDxP0gHCR4k2,symmetry-judgement-task,94,595274,0.0-46.0-2.0-2.0-1.0-2.0,,,,,,,,,,1.0,1.0,,,,5c4068a67f81e900012b281e,16:18:31,03/04/2024
,"<div style=""font-size: 10rem; color: #0000FF"">Y</div>",,ospan,letter,W7GgjpN9ZHSiHW44EDxP0gHCR4k2,html-keyboard-response,95,596275,0.0-46.0-2.0-2.0-1.0-3.0,,,,,,,,,,,,,,,5c4068a67f81e900012b281e,16:18:31,03/04/2024
1392.0,,,ospan,symmetry,W7GgjpN9ZHSiHW44EDxP0gHCR4k2,symmetry-judgement-task,96,599533,0.0-46.0-2.0-2.0-1.0-4.0,,,,,,,,,,1.0,1.0,,,,5c4068a67f81e900012b281e,16:18:31,03/04/2024
,"<div style=""font-size: 10rem; color: #0000FF"">H</div>",,ospan,letter,W7GgjpN9ZHSiHW44EDxP0gHCR4k2,html-keyboard-response,97,600534,0.0-46.0-2.0-2.0-1.0-5.0,,,,,,,,,,,,,,,5c4068a67f81e900012b281e,16:18:31,03/04/2024
5310.899999999907,"<div class = numbox><p style=""font-size: 2.4rem"">Please recall the letters you saw to the best of your ability. If you do not remember a particular letter, use the SKIP button.<br><b>(When you are ready to lock in your answer, press ENTER)</b></p><button id = button_1 class = ""square num-button"" onclick = ""recordClick(this)""><div class = content><div class = numbers>C</div></div></button><button id = button_2 class = ""square num-button"" onclick = ""recordClick(this)""><div class = content><div class = numbers>G</div></div></button><button id = button_3 class = ""square num-button"" onclick = ""recordClick(this)""><div class = content><div class = numbers>H</div></div></button><button id = button_4 class = ""square num-button"" onclick = ""recordClick(this)""><div class = content><div class = numbers>J</div></div></button><button id = button_5 class = ""square num-button"" onclick = ""recordClick(this)""><div class = content><div class = numbers>K</div></div></button><button id = button_6 class = ""square num-button"" onclick = ""recordClick(this)""><div class = content><div class = numbers>L</div></div></button><button id = button_7 class = ""square num-button"" onclick = ""recordClick(this)""><div class = content><div class = numbers>N</div></div></button><button id = button_8 class = ""square num-button"" onclick = ""recordClick(this)""><div class = content><div class = numbers>P</div></div></button><button id = button_9 class = ""square num-button"" onclick = ""recordClick(this)""><div class = content><div class = numbers>Q</div></div></button><button id = button_10 class = ""square num-button"" onclick = ""recordClick(this)""><div class = content><div class = numbers>R</div></div></button><button id = button_11 class = ""square num-button"" onclick = ""recordClick(this)""><div class = content><div class = numbers>S</div></div></button><button id = button_12 class = ""square num-button"" onclick = ""recordClick(this)""><div class = content><div class = numbers>Y</div></div></button><button class = clear_button id = ""ClearButton"" onclick = ""clearResponse()"">BACKSPACE</button><button class = blank_button id = ""BlankButton"" onclick = ""blankResponse()"">SKIP</button><p style=""font-size: 2.4rem""><u><b>Current Answer:</b></u></p><br><br><div id=echoed_txt style=""font-size: 5rem; color:blue;""><b></b></div></div>",enter,ospan,retrieval,W7GgjpN9ZHSiHW44EDxP0gHCR4k2,html-keyboard-response,98,606597,0.0-46.0-2.0-2.0-2.0-0.0,NA,NA,NA,3.0,"[""K"",""Y"",""H""]","[""K"",""Y"",""H""]",1.0,3.0,"['<font color=""green"">K</font>', '<font color=""green"">Y</font>', '<font color=""green"">H</font>']",,,,,,5c4068a67f81e900012b281e,16:18:31,03/04/2024
3331.3000000000466,"['<p style=""font-size:44px"">Letters:<br><br><br><font color=""green"">K</font> <font color=""green"">Y</font> <font color=""green"">H</font></p><br><br><p style=""font-size:30px"">Symmetry:<br><br><font color=""green"">100%</font></p><br><br>']",0,ospan,practice_feedback,W7GgjpN9ZHSiHW44EDxP0gHCR4k2,html-button-response,99,610430,0.0-46.0-2.0-2.0-2.0-1.0,,,,,,,,,,,,,,,5c4068a67f81e900012b281e,16:18:31,03/04/2024
16130.59999999986,"<div class = 'left_align' style='font-size: 3rem; line-height: 1.3;'><b>Great work! That is the end of practice.</b><br><br>The real trials will look just like the practice trials you just completed.<br><br><u>Here, you will not see feedback</u>. First, you will see an grid picture to judge,<br>then a letter to remember. When the recall screen appears, report the letters in the<br>order presented. If you forget a letter, remember to use the <b>blank</b> button to move to the<br>next letter. Some of the sets will have more symmetry grids and letters than others.<br><br>It is important that you do your best on both the symmetry judgments and the letter recall<br>parts of the experiment. For for the symmetry judgments, try to work as <b>quickly</b> and <br>as <b>accurately</b> as possible. Remember to keep your symmetry accuracy at 85% or above.<br><br><b>For the letters, do NOT use any external aid (e.g., writing on paper, electronic device).</b><br><br>It is <u>very important</u> to our experiment to have a <b>true</b> view of your real performance.<br><br>Do not worry if you miss some when it gets hard! This task is meant to be very challenging!<br><br>Click the button to begin.</div><br><br><br><br>",0,ospan,starting_real_here,W7GgjpN9ZHSiHW44EDxP0gHCR4k2,html-button-response,100,626562,0.0-46.0-2.0-3.0,,,,,,,,,,,,,,,5c4068a67f81e900012b281e,16:18:31,03/04/2024
,"<p style=""font-size:75px;"">...</p>",,ospan,iti,W7GgjpN9ZHSiHW44EDxP0gHCR4k2,html-keyboard-response,101,627814,0.0-46.0-3.0-0.0-0.0,,,,,,,,,,,,,,,5c4068a67f81e900012b281e,16:18:31,03/04/2024
1318.0,,,ospan,symmetry,W7GgjpN9ZHSiHW44EDxP0gHCR4k2,symmetry-judgement-task,102,630250,0.0-46.0-3.0-0.0-1.0-0.0,,,,,,,,,,1.0,1.0,,,,5c4068a67f81e900012b281e,16:18:31,03/04/2024
,"<div style=""font-size: 10rem; color: #0000FF"">L</div>",,ospan,letter,W7GgjpN9ZHSiHW44EDxP0gHCR4k2,html-keyboard-response,103,631251,0.0-46.0-3.0-0.0-1.0-1.0,,,,,,,,,,,,,,,5c4068a67f81e900012b281e,16:18:31,03/04/2024
1744.0,,,ospan,symmetry,W7GgjpN9ZHSiHW44EDxP0gHCR4k2,symmetry-judgement-task,104,634863,0.0-46.0-3.0-0.0-1.0-2.0,,,,,,,,,,1.0,1.0,,,,5c4068a67f81e900012b281e,16:18:31,03/04/2024
,"<div style=""font-size: 10rem; color: #0000FF"">R</div>",,ospan,letter,W7GgjpN9ZHSiHW44EDxP0gHCR4k2,html-keyboard-response,105,635872,0.0-46.0-3.0-0.0-1.0-3.0,,,,,,,,,,,,,,,5c4068a67f81e900012b281e,16:18:31,03/04/2024
1170.0,,,ospan,symmetry,W7GgjpN9ZHSiHW44EDxP0gHCR4k2,symmetry-judgement-task,106,638907,0.0-46.0-3.0-0.0-1.0-4.0,,,,,,,,,,1.0,1.0,,,,5c4068a67f81e900012b281e,16:18:31,03/04/2024
,"<div style=""font-size: 10rem; color: #0000FF"">G</div>",,ospan,letter,W7GgjpN9ZHSiHW44EDxP0gHCR4k2,html-keyboard-response,107,639908,0.0-46.0-3.0-0.0-1.0-5.0,,,,,,,,,,,,,,,5c4068a67f81e900012b281e,16:18:31,03/04/2024
3813.1999999999534,"<div class = numbox><p style=""font-size: 2.4rem"">Please recall the letters you saw to the best of your ability. If you do not remember a particular letter, use the SKIP button.<br><b>(When you are ready to lock in your answer, press ENTER)</b></p><button id = button_1 class = ""square num-button"" onclick = ""recordClick(this)""><div class = content><div class = numbers>C</div></div></button><button id = button_2 class = ""square num-button"" onclick = ""recordClick(this)""><div class = content><div class = numbers>G</div></div></button><button id = button_3 class = ""square num-button"" onclick = ""recordClick(this)""><div class = content><div class = numbers>H</div></div></button><button id = button_4 class = ""square num-button"" onclick = ""recordClick(this)""><div class = content><div class = numbers>J</div></div></button><button id = button_5 class = ""square num-button"" onclick = ""recordClick(this)""><div class = content><div class = numbers>K</div></div></button><button id = button_6 class = ""square num-button"" onclick = ""recordClick(this)""><div class = content><div class = numbers>L</div></div></button><button id = button_7 class = ""square num-button"" onclick = ""recordClick(this)""><div class = content><div class = numbers>N</div></div></button><button id = button_8 class = ""square num-button"" onclick = ""recordClick(this)""><div class = content><div class = numbers>P</div></div></button><button id = button_9 class = ""square num-button"" onclick = ""recordClick(this)""><div class = content><div class = numbers>Q</div></div></button><button id = button_10 class = ""square num-button"" onclick = ""recordClick(this)""><div class = content><div class = numbers>R</div></div></button><button id = button_11 class = ""square num-button"" onclick = ""recordClick(this)""><div class = content><div class = numbers>S</div></div></button><button id = button_12 class = ""square num-button"" onclick = ""recordClick(this)""><div class = content><div class = numbers>Y</div></div></button><button class = clear_button id = ""ClearButton"" onclick = ""clearResponse()"">BACKSPACE</button><button class = blank_button id = ""BlankButton"" onclick = ""blankResponse()"">SKIP</button><p style=""font-size: 2.4rem""><u><b>Current Answer:</b></u></p><br><br><div id=echoed_txt style=""font-size: 5rem; color:blue;""><b></b></div></div>",enter,ospan,retrieval,W7GgjpN9ZHSiHW44EDxP0gHCR4k2,html-keyboard-response,108,644473,0.0-46.0-3.0-0.0-2.0,3,3,3,3.0,"[""L"",""R"",""G""]","[""L"",""R"",""G""]",1.0,3.0,,,,,,,5c4068a67f81e900012b281e,16:18:31,03/04/2024
817.8000000000466,[''],0,ospan,feedback,W7GgjpN9ZHSiHW44EDxP0gHCR4k2,html-button-response,109,645794,0.0-46.0-3.0-0.0-3.0,,,,,,,,,,,,100.0,0.0,,5c4068a67f81e900012b281e,16:18:31,03/04/2024
,"<p style=""font-size:75px;"">...</p>",,ospan,iti,W7GgjpN9ZHSiHW44EDxP0gHCR4k2,html-keyboard-response,110,646796,0.0-46.0-4.0-0.0-0.0,,,,,,,,,,,,,,,5c4068a67f81e900012b281e,16:18:31,03/04/2024
1410.0,,,ospan,symmetry,W7GgjpN9ZHSiHW44EDxP0gHCR4k2,symmetry-judgement-task,111,649328,0.0-46.0-4.0-0.0-1.0-0.0,,,,,,,,,,1.0,1.0,,,,5c4068a67f81e900012b281e,16:18:31,03/04/2024
,"<div style=""font-size: 10rem; color: #0000FF"">S</div>",,ospan,letter,W7GgjpN9ZHSiHW44EDxP0gHCR4k2,html-keyboard-response,112,650329,0.0-46.0-4.0-0.0-1.0-1.0,,,,,,,,,,,,,,,5c4068a67f81e900012b281e,16:18:31,03/04/2024
1075.0,,,ospan,symmetry,W7GgjpN9ZHSiHW44EDxP0gHCR4k2,symmetry-judgement-task,113,653273,0.0-46.0-4.0-0.0-1.0-2.0,,,,,,,,,,1.0,1.0,,,,5c4068a67f81e900012b281e,16:18:31,03/04/2024
,"<div style=""font-size: 10rem; color: #0000FF"">J</div>",,ospan,letter,W7GgjpN9ZHSiHW44EDxP0gHCR4k2,html-keyboard-response,114,654276,0.0-46.0-4.0-0.0-1.0-3.0,,,,,,,,,,,,,,,5c4068a67f81e900012b281e,16:18:31,03/04/2024
947.0,,,ospan,symmetry,W7GgjpN9ZHSiHW44EDxP0gHCR4k2,symmetry-judgement-task,115,657080,0.0-46.0-4.0-0.0-1.0-4.0,,,,,,,,,,1.0,1.0,,,,5c4068a67f81e900012b281e,16:18:31,03/04/2024
,"<div style=""font-size: 10rem; color: #0000FF"">R</div>",,ospan,letter,W7GgjpN9ZHSiHW44EDxP0gHCR4k2,html-keyboard-response,116,658081,0.0-46.0-4.0-0.0-1.0-5.0,,,,,,,,,,,,,,,5c4068a67f81e900012b281e,16:18:31,03/04/2024
1165.0,,,ospan,symmetry,W7GgjpN9ZHSiHW44EDxP0gHCR4k2,symmetry-judgement-task,117,661114,0.0-46.0-4.0-0.0-1.0-6.0,,,,,,,,,,1.0,1.0,,,,5c4068a67f81e900012b281e,16:18:31,03/04/2024
,"<div style=""font-size: 10rem; color: #0000FF"">N</div>",,ospan,letter,W7GgjpN9ZHSiHW44EDxP0gHCR4k2,html-keyboard-response,118,662116,0.0-46.0-4.0-0.0-1.0-7.0,,,,,,,,,,,,,,,5c4068a67f81e900012b281e,16:18:31,03/04/2024
5703.59999999986,"<div class = numbox><p style=""font-size: 2.4rem"">Please recall the letters you saw to the best of your ability. If you do not remember a particular letter, use the SKIP button.<br><b>(When you are ready to lock in your answer, press ENTER)</b></p><button id = button_1 class = ""square num-button"" onclick = ""recordClick(this)""><div class = content><div class = numbers>C</div></div></button><button id = button_2 class = ""square num-button"" onclick = ""recordClick(this)""><div class = content><div class = numbers>G</div></div></button><button id = button_3 class = ""square num-button"" onclick = ""recordClick(this)""><div class = content><div class = numbers>H</div></div></button><button id = button_4 class = ""square num-button"" onclick = ""recordClick(this)""><div class = content><div class = numbers>J</div></div></button><button id = button_5 class = ""square num-button"" onclick = ""recordClick(this)""><div class = content><div class = numbers>K</div></div></button><button id = button_6 class = ""square num-button"" onclick = ""recordClick(this)""><div class = content><div class = numbers>L</div></div></button><button id = button_7 class = ""square num-button"" onclick = ""recordClick(this)""><div class = content><div class = numbers>N</div></div></button><button id = button_8 class = ""square num-button"" onclick = ""recordClick(this)""><div class = content><div class = numbers>P</div></div></button><button id = button_9 class = ""square num-button"" onclick = ""recordClick(this)""><div class = content><div class = numbers>Q</div></div></button><button id = button_10 class = ""square num-button"" onclick = ""recordClick(this)""><div class = content><div class = numbers>R</div></div></button><button id = button_11 class = ""square num-button"" onclick = ""recordClick(this)""><div class = content><div class = numbers>S</div></div></button><button id = button_12 class = ""square num-button"" onclick = ""recordClick(this)""><div class = content><div class = numbers>Y</div></div></button><button class = clear_button id = ""ClearButton"" onclick = ""clearResponse()"">BACKSPACE</button><button class = blank_button id = ""BlankButton"" onclick = ""blankResponse()"">SKIP</button><p style=""font-size: 2.4rem""><u><b>Current Answer:</b></u></p><br><br><div id=echoed_txt style=""font-size: 5rem; color:blue;""><b></b></div></div>",enter,ospan,retrieval,W7GgjpN9ZHSiHW44EDxP0gHCR4k2,html-keyboard-response,119,668571,0.0-46.0-4.0-0.0-2.0,7,7,7,4.0,"[""S"",""J"",""R"",""N""]","[""S"",""J"",""R"",""N""]",1.0,4.0,,,,,,,5c4068a67f81e900012b281e,16:18:31,03/04/2024
825.6999999999534,[''],0,ospan,feedback,W7GgjpN9ZHSiHW44EDxP0gHCR4k2,html-button-response,120,669898,0.0-46.0-4.0-0.0-3.0,,,,,,,,,,,,100.0,0.0,,5c4068a67f81e900012b281e,16:18:31,03/04/2024
,"<p style=""font-size:75px;"">...</p>",,ospan,iti,W7GgjpN9ZHSiHW44EDxP0gHCR4k2,html-keyboard-response,121,670900,0.0-46.0-4.0-1.0-0.0,,,,,,,,,,,,,,,5c4068a67f81e900012b281e,16:18:31,03/04/2024
1172.0,,,ospan,symmetry,W7GgjpN9ZHSiHW44EDxP0gHCR4k2,symmetry-judgement-task,122,673102,0.0-46.0-4.0-1.0-1.0-0.0,,,,,,,,,,1.0,1.0,,,,5c4068a67f81e900012b281e,16:18:31,03/04/2024
,"<div style=""font-size: 10rem; color: #0000FF"">R</div>",,ospan,letter,W7GgjpN9ZHSiHW44EDxP0gHCR4k2,html-keyboard-response,123,674103,0.0-46.0-4.0-1.0-1.0-1.0,,,,,,,,,,,,,,,5c4068a67f81e900012b281e,16:18:31,03/04/2024
997.0,,,ospan,symmetry,W7GgjpN9ZHSiHW44EDxP0gHCR4k2,symmetry-judgement-task,124,676971,0.0-46.0-4.0-1.0-1.0-2.0,,,,,,,,,,1.0,1.0,,,,5c4068a67f81e900012b281e,16:18:31,03/04/2024
,"<div style=""font-size: 10rem; color: #0000FF"">P</div>",,ospan,letter,W7GgjpN9ZHSiHW44EDxP0gHCR4k2,html-keyboard-response,125,677972,0.0-46.0-4.0-1.0-1.0-3.0,,,,,,,,,,,,,,,5c4068a67f81e900012b281e,16:18:31,03/04/2024
1104.0,,,ospan,symmetry,W7GgjpN9ZHSiHW44EDxP0gHCR4k2,symmetry-judgement-task,126,680935,0.0-46.0-4.0-1.0-1.0-4.0,,,,,,,,,,1.0,1.0,,,,5c4068a67f81e900012b281e,16:18:31,03/04/2024
,"<div style=""font-size: 10rem; color: #0000FF"">S</div>",,ospan,letter,W7GgjpN9ZHSiHW44EDxP0gHCR4k2,html-keyboard-response,127,681937,0.0-46.0-4.0-1.0-1.0-5.0,,,,,,,,,,,,,,,5c4068a67f81e900012b281e,16:18:31,03/04/2024
972.0,,,ospan,symmetry,W7GgjpN9ZHSiHW44EDxP0gHCR4k2,symmetry-judgement-task,128,684770,0.0-46.0-4.0-1.0-1.0-6.0,,,,,,,,,,1.0,1.0,,,,5c4068a67f81e900012b281e,16:18:31,03/04/2024
,"<div style=""font-size: 10rem; color: #0000FF"">J</div>",,ospan,letter,W7GgjpN9ZHSiHW44EDxP0gHCR4k2,html-keyboard-response,129,685772,0.0-46.0-4.0-1.0-1.0-7.0,,,,,,,,,,,,,,,5c4068a67f81e900012b281e,16:18:31,03/04/2024
1086.0,,,ospan,symmetry,W7GgjpN9ZHSiHW44EDxP0gHCR4k2,symmetry-judgement-task,130,688737,0.0-46.0-4.0-1.0-1.0-8.0,,,,,,,,,,1.0,1.0,,,,5c4068a67f81e900012b281e,16:18:31,03/04/2024
,"<div style=""font-size: 10rem; color: #0000FF"">C</div>",,ospan,letter,W7GgjpN9ZHSiHW44EDxP0gHCR4k2,html-keyboard-response,131,689738,0.0-46.0-4.0-1.0-1.0-9.0,,,,,,,,,,,,,,,5c4068a67f81e900012b281e,16:18:31,03/04/2024
7828.199999999953,"<div class = numbox><p style=""font-size: 2.4rem"">Please recall the letters you saw to the best of your ability. If you do not remember a particular letter, use the SKIP button.<br><b>(When you are ready to lock in your answer, press ENTER)</b></p><button id = button_1 class = ""square num-button"" onclick = ""recordClick(this)""><div class = content><div class = numbers>C</div></div></button><button id = button_2 class = ""square num-button"" onclick = ""recordClick(this)""><div class = content><div class = numbers>G</div></div></button><button id = button_3 class = ""square num-button"" onclick = ""recordClick(this)""><div class = content><div class = numbers>H</div></div></button><button id = button_4 class = ""square num-button"" onclick = ""recordClick(this)""><div class = content><div class = numbers>J</div></div></button><button id = button_5 class = ""square num-button"" onclick = ""recordClick(this)""><div class = content><div class = numbers>K</div></div></button><button id = button_6 class = ""square num-button"" onclick = ""recordClick(this)""><div class = content><div class = numbers>L</div></div></button><button id = button_7 class = ""square num-button"" onclick = ""recordClick(this)""><div class = content><div class = numbers>N</div></div></button><button id = button_8 class = ""square num-button"" onclick = ""recordClick(this)""><div class = content><div class = numbers>P</div></div></button><button id = button_9 class = ""square num-button"" onclick = ""recordClick(this)""><div class = content><div class = numbers>Q</div></div></button><button id = button_10 class = ""square num-button"" onclick = ""recordClick(this)""><div class = content><div class = numbers>R</div></div></button><button id = button_11 class = ""square num-button"" onclick = ""recordClick(this)""><div class = content><div class = numbers>S</div></div></button><button id = button_12 class = ""square num-button"" onclick = ""recordClick(this)""><div class = content><div class = numbers>Y</div></div></button><button class = clear_button id = ""ClearButton"" onclick = ""clearResponse()"">BACKSPACE</button><button class = blank_button id = ""BlankButton"" onclick = ""blankResponse()"">SKIP</button><p style=""font-size: 2.4rem""><u><b>Current Answer:</b></u></p><br><br><div id=echoed_txt style=""font-size: 5rem; color:blue;""><b></b></div></div>",enter,ospan,retrieval,W7GgjpN9ZHSiHW44EDxP0gHCR4k2,html-keyboard-response,132,698318,0.0-46.0-4.0-1.0-2.0,12,12,12,5.0,"[""R"",""P"",""S"",""J"",""C""]","[""R"",""P"",""S"",""J"",""C""]",1.0,5.0,,,,,,,5c4068a67f81e900012b281e,16:18:31,03/04/2024
762.3000000000466,[''],0,ospan,feedback,W7GgjpN9ZHSiHW44EDxP0gHCR4k2,html-button-response,133,699582,0.0-46.0-4.0-1.0-3.0,,,,,,,,,,,,100.0,0.0,,5c4068a67f81e900012b281e,16:18:31,03/04/2024
,"<p style=""font-size:75px;"">...</p>",,ospan,iti,W7GgjpN9ZHSiHW44EDxP0gHCR4k2,html-keyboard-response,134,700584,0.0-46.0-4.0-2.0-0.0,,,,,,,,,,,,,,,5c4068a67f81e900012b281e,16:18:31,03/04/2024
1564.0,,,ospan,symmetry,W7GgjpN9ZHSiHW44EDxP0gHCR4k2,symmetry-judgement-task,135,703271,0.0-46.0-4.0-2.0-1.0-0.0,,,,,,,,,,1.0,1.0,,,,5c4068a67f81e900012b281e,16:18:31,03/04/2024
,"<div style=""font-size: 10rem; color: #0000FF"">S</div>",,ospan,letter,W7GgjpN9ZHSiHW44EDxP0gHCR4k2,html-keyboard-response,136,704273,0.0-46.0-4.0-2.0-1.0-1.0,,,,,,,,,,,,,,,5c4068a67f81e900012b281e,16:18:31,03/04/2024
908.0,,,ospan,symmetry,W7GgjpN9ZHSiHW44EDxP0gHCR4k2,symmetry-judgement-task,137,707044,0.0-46.0-4.0-2.0-1.0-2.0,,,,,,,,,,1.0,1.0,,,,5c4068a67f81e900012b281e,16:18:31,03/04/2024
,"<div style=""font-size: 10rem; color: #0000FF"">P</div>",,ospan,letter,W7GgjpN9ZHSiHW44EDxP0gHCR4k2,html-keyboard-response,138,708046,0.0-46.0-4.0-2.0-1.0-3.0,,,,,,,,,,,,,,,5c4068a67f81e900012b281e,16:18:31,03/04/2024
812.0,,,ospan,symmetry,W7GgjpN9ZHSiHW44EDxP0gHCR4k2,symmetry-judgement-task,139,710725,0.0-46.0-4.0-2.0-1.0-4.0,,,,,,,,,,1.0,1.0,,,,5c4068a67f81e900012b281e,16:18:31,03/04/2024
,"<div style=""font-size: 10rem; color: #0000FF"">K</div>",,ospan,letter,W7GgjpN9ZHSiHW44EDxP0gHCR4k2,html-keyboard-response,140,711725,0.0-46.0-4.0-2.0-1.0-5.0,,,,,,,,,,,,,,,5c4068a67f81e900012b281e,16:18:31,03/04/2024
3122.600000000093,"<div class = numbox><p style=""font-size: 2.4rem"">Please recall the letters you saw to the best of your ability. If you do not remember a particular letter, use the SKIP button.<br><b>(When you are ready to lock in your answer, press ENTER)</b></p><button id = button_1 class = ""square num-button"" onclick = ""recordClick(this)""><div class = content><div class = numbers>C</div></div></button><button id = button_2 class = ""square num-button"" onclick = ""recordClick(this)""><div class = content><div class = numbers>G</div></div></button><button id = button_3 class = ""square num-button"" onclick = ""recordClick(this)""><div class = content><div class = numbers>H</div></div></button><button id = button_4 class = ""square num-button"" onclick = ""recordClick(this)""><div class = content><div class = numbers>J</div></div></button><button id = button_5 class = ""square num-button"" onclick = ""recordClick(this)""><div class = content><div class = numbers>K</div></div></button><button id = button_6 class = ""square num-button"" onclick = ""recordClick(this)""><div class = content><div class = numbers>L</div></div></button><button id = button_7 class = ""square num-button"" onclick = ""recordClick(this)""><div class = content><div class = numbers>N</div></div></button><button id = button_8 class = ""square num-button"" onclick = ""recordClick(this)""><div class = content><div class = numbers>P</div></div></button><button id = button_9 class = ""square num-button"" onclick = ""recordClick(this)""><div class = content><div class = numbers>Q</div></div></button><button id = button_10 class = ""square num-button"" onclick = ""recordClick(this)""><div class = content><div class = numbers>R</div></div></button><button id = button_11 class = ""square num-button"" onclick = ""recordClick(this)""><div class = content><div class = numbers>S</div></div></button><button id = button_12 class = ""square num-button"" onclick = ""recordClick(this)""><div class = content><div class = numbers>Y</div></div></button><button class = clear_button id = ""ClearButton"" onclick = ""clearResponse()"">BACKSPACE</button><button class = blank_button id = ""BlankButton"" onclick = ""blankResponse()"">SKIP</button><p style=""font-size: 2.4rem""><u><b>Current Answer:</b></u></p><br><br><div id=echoed_txt style=""font-size: 5rem; color:blue;""><b></b></div></div>",enter,ospan,retrieval,W7GgjpN9ZHSiHW44EDxP0gHCR4k2,html-keyboard-response,141,715600,0.0-46.0-4.0-2.0-2.0,15,15,15,3.0,"[""S"",""P"",""K""]","[""S"",""P"",""K""]",1.0,3.0,,,,,,,5c4068a67f81e900012b281e,16:18:31,03/04/2024
1031.4000000001397,[''],0,ospan,feedback,W7GgjpN9ZHSiHW44EDxP0gHCR4k2,html-button-response,142,717133,0.0-46.0-4.0-2.0-3.0,,,,,,,,,,,,100.0,0.0,,5c4068a67f81e900012b281e,16:18:31,03/04/2024
,"<p style=""font-size:75px;"">...</p>",,ospan,iti,W7GgjpN9ZHSiHW44EDxP0gHCR4k2,html-keyboard-response,143,718135,0.0-46.0-5.0-0.0-0.0,,,,,,,,,,,,,,,5c4068a67f81e900012b281e,16:18:31,03/04/2024
1044.0,,,ospan,symmetry,W7GgjpN9ZHSiHW44EDxP0gHCR4k2,symmetry-judgement-task,144,720287,0.0-46.0-5.0-0.0-1.0-0.0,,,,,,,,,,1.0,1.0,,,,5c4068a67f81e900012b281e,16:18:31,03/04/2024
,"<div style=""font-size: 10rem; color: #0000FF"">G</div>",,ospan,letter,W7GgjpN9ZHSiHW44EDxP0gHCR4k2,html-keyboard-response,145,721288,0.0-46.0-5.0-0.0-1.0-1.0,,,,,,,,,,,,,,,5c4068a67f81e900012b281e,16:18:31,03/04/2024
877.0,,,ospan,symmetry,W7GgjpN9ZHSiHW44EDxP0gHCR4k2,symmetry-judgement-task,146,724041,0.0-46.0-5.0-0.0-1.0-2.0,,,,,,,,,,1.0,1.0,,,,5c4068a67f81e900012b281e,16:18:31,03/04/2024
,"<div style=""font-size: 10rem; color: #0000FF"">L</div>",,ospan,letter,W7GgjpN9ZHSiHW44EDxP0gHCR4k2,html-keyboard-response,147,725042,0.0-46.0-5.0-0.0-1.0-3.0,,,,,,,,,,,,,,,5c4068a67f81e900012b281e,16:18:31,03/04/2024
855.0,,,ospan,symmetry,W7GgjpN9ZHSiHW44EDxP0gHCR4k2,symmetry-judgement-task,148,727753,0.0-46.0-5.0-0.0-1.0-4.0,,,,,,,,,,1.0,1.0,,,,5c4068a67f81e900012b281e,16:18:31,03/04/2024
,"<div style=""font-size: 10rem; color: #0000FF"">C</div>",,ospan,letter,W7GgjpN9ZHSiHW44EDxP0gHCR4k2,html-keyboard-response,149,728754,0.0-46.0-5.0-0.0-1.0-5.0,,,,,,,,,,,,,,,5c4068a67f81e900012b281e,16:18:31,03/04/2024
1105.0,,,ospan,symmetry,W7GgjpN9ZHSiHW44EDxP0gHCR4k2,symmetry-judgement-task,150,731717,0.0-46.0-5.0-0.0-1.0-6.0,,,,,,,,,,1.0,1.0,,,,5c4068a67f81e900012b281e,16:18:31,03/04/2024
,"<div style=""font-size: 10rem; color: #0000FF"">Y</div>",,ospan,letter,W7GgjpN9ZHSiHW44EDxP0gHCR4k2,html-keyboard-response,151,732718,0.0-46.0-5.0-0.0-1.0-7.0,,,,,,,,,,,,,,,5c4068a67f81e900012b281e,16:18:31,03/04/2024
1006.0,,,ospan,symmetry,W7GgjpN9ZHSiHW44EDxP0gHCR4k2,symmetry-judgement-task,152,735591,0.0-46.0-5.0-0.0-1.0-8.0,,,,,,,,,,1.0,1.0,,,,5c4068a67f81e900012b281e,16:18:31,03/04/2024
,"<div style=""font-size: 10rem; color: #0000FF"">N</div>",,ospan,letter,W7GgjpN9ZHSiHW44EDxP0gHCR4k2,html-keyboard-response,153,736592,0.0-46.0-5.0-0.0-1.0-9.0,,,,,,,,,,,,,,,5c4068a67f81e900012b281e,16:18:31,03/04/2024
968.0,,,ospan,symmetry,W7GgjpN9ZHSiHW44EDxP0gHCR4k2,symmetry-judgement-task,154,739424,0.0-46.0-5.0-0.0-1.0-10.0,,,,,,,,,,1.0,1.0,,,,5c4068a67f81e900012b281e,16:18:31,03/04/2024
,"<div style=""font-size: 10rem; color: #0000FF"">R</div>",,ospan,letter,W7GgjpN9ZHSiHW44EDxP0gHCR4k2,html-keyboard-response,155,740426,0.0-46.0-5.0-0.0-1.0-11.0,,,,,,,,,,,,,,,5c4068a67f81e900012b281e,16:18:31,03/04/2024
6426.5,"<div class = numbox><p style=""font-size: 2.4rem"">Please recall the letters you saw to the best of your ability. If you do not remember a particular letter, use the SKIP button.<br><b>(When you are ready to lock in your answer, press ENTER)</b></p><button id = button_1 class = ""square num-button"" onclick = ""recordClick(this)""><div class = content><div class = numbers>C</div></div></button><button id = button_2 class = ""square num-button"" onclick = ""recordClick(this)""><div class = content><div class = numbers>G</div></div></button><button id = button_3 class = ""square num-button"" onclick = ""recordClick(this)""><div class = content><div class = numbers>H</div></div></button><button id = button_4 class = ""square num-button"" onclick = ""recordClick(this)""><div class = content><div class = numbers>J</div></div></button><button id = button_5 class = ""square num-button"" onclick = ""recordClick(this)""><div class = content><div class = numbers>K</div></div></button><button id = button_6 class = ""square num-button"" onclick = ""recordClick(this)""><div class = content><div class = numbers>L</div></div></button><button id = button_7 class = ""square num-button"" onclick = ""recordClick(this)""><div class = content><div class = numbers>N</div></div></button><button id = button_8 class = ""square num-button"" onclick = ""recordClick(this)""><div class = content><div class = numbers>P</div></div></button><button id = button_9 class = ""square num-button"" onclick = ""recordClick(this)""><div class = content><div class = numbers>Q</div></div></button><button id = button_10 class = ""square num-button"" onclick = ""recordClick(this)""><div class = content><div class = numbers>R</div></div></button><button id = button_11 class = ""square num-button"" onclick = ""recordClick(this)""><div class = content><div class = numbers>S</div></div></button><button id = button_12 class = ""square num-button"" onclick = ""recordClick(this)""><div class = content><div class = numbers>Y</div></div></button><button class = clear_button id = ""ClearButton"" onclick = ""clearResponse()"">BACKSPACE</button><button class = blank_button id = ""BlankButton"" onclick = ""blankResponse()"">SKIP</button><p style=""font-size: 2.4rem""><u><b>Current Answer:</b></u></p><br><br><div id=echoed_txt style=""font-size: 5rem; color:blue;""><b></b></div></div>",enter,ospan,retrieval,W7GgjpN9ZHSiHW44EDxP0gHCR4k2,html-keyboard-response,156,747603,0.0-46.0-5.0-0.0-2.0,21,21,21,6.0,"[""G"",""L"",""C"",""Y"",""N"",""R""]","[""G"",""L"",""C"",""Y"",""N"",""R""]",1.0,6.0,,,,,,,5c4068a67f81e900012b281e,16:18:31,03/04/2024
5388.600000000093,[''],0,ospan,feedback,W7GgjpN9ZHSiHW44EDxP0gHCR4k2,html-button-response,157,753493,0.0-46.0-5.0-0.0-3.0,,,,,,,,,,,,100.0,0.0,,5c4068a67f81e900012b281e,16:18:31,03/04/2024
,"<p style=""font-size:75px;"">...</p>",,ospan,iti,W7GgjpN9ZHSiHW44EDxP0gHCR4k2,html-keyboard-response,158,754495,0.0-46.0-5.0-1.0-0.0,,,,,,,,,,,,,,,5c4068a67f81e900012b281e,16:18:31,03/04/2024
1546.0,,,ospan,symmetry,W7GgjpN9ZHSiHW44EDxP0gHCR4k2,symmetry-judgement-task,159,757068,0.0-46.0-5.0-1.0-1.0-0.0,,,,,,,,,,1.0,1.0,,,,5c4068a67f81e900012b281e,16:18:31,03/04/2024
,"<div style=""font-size: 10rem; color: #0000FF"">P</div>",,ospan,letter,W7GgjpN9ZHSiHW44EDxP0gHCR4k2,html-keyboard-response,160,758069,0.0-46.0-5.0-1.0-1.0-1.0,,,,,,,,,,,,,,,5c4068a67f81e900012b281e,16:18:31,03/04/2024
964.0,,,ospan,symmetry,W7GgjpN9ZHSiHW44EDxP0gHCR4k2,symmetry-judgement-task,161,760889,0.0-46.0-5.0-1.0-1.0-2.0,,,,,,,,,,1.0,1.0,,,,5c4068a67f81e900012b281e,16:18:31,03/04/2024
,"<div style=""font-size: 10rem; color: #0000FF"">H</div>",,ospan,letter,W7GgjpN9ZHSiHW44EDxP0gHCR4k2,html-keyboard-response,162,761890,0.0-46.0-5.0-1.0-1.0-3.0,,,,,,,,,,,,,,,5c4068a67f81e900012b281e,16:18:31,03/04/2024
890.0,,,ospan,symmetry,W7GgjpN9ZHSiHW44EDxP0gHCR4k2,symmetry-judgement-task,163,764647,0.0-46.0-5.0-1.0-1.0-4.0,,,,,,,,,,1.0,1.0,,,,5c4068a67f81e900012b281e,16:18:31,03/04/2024
,"<div style=""font-size: 10rem; color: #0000FF"">C</div>",,ospan,letter,W7GgjpN9ZHSiHW44EDxP0gHCR4k2,html-keyboard-response,164,765648,0.0-46.0-5.0-1.0-1.0-5.0,,,,,,,,,,,,,,,5c4068a67f81e900012b281e,16:18:31,03/04/2024
973.0,,,ospan,symmetry,W7GgjpN9ZHSiHW44EDxP0gHCR4k2,symmetry-judgement-task,165,768482,0.0-46.0-5.0-1.0-1.0-6.0,,,,,,,,,,1.0,1.0,,,,5c4068a67f81e900012b281e,16:18:31,03/04/2024
,"<div style=""font-size: 10rem; color: #0000FF"">J</div>",,ospan,letter,W7GgjpN9ZHSiHW44EDxP0gHCR4k2,html-keyboard-response,166,769483,0.0-46.0-5.0-1.0-1.0-7.0,,,,,,,,,,,,,,,5c4068a67f81e900012b281e,16:18:31,03/04/2024
1050.0,,,ospan,symmetry,W7GgjpN9ZHSiHW44EDxP0gHCR4k2,symmetry-judgement-task,167,772397,0.0-46.0-5.0-1.0-1.0-8.0,,,,,,,,,,1.0,1.0,,,,5c4068a67f81e900012b281e,16:18:31,03/04/2024
,"<div style=""font-size: 10rem; color: #0000FF"">S</div>",,ospan,letter,W7GgjpN9ZHSiHW44EDxP0gHCR4k2,html-keyboard-response,168,773398,0.0-46.0-5.0-1.0-1.0-9.0,,,,,,,,,,,,,,,5c4068a67f81e900012b281e,16:18:31,03/04/2024
866.0,,,ospan,symmetry,W7GgjpN9ZHSiHW44EDxP0gHCR4k2,symmetry-judgement-task,169,776119,0.0-46.0-5.0-1.0-1.0-10.0,,,,,,,,,,1.0,1.0,,,,5c4068a67f81e900012b281e,16:18:31,03/04/2024
,"<div style=""font-size: 10rem; color: #0000FF"">Q</div>",,ospan,letter,W7GgjpN9ZHSiHW44EDxP0gHCR4k2,html-keyboard-response,170,777120,0.0-46.0-5.0-1.0-1.0-11.0,,,,,,,,,,,,,,,5c4068a67f81e900012b281e,16:18:31,03/04/2024
943.0,,,ospan,symmetry,W7GgjpN9ZHSiHW44EDxP0gHCR4k2,symmetry-judgement-task,171,779921,0.0-46.0-5.0-1.0-1.0-12.0,,,,,,,,,,1.0,1.0,,,,5c4068a67f81e900012b281e,16:18:31,03/04/2024
,"<div style=""font-size: 10rem; color: #0000FF"">N</div>",,ospan,letter,W7GgjpN9ZHSiHW44EDxP0gHCR4k2,html-keyboard-response,172,780923,0.0-46.0-5.0-1.0-1.0-13.0,,,,,,,,,,,,,,,5c4068a67f81e900012b281e,16:18:31,03/04/2024
11133.300000000047,"<div class = numbox><p style=""font-size: 2.4rem"">Please recall the letters you saw to the best of your ability. If you do not remember a particular letter, use the SKIP button.<br><b>(When you are ready to lock in your answer, press ENTER)</b></p><button id = button_1 class = ""square num-button"" onclick = ""recordClick(this)""><div class = content><div class = numbers>C</div></div></button><button id = button_2 class = ""square num-button"" onclick = ""recordClick(this)""><div class = content><div class = numbers>G</div></div></button><button id = button_3 class = ""square num-button"" onclick = ""recordClick(this)""><div class = content><div class = numbers>H</div></div></button><button id = button_4 class = ""square num-button"" onclick = ""recordClick(this)""><div class = content><div class = numbers>J</div></div></button><button id = button_5 class = ""square num-button"" onclick = ""recordClick(this)""><div class = content><div class = numbers>K</div></div></button><button id = button_6 class = ""square num-button"" onclick = ""recordClick(this)""><div class = content><div class = numbers>L</div></div></button><button id = button_7 class = ""square num-button"" onclick = ""recordClick(this)""><div class = content><div class = numbers>N</div></div></button><button id = button_8 class = ""square num-button"" onclick = ""recordClick(this)""><div class = content><div class = numbers>P</div></div></button><button id = button_9 class = ""square num-button"" onclick = ""recordClick(this)""><div class = content><div class = numbers>Q</div></div></button><button id = button_10 class = ""square num-button"" onclick = ""recordClick(this)""><div class = content><div class = numbers>R</div></div></button><button id = button_11 class = ""square num-button"" onclick = ""recordClick(this)""><div class = content><div class = numbers>S</div></div></button><button id = button_12 class = ""square num-button"" onclick = ""recordClick(this)""><div class = content><div class = numbers>Y</div></div></button><button class = clear_button id = ""ClearButton"" onclick = ""clearResponse()"">BACKSPACE</button><button class = blank_button id = ""BlankButton"" onclick = ""blankResponse()"">SKIP</button><p style=""font-size: 2.4rem""><u><b>Current Answer:</b></u></p><br><br><div id=echoed_txt style=""font-size: 5rem; color:blue;""><b></b></div></div>",enter,ospan,retrieval,W7GgjpN9ZHSiHW44EDxP0gHCR4k2,html-keyboard-response,173,792807,0.0-46.0-5.0-1.0-2.0,28,22,21,7.0,"[""P"",""J"",""S"",""H"",""C"",""G""]","[""P"",""H"",""C"",""J"",""S"",""Q"",""N""]",0.0,1.0,,,,,,,5c4068a67f81e900012b281e,16:18:31,03/04/2024
842.5999999998603,[''],0,ospan,feedback,W7GgjpN9ZHSiHW44EDxP0gHCR4k2,html-button-response,174,794151,0.0-46.0-5.0-1.0-3.0,,,,,,,,,,,,100.0,0.0,,5c4068a67f81e900012b281e,16:18:31,03/04/2024
,"<p style=""font-size:75px;"">...</p>",,ospan,iti,W7GgjpN9ZHSiHW44EDxP0gHCR4k2,html-keyboard-response,175,795153,0.0-46.0-6.0-0.0-0.0,,,,,,,,,,,,,,,5c4068a67f81e900012b281e,16:18:31,03/04/2024
1182.0,,,ospan,symmetry,W7GgjpN9ZHSiHW44EDxP0gHCR4k2,symmetry-judgement-task,176,797452,0.0-46.0-6.0-0.0-1.0-0.0,,,,,,,,,,1.0,1.0,,,,5c4068a67f81e900012b281e,16:18:31,03/04/2024
,"<div style=""font-size: 10rem; color: #0000FF"">J</div>",,ospan,letter,W7GgjpN9ZHSiHW44EDxP0gHCR4k2,html-keyboard-response,177,798453,0.0-46.0-6.0-0.0-1.0-1.0,,,,,,,,,,,,,,,5c4068a67f81e900012b281e,16:18:31,03/04/2024
1000.0,,,ospan,symmetry,W7GgjpN9ZHSiHW44EDxP0gHCR4k2,symmetry-judgement-task,178,801322,0.0-46.0-6.0-0.0-1.0-2.0,,,,,,,,,,1.0,1.0,,,,5c4068a67f81e900012b281e,16:18:31,03/04/2024
,"<div style=""font-size: 10rem; color: #0000FF"">L</div>",,ospan,letter,W7GgjpN9ZHSiHW44EDxP0gHCR4k2,html-keyboard-response,179,802323,0.0-46.0-6.0-0.0-1.0-3.0,,,,,,,,,,,,,,,5c4068a67f81e900012b281e,16:18:31,03/04/2024
1036.0,,,ospan,symmetry,W7GgjpN9ZHSiHW44EDxP0gHCR4k2,symmetry-judgement-task,180,805233,0.0-46.0-6.0-0.0-1.0-4.0,,,,,,,,,,1.0,1.0,,,,5c4068a67f81e900012b281e,16:18:31,03/04/2024
,"<div style=""font-size: 10rem; color: #0000FF"">S</div>",,ospan,letter,W7GgjpN9ZHSiHW44EDxP0gHCR4k2,html-keyboard-response,181,806234,0.0-46.0-6.0-0.0-1.0-5.0,,,,,,,,,,,,,,,5c4068a67f81e900012b281e,16:18:31,03/04/2024
849.0,,,ospan,symmetry,W7GgjpN9ZHSiHW44EDxP0gHCR4k2,symmetry-judgement-task,182,808950,0.0-46.0-6.0-0.0-1.0-6.0,,,,,,,,,,1.0,1.0,,,,5c4068a67f81e900012b281e,16:18:31,03/04/2024
,"<div style=""font-size: 10rem; color: #0000FF"">C</div>",,ospan,letter,W7GgjpN9ZHSiHW44EDxP0gHCR4k2,html-keyboard-response,183,809951,0.0-46.0-6.0-0.0-1.0-7.0,,,,,,,,,,,,,,,5c4068a67f81e900012b281e,16:18:31,03/04/2024
1152.0,,,ospan,symmetry,W7GgjpN9ZHSiHW44EDxP0gHCR4k2,symmetry-judgement-task,184,812975,0.0-46.0-6.0-0.0-1.0-8.0,,,,,,,,,,1.0,1.0,,,,5c4068a67f81e900012b281e,16:18:31,03/04/2024
,"<div style=""font-size: 10rem; color: #0000FF"">N</div>",,ospan,letter,W7GgjpN9ZHSiHW44EDxP0gHCR4k2,html-keyboard-response,185,813987,0.0-46.0-6.0-0.0-1.0-9.0,,,,,,,,,,,,,,,5c4068a67f81e900012b281e,16:18:31,03/04/2024
6110.300000000047,"<div class = numbox><p style=""font-size: 2.4rem"">Please recall the letters you saw to the best of your ability. If you do not remember a particular letter, use the SKIP button.<br><b>(When you are ready to lock in your answer, press ENTER)</b></p><button id = button_1 class = ""square num-button"" onclick = ""recordClick(this)""><div class = content><div class = numbers>C</div></div></button><button id = button_2 class = ""square num-button"" onclick = ""recordClick(this)""><div class = content><div class = numbers>G</div></div></button><button id = button_3 class = ""square num-button"" onclick = ""recordClick(this)""><div class = content><div class = numbers>H</div></div></button><button id = button_4 class = ""square num-button"" onclick = ""recordClick(this)""><div class = content><div class = numbers>J</div></div></button><button id = button_5 class = ""square num-button"" onclick = ""recordClick(this)""><div class = content><div class = numbers>K</div></div></button><button id = button_6 class = ""square num-button"" onclick = ""recordClick(this)""><div class = content><div class = numbers>L</div></div></button><button id = button_7 class = ""square num-button"" onclick = ""recordClick(this)""><div class = content><div class = numbers>N</div></div></button><button id = button_8 class = ""square num-button"" onclick = ""recordClick(this)""><div class = content><div class = numbers>P</div></div></button><button id = button_9 class = ""square num-button"" onclick = ""recordClick(this)""><div class = content><div class = numbers>Q</div></div></button><button id = button_10 class = ""square num-button"" onclick = ""recordClick(this)""><div class = content><div class = numbers>R</div></div></button><button id = button_11 class = ""square num-button"" onclick = ""recordClick(this)""><div class = content><div class = numbers>S</div></div></button><button id = button_12 class = ""square num-button"" onclick = ""recordClick(this)""><div class = content><div class = numbers>Y</div></div></button><button class = clear_button id = ""ClearButton"" onclick = ""clearResponse()"">BACKSPACE</button><button class = blank_button id = ""BlankButton"" onclick = ""blankResponse()"">SKIP</button><p style=""font-size: 2.4rem""><u><b>Current Answer:</b></u></p><br><br><div id=echoed_txt style=""font-size: 5rem; color:blue;""><b></b></div></div>",enter,ospan,retrieval,W7GgjpN9ZHSiHW44EDxP0gHCR4k2,html-keyboard-response,186,820858,0.0-46.0-6.0-0.0-2.0,33,27,26,5.0,"[""J"",""L"",""S"",""C"",""N""]","[""J"",""L"",""S"",""C"",""N""]",1.0,5.0,,,,,,,5c4068a67f81e900012b281e,16:18:31,03/04/2024
650.3000000000466,[''],0,ospan,feedback,W7GgjpN9ZHSiHW44EDxP0gHCR4k2,html-button-response,187,822010,0.0-46.0-6.0-0.0-3.0,,,,,,,,,,,,100.0,0.0,,5c4068a67f81e900012b281e,16:18:31,03/04/2024
,"<p style=""font-size:75px;"">...</p>",,ospan,iti,W7GgjpN9ZHSiHW44EDxP0gHCR4k2,html-keyboard-response,188,823012,0.0-46.0-6.0-1.0-0.0,,,,,,,,,,,,,,,5c4068a67f81e900012b281e,16:18:31,03/04/2024
887.0,,,ospan,symmetry,W7GgjpN9ZHSiHW44EDxP0gHCR4k2,symmetry-judgement-task,189,825011,0.0-46.0-6.0-1.0-1.0-0.0,,,,,,,,,,1.0,1.0,,,,5c4068a67f81e900012b281e,16:18:31,03/04/2024
,"<div style=""font-size: 10rem; color: #0000FF"">S</div>",,ospan,letter,W7GgjpN9ZHSiHW44EDxP0gHCR4k2,html-keyboard-response,190,826012,0.0-46.0-6.0-1.0-1.0-1.0,,,,,,,,,,,,,,,5c4068a67f81e900012b281e,16:18:31,03/04/2024
914.0,,,ospan,symmetry,W7GgjpN9ZHSiHW44EDxP0gHCR4k2,symmetry-judgement-task,191,828787,0.0-46.0-6.0-1.0-1.0-2.0,,,,,,,,,,1.0,1.0,,,,5c4068a67f81e900012b281e,16:18:31,03/04/2024
,"<div style=""font-size: 10rem; color: #0000FF"">G</div>",,ospan,letter,W7GgjpN9ZHSiHW44EDxP0gHCR4k2,html-keyboard-response,192,829788,0.0-46.0-6.0-1.0-1.0-3.0,,,,,,,,,,,,,,,5c4068a67f81e900012b281e,16:18:31,03/04/2024
965.0,,,ospan,symmetry,W7GgjpN9ZHSiHW44EDxP0gHCR4k2,symmetry-judgement-task,193,832622,0.0-46.0-6.0-1.0-1.0-4.0,,,,,,,,,,1.0,1.0,,,,5c4068a67f81e900012b281e,16:18:31,03/04/2024
,"<div style=""font-size: 10rem; color: #0000FF"">C</div>",,ospan,letter,W7GgjpN9ZHSiHW44EDxP0gHCR4k2,html-keyboard-response,194,833623,0.0-46.0-6.0-1.0-1.0-5.0,,,,,,,,,,,,,,,5c4068a67f81e900012b281e,16:18:31,03/04/2024
929.0,,,ospan,symmetry,W7GgjpN9ZHSiHW44EDxP0gHCR4k2,symmetry-judgement-task,195,836414,0.0-46.0-6.0-1.0-1.0-6.0,,,,,,,,,,1.0,1.0,,,,5c4068a67f81e900012b281e,16:18:31,03/04/2024
,"<div style=""font-size: 10rem; color: #0000FF"">P</div>",,ospan,letter,W7GgjpN9ZHSiHW44EDxP0gHCR4k2,html-keyboard-response,196,837415,0.0-46.0-6.0-1.0-1.0-7.0,,,,,,,,,,,,,,,5c4068a67f81e900012b281e,16:18:31,03/04/2024
913.0,,,ospan,symmetry,W7GgjpN9ZHSiHW44EDxP0gHCR4k2,symmetry-judgement-task,197,840189,0.0-46.0-6.0-1.0-1.0-8.0,,,,,,,,,,1.0,1.0,,,,5c4068a67f81e900012b281e,16:18:31,03/04/2024
,"<div style=""font-size: 10rem; color: #0000FF"">Q</div>",,ospan,letter,W7GgjpN9ZHSiHW44EDxP0gHCR4k2,html-keyboard-response,198,841203,0.0-46.0-6.0-1.0-1.0-9.0,,,,,,,,,,,,,,,5c4068a67f81e900012b281e,16:18:31,03/04/2024
945.0,,,ospan,symmetry,W7GgjpN9ZHSiHW44EDxP0gHCR4k2,symmetry-judgement-task,199,844015,0.0-46.0-6.0-1.0-1.0-10.0,,,,,,,,,,1.0,1.0,,,,5c4068a67f81e900012b281e,16:18:31,03/04/2024
,"<div style=""font-size: 10rem; color: #0000FF"">K</div>",,ospan,letter,W7GgjpN9ZHSiHW44EDxP0gHCR4k2,html-keyboard-response,200,845016,0.0-46.0-6.0-1.0-1.0-11.0,,,,,,,,,,,,,,,5c4068a67f81e900012b281e,16:18:31,03/04/2024
1045.0,,,ospan,symmetry,W7GgjpN9ZHSiHW44EDxP0gHCR4k2,symmetry-judgement-task,201,847929,0.0-46.0-6.0-1.0-1.0-12.0,,,,,,,,,,1.0,1.0,,,,5c4068a67f81e900012b281e,16:18:31,03/04/2024
,"<div style=""font-size: 10rem; color: #0000FF"">L</div>",,ospan,letter,W7GgjpN9ZHSiHW44EDxP0gHCR4k2,html-keyboard-response,202,848932,0.0-46.0-6.0-1.0-1.0-13.0,,,,,,,,,,,,,,,5c4068a67f81e900012b281e,16:18:31,03/04/2024
2063.0,,,ospan,symmetry,W7GgjpN9ZHSiHW44EDxP0gHCR4k2,symmetry-judgement-task,203,852864,0.0-46.0-6.0-1.0-1.0-14.0,,,,,,,,,,1.0,1.0,,,,5c4068a67f81e900012b281e,16:18:31,03/04/2024
,"<div style=""font-size: 10rem; color: #0000FF"">Y</div>",,ospan,letter,W7GgjpN9ZHSiHW44EDxP0gHCR4k2,html-keyboard-response,204,853865,0.0-46.0-6.0-1.0-1.0-15.0,,,,,,,,,,,,,,,5c4068a67f81e900012b281e,16:18:31,03/04/2024
7701.199999999953,"<div class = numbox><p style=""font-size: 2.4rem"">Please recall the letters you saw to the best of your ability. If you do not remember a particular letter, use the SKIP button.<br><b>(When you are ready to lock in your answer, press ENTER)</b></p><button id = button_1 class = ""square num-button"" onclick = ""recordClick(this)""><div class = content><div class = numbers>C</div></div></button><button id = button_2 class = ""square num-button"" onclick = ""recordClick(this)""><div class = content><div class = numbers>G</div></div></button><button id = button_3 class = ""square num-button"" onclick = ""recordClick(this)""><div class = content><div class = numbers>H</div></div></button><button id = button_4 class = ""square num-button"" onclick = ""recordClick(this)""><div class = content><div class = numbers>J</div></div></button><button id = button_5 class = ""square num-button"" onclick = ""recordClick(this)""><div class = content><div class = numbers>K</div></div></button><button id = button_6 class = ""square num-button"" onclick = ""recordClick(this)""><div class = content><div class = numbers>L</div></div></button><button id = button_7 class = ""square num-button"" onclick = ""recordClick(this)""><div class = content><div class = numbers>N</div></div></button><button id = button_8 class = ""square num-button"" onclick = ""recordClick(this)""><div class = content><div class = numbers>P</div></div></button><button id = button_9 class = ""square num-button"" onclick = ""recordClick(this)""><div class = content><div class = numbers>Q</div></div></button><button id = button_10 class = ""square num-button"" onclick = ""recordClick(this)""><div class = content><div class = numbers>R</div></div></button><button id = button_11 class = ""square num-button"" onclick = ""recordClick(this)""><div class = content><div class = numbers>S</div></div></button><button id = button_12 class = ""square num-button"" onclick = ""recordClick(this)""><div class = content><div class = numbers>Y</div></div></button><button class = clear_button id = ""ClearButton"" onclick = ""clearResponse()"">BACKSPACE</button><button class = blank_button id = ""BlankButton"" onclick = ""blankResponse()"">SKIP</button><p style=""font-size: 2.4rem""><u><b>Current Answer:</b></u></p><br><br><div id=echoed_txt style=""font-size: 5rem; color:blue;""><b></b></div></div>",enter,ospan,retrieval,W7GgjpN9ZHSiHW44EDxP0gHCR4k2,html-keyboard-response,205,862319,0.0-46.0-6.0-1.0-2.0,41,29,26,8.0,"[""S"",""J"",""C"",""L"",""G"",""Q""]","[""S"",""G"",""C"",""P"",""Q"",""K"",""L"",""Y""]",0.0,2.0,,,,,,,5c4068a67f81e900012b281e,16:18:31,03/04/2024
999.3999999999069,[''],0,ospan,feedback,W7GgjpN9ZHSiHW44EDxP0gHCR4k2,html-button-response,206,863820,0.0-46.0-6.0-1.0-3.0,,,,,,,,,,,,100.0,0.0,,5c4068a67f81e900012b281e,16:18:31,03/04/2024
23984.300000000047,,"{'Q0': 'a progress bar to see how far through the task could be helpful, but no major issues'}",ospan,survey_ospan,W7GgjpN9ZHSiHW44EDxP0gHCR4k2,lmdlab-survey-text,207,888568,0.0-46.0-7.0,,,,,,,,,,,,,,W7GgjpN9ZHSiHW44EDxP0gHCR4k2,5c4068a67f81e900012b281e,16:18:31,03/04/2024
3480.1999999999534,<p><p style='font-size: 3rem'>Great work!<br><br>This completes the symmetry and memory task.</p><br><br><br>,0,ospan,finish,W7GgjpN9ZHSiHW44EDxP0gHCR4k2,html-button-response,208,892051,0.0-46.0-8.0,41,29,26,,,,,,,,,100.0,,,5c4068a67f81e900012b281e,16:18:31,03/04/2024
