rt,stimulus,response,exp_name,exp_stage,subjectID,trial_type,trial_index,time_elapsed,internal_node_id,ospan_shown,ospan_total,ospan_abs,length,resp_actual,resp_correct,full_correct,num_correct,feedback,accuracy,correct,math_acc,math_warning,databaseID,prolificID,start_time,date
3342.0999999998603,<div class = 'left_align' style='font-size: 3.25rem; line-height: 1.3;'><p class = 'center_align'><b>Welcome to the Symmetry and Memory Task</b><br><br><br><br></p>Press 'continue' to show the instructions.<br><br><br><br></div>,0,ospan,instruct,fQ58jTG2AcRlcLddhU8dSU4NI4t2,html-button-response,54,524809,0.0-46.0-0.0-0.0-0.0,,,,,,,,,,,,,,,5995889da2bbe000018833d9,14:32:54,03/04/2024
13764.0,"<div class = 'left_align' style='font-size: 3.25rem; line-height: 1.3;'><p class = 'center_align'><b>Symmetry and Memory Task</b><br><br></p>In this task, you will try to memorize letters you see on the screen<br>while you also view black and white grid pictures.<br><br>In the next few minutes, you will have some practice to get you familiar<br>with how the task works.<br><br>It may be difficult sometimes, but please do not worry about making mistakes!<br><br>We will begin by practicing the letter part of the task.<br><br><br><br></div>",0,ospan,instruct,fQ58jTG2AcRlcLddhU8dSU4NI4t2,html-button-response,55,538825,0.0-46.0-0.0-0.0-1.0,,,,,,,,,,,,,,,5995889da2bbe000018833d9,14:32:54,03/04/2024
22116.199999999953,"<div class = 'left_align' style='font-size: 3.25rem; line-height: 1.3;'>For this practice part, letters will appear on the screen one at a time.<br><br>Try to remember each letter in the order presented.<br><br>After some letters have been shown, you will see a response screen. Your<br>goal is to report the letters you saw <b>in order</b>. If you do not remember<br>a particular letter, you will have the option to leave it blank.<br><br><br><br></div>",0,ospan,instruct,fQ58jTG2AcRlcLddhU8dSU4NI4t2,html-button-response,56,561193,0.0-46.0-0.0-0.0-2.0,,,,,,,,,,,,,,,5995889da2bbe000018833d9,14:32:54,03/04/2024
5844.699999999953,"<div class = 'left_align' style='font-size: 3.25rem; line-height: 1.3;'>Remember, it is very important to get the letters in the same<br>order as you see them.<br><br>When you are ready, you may begin the letter practice.</div><br><br><br><br>",0,ospan,instruct,fQ58jTG2AcRlcLddhU8dSU4NI4t2,html-button-response,57,567289,0.0-46.0-0.0-0.0-3.0,,,,,,,,,,,,,,,5995889da2bbe000018833d9,14:32:54,03/04/2024
,"<p style=""font-size:75px;"">...</p>",,ospan,iti,fQ58jTG2AcRlcLddhU8dSU4NI4t2,html-keyboard-response,58,568542,0.0-46.0-0.0-1.0-0.0,,,,,,,,,,,,,,,5995889da2bbe000018833d9,14:32:54,03/04/2024
,"<div style=""font-size: 10rem; color: #0000FF"">Y</div>",,ospan,letter,fQ58jTG2AcRlcLddhU8dSU4NI4t2,html-keyboard-response,59,569544,0.0-46.0-0.0-1.0-1.0,,,,,,,,,,,,,,,5995889da2bbe000018833d9,14:32:54,03/04/2024
,"<div style=""font-size: 10rem; color: #0000FF"">S</div>",,ospan,letter,fQ58jTG2AcRlcLddhU8dSU4NI4t2,html-keyboard-response,60,571296,0.0-46.0-0.0-1.0-2.0,,,,,,,,,,,,,,,5995889da2bbe000018833d9,14:32:54,03/04/2024
8055.09999999986,"<div class = numbox><p style=""font-size: 2.4rem"">Please recall the letters you saw to the best of your ability. If you do not remember a particular letter, use the SKIP button.<br><b>(When you are ready to lock in your answer, press ENTER)</b></p><button id = button_1 class = ""square num-button"" onclick = ""recordClick(this)""><div class = content><div class = numbers>C</div></div></button><button id = button_2 class = ""square num-button"" onclick = ""recordClick(this)""><div class = content><div class = numbers>G</div></div></button><button id = button_3 class = ""square num-button"" onclick = ""recordClick(this)""><div class = content><div class = numbers>H</div></div></button><button id = button_4 class = ""square num-button"" onclick = ""recordClick(this)""><div class = content><div class = numbers>J</div></div></button><button id = button_5 class = ""square num-button"" onclick = ""recordClick(this)""><div class = content><div class = numbers>K</div></div></button><button id = button_6 class = ""square num-button"" onclick = ""recordClick(this)""><div class = content><div class = numbers>L</div></div></button><button id = button_7 class = ""square num-button"" onclick = ""recordClick(this)""><div class = content><div class = numbers>N</div></div></button><button id = button_8 class = ""square num-button"" onclick = ""recordClick(this)""><div class = content><div class = numbers>P</div></div></button><button id = button_9 class = ""square num-button"" onclick = ""recordClick(this)""><div class = content><div class = numbers>Q</div></div></button><button id = button_10 class = ""square num-button"" onclick = ""recordClick(this)""><div class = content><div class = numbers>R</div></div></button><button id = button_11 class = ""square num-button"" onclick = ""recordClick(this)""><div class = content><div class = numbers>S</div></div></button><button id = button_12 class = ""square num-button"" onclick = ""recordClick(this)""><div class = content><div class = numbers>Y</div></div></button><button class = clear_button id = ""ClearButton"" onclick = ""clearResponse()"">BACKSPACE</button><button class = blank_button id = ""BlankButton"" onclick = ""blankResponse()"">SKIP</button><p style=""font-size: 2.4rem""><u><b>Current Answer:</b></u></p><br><br><div id=echoed_txt style=""font-size: 5rem; color:blue;""><b></b></div></div>",enter,ospan,retrieval,fQ58jTG2AcRlcLddhU8dSU4NI4t2,html-keyboard-response,61,580103,0.0-46.0-0.0-1.0-3.0,NA,NA,NA,2.0,"[""Y"",""S""]","[""Y"",""S""]",1.0,2.0,"['<font color=""green"">Y</font>', '<font color=""green"">S</font>']",,,,,,5995889da2bbe000018833d9,14:32:54,03/04/2024
1714.3999999999069,"['<p style=""font-size:44px"">Letters:<br><br><br><font color=""green"">Y</font> <font color=""green"">S</font></p><br><br>']",0,ospan,practice_feedback,fQ58jTG2AcRlcLddhU8dSU4NI4t2,html-button-response,62,582321,0.0-46.0-0.0-1.0-4.0,,,,,,,,,,,,,,,5995889da2bbe000018833d9,14:32:54,03/04/2024
,"<p style=""font-size:75px;"">...</p>",,ospan,iti,fQ58jTG2AcRlcLddhU8dSU4NI4t2,html-keyboard-response,63,583322,0.0-46.0-0.0-2.0-0.0,,,,,,,,,,,,,,,5995889da2bbe000018833d9,14:32:54,03/04/2024
,"<div style=""font-size: 10rem; color: #0000FF"">P</div>",,ospan,letter,fQ58jTG2AcRlcLddhU8dSU4NI4t2,html-keyboard-response,64,584324,0.0-46.0-0.0-2.0-1.0,,,,,,,,,,,,,,,5995889da2bbe000018833d9,14:32:54,03/04/2024
,"<div style=""font-size: 10rem; color: #0000FF"">J</div>",,ospan,letter,fQ58jTG2AcRlcLddhU8dSU4NI4t2,html-keyboard-response,65,586076,0.0-46.0-0.0-2.0-2.0,,,,,,,,,,,,,,,5995889da2bbe000018833d9,14:32:54,03/04/2024
,"<div style=""font-size: 10rem; color: #0000FF"">K</div>",,ospan,letter,fQ58jTG2AcRlcLddhU8dSU4NI4t2,html-keyboard-response,66,587827,0.0-46.0-0.0-2.0-3.0,,,,,,,,,,,,,,,5995889da2bbe000018833d9,14:32:54,03/04/2024
3385.899999999907,"<div class = numbox><p style=""font-size: 2.4rem"">Please recall the letters you saw to the best of your ability. If you do not remember a particular letter, use the SKIP button.<br><b>(When you are ready to lock in your answer, press ENTER)</b></p><button id = button_1 class = ""square num-button"" onclick = ""recordClick(this)""><div class = content><div class = numbers>C</div></div></button><button id = button_2 class = ""square num-button"" onclick = ""recordClick(this)""><div class = content><div class = numbers>G</div></div></button><button id = button_3 class = ""square num-button"" onclick = ""recordClick(this)""><div class = content><div class = numbers>H</div></div></button><button id = button_4 class = ""square num-button"" onclick = ""recordClick(this)""><div class = content><div class = numbers>J</div></div></button><button id = button_5 class = ""square num-button"" onclick = ""recordClick(this)""><div class = content><div class = numbers>K</div></div></button><button id = button_6 class = ""square num-button"" onclick = ""recordClick(this)""><div class = content><div class = numbers>L</div></div></button><button id = button_7 class = ""square num-button"" onclick = ""recordClick(this)""><div class = content><div class = numbers>N</div></div></button><button id = button_8 class = ""square num-button"" onclick = ""recordClick(this)""><div class = content><div class = numbers>P</div></div></button><button id = button_9 class = ""square num-button"" onclick = ""recordClick(this)""><div class = content><div class = numbers>Q</div></div></button><button id = button_10 class = ""square num-button"" onclick = ""recordClick(this)""><div class = content><div class = numbers>R</div></div></button><button id = button_11 class = ""square num-button"" onclick = ""recordClick(this)""><div class = content><div class = numbers>S</div></div></button><button id = button_12 class = ""square num-button"" onclick = ""recordClick(this)""><div class = content><div class = numbers>Y</div></div></button><button class = clear_button id = ""ClearButton"" onclick = ""clearResponse()"">BACKSPACE</button><button class = blank_button id = ""BlankButton"" onclick = ""blankResponse()"">SKIP</button><p style=""font-size: 2.4rem""><u><b>Current Answer:</b></u></p><br><br><div id=echoed_txt style=""font-size: 5rem; color:blue;""><b></b></div></div>",enter,ospan,retrieval,fQ58jTG2AcRlcLddhU8dSU4NI4t2,html-keyboard-response,67,591966,0.0-46.0-0.0-2.0-4.0,NA,NA,NA,3.0,"[""P"",""J"",""K""]","[""P"",""J"",""K""]",1.0,3.0,"['<font color=""green"">P</font>', '<font color=""green"">J</font>', '<font color=""green"">K</font>']",,,,,,5995889da2bbe000018833d9,14:32:54,03/04/2024
1996.3999999999069,"['<p style=""font-size:44px"">Letters:<br><br><br><font color=""green"">P</font> <font color=""green"">J</font> <font color=""green"">K</font></p><br><br>']",0,ospan,practice_feedback,fQ58jTG2AcRlcLddhU8dSU4NI4t2,html-button-response,68,594465,0.0-46.0-0.0-2.0-5.0,,,,,,,,,,,,,,,5995889da2bbe000018833d9,14:32:54,03/04/2024
21006.299999999814,"<div class = 'left_align' style='font-size: 3.25rem; line-height: 1.3;'>Now you will practice doing the <b>symmetry judgment part</b> of the experiment.<br><br>A black and white grid picture will appear on the screen and you have to judge if it is <br>symmetrical or asymetrical.<br><br>A picture is 'mirror' symmetrical if its left half is identical to the right half when flipped.<br>Here are examples of a symmetrical and an asymetrical picture:<br><br><center><img src='Stimuli/img/symm_instructions_extra.png' style='height:420px; width:900'></img></center><br>To judge symmetry, imagine you were to fold each picture down the middle, like a book –<br>would the left half match the right half when folded onto each other?<br><br></div><br>",0,ospan,instruct,fQ58jTG2AcRlcLddhU8dSU4NI4t2,html-button-response,69,615473,0.0-46.0-1.0-0.0-0.0,,,,,,,,,,,,,,,5995889da2bbe000018833d9,14:32:54,03/04/2024
5396.5,"<div class = 'left_align' style='font-size: 3.25rem; line-height: 1.3;'>When you have viewed the picture and determined whether it is symmetrical or not,<br>you can <b>click the Yes or No button</b> below to answer.<br><br>If you take longer than 15 seconds, it will continue automatically<br>and record the answer as an error.</div><br>",0,ospan,instruct,fQ58jTG2AcRlcLddhU8dSU4NI4t2,html-button-response,70,621121,0.0-46.0-1.0-0.0-1.0,,,,,,,,,,,,,,,5995889da2bbe000018833d9,14:32:54,03/04/2024
6108.299999999814,"<div class = 'left_align' style='font-size: 3.25rem; line-height: 1.3;'>It is <b>very</b> important that you make the symmetry judgment correctly.<br><br>It is also important that you try and judge the picture as quickly as you can.<br><br>When you are ready, click on the button below to try some practice problems.</div><br><br><br><br>",0,ospan,instruct,fQ58jTG2AcRlcLddhU8dSU4NI4t2,html-button-response,71,627481,0.0-46.0-1.0-0.0-2.0,,,,,,,,,,,,,,,5995889da2bbe000018833d9,14:32:54,03/04/2024
1356.0,,,ospan,symmetry,fQ58jTG2AcRlcLddhU8dSU4NI4t2,symmetry-judgement-task,72,629630,0.0-46.0-1.0-1.0-0.0,,,,,,,,,,1.0,1.0,,,,5995889da2bbe000018833d9,14:32:54,03/04/2024
,"<p style=""color:green; font-size: 35px"">Correct</p>",,ospan,feedback,fQ58jTG2AcRlcLddhU8dSU4NI4t2,html-keyboard-response,73,630381,0.0-46.0-1.0-1.0-1.0,,,,,,,,,,,,,,,5995889da2bbe000018833d9,14:32:54,03/04/2024
1346.0,,,ospan,symmetry,fQ58jTG2AcRlcLddhU8dSU4NI4t2,symmetry-judgement-task,74,634421,0.0-46.0-1.0-1.0-2.0,,,,,,,,,,1.0,1.0,,,,5995889da2bbe000018833d9,14:32:54,03/04/2024
,"<p style=""color:green; font-size: 35px"">Correct</p>",,ospan,feedback,fQ58jTG2AcRlcLddhU8dSU4NI4t2,html-keyboard-response,75,635172,0.0-46.0-1.0-1.0-3.0,,,,,,,,,,,,,,,5995889da2bbe000018833d9,14:32:54,03/04/2024
1268.0,,,ospan,symmetry,fQ58jTG2AcRlcLddhU8dSU4NI4t2,symmetry-judgement-task,76,639158,0.0-46.0-1.0-1.0-4.0,,,,,,,,,,1.0,1.0,,,,5995889da2bbe000018833d9,14:32:54,03/04/2024
,"<p style=""color:green; font-size: 35px"">Correct</p>",,ospan,feedback,fQ58jTG2AcRlcLddhU8dSU4NI4t2,html-keyboard-response,77,639909,0.0-46.0-1.0-1.0-5.0,,,,,,,,,,,,,,,5995889da2bbe000018833d9,14:32:54,03/04/2024
6202.100000000093,"<p style=""font-size: 3rem;"">You responded correctly on 3 of 3 symmetry judgments. Good job!</p><br><br>",0,ospan,practice,fQ58jTG2AcRlcLddhU8dSU4NI4t2,html-button-response,78,648113,0.0-46.0-1.0-2.0,,,,,,,,,,,,,,,5995889da2bbe000018833d9,14:32:54,03/04/2024
10556.799999999814,"<div class = 'left_align' style='font-size: 3.25rem; line-height: 1.3;'>Now you will practice doing both parts of the experiment at the same time.<br><br>In the next practice set, you will be given one grid picture to judge.<br>Then letter will appear on the screen. Try to remember the letter.<br><br>It is <b>very important</b> to make the symmetry judgment as quickly and accurately as possible.<br><br>Just as before, once you have make the symmetry judgment, you can click Yes or No.<br><b>Note that you will no longer see Correct or Incorrect feedback.</div><br><br><br><br>",0,ospan,instruct,fQ58jTG2AcRlcLddhU8dSU4NI4t2,html-button-response,79,658921,0.0-46.0-2.0-0.0-0.0,,,,,,,,,,,,,,,5995889da2bbe000018833d9,14:32:54,03/04/2024
2123.899999999907,"<div class = 'left_align' style='font-size: 3.25rem; line-height: 1.3;'>After the letter goes away, another grid picture will appear, and then<br>another letter.<br><br>At the end of each set of letters and grids, you will recall the letters to the best<br>of your ability. Remember, try your best to get the letters in the correct order.<br><br>It is important to <b>quickly</b> and <b>accurately</b> make the symmetry judgments.</div><br><br><br><br>",0,ospan,instruct,fQ58jTG2AcRlcLddhU8dSU4NI4t2,html-button-response,80,661297,0.0-46.0-2.0-0.0-1.0,,,,,,,,,,,,,,,5995889da2bbe000018833d9,14:32:54,03/04/2024
31427.899999999907,"<div class = 'left_align' style='font-size: 3.25rem; line-height: 1.3;'>On the feedback screen, if you are not doing well at the symmetry judgments,<br>you will also see a warning in the middle. This indicates your percent <br>correct for the grid pictures for the entire experiment.<br><br>It is <b>very</b> important for you to keep accuracy at least at 85%: <u>We can only use<br>data where the participant was at least 85% accurate on the judgments.</u> Therefore,<br> please try your best to perform well on the symmetry judgments, <b>at the same time</b><br>doing your best to recall as many letters as possible.<br><br>Click the button to try some practice problems.</div><br><br><br><br>",0,ospan,instruct,fQ58jTG2AcRlcLddhU8dSU4NI4t2,html-button-response,81,692977,0.0-46.0-2.0-0.0-2.0,,,,,,,,,,,,,,,5995889da2bbe000018833d9,14:32:54,03/04/2024
,"<p style=""font-size:75px;"">...</p>",,ospan,iti,fQ58jTG2AcRlcLddhU8dSU4NI4t2,html-keyboard-response,82,694229,0.0-46.0-2.0-1.0-0.0,,,,,,,,,,,,,,,5995889da2bbe000018833d9,14:32:54,03/04/2024
1497.0,,,ospan,symmetry,fQ58jTG2AcRlcLddhU8dSU4NI4t2,symmetry-judgement-task,83,696922,0.0-46.0-2.0-1.0-1.0-0.0,,,,,,,,,,1.0,1.0,,,,5995889da2bbe000018833d9,14:32:54,03/04/2024
,"<div style=""font-size: 10rem; color: #0000FF"">P</div>",,ospan,letter,fQ58jTG2AcRlcLddhU8dSU4NI4t2,html-keyboard-response,84,697923,0.0-46.0-2.0-1.0-1.0-1.0,,,,,,,,,,,,,,,5995889da2bbe000018833d9,14:32:54,03/04/2024
2078.0,,,ospan,symmetry,fQ58jTG2AcRlcLddhU8dSU4NI4t2,symmetry-judgement-task,85,701937,0.0-46.0-2.0-1.0-1.0-2.0,,,,,,,,,,1.0,1.0,,,,5995889da2bbe000018833d9,14:32:54,03/04/2024
,"<div style=""font-size: 10rem; color: #0000FF"">K</div>",,ospan,letter,fQ58jTG2AcRlcLddhU8dSU4NI4t2,html-keyboard-response,86,702938,0.0-46.0-2.0-1.0-1.0-3.0,,,,,,,,,,,,,,,5995889da2bbe000018833d9,14:32:54,03/04/2024
1369.0,,,ospan,symmetry,fQ58jTG2AcRlcLddhU8dSU4NI4t2,symmetry-judgement-task,87,706250,0.0-46.0-2.0-1.0-1.0-4.0,,,,,,,,,,1.0,1.0,,,,5995889da2bbe000018833d9,14:32:54,03/04/2024
,"<div style=""font-size: 10rem; color: #0000FF"">N</div>",,ospan,letter,fQ58jTG2AcRlcLddhU8dSU4NI4t2,html-keyboard-response,88,707252,0.0-46.0-2.0-1.0-1.0-5.0,,,,,,,,,,,,,,,5995889da2bbe000018833d9,14:32:54,03/04/2024
4569.59999999986,"<div class = numbox><p style=""font-size: 2.4rem"">Please recall the letters you saw to the best of your ability. If you do not remember a particular letter, use the SKIP button.<br><b>(When you are ready to lock in your answer, press ENTER)</b></p><button id = button_1 class = ""square num-button"" onclick = ""recordClick(this)""><div class = content><div class = numbers>C</div></div></button><button id = button_2 class = ""square num-button"" onclick = ""recordClick(this)""><div class = content><div class = numbers>G</div></div></button><button id = button_3 class = ""square num-button"" onclick = ""recordClick(this)""><div class = content><div class = numbers>H</div></div></button><button id = button_4 class = ""square num-button"" onclick = ""recordClick(this)""><div class = content><div class = numbers>J</div></div></button><button id = button_5 class = ""square num-button"" onclick = ""recordClick(this)""><div class = content><div class = numbers>K</div></div></button><button id = button_6 class = ""square num-button"" onclick = ""recordClick(this)""><div class = content><div class = numbers>L</div></div></button><button id = button_7 class = ""square num-button"" onclick = ""recordClick(this)""><div class = content><div class = numbers>N</div></div></button><button id = button_8 class = ""square num-button"" onclick = ""recordClick(this)""><div class = content><div class = numbers>P</div></div></button><button id = button_9 class = ""square num-button"" onclick = ""recordClick(this)""><div class = content><div class = numbers>Q</div></div></button><button id = button_10 class = ""square num-button"" onclick = ""recordClick(this)""><div class = content><div class = numbers>R</div></div></button><button id = button_11 class = ""square num-button"" onclick = ""recordClick(this)""><div class = content><div class = numbers>S</div></div></button><button id = button_12 class = ""square num-button"" onclick = ""recordClick(this)""><div class = content><div class = numbers>Y</div></div></button><button class = clear_button id = ""ClearButton"" onclick = ""clearResponse()"">BACKSPACE</button><button class = blank_button id = ""BlankButton"" onclick = ""blankResponse()"">SKIP</button><p style=""font-size: 2.4rem""><u><b>Current Answer:</b></u></p><br><br><div id=echoed_txt style=""font-size: 5rem; color:blue;""><b></b></div></div>",enter,ospan,retrieval,fQ58jTG2AcRlcLddhU8dSU4NI4t2,html-keyboard-response,89,712574,0.0-46.0-2.0-1.0-2.0-0.0,NA,NA,NA,3.0,"[""P"",""K"",""N""]","[""P"",""K"",""N""]",1.0,3.0,"['<font color=""green"">P</font>', '<font color=""green"">K</font>', '<font color=""green"">N</font>']",,,,,,5995889da2bbe000018833d9,14:32:54,03/04/2024
3788.5999999998603,"['<p style=""font-size:44px"">Letters:<br><br><br><font color=""green"">P</font> <font color=""green"">K</font> <font color=""green"">N</font></p><br><br><p style=""font-size:30px"">Symmetry:<br><br><font color=""green"">100%</font></p><br><br>']",0,ospan,practice_feedback,fQ58jTG2AcRlcLddhU8dSU4NI4t2,html-button-response,90,716865,0.0-46.0-2.0-1.0-2.0-1.0,,,,,,,,,,,,,,,5995889da2bbe000018833d9,14:32:54,03/04/2024
,"<p style=""font-size:75px;"">...</p>",,ospan,iti,fQ58jTG2AcRlcLddhU8dSU4NI4t2,html-keyboard-response,91,717867,0.0-46.0-2.0-2.0-0.0,,,,,,,,,,,,,,,5995889da2bbe000018833d9,14:32:54,03/04/2024
1192.0,,,ospan,symmetry,fQ58jTG2AcRlcLddhU8dSU4NI4t2,symmetry-judgement-task,92,720259,0.0-46.0-2.0-2.0-1.0-0.0,,,,,,,,,,1.0,1.0,,,,5995889da2bbe000018833d9,14:32:54,03/04/2024
,"<div style=""font-size: 10rem; color: #0000FF"">L</div>",,ospan,letter,fQ58jTG2AcRlcLddhU8dSU4NI4t2,html-keyboard-response,93,721260,0.0-46.0-2.0-2.0-1.0-1.0,,,,,,,,,,,,,,,5995889da2bbe000018833d9,14:32:54,03/04/2024
1608.0,,,ospan,symmetry,fQ58jTG2AcRlcLddhU8dSU4NI4t2,symmetry-judgement-task,94,724833,0.0-46.0-2.0-2.0-1.0-2.0,,,,,,,,,,1.0,1.0,,,,5995889da2bbe000018833d9,14:32:54,03/04/2024
,"<div style=""font-size: 10rem; color: #0000FF"">S</div>",,ospan,letter,fQ58jTG2AcRlcLddhU8dSU4NI4t2,html-keyboard-response,95,725834,0.0-46.0-2.0-2.0-1.0-3.0,,,,,,,,,,,,,,,5995889da2bbe000018833d9,14:32:54,03/04/2024
1169.0,,,ospan,symmetry,fQ58jTG2AcRlcLddhU8dSU4NI4t2,symmetry-judgement-task,96,728961,0.0-46.0-2.0-2.0-1.0-4.0,,,,,,,,,,1.0,1.0,,,,5995889da2bbe000018833d9,14:32:54,03/04/2024
,"<div style=""font-size: 10rem; color: #0000FF"">Q</div>",,ospan,letter,fQ58jTG2AcRlcLddhU8dSU4NI4t2,html-keyboard-response,97,729962,0.0-46.0-2.0-2.0-1.0-5.0,,,,,,,,,,,,,,,5995889da2bbe000018833d9,14:32:54,03/04/2024
3018.1999999999534,"<div class = numbox><p style=""font-size: 2.4rem"">Please recall the letters you saw to the best of your ability. If you do not remember a particular letter, use the SKIP button.<br><b>(When you are ready to lock in your answer, press ENTER)</b></p><button id = button_1 class = ""square num-button"" onclick = ""recordClick(this)""><div class = content><div class = numbers>C</div></div></button><button id = button_2 class = ""square num-button"" onclick = ""recordClick(this)""><div class = content><div class = numbers>G</div></div></button><button id = button_3 class = ""square num-button"" onclick = ""recordClick(this)""><div class = content><div class = numbers>H</div></div></button><button id = button_4 class = ""square num-button"" onclick = ""recordClick(this)""><div class = content><div class = numbers>J</div></div></button><button id = button_5 class = ""square num-button"" onclick = ""recordClick(this)""><div class = content><div class = numbers>K</div></div></button><button id = button_6 class = ""square num-button"" onclick = ""recordClick(this)""><div class = content><div class = numbers>L</div></div></button><button id = button_7 class = ""square num-button"" onclick = ""recordClick(this)""><div class = content><div class = numbers>N</div></div></button><button id = button_8 class = ""square num-button"" onclick = ""recordClick(this)""><div class = content><div class = numbers>P</div></div></button><button id = button_9 class = ""square num-button"" onclick = ""recordClick(this)""><div class = content><div class = numbers>Q</div></div></button><button id = button_10 class = ""square num-button"" onclick = ""recordClick(this)""><div class = content><div class = numbers>R</div></div></button><button id = button_11 class = ""square num-button"" onclick = ""recordClick(this)""><div class = content><div class = numbers>S</div></div></button><button id = button_12 class = ""square num-button"" onclick = ""recordClick(this)""><div class = content><div class = numbers>Y</div></div></button><button class = clear_button id = ""ClearButton"" onclick = ""clearResponse()"">BACKSPACE</button><button class = blank_button id = ""BlankButton"" onclick = ""blankResponse()"">SKIP</button><p style=""font-size: 2.4rem""><u><b>Current Answer:</b></u></p><br><br><div id=echoed_txt style=""font-size: 5rem; color:blue;""><b></b></div></div>",enter,ospan,retrieval,fQ58jTG2AcRlcLddhU8dSU4NI4t2,html-keyboard-response,98,733732,0.0-46.0-2.0-2.0-2.0-0.0,NA,NA,NA,3.0,"[""L"",""S"",""Q""]","[""L"",""S"",""Q""]",1.0,3.0,"['<font color=""green"">L</font>', '<font color=""green"">S</font>', '<font color=""green"">Q</font>']",,,,,,5995889da2bbe000018833d9,14:32:54,03/04/2024
9325.799999999814,"['<p style=""font-size:44px"">Letters:<br><br><br><font color=""green"">L</font> <font color=""green"">S</font> <font color=""green"">Q</font></p><br><br><p style=""font-size:30px"">Symmetry:<br><br><font color=""green"">100%</font></p><br><br>']",0,ospan,practice_feedback,fQ58jTG2AcRlcLddhU8dSU4NI4t2,html-button-response,99,743561,0.0-46.0-2.0-2.0-2.0-1.0,,,,,,,,,,,,,,,5995889da2bbe000018833d9,14:32:54,03/04/2024
21590.40000000014,"<div class = 'left_align' style='font-size: 3rem; line-height: 1.3;'><b>Great work! That is the end of practice.</b><br><br>The real trials will look just like the practice trials you just completed.<br><br><u>Here, you will not see feedback</u>. First, you will see an grid picture to judge,<br>then a letter to remember. When the recall screen appears, report the letters in the<br>order presented. If you forget a letter, remember to use the <b>blank</b> button to move to the<br>next letter. Some of the sets will have more symmetry grids and letters than others.<br><br>It is important that you do your best on both the symmetry judgments and the letter recall<br>parts of the experiment. For for the symmetry judgments, try to work as <b>quickly</b> and <br>as <b>accurately</b> as possible. Remember to keep your symmetry accuracy at 85% or above.<br><br><b>For the letters, do NOT use any external aid (e.g., writing on paper, electronic device).</b><br><br>It is <u>very important</u> to our experiment to have a <b>true</b> view of your real performance.<br><br>Do not worry if you miss some when it gets hard! This task is meant to be very challenging!<br><br>Click the button to begin.</div><br><br><br><br>",0,ospan,starting_real_here,fQ58jTG2AcRlcLddhU8dSU4NI4t2,html-button-response,100,765153,0.0-46.0-2.0-3.0,,,,,,,,,,,,,,,5995889da2bbe000018833d9,14:32:54,03/04/2024
,"<p style=""font-size:75px;"">...</p>",,ospan,iti,fQ58jTG2AcRlcLddhU8dSU4NI4t2,html-keyboard-response,101,766405,0.0-46.0-3.0-0.0-0.0,,,,,,,,,,,,,,,5995889da2bbe000018833d9,14:32:54,03/04/2024
1386.0,,,ospan,symmetry,fQ58jTG2AcRlcLddhU8dSU4NI4t2,symmetry-judgement-task,102,768987,0.0-46.0-3.0-0.0-1.0-0.0,,,,,,,,,,1.0,1.0,,,,5995889da2bbe000018833d9,14:32:54,03/04/2024
,"<div style=""font-size: 10rem; color: #0000FF"">N</div>",,ospan,letter,fQ58jTG2AcRlcLddhU8dSU4NI4t2,html-keyboard-response,103,769988,0.0-46.0-3.0-0.0-1.0-1.0,,,,,,,,,,,,,,,5995889da2bbe000018833d9,14:32:54,03/04/2024
1288.0,,,ospan,symmetry,fQ58jTG2AcRlcLddhU8dSU4NI4t2,symmetry-judgement-task,104,773217,0.0-46.0-3.0-0.0-1.0-2.0,,,,,,,,,,1.0,1.0,,,,5995889da2bbe000018833d9,14:32:54,03/04/2024
,"<div style=""font-size: 10rem; color: #0000FF"">R</div>",,ospan,letter,fQ58jTG2AcRlcLddhU8dSU4NI4t2,html-keyboard-response,105,774218,0.0-46.0-3.0-0.0-1.0-3.0,,,,,,,,,,,,,,,5995889da2bbe000018833d9,14:32:54,03/04/2024
1222.0,,,ospan,symmetry,fQ58jTG2AcRlcLddhU8dSU4NI4t2,symmetry-judgement-task,106,777394,0.0-46.0-3.0-0.0-1.0-4.0,,,,,,,,,,1.0,1.0,,,,5995889da2bbe000018833d9,14:32:54,03/04/2024
,"<div style=""font-size: 10rem; color: #0000FF"">K</div>",,ospan,letter,fQ58jTG2AcRlcLddhU8dSU4NI4t2,html-keyboard-response,107,778395,0.0-46.0-3.0-0.0-1.0-5.0,,,,,,,,,,,,,,,5995889da2bbe000018833d9,14:32:54,03/04/2024
16160.600000000093,"<div class = numbox><p style=""font-size: 2.4rem"">Please recall the letters you saw to the best of your ability. If you do not remember a particular letter, use the SKIP button.<br><b>(When you are ready to lock in your answer, press ENTER)</b></p><button id = button_1 class = ""square num-button"" onclick = ""recordClick(this)""><div class = content><div class = numbers>C</div></div></button><button id = button_2 class = ""square num-button"" onclick = ""recordClick(this)""><div class = content><div class = numbers>G</div></div></button><button id = button_3 class = ""square num-button"" onclick = ""recordClick(this)""><div class = content><div class = numbers>H</div></div></button><button id = button_4 class = ""square num-button"" onclick = ""recordClick(this)""><div class = content><div class = numbers>J</div></div></button><button id = button_5 class = ""square num-button"" onclick = ""recordClick(this)""><div class = content><div class = numbers>K</div></div></button><button id = button_6 class = ""square num-button"" onclick = ""recordClick(this)""><div class = content><div class = numbers>L</div></div></button><button id = button_7 class = ""square num-button"" onclick = ""recordClick(this)""><div class = content><div class = numbers>N</div></div></button><button id = button_8 class = ""square num-button"" onclick = ""recordClick(this)""><div class = content><div class = numbers>P</div></div></button><button id = button_9 class = ""square num-button"" onclick = ""recordClick(this)""><div class = content><div class = numbers>Q</div></div></button><button id = button_10 class = ""square num-button"" onclick = ""recordClick(this)""><div class = content><div class = numbers>R</div></div></button><button id = button_11 class = ""square num-button"" onclick = ""recordClick(this)""><div class = content><div class = numbers>S</div></div></button><button id = button_12 class = ""square num-button"" onclick = ""recordClick(this)""><div class = content><div class = numbers>Y</div></div></button><button class = clear_button id = ""ClearButton"" onclick = ""clearResponse()"">BACKSPACE</button><button class = blank_button id = ""BlankButton"" onclick = ""blankResponse()"">SKIP</button><p style=""font-size: 2.4rem""><u><b>Current Answer:</b></u></p><br><br><div id=echoed_txt style=""font-size: 5rem; color:blue;""><b></b></div></div>",enter,ospan,retrieval,fQ58jTG2AcRlcLddhU8dSU4NI4t2,html-keyboard-response,108,795309,0.0-46.0-3.0-0.0-2.0,3,3,3,3.0,"[""N"",""R"",""K""]","[""N"",""R"",""K""]",1.0,3.0,,,,,,,5995889da2bbe000018833d9,14:32:54,03/04/2024
3878.600000000093,[''],0,ospan,feedback,fQ58jTG2AcRlcLddhU8dSU4NI4t2,html-button-response,109,799689,0.0-46.0-3.0-0.0-3.0,,,,,,,,,,,,100.0,0.0,,5995889da2bbe000018833d9,14:32:54,03/04/2024
,"<p style=""font-size:75px;"">...</p>",,ospan,iti,fQ58jTG2AcRlcLddhU8dSU4NI4t2,html-keyboard-response,110,800691,0.0-46.0-4.0-0.0-0.0,,,,,,,,,,,,,,,5995889da2bbe000018833d9,14:32:54,03/04/2024
1204.0,,,ospan,symmetry,fQ58jTG2AcRlcLddhU8dSU4NI4t2,symmetry-judgement-task,111,803106,0.0-46.0-4.0-0.0-1.0-0.0,,,,,,,,,,1.0,1.0,,,,5995889da2bbe000018833d9,14:32:54,03/04/2024
,"<div style=""font-size: 10rem; color: #0000FF"">K</div>",,ospan,letter,fQ58jTG2AcRlcLddhU8dSU4NI4t2,html-keyboard-response,112,804108,0.0-46.0-4.0-0.0-1.0-1.0,,,,,,,,,,,,,,,5995889da2bbe000018833d9,14:32:54,03/04/2024
1673.0,,,ospan,symmetry,fQ58jTG2AcRlcLddhU8dSU4NI4t2,symmetry-judgement-task,113,807721,0.0-46.0-4.0-0.0-1.0-2.0,,,,,,,,,,1.0,1.0,,,,5995889da2bbe000018833d9,14:32:54,03/04/2024
,"<div style=""font-size: 10rem; color: #0000FF"">N</div>",,ospan,letter,fQ58jTG2AcRlcLddhU8dSU4NI4t2,html-keyboard-response,114,808722,0.0-46.0-4.0-0.0-1.0-3.0,,,,,,,,,,,,,,,5995889da2bbe000018833d9,14:32:54,03/04/2024
1506.0,,,ospan,symmetry,fQ58jTG2AcRlcLddhU8dSU4NI4t2,symmetry-judgement-task,115,812186,0.0-46.0-4.0-0.0-1.0-4.0,,,,,,,,,,1.0,1.0,,,,5995889da2bbe000018833d9,14:32:54,03/04/2024
,"<div style=""font-size: 10rem; color: #0000FF"">P</div>",,ospan,letter,fQ58jTG2AcRlcLddhU8dSU4NI4t2,html-keyboard-response,116,813187,0.0-46.0-4.0-0.0-1.0-5.0,,,,,,,,,,,,,,,5995889da2bbe000018833d9,14:32:54,03/04/2024
1554.0,,,ospan,symmetry,fQ58jTG2AcRlcLddhU8dSU4NI4t2,symmetry-judgement-task,117,816713,0.0-46.0-4.0-0.0-1.0-6.0,,,,,,,,,,1.0,1.0,,,,5995889da2bbe000018833d9,14:32:54,03/04/2024
,"<div style=""font-size: 10rem; color: #0000FF"">Y</div>",,ospan,letter,fQ58jTG2AcRlcLddhU8dSU4NI4t2,html-keyboard-response,118,817714,0.0-46.0-4.0-0.0-1.0-7.0,,,,,,,,,,,,,,,5995889da2bbe000018833d9,14:32:54,03/04/2024
3357.4000000001397,"<div class = numbox><p style=""font-size: 2.4rem"">Please recall the letters you saw to the best of your ability. If you do not remember a particular letter, use the SKIP button.<br><b>(When you are ready to lock in your answer, press ENTER)</b></p><button id = button_1 class = ""square num-button"" onclick = ""recordClick(this)""><div class = content><div class = numbers>C</div></div></button><button id = button_2 class = ""square num-button"" onclick = ""recordClick(this)""><div class = content><div class = numbers>G</div></div></button><button id = button_3 class = ""square num-button"" onclick = ""recordClick(this)""><div class = content><div class = numbers>H</div></div></button><button id = button_4 class = ""square num-button"" onclick = ""recordClick(this)""><div class = content><div class = numbers>J</div></div></button><button id = button_5 class = ""square num-button"" onclick = ""recordClick(this)""><div class = content><div class = numbers>K</div></div></button><button id = button_6 class = ""square num-button"" onclick = ""recordClick(this)""><div class = content><div class = numbers>L</div></div></button><button id = button_7 class = ""square num-button"" onclick = ""recordClick(this)""><div class = content><div class = numbers>N</div></div></button><button id = button_8 class = ""square num-button"" onclick = ""recordClick(this)""><div class = content><div class = numbers>P</div></div></button><button id = button_9 class = ""square num-button"" onclick = ""recordClick(this)""><div class = content><div class = numbers>Q</div></div></button><button id = button_10 class = ""square num-button"" onclick = ""recordClick(this)""><div class = content><div class = numbers>R</div></div></button><button id = button_11 class = ""square num-button"" onclick = ""recordClick(this)""><div class = content><div class = numbers>S</div></div></button><button id = button_12 class = ""square num-button"" onclick = ""recordClick(this)""><div class = content><div class = numbers>Y</div></div></button><button class = clear_button id = ""ClearButton"" onclick = ""clearResponse()"">BACKSPACE</button><button class = blank_button id = ""BlankButton"" onclick = ""blankResponse()"">SKIP</button><p style=""font-size: 2.4rem""><u><b>Current Answer:</b></u></p><br><br><div id=echoed_txt style=""font-size: 5rem; color:blue;""><b></b></div></div>",enter,ospan,retrieval,fQ58jTG2AcRlcLddhU8dSU4NI4t2,html-keyboard-response,119,821823,0.0-46.0-4.0-0.0-2.0,7,7,7,4.0,"[""K"",""N"",""P"",""Y""]","[""K"",""N"",""P"",""Y""]",1.0,4.0,,,,,,,5995889da2bbe000018833d9,14:32:54,03/04/2024
3611.899999999907,[''],0,ospan,feedback,fQ58jTG2AcRlcLddhU8dSU4NI4t2,html-button-response,120,825937,0.0-46.0-4.0-0.0-3.0,,,,,,,,,,,,100.0,0.0,,5995889da2bbe000018833d9,14:32:54,03/04/2024
,"<p style=""font-size:75px;"">...</p>",,ospan,iti,fQ58jTG2AcRlcLddhU8dSU4NI4t2,html-keyboard-response,121,826939,0.0-46.0-4.0-1.0-0.0,,,,,,,,,,,,,,,5995889da2bbe000018833d9,14:32:54,03/04/2024
1409.0,,,ospan,symmetry,fQ58jTG2AcRlcLddhU8dSU4NI4t2,symmetry-judgement-task,122,829386,0.0-46.0-4.0-1.0-1.0-0.0,,,,,,,,,,1.0,1.0,,,,5995889da2bbe000018833d9,14:32:54,03/04/2024
,"<div style=""font-size: 10rem; color: #0000FF"">N</div>",,ospan,letter,fQ58jTG2AcRlcLddhU8dSU4NI4t2,html-keyboard-response,123,830387,0.0-46.0-4.0-1.0-1.0-1.0,,,,,,,,,,,,,,,5995889da2bbe000018833d9,14:32:54,03/04/2024
1211.0,,,ospan,symmetry,fQ58jTG2AcRlcLddhU8dSU4NI4t2,symmetry-judgement-task,124,833545,0.0-46.0-4.0-1.0-1.0-2.0,,,,,,,,,,1.0,1.0,,,,5995889da2bbe000018833d9,14:32:54,03/04/2024
,"<div style=""font-size: 10rem; color: #0000FF"">H</div>",,ospan,letter,fQ58jTG2AcRlcLddhU8dSU4NI4t2,html-keyboard-response,125,834547,0.0-46.0-4.0-1.0-1.0-3.0,,,,,,,,,,,,,,,5995889da2bbe000018833d9,14:32:54,03/04/2024
1156.0,,,ospan,symmetry,fQ58jTG2AcRlcLddhU8dSU4NI4t2,symmetry-judgement-task,126,837642,0.0-46.0-4.0-1.0-1.0-4.0,,,,,,,,,,1.0,1.0,,,,5995889da2bbe000018833d9,14:32:54,03/04/2024
,"<div style=""font-size: 10rem; color: #0000FF"">R</div>",,ospan,letter,fQ58jTG2AcRlcLddhU8dSU4NI4t2,html-keyboard-response,127,838643,0.0-46.0-4.0-1.0-1.0-5.0,,,,,,,,,,,,,,,5995889da2bbe000018833d9,14:32:54,03/04/2024
1172.0,,,ospan,symmetry,fQ58jTG2AcRlcLddhU8dSU4NI4t2,symmetry-judgement-task,128,841761,0.0-46.0-4.0-1.0-1.0-6.0,,,,,,,,,,1.0,1.0,,,,5995889da2bbe000018833d9,14:32:54,03/04/2024
,"<div style=""font-size: 10rem; color: #0000FF"">C</div>",,ospan,letter,fQ58jTG2AcRlcLddhU8dSU4NI4t2,html-keyboard-response,129,842762,0.0-46.0-4.0-1.0-1.0-7.0,,,,,,,,,,,,,,,5995889da2bbe000018833d9,14:32:54,03/04/2024
1222.0,,,ospan,symmetry,fQ58jTG2AcRlcLddhU8dSU4NI4t2,symmetry-judgement-task,130,845938,0.0-46.0-4.0-1.0-1.0-8.0,,,,,,,,,,1.0,1.0,,,,5995889da2bbe000018833d9,14:32:54,03/04/2024
,"<div style=""font-size: 10rem; color: #0000FF"">G</div>",,ospan,letter,fQ58jTG2AcRlcLddhU8dSU4NI4t2,html-keyboard-response,131,846939,0.0-46.0-4.0-1.0-1.0-9.0,,,,,,,,,,,,,,,5995889da2bbe000018833d9,14:32:54,03/04/2024
5918.300000000047,"<div class = numbox><p style=""font-size: 2.4rem"">Please recall the letters you saw to the best of your ability. If you do not remember a particular letter, use the SKIP button.<br><b>(When you are ready to lock in your answer, press ENTER)</b></p><button id = button_1 class = ""square num-button"" onclick = ""recordClick(this)""><div class = content><div class = numbers>C</div></div></button><button id = button_2 class = ""square num-button"" onclick = ""recordClick(this)""><div class = content><div class = numbers>G</div></div></button><button id = button_3 class = ""square num-button"" onclick = ""recordClick(this)""><div class = content><div class = numbers>H</div></div></button><button id = button_4 class = ""square num-button"" onclick = ""recordClick(this)""><div class = content><div class = numbers>J</div></div></button><button id = button_5 class = ""square num-button"" onclick = ""recordClick(this)""><div class = content><div class = numbers>K</div></div></button><button id = button_6 class = ""square num-button"" onclick = ""recordClick(this)""><div class = content><div class = numbers>L</div></div></button><button id = button_7 class = ""square num-button"" onclick = ""recordClick(this)""><div class = content><div class = numbers>N</div></div></button><button id = button_8 class = ""square num-button"" onclick = ""recordClick(this)""><div class = content><div class = numbers>P</div></div></button><button id = button_9 class = ""square num-button"" onclick = ""recordClick(this)""><div class = content><div class = numbers>Q</div></div></button><button id = button_10 class = ""square num-button"" onclick = ""recordClick(this)""><div class = content><div class = numbers>R</div></div></button><button id = button_11 class = ""square num-button"" onclick = ""recordClick(this)""><div class = content><div class = numbers>S</div></div></button><button id = button_12 class = ""square num-button"" onclick = ""recordClick(this)""><div class = content><div class = numbers>Y</div></div></button><button class = clear_button id = ""ClearButton"" onclick = ""clearResponse()"">BACKSPACE</button><button class = blank_button id = ""BlankButton"" onclick = ""blankResponse()"">SKIP</button><p style=""font-size: 2.4rem""><u><b>Current Answer:</b></u></p><br><br><div id=echoed_txt style=""font-size: 5rem; color:blue;""><b></b></div></div>",enter,ospan,retrieval,fQ58jTG2AcRlcLddhU8dSU4NI4t2,html-keyboard-response,132,853610,0.0-46.0-4.0-1.0-2.0,12,12,12,5.0,"[""N"",""H"",""R"",""C"",""G""]","[""N"",""H"",""R"",""C"",""G""]",1.0,5.0,,,,,,,5995889da2bbe000018833d9,14:32:54,03/04/2024
1136.8000000000466,[''],0,ospan,feedback,fQ58jTG2AcRlcLddhU8dSU4NI4t2,html-button-response,133,855249,0.0-46.0-4.0-1.0-3.0,,,,,,,,,,,,100.0,0.0,,5995889da2bbe000018833d9,14:32:54,03/04/2024
,"<p style=""font-size:75px;"">...</p>",,ospan,iti,fQ58jTG2AcRlcLddhU8dSU4NI4t2,html-keyboard-response,134,856250,0.0-46.0-4.0-2.0-0.0,,,,,,,,,,,,,,,5995889da2bbe000018833d9,14:32:54,03/04/2024
1217.0,,,ospan,symmetry,fQ58jTG2AcRlcLddhU8dSU4NI4t2,symmetry-judgement-task,135,858674,0.0-46.0-4.0-2.0-1.0-0.0,,,,,,,,,,1.0,1.0,,,,5995889da2bbe000018833d9,14:32:54,03/04/2024
,"<div style=""font-size: 10rem; color: #0000FF"">Y</div>",,ospan,letter,fQ58jTG2AcRlcLddhU8dSU4NI4t2,html-keyboard-response,136,859676,0.0-46.0-4.0-2.0-1.0-1.0,,,,,,,,,,,,,,,5995889da2bbe000018833d9,14:32:54,03/04/2024
1080.0,,,ospan,symmetry,fQ58jTG2AcRlcLddhU8dSU4NI4t2,symmetry-judgement-task,137,862698,0.0-46.0-4.0-2.0-1.0-2.0,,,,,,,,,,1.0,1.0,,,,5995889da2bbe000018833d9,14:32:54,03/04/2024
,"<div style=""font-size: 10rem; color: #0000FF"">L</div>",,ospan,letter,fQ58jTG2AcRlcLddhU8dSU4NI4t2,html-keyboard-response,138,863698,0.0-46.0-4.0-2.0-1.0-3.0,,,,,,,,,,,,,,,5995889da2bbe000018833d9,14:32:54,03/04/2024
1534.0,,,ospan,symmetry,fQ58jTG2AcRlcLddhU8dSU4NI4t2,symmetry-judgement-task,139,867185,0.0-46.0-4.0-2.0-1.0-4.0,,,,,,,,,,1.0,1.0,,,,5995889da2bbe000018833d9,14:32:54,03/04/2024
,"<div style=""font-size: 10rem; color: #0000FF"">S</div>",,ospan,letter,fQ58jTG2AcRlcLddhU8dSU4NI4t2,html-keyboard-response,140,868187,0.0-46.0-4.0-2.0-1.0-5.0,,,,,,,,,,,,,,,5995889da2bbe000018833d9,14:32:54,03/04/2024
4147.300000000047,"<div class = numbox><p style=""font-size: 2.4rem"">Please recall the letters you saw to the best of your ability. If you do not remember a particular letter, use the SKIP button.<br><b>(When you are ready to lock in your answer, press ENTER)</b></p><button id = button_1 class = ""square num-button"" onclick = ""recordClick(this)""><div class = content><div class = numbers>C</div></div></button><button id = button_2 class = ""square num-button"" onclick = ""recordClick(this)""><div class = content><div class = numbers>G</div></div></button><button id = button_3 class = ""square num-button"" onclick = ""recordClick(this)""><div class = content><div class = numbers>H</div></div></button><button id = button_4 class = ""square num-button"" onclick = ""recordClick(this)""><div class = content><div class = numbers>J</div></div></button><button id = button_5 class = ""square num-button"" onclick = ""recordClick(this)""><div class = content><div class = numbers>K</div></div></button><button id = button_6 class = ""square num-button"" onclick = ""recordClick(this)""><div class = content><div class = numbers>L</div></div></button><button id = button_7 class = ""square num-button"" onclick = ""recordClick(this)""><div class = content><div class = numbers>N</div></div></button><button id = button_8 class = ""square num-button"" onclick = ""recordClick(this)""><div class = content><div class = numbers>P</div></div></button><button id = button_9 class = ""square num-button"" onclick = ""recordClick(this)""><div class = content><div class = numbers>Q</div></div></button><button id = button_10 class = ""square num-button"" onclick = ""recordClick(this)""><div class = content><div class = numbers>R</div></div></button><button id = button_11 class = ""square num-button"" onclick = ""recordClick(this)""><div class = content><div class = numbers>S</div></div></button><button id = button_12 class = ""square num-button"" onclick = ""recordClick(this)""><div class = content><div class = numbers>Y</div></div></button><button class = clear_button id = ""ClearButton"" onclick = ""clearResponse()"">BACKSPACE</button><button class = blank_button id = ""BlankButton"" onclick = ""blankResponse()"">SKIP</button><p style=""font-size: 2.4rem""><u><b>Current Answer:</b></u></p><br><br><div id=echoed_txt style=""font-size: 5rem; color:blue;""><b></b></div></div>",enter,ospan,retrieval,fQ58jTG2AcRlcLddhU8dSU4NI4t2,html-keyboard-response,141,873085,0.0-46.0-4.0-2.0-2.0,15,15,15,3.0,"[""Y"",""L"",""S""]","[""Y"",""L"",""S""]",1.0,3.0,,,,,,,5995889da2bbe000018833d9,14:32:54,03/04/2024
3093.100000000093,[''],0,ospan,feedback,fQ58jTG2AcRlcLddhU8dSU4NI4t2,html-button-response,142,876681,0.0-46.0-4.0-2.0-3.0,,,,,,,,,,,,100.0,0.0,,5995889da2bbe000018833d9,14:32:54,03/04/2024
,"<p style=""font-size:75px;"">...</p>",,ospan,iti,fQ58jTG2AcRlcLddhU8dSU4NI4t2,html-keyboard-response,143,877683,0.0-46.0-5.0-0.0-0.0,,,,,,,,,,,,,,,5995889da2bbe000018833d9,14:32:54,03/04/2024
1231.0,,,ospan,symmetry,fQ58jTG2AcRlcLddhU8dSU4NI4t2,symmetry-judgement-task,144,880107,0.0-46.0-5.0-0.0-1.0-0.0,,,,,,,,,,1.0,1.0,,,,5995889da2bbe000018833d9,14:32:54,03/04/2024
,"<div style=""font-size: 10rem; color: #0000FF"">K</div>",,ospan,letter,fQ58jTG2AcRlcLddhU8dSU4NI4t2,html-keyboard-response,145,881109,0.0-46.0-5.0-0.0-1.0-1.0,,,,,,,,,,,,,,,5995889da2bbe000018833d9,14:32:54,03/04/2024
1214.0,,,ospan,symmetry,fQ58jTG2AcRlcLddhU8dSU4NI4t2,symmetry-judgement-task,146,884282,0.0-46.0-5.0-0.0-1.0-2.0,,,,,,,,,,1.0,1.0,,,,5995889da2bbe000018833d9,14:32:54,03/04/2024
,"<div style=""font-size: 10rem; color: #0000FF"">L</div>",,ospan,letter,fQ58jTG2AcRlcLddhU8dSU4NI4t2,html-keyboard-response,147,885283,0.0-46.0-5.0-0.0-1.0-3.0,,,,,,,,,,,,,,,5995889da2bbe000018833d9,14:32:54,03/04/2024
1126.0,,,ospan,symmetry,fQ58jTG2AcRlcLddhU8dSU4NI4t2,symmetry-judgement-task,148,888369,0.0-46.0-5.0-0.0-1.0-4.0,,,,,,,,,,1.0,1.0,,,,5995889da2bbe000018833d9,14:32:54,03/04/2024
,"<div style=""font-size: 10rem; color: #0000FF"">G</div>",,ospan,letter,fQ58jTG2AcRlcLddhU8dSU4NI4t2,html-keyboard-response,149,889371,0.0-46.0-5.0-0.0-1.0-5.0,,,,,,,,,,,,,,,5995889da2bbe000018833d9,14:32:54,03/04/2024
1837.0,,,ospan,symmetry,fQ58jTG2AcRlcLddhU8dSU4NI4t2,symmetry-judgement-task,150,893178,0.0-46.0-5.0-0.0-1.0-6.0,,,,,,,,,,1.0,1.0,,,,5995889da2bbe000018833d9,14:32:54,03/04/2024
,"<div style=""font-size: 10rem; color: #0000FF"">H</div>",,ospan,letter,fQ58jTG2AcRlcLddhU8dSU4NI4t2,html-keyboard-response,151,894179,0.0-46.0-5.0-0.0-1.0-7.0,,,,,,,,,,,,,,,5995889da2bbe000018833d9,14:32:54,03/04/2024
1683.0,,,ospan,symmetry,fQ58jTG2AcRlcLddhU8dSU4NI4t2,symmetry-judgement-task,152,897802,0.0-46.0-5.0-0.0-1.0-8.0,,,,,,,,,,1.0,1.0,,,,5995889da2bbe000018833d9,14:32:54,03/04/2024
,"<div style=""font-size: 10rem; color: #0000FF"">Y</div>",,ospan,letter,fQ58jTG2AcRlcLddhU8dSU4NI4t2,html-keyboard-response,153,898803,0.0-46.0-5.0-0.0-1.0-9.0,,,,,,,,,,,,,,,5995889da2bbe000018833d9,14:32:54,03/04/2024
1368.0,,,ospan,symmetry,fQ58jTG2AcRlcLddhU8dSU4NI4t2,symmetry-judgement-task,154,902114,0.0-46.0-5.0-0.0-1.0-10.0,,,,,,,,,,1.0,1.0,,,,5995889da2bbe000018833d9,14:32:54,03/04/2024
,"<div style=""font-size: 10rem; color: #0000FF"">C</div>",,ospan,letter,fQ58jTG2AcRlcLddhU8dSU4NI4t2,html-keyboard-response,155,903115,0.0-46.0-5.0-0.0-1.0-11.0,,,,,,,,,,,,,,,5995889da2bbe000018833d9,14:32:54,03/04/2024
8549.800000000047,"<div class = numbox><p style=""font-size: 2.4rem"">Please recall the letters you saw to the best of your ability. If you do not remember a particular letter, use the SKIP button.<br><b>(When you are ready to lock in your answer, press ENTER)</b></p><button id = button_1 class = ""square num-button"" onclick = ""recordClick(this)""><div class = content><div class = numbers>C</div></div></button><button id = button_2 class = ""square num-button"" onclick = ""recordClick(this)""><div class = content><div class = numbers>G</div></div></button><button id = button_3 class = ""square num-button"" onclick = ""recordClick(this)""><div class = content><div class = numbers>H</div></div></button><button id = button_4 class = ""square num-button"" onclick = ""recordClick(this)""><div class = content><div class = numbers>J</div></div></button><button id = button_5 class = ""square num-button"" onclick = ""recordClick(this)""><div class = content><div class = numbers>K</div></div></button><button id = button_6 class = ""square num-button"" onclick = ""recordClick(this)""><div class = content><div class = numbers>L</div></div></button><button id = button_7 class = ""square num-button"" onclick = ""recordClick(this)""><div class = content><div class = numbers>N</div></div></button><button id = button_8 class = ""square num-button"" onclick = ""recordClick(this)""><div class = content><div class = numbers>P</div></div></button><button id = button_9 class = ""square num-button"" onclick = ""recordClick(this)""><div class = content><div class = numbers>Q</div></div></button><button id = button_10 class = ""square num-button"" onclick = ""recordClick(this)""><div class = content><div class = numbers>R</div></div></button><button id = button_11 class = ""square num-button"" onclick = ""recordClick(this)""><div class = content><div class = numbers>S</div></div></button><button id = button_12 class = ""square num-button"" onclick = ""recordClick(this)""><div class = content><div class = numbers>Y</div></div></button><button class = clear_button id = ""ClearButton"" onclick = ""clearResponse()"">BACKSPACE</button><button class = blank_button id = ""BlankButton"" onclick = ""blankResponse()"">SKIP</button><p style=""font-size: 2.4rem""><u><b>Current Answer:</b></u></p><br><br><div id=echoed_txt style=""font-size: 5rem; color:blue;""><b></b></div></div>",enter,ospan,retrieval,fQ58jTG2AcRlcLddhU8dSU4NI4t2,html-keyboard-response,156,912416,0.0-46.0-5.0-0.0-2.0,21,21,21,6.0,"[""K"",""L"",""G"",""H"",""Y"",""C""]","[""K"",""L"",""G"",""H"",""Y"",""C""]",1.0,6.0,,,,,,,5995889da2bbe000018833d9,14:32:54,03/04/2024
1378.3999999999069,[''],0,ospan,feedback,fQ58jTG2AcRlcLddhU8dSU4NI4t2,html-button-response,157,914297,0.0-46.0-5.0-0.0-3.0,,,,,,,,,,,,100.0,0.0,,5995889da2bbe000018833d9,14:32:54,03/04/2024
,"<p style=""font-size:75px;"">...</p>",,ospan,iti,fQ58jTG2AcRlcLddhU8dSU4NI4t2,html-keyboard-response,158,915299,0.0-46.0-5.0-1.0-0.0,,,,,,,,,,,,,,,5995889da2bbe000018833d9,14:32:54,03/04/2024
1725.0,,,ospan,symmetry,fQ58jTG2AcRlcLddhU8dSU4NI4t2,symmetry-judgement-task,159,918226,0.0-46.0-5.0-1.0-1.0-0.0,,,,,,,,,,0.0,0.0,,,,5995889da2bbe000018833d9,14:32:54,03/04/2024
,"<div style=""font-size: 10rem; color: #0000FF"">H</div>",,ospan,letter,fQ58jTG2AcRlcLddhU8dSU4NI4t2,html-keyboard-response,160,919227,0.0-46.0-5.0-1.0-1.0-1.0,,,,,,,,,,,,,,,5995889da2bbe000018833d9,14:32:54,03/04/2024
1106.0,,,ospan,symmetry,fQ58jTG2AcRlcLddhU8dSU4NI4t2,symmetry-judgement-task,161,922282,0.0-46.0-5.0-1.0-1.0-2.0,,,,,,,,,,1.0,1.0,,,,5995889da2bbe000018833d9,14:32:54,03/04/2024
,"<div style=""font-size: 10rem; color: #0000FF"">L</div>",,ospan,letter,fQ58jTG2AcRlcLddhU8dSU4NI4t2,html-keyboard-response,162,923283,0.0-46.0-5.0-1.0-1.0-3.0,,,,,,,,,,,,,,,5995889da2bbe000018833d9,14:32:54,03/04/2024
881.0,,,ospan,symmetry,fQ58jTG2AcRlcLddhU8dSU4NI4t2,symmetry-judgement-task,163,926106,0.0-46.0-5.0-1.0-1.0-4.0,,,,,,,,,,1.0,1.0,,,,5995889da2bbe000018833d9,14:32:54,03/04/2024
,"<div style=""font-size: 10rem; color: #0000FF"">Y</div>",,ospan,letter,fQ58jTG2AcRlcLddhU8dSU4NI4t2,html-keyboard-response,164,927107,0.0-46.0-5.0-1.0-1.0-5.0,,,,,,,,,,,,,,,5995889da2bbe000018833d9,14:32:54,03/04/2024
1671.0,,,ospan,symmetry,fQ58jTG2AcRlcLddhU8dSU4NI4t2,symmetry-judgement-task,165,930722,0.0-46.0-5.0-1.0-1.0-6.0,,,,,,,,,,1.0,1.0,,,,5995889da2bbe000018833d9,14:32:54,03/04/2024
,"<div style=""font-size: 10rem; color: #0000FF"">C</div>",,ospan,letter,fQ58jTG2AcRlcLddhU8dSU4NI4t2,html-keyboard-response,166,931722,0.0-46.0-5.0-1.0-1.0-7.0,,,,,,,,,,,,,,,5995889da2bbe000018833d9,14:32:54,03/04/2024
1284.0,,,ospan,symmetry,fQ58jTG2AcRlcLddhU8dSU4NI4t2,symmetry-judgement-task,167,934962,0.0-46.0-5.0-1.0-1.0-8.0,,,,,,,,,,1.0,1.0,,,,5995889da2bbe000018833d9,14:32:54,03/04/2024
,"<div style=""font-size: 10rem; color: #0000FF"">P</div>",,ospan,letter,fQ58jTG2AcRlcLddhU8dSU4NI4t2,html-keyboard-response,168,935964,0.0-46.0-5.0-1.0-1.0-9.0,,,,,,,,,,,,,,,5995889da2bbe000018833d9,14:32:54,03/04/2024
1463.0,,,ospan,symmetry,fQ58jTG2AcRlcLddhU8dSU4NI4t2,symmetry-judgement-task,169,939369,0.0-46.0-5.0-1.0-1.0-10.0,,,,,,,,,,1.0,1.0,,,,5995889da2bbe000018833d9,14:32:54,03/04/2024
,"<div style=""font-size: 10rem; color: #0000FF"">K</div>",,ospan,letter,fQ58jTG2AcRlcLddhU8dSU4NI4t2,html-keyboard-response,170,940371,0.0-46.0-5.0-1.0-1.0-11.0,,,,,,,,,,,,,,,5995889da2bbe000018833d9,14:32:54,03/04/2024
1559.0,,,ospan,symmetry,fQ58jTG2AcRlcLddhU8dSU4NI4t2,symmetry-judgement-task,171,943890,0.0-46.0-5.0-1.0-1.0-12.0,,,,,,,,,,1.0,1.0,,,,5995889da2bbe000018833d9,14:32:54,03/04/2024
,"<div style=""font-size: 10rem; color: #0000FF"">Q</div>",,ospan,letter,fQ58jTG2AcRlcLddhU8dSU4NI4t2,html-keyboard-response,172,944891,0.0-46.0-5.0-1.0-1.0-13.0,,,,,,,,,,,,,,,5995889da2bbe000018833d9,14:32:54,03/04/2024
27105.0,"<div class = numbox><p style=""font-size: 2.4rem"">Please recall the letters you saw to the best of your ability. If you do not remember a particular letter, use the SKIP button.<br><b>(When you are ready to lock in your answer, press ENTER)</b></p><button id = button_1 class = ""square num-button"" onclick = ""recordClick(this)""><div class = content><div class = numbers>C</div></div></button><button id = button_2 class = ""square num-button"" onclick = ""recordClick(this)""><div class = content><div class = numbers>G</div></div></button><button id = button_3 class = ""square num-button"" onclick = ""recordClick(this)""><div class = content><div class = numbers>H</div></div></button><button id = button_4 class = ""square num-button"" onclick = ""recordClick(this)""><div class = content><div class = numbers>J</div></div></button><button id = button_5 class = ""square num-button"" onclick = ""recordClick(this)""><div class = content><div class = numbers>K</div></div></button><button id = button_6 class = ""square num-button"" onclick = ""recordClick(this)""><div class = content><div class = numbers>L</div></div></button><button id = button_7 class = ""square num-button"" onclick = ""recordClick(this)""><div class = content><div class = numbers>N</div></div></button><button id = button_8 class = ""square num-button"" onclick = ""recordClick(this)""><div class = content><div class = numbers>P</div></div></button><button id = button_9 class = ""square num-button"" onclick = ""recordClick(this)""><div class = content><div class = numbers>Q</div></div></button><button id = button_10 class = ""square num-button"" onclick = ""recordClick(this)""><div class = content><div class = numbers>R</div></div></button><button id = button_11 class = ""square num-button"" onclick = ""recordClick(this)""><div class = content><div class = numbers>S</div></div></button><button id = button_12 class = ""square num-button"" onclick = ""recordClick(this)""><div class = content><div class = numbers>Y</div></div></button><button class = clear_button id = ""ClearButton"" onclick = ""clearResponse()"">BACKSPACE</button><button class = blank_button id = ""BlankButton"" onclick = ""blankResponse()"">SKIP</button><p style=""font-size: 2.4rem""><u><b>Current Answer:</b></u></p><br><br><div id=echoed_txt style=""font-size: 5rem; color:blue;""><b></b></div></div>",enter,ospan,retrieval,fQ58jTG2AcRlcLddhU8dSU4NI4t2,html-keyboard-response,173,972748,0.0-46.0-5.0-1.0-2.0,28,27,21,7.0,"[""H"",""L"",""Y"",""C"",""P"",""K""]","[""H"",""L"",""Y"",""C"",""P"",""K"",""Q""]",0.0,6.0,,,,,,,5995889da2bbe000018833d9,14:32:54,03/04/2024
1631.1000000000931,[''],0,ospan,feedback,fQ58jTG2AcRlcLddhU8dSU4NI4t2,html-button-response,174,974881,0.0-46.0-5.0-1.0-3.0,,,,,,,,,,,,96.0,0.0,,5995889da2bbe000018833d9,14:32:54,03/04/2024
,"<p style=""font-size:75px;"">...</p>",,ospan,iti,fQ58jTG2AcRlcLddhU8dSU4NI4t2,html-keyboard-response,175,975883,0.0-46.0-6.0-0.0-0.0,,,,,,,,,,,,,,,5995889da2bbe000018833d9,14:32:54,03/04/2024
1246.0,,,ospan,symmetry,fQ58jTG2AcRlcLddhU8dSU4NI4t2,symmetry-judgement-task,176,978322,0.0-46.0-6.0-0.0-1.0-0.0,,,,,,,,,,1.0,1.0,,,,5995889da2bbe000018833d9,14:32:54,03/04/2024
,"<div style=""font-size: 10rem; color: #0000FF"">N</div>",,ospan,letter,fQ58jTG2AcRlcLddhU8dSU4NI4t2,html-keyboard-response,177,979323,0.0-46.0-6.0-0.0-1.0-1.0,,,,,,,,,,,,,,,5995889da2bbe000018833d9,14:32:54,03/04/2024
1450.0,,,ospan,symmetry,fQ58jTG2AcRlcLddhU8dSU4NI4t2,symmetry-judgement-task,178,982722,0.0-46.0-6.0-0.0-1.0-2.0,,,,,,,,,,1.0,1.0,,,,5995889da2bbe000018833d9,14:32:54,03/04/2024
,"<div style=""font-size: 10rem; color: #0000FF"">K</div>",,ospan,letter,fQ58jTG2AcRlcLddhU8dSU4NI4t2,html-keyboard-response,179,983723,0.0-46.0-6.0-0.0-1.0-3.0,,,,,,,,,,,,,,,5995889da2bbe000018833d9,14:32:54,03/04/2024
1146.0,,,ospan,symmetry,fQ58jTG2AcRlcLddhU8dSU4NI4t2,symmetry-judgement-task,180,986826,0.0-46.0-6.0-0.0-1.0-4.0,,,,,,,,,,1.0,1.0,,,,5995889da2bbe000018833d9,14:32:54,03/04/2024
,"<div style=""font-size: 10rem; color: #0000FF"">S</div>",,ospan,letter,fQ58jTG2AcRlcLddhU8dSU4NI4t2,html-keyboard-response,181,987827,0.0-46.0-6.0-0.0-1.0-5.0,,,,,,,,,,,,,,,5995889da2bbe000018833d9,14:32:54,03/04/2024
1160.0,,,ospan,symmetry,fQ58jTG2AcRlcLddhU8dSU4NI4t2,symmetry-judgement-task,182,990937,0.0-46.0-6.0-0.0-1.0-6.0,,,,,,,,,,1.0,1.0,,,,5995889da2bbe000018833d9,14:32:54,03/04/2024
,"<div style=""font-size: 10rem; color: #0000FF"">R</div>",,ospan,letter,fQ58jTG2AcRlcLddhU8dSU4NI4t2,html-keyboard-response,183,991939,0.0-46.0-6.0-0.0-1.0-7.0,,,,,,,,,,,,,,,5995889da2bbe000018833d9,14:32:54,03/04/2024
1077.0,,,ospan,symmetry,fQ58jTG2AcRlcLddhU8dSU4NI4t2,symmetry-judgement-task,184,994962,0.0-46.0-6.0-0.0-1.0-8.0,,,,,,,,,,1.0,1.0,,,,5995889da2bbe000018833d9,14:32:54,03/04/2024
,"<div style=""font-size: 10rem; color: #0000FF"">C</div>",,ospan,letter,fQ58jTG2AcRlcLddhU8dSU4NI4t2,html-keyboard-response,185,995964,0.0-46.0-6.0-0.0-1.0-9.0,,,,,,,,,,,,,,,5995889da2bbe000018833d9,14:32:54,03/04/2024
6352.800000000047,"<div class = numbox><p style=""font-size: 2.4rem"">Please recall the letters you saw to the best of your ability. If you do not remember a particular letter, use the SKIP button.<br><b>(When you are ready to lock in your answer, press ENTER)</b></p><button id = button_1 class = ""square num-button"" onclick = ""recordClick(this)""><div class = content><div class = numbers>C</div></div></button><button id = button_2 class = ""square num-button"" onclick = ""recordClick(this)""><div class = content><div class = numbers>G</div></div></button><button id = button_3 class = ""square num-button"" onclick = ""recordClick(this)""><div class = content><div class = numbers>H</div></div></button><button id = button_4 class = ""square num-button"" onclick = ""recordClick(this)""><div class = content><div class = numbers>J</div></div></button><button id = button_5 class = ""square num-button"" onclick = ""recordClick(this)""><div class = content><div class = numbers>K</div></div></button><button id = button_6 class = ""square num-button"" onclick = ""recordClick(this)""><div class = content><div class = numbers>L</div></div></button><button id = button_7 class = ""square num-button"" onclick = ""recordClick(this)""><div class = content><div class = numbers>N</div></div></button><button id = button_8 class = ""square num-button"" onclick = ""recordClick(this)""><div class = content><div class = numbers>P</div></div></button><button id = button_9 class = ""square num-button"" onclick = ""recordClick(this)""><div class = content><div class = numbers>Q</div></div></button><button id = button_10 class = ""square num-button"" onclick = ""recordClick(this)""><div class = content><div class = numbers>R</div></div></button><button id = button_11 class = ""square num-button"" onclick = ""recordClick(this)""><div class = content><div class = numbers>S</div></div></button><button id = button_12 class = ""square num-button"" onclick = ""recordClick(this)""><div class = content><div class = numbers>Y</div></div></button><button class = clear_button id = ""ClearButton"" onclick = ""clearResponse()"">BACKSPACE</button><button class = blank_button id = ""BlankButton"" onclick = ""blankResponse()"">SKIP</button><p style=""font-size: 2.4rem""><u><b>Current Answer:</b></u></p><br><br><div id=echoed_txt style=""font-size: 5rem; color:blue;""><b></b></div></div>",enter,ospan,retrieval,fQ58jTG2AcRlcLddhU8dSU4NI4t2,html-keyboard-response,186,1003069,0.0-46.0-6.0-0.0-2.0,33,32,26,5.0,"[""N"",""K"",""S"",""R"",""C""]","[""N"",""K"",""S"",""R"",""C""]",1.0,5.0,,,,,,,5995889da2bbe000018833d9,14:32:54,03/04/2024
895.0,[''],0,ospan,feedback,fQ58jTG2AcRlcLddhU8dSU4NI4t2,html-button-response,187,1004466,0.0-46.0-6.0-0.0-3.0,,,,,,,,,,,,97.0,0.0,,5995889da2bbe000018833d9,14:32:54,03/04/2024
,"<p style=""font-size:75px;"">...</p>",,ospan,iti,fQ58jTG2AcRlcLddhU8dSU4NI4t2,html-keyboard-response,188,1005468,0.0-46.0-6.0-1.0-0.0,,,,,,,,,,,,,,,5995889da2bbe000018833d9,14:32:54,03/04/2024
1844.0,,,ospan,symmetry,fQ58jTG2AcRlcLddhU8dSU4NI4t2,symmetry-judgement-task,189,1008499,0.0-46.0-6.0-1.0-1.0-0.0,,,,,,,,,,1.0,1.0,,,,5995889da2bbe000018833d9,14:32:54,03/04/2024
,"<div style=""font-size: 10rem; color: #0000FF"">K</div>",,ospan,letter,fQ58jTG2AcRlcLddhU8dSU4NI4t2,html-keyboard-response,190,1009500,0.0-46.0-6.0-1.0-1.0-1.0,,,,,,,,,,,,,,,5995889da2bbe000018833d9,14:32:54,03/04/2024
1050.0,,,ospan,symmetry,fQ58jTG2AcRlcLddhU8dSU4NI4t2,symmetry-judgement-task,191,1012506,0.0-46.0-6.0-1.0-1.0-2.0,,,,,,,,,,1.0,1.0,,,,5995889da2bbe000018833d9,14:32:54,03/04/2024
,"<div style=""font-size: 10rem; color: #0000FF"">J</div>",,ospan,letter,fQ58jTG2AcRlcLddhU8dSU4NI4t2,html-keyboard-response,192,1013507,0.0-46.0-6.0-1.0-1.0-3.0,,,,,,,,,,,,,,,5995889da2bbe000018833d9,14:32:54,03/04/2024
1304.0,,,ospan,symmetry,fQ58jTG2AcRlcLddhU8dSU4NI4t2,symmetry-judgement-task,193,1016770,0.0-46.0-6.0-1.0-1.0-4.0,,,,,,,,,,1.0,1.0,,,,5995889da2bbe000018833d9,14:32:54,03/04/2024
,"<div style=""font-size: 10rem; color: #0000FF"">C</div>",,ospan,letter,fQ58jTG2AcRlcLddhU8dSU4NI4t2,html-keyboard-response,194,1017771,0.0-46.0-6.0-1.0-1.0-5.0,,,,,,,,,,,,,,,5995889da2bbe000018833d9,14:32:54,03/04/2024
1054.0,,,ospan,symmetry,fQ58jTG2AcRlcLddhU8dSU4NI4t2,symmetry-judgement-task,195,1020770,0.0-46.0-6.0-1.0-1.0-6.0,,,,,,,,,,1.0,1.0,,,,5995889da2bbe000018833d9,14:32:54,03/04/2024
,"<div style=""font-size: 10rem; color: #0000FF"">Y</div>",,ospan,letter,fQ58jTG2AcRlcLddhU8dSU4NI4t2,html-keyboard-response,196,1021771,0.0-46.0-6.0-1.0-1.0-7.0,,,,,,,,,,,,,,,5995889da2bbe000018833d9,14:32:54,03/04/2024
1194.0,,,ospan,symmetry,fQ58jTG2AcRlcLddhU8dSU4NI4t2,symmetry-judgement-task,197,1024938,0.0-46.0-6.0-1.0-1.0-8.0,,,,,,,,,,1.0,1.0,,,,5995889da2bbe000018833d9,14:32:54,03/04/2024
,"<div style=""font-size: 10rem; color: #0000FF"">Q</div>",,ospan,letter,fQ58jTG2AcRlcLddhU8dSU4NI4t2,html-keyboard-response,198,1025939,0.0-46.0-6.0-1.0-1.0-9.0,,,,,,,,,,,,,,,5995889da2bbe000018833d9,14:32:54,03/04/2024
1413.0,,,ospan,symmetry,fQ58jTG2AcRlcLddhU8dSU4NI4t2,symmetry-judgement-task,199,1029307,0.0-46.0-6.0-1.0-1.0-10.0,,,,,,,,,,1.0,1.0,,,,5995889da2bbe000018833d9,14:32:54,03/04/2024
,"<div style=""font-size: 10rem; color: #0000FF"">S</div>",,ospan,letter,fQ58jTG2AcRlcLddhU8dSU4NI4t2,html-keyboard-response,200,1030308,0.0-46.0-6.0-1.0-1.0-11.0,,,,,,,,,,,,,,,5995889da2bbe000018833d9,14:32:54,03/04/2024
1348.0,,,ospan,symmetry,fQ58jTG2AcRlcLddhU8dSU4NI4t2,symmetry-judgement-task,201,1033610,0.0-46.0-6.0-1.0-1.0-12.0,,,,,,,,,,1.0,1.0,,,,5995889da2bbe000018833d9,14:32:54,03/04/2024
,"<div style=""font-size: 10rem; color: #0000FF"">L</div>",,ospan,letter,fQ58jTG2AcRlcLddhU8dSU4NI4t2,html-keyboard-response,202,1034611,0.0-46.0-6.0-1.0-1.0-13.0,,,,,,,,,,,,,,,5995889da2bbe000018833d9,14:32:54,03/04/2024
1281.0,,,ospan,symmetry,fQ58jTG2AcRlcLddhU8dSU4NI4t2,symmetry-judgement-task,203,1037834,0.0-46.0-6.0-1.0-1.0-14.0,,,,,,,,,,1.0,1.0,,,,5995889da2bbe000018833d9,14:32:54,03/04/2024
,"<div style=""font-size: 10rem; color: #0000FF"">N</div>",,ospan,letter,fQ58jTG2AcRlcLddhU8dSU4NI4t2,html-keyboard-response,204,1038835,0.0-46.0-6.0-1.0-1.0-15.0,,,,,,,,,,,,,,,5995889da2bbe000018833d9,14:32:54,03/04/2024
26564.800000000047,"<div class = numbox><p style=""font-size: 2.4rem"">Please recall the letters you saw to the best of your ability. If you do not remember a particular letter, use the SKIP button.<br><b>(When you are ready to lock in your answer, press ENTER)</b></p><button id = button_1 class = ""square num-button"" onclick = ""recordClick(this)""><div class = content><div class = numbers>C</div></div></button><button id = button_2 class = ""square num-button"" onclick = ""recordClick(this)""><div class = content><div class = numbers>G</div></div></button><button id = button_3 class = ""square num-button"" onclick = ""recordClick(this)""><div class = content><div class = numbers>H</div></div></button><button id = button_4 class = ""square num-button"" onclick = ""recordClick(this)""><div class = content><div class = numbers>J</div></div></button><button id = button_5 class = ""square num-button"" onclick = ""recordClick(this)""><div class = content><div class = numbers>K</div></div></button><button id = button_6 class = ""square num-button"" onclick = ""recordClick(this)""><div class = content><div class = numbers>L</div></div></button><button id = button_7 class = ""square num-button"" onclick = ""recordClick(this)""><div class = content><div class = numbers>N</div></div></button><button id = button_8 class = ""square num-button"" onclick = ""recordClick(this)""><div class = content><div class = numbers>P</div></div></button><button id = button_9 class = ""square num-button"" onclick = ""recordClick(this)""><div class = content><div class = numbers>Q</div></div></button><button id = button_10 class = ""square num-button"" onclick = ""recordClick(this)""><div class = content><div class = numbers>R</div></div></button><button id = button_11 class = ""square num-button"" onclick = ""recordClick(this)""><div class = content><div class = numbers>S</div></div></button><button id = button_12 class = ""square num-button"" onclick = ""recordClick(this)""><div class = content><div class = numbers>Y</div></div></button><button class = clear_button id = ""ClearButton"" onclick = ""clearResponse()"">BACKSPACE</button><button class = blank_button id = ""BlankButton"" onclick = ""blankResponse()"">SKIP</button><p style=""font-size: 2.4rem""><u><b>Current Answer:</b></u></p><br><br><div id=echoed_txt style=""font-size: 5rem; color:blue;""><b></b></div></div>",enter,ospan,retrieval,fQ58jTG2AcRlcLddhU8dSU4NI4t2,html-keyboard-response,205,1066152,0.0-46.0-6.0-1.0-2.0,41,39,26,8.0,"[""K"",""J"",""C"",""Y"",""Q"",""S"",""L""]","[""K"",""J"",""C"",""Y"",""Q"",""S"",""L"",""N""]",0.0,7.0,,,,,,,5995889da2bbe000018833d9,14:32:54,03/04/2024
2961.5,[''],0,ospan,feedback,fQ58jTG2AcRlcLddhU8dSU4NI4t2,html-button-response,206,1069617,0.0-46.0-6.0-1.0-3.0,,,,,,,,,,,,98.0,0.0,,5995889da2bbe000018833d9,14:32:54,03/04/2024
8716.299999999814,,{'Q0': 'it was fun but difficult '},ospan,survey_ospan,fQ58jTG2AcRlcLddhU8dSU4NI4t2,lmdlab-survey-text,207,1079088,0.0-46.0-7.0,,,,,,,,,,,,,,fQ58jTG2AcRlcLddhU8dSU4NI4t2,5995889da2bbe000018833d9,14:32:54,03/04/2024
1341.5,<p><p style='font-size: 3rem'>Great work!<br><br>This completes the symmetry and memory task.</p><br><br><br>,0,ospan,finish,fQ58jTG2AcRlcLddhU8dSU4NI4t2,html-button-response,208,1080433,0.0-46.0-8.0,41,39,26,,,,,,,,,98.0,,,5995889da2bbe000018833d9,14:32:54,03/04/2024
