rt,stimulus,response,exp_name,exp_stage,subjectID,trial_type,trial_index,time_elapsed,internal_node_id,ospan_shown,ospan_total,ospan_abs,length,resp_actual,resp_correct,full_correct,num_correct,feedback,accuracy,correct,math_acc,math_warning,databaseID,prolificID,start_time,date
1613.9000000001397,<div class = 'left_align' style='font-size: 3.25rem; line-height: 1.3;'><p class = 'center_align'><b>Welcome to the Symmetry and Memory Task</b><br><br><br><br></p>Press 'continue' to show the instructions.<br><br><br><br></div>,0,ospan,instruct,aj5hBD8EdXfyHrHD0m8SZJowF2B3,html-button-response,51,401698,0.0-43.0-0.0-0.0-0.0,,,,,,,,,,,,,,,5c63363b935c87000118a78a,13:28:07,07/03/2024
5294.5,"<div class = 'left_align' style='font-size: 3.25rem; line-height: 1.3;'><p class = 'center_align'><b>Symmetry and Memory Task</b><br><br></p>In this task, you will try to memorize letters you see on the screen<br>while you also view black and white grid pictures.<br><br>In the next few minutes, you will have some practice to get you familiar<br>with how the task works.<br><br>It may be difficult sometimes, but please do not worry about making mistakes!<br><br>We will begin by practicing the letter part of the task.<br><br><br><br></div>",0,ospan,instruct,aj5hBD8EdXfyHrHD0m8SZJowF2B3,html-button-response,52,407247,0.0-43.0-0.0-0.0-1.0,,,,,,,,,,,,,,,5c63363b935c87000118a78a,13:28:07,07/03/2024
10196.800000000047,"<div class = 'left_align' style='font-size: 3.25rem; line-height: 1.3;'>For this practice part, letters will appear on the screen one at a time.<br><br>Try to remember each letter in the order presented.<br><br>After some letters have been shown, you will see a response screen. Your<br>goal is to report the letters you saw <b>in order</b>. If you do not remember<br>a particular letter, you will have the option to leave it blank.<br><br><br><br></div>",0,ospan,instruct,aj5hBD8EdXfyHrHD0m8SZJowF2B3,html-button-response,53,417698,0.0-43.0-0.0-0.0-2.0,,,,,,,,,,,,,,,5c63363b935c87000118a78a,13:28:07,07/03/2024
1996.8999999999069,"<div class = 'left_align' style='font-size: 3.25rem; line-height: 1.3;'>Remember, it is very important to get the letters in the same<br>order as you see them.<br><br>When you are ready, you may begin the letter practice.</div><br><br><br><br>",0,ospan,instruct,aj5hBD8EdXfyHrHD0m8SZJowF2B3,html-button-response,54,419949,0.0-43.0-0.0-0.0-3.0,,,,,,,,,,,,,,,5c63363b935c87000118a78a,13:28:07,07/03/2024
,"<p style=""font-size:75px;"">...</p>",,ospan,iti,aj5hBD8EdXfyHrHD0m8SZJowF2B3,html-keyboard-response,55,421203,0.0-43.0-0.0-1.0-0.0,,,,,,,,,,,,,,,5c63363b935c87000118a78a,13:28:07,07/03/2024
,"<div style=""font-size: 10rem; color: #0000FF"">K</div>",,ospan,letter,aj5hBD8EdXfyHrHD0m8SZJowF2B3,html-keyboard-response,56,422206,0.0-43.0-0.0-1.0-1.0,,,,,,,,,,,,,,,5c63363b935c87000118a78a,13:28:07,07/03/2024
,"<div style=""font-size: 10rem; color: #0000FF"">L</div>",,ospan,letter,aj5hBD8EdXfyHrHD0m8SZJowF2B3,html-keyboard-response,57,423959,0.0-43.0-0.0-1.0-2.0,,,,,,,,,,,,,,,5c63363b935c87000118a78a,13:28:07,07/03/2024
11093.5,"<div class = numbox><p style=""font-size: 2.4rem"">Please recall the letters you saw to the best of your ability. If you do not remember a particular letter, use the SKIP button.<br><b>(When you are ready to lock in your answer, press ENTER)</b></p><button id = button_1 class = ""square num-button"" onclick = ""recordClick(this)""><div class = content><div class = numbers>C</div></div></button><button id = button_2 class = ""square num-button"" onclick = ""recordClick(this)""><div class = content><div class = numbers>G</div></div></button><button id = button_3 class = ""square num-button"" onclick = ""recordClick(this)""><div class = content><div class = numbers>H</div></div></button><button id = button_4 class = ""square num-button"" onclick = ""recordClick(this)""><div class = content><div class = numbers>J</div></div></button><button id = button_5 class = ""square num-button"" onclick = ""recordClick(this)""><div class = content><div class = numbers>K</div></div></button><button id = button_6 class = ""square num-button"" onclick = ""recordClick(this)""><div class = content><div class = numbers>L</div></div></button><button id = button_7 class = ""square num-button"" onclick = ""recordClick(this)""><div class = content><div class = numbers>N</div></div></button><button id = button_8 class = ""square num-button"" onclick = ""recordClick(this)""><div class = content><div class = numbers>P</div></div></button><button id = button_9 class = ""square num-button"" onclick = ""recordClick(this)""><div class = content><div class = numbers>Q</div></div></button><button id = button_10 class = ""square num-button"" onclick = ""recordClick(this)""><div class = content><div class = numbers>R</div></div></button><button id = button_11 class = ""square num-button"" onclick = ""recordClick(this)""><div class = content><div class = numbers>S</div></div></button><button id = button_12 class = ""square num-button"" onclick = ""recordClick(this)""><div class = content><div class = numbers>Y</div></div></button><button class = clear_button id = ""ClearButton"" onclick = ""clearResponse()"">BACKSPACE</button><button class = blank_button id = ""BlankButton"" onclick = ""blankResponse()"">SKIP</button><p style=""font-size: 2.4rem""><u><b>Current Answer:</b></u></p><br><br><div id=echoed_txt style=""font-size: 5rem; color:blue;""><b></b></div></div>",enter,ospan,retrieval,aj5hBD8EdXfyHrHD0m8SZJowF2B3,html-keyboard-response,58,435806,0.0-43.0-0.0-1.0-3.0,NA,NA,NA,2.0,"[""K"",""L""]","[""K"",""L""]",1.0,2.0,"['<font color=""green"">K</font>', '<font color=""green"">L</font>']",,,,,,5c63363b935c87000118a78a,13:28:07,07/03/2024
1793.8000000000466,"['<p style=""font-size:44px"">Letters:<br><br><br><font color=""green"">K</font> <font color=""green"">L</font></p><br><br>']",0,ospan,practice_feedback,aj5hBD8EdXfyHrHD0m8SZJowF2B3,html-button-response,59,438106,0.0-43.0-0.0-1.0-4.0,,,,,,,,,,,,,,,5c63363b935c87000118a78a,13:28:07,07/03/2024
,"<p style=""font-size:75px;"">...</p>",,ospan,iti,aj5hBD8EdXfyHrHD0m8SZJowF2B3,html-keyboard-response,60,439110,0.0-43.0-0.0-2.0-0.0,,,,,,,,,,,,,,,5c63363b935c87000118a78a,13:28:07,07/03/2024
,"<div style=""font-size: 10rem; color: #0000FF"">G</div>",,ospan,letter,aj5hBD8EdXfyHrHD0m8SZJowF2B3,html-keyboard-response,61,440113,0.0-43.0-0.0-2.0-1.0,,,,,,,,,,,,,,,5c63363b935c87000118a78a,13:28:07,07/03/2024
,"<div style=""font-size: 10rem; color: #0000FF"">C</div>",,ospan,letter,aj5hBD8EdXfyHrHD0m8SZJowF2B3,html-keyboard-response,62,441865,0.0-43.0-0.0-2.0-2.0,,,,,,,,,,,,,,,5c63363b935c87000118a78a,13:28:07,07/03/2024
,"<div style=""font-size: 10rem; color: #0000FF"">H</div>",,ospan,letter,aj5hBD8EdXfyHrHD0m8SZJowF2B3,html-keyboard-response,63,443618,0.0-43.0-0.0-2.0-3.0,,,,,,,,,,,,,,,5c63363b935c87000118a78a,13:28:07,07/03/2024
3976.6999999999534,"<div class = numbox><p style=""font-size: 2.4rem"">Please recall the letters you saw to the best of your ability. If you do not remember a particular letter, use the SKIP button.<br><b>(When you are ready to lock in your answer, press ENTER)</b></p><button id = button_1 class = ""square num-button"" onclick = ""recordClick(this)""><div class = content><div class = numbers>C</div></div></button><button id = button_2 class = ""square num-button"" onclick = ""recordClick(this)""><div class = content><div class = numbers>G</div></div></button><button id = button_3 class = ""square num-button"" onclick = ""recordClick(this)""><div class = content><div class = numbers>H</div></div></button><button id = button_4 class = ""square num-button"" onclick = ""recordClick(this)""><div class = content><div class = numbers>J</div></div></button><button id = button_5 class = ""square num-button"" onclick = ""recordClick(this)""><div class = content><div class = numbers>K</div></div></button><button id = button_6 class = ""square num-button"" onclick = ""recordClick(this)""><div class = content><div class = numbers>L</div></div></button><button id = button_7 class = ""square num-button"" onclick = ""recordClick(this)""><div class = content><div class = numbers>N</div></div></button><button id = button_8 class = ""square num-button"" onclick = ""recordClick(this)""><div class = content><div class = numbers>P</div></div></button><button id = button_9 class = ""square num-button"" onclick = ""recordClick(this)""><div class = content><div class = numbers>Q</div></div></button><button id = button_10 class = ""square num-button"" onclick = ""recordClick(this)""><div class = content><div class = numbers>R</div></div></button><button id = button_11 class = ""square num-button"" onclick = ""recordClick(this)""><div class = content><div class = numbers>S</div></div></button><button id = button_12 class = ""square num-button"" onclick = ""recordClick(this)""><div class = content><div class = numbers>Y</div></div></button><button class = clear_button id = ""ClearButton"" onclick = ""clearResponse()"">BACKSPACE</button><button class = blank_button id = ""BlankButton"" onclick = ""blankResponse()"">SKIP</button><p style=""font-size: 2.4rem""><u><b>Current Answer:</b></u></p><br><br><div id=echoed_txt style=""font-size: 5rem; color:blue;""><b></b></div></div>",enter,ospan,retrieval,aj5hBD8EdXfyHrHD0m8SZJowF2B3,html-keyboard-response,64,448347,0.0-43.0-0.0-2.0-4.0,NA,NA,NA,3.0,"[""G"",""C"",""H""]","[""G"",""C"",""H""]",1.0,3.0,"['<font color=""green"">G</font>', '<font color=""green"">C</font>', '<font color=""green"">H</font>']",,,,,,5c63363b935c87000118a78a,13:28:07,07/03/2024
1460.6999999999534,"['<p style=""font-size:44px"">Letters:<br><br><br><font color=""green"">G</font> <font color=""green"">C</font> <font color=""green"">H</font></p><br><br>']",0,ospan,practice_feedback,aj5hBD8EdXfyHrHD0m8SZJowF2B3,html-button-response,65,450311,0.0-43.0-0.0-2.0-5.0,,,,,,,,,,,,,,,5c63363b935c87000118a78a,13:28:07,07/03/2024
10531.300000000047,"<div class = 'left_align' style='font-size: 3.25rem; line-height: 1.3;'>Now you will practice doing the <b>symmetry judgment part</b> of the experiment.<br><br>A black and white grid picture will appear on the screen and you have to judge if it is <br>symmetrical or asymetrical.<br><br>A picture is 'mirror' symmetrical if its left half is identical to the right half when flipped.<br>Here are examples of a symmetrical and an asymetrical picture:<br><br><center><img src='Stimuli/img/symm_instructions_extra.png' style='height:420px; width:900'></img></center><br>To judge symmetry, imagine you were to fold each picture down the middle, like a book –<br>would the left half match the right half when folded onto each other?<br><br></div><br>",0,ospan,instruct,aj5hBD8EdXfyHrHD0m8SZJowF2B3,html-button-response,66,460847,0.0-43.0-1.0-0.0-0.0,,,,,,,,,,,,,,,5c63363b935c87000118a78a,13:28:07,07/03/2024
4754.899999999907,"<div class = 'left_align' style='font-size: 3.25rem; line-height: 1.3;'>When you have viewed the picture and determined whether it is symmetrical or not,<br>you can <b>click the Yes or No button</b> below to answer.<br><br>If you take longer than 15 seconds, it will continue automatically<br>and record the answer as an error.</div><br>",0,ospan,instruct,aj5hBD8EdXfyHrHD0m8SZJowF2B3,html-button-response,67,465856,0.0-43.0-1.0-0.0-1.0,,,,,,,,,,,,,,,5c63363b935c87000118a78a,13:28:07,07/03/2024
2741.399999999907,"<div class = 'left_align' style='font-size: 3.25rem; line-height: 1.3;'>It is <b>very</b> important that you make the symmetry judgment correctly.<br><br>It is also important that you try and judge the picture as quickly as you can.<br><br>When you are ready, click on the button below to try some practice problems.</div><br><br><br><br>",0,ospan,instruct,aj5hBD8EdXfyHrHD0m8SZJowF2B3,html-button-response,68,468851,0.0-43.0-1.0-0.0-2.0,,,,,,,,,,,,,,,5c63363b935c87000118a78a,13:28:07,07/03/2024
4054.0,,,ospan,symmetry,aj5hBD8EdXfyHrHD0m8SZJowF2B3,symmetry-judgement-task,69,473728,0.0-43.0-1.0-1.0-0.0,,,,,,,,,,1.0,1.0,,,,5c63363b935c87000118a78a,13:28:07,07/03/2024
,"<p style=""color:green; font-size: 35px"">Correct</p>",,ospan,feedback,aj5hBD8EdXfyHrHD0m8SZJowF2B3,html-keyboard-response,70,474481,0.0-43.0-1.0-1.0-1.0,,,,,,,,,,,,,,,5c63363b935c87000118a78a,13:28:07,07/03/2024
1822.0,,,ospan,symmetry,aj5hBD8EdXfyHrHD0m8SZJowF2B3,symmetry-judgement-task,71,479126,0.0-43.0-1.0-1.0-2.0,,,,,,,,,,1.0,1.0,,,,5c63363b935c87000118a78a,13:28:07,07/03/2024
,"<p style=""color:green; font-size: 35px"">Correct</p>",,ospan,feedback,aj5hBD8EdXfyHrHD0m8SZJowF2B3,html-keyboard-response,72,479880,0.0-43.0-1.0-1.0-3.0,,,,,,,,,,,,,,,5c63363b935c87000118a78a,13:28:07,07/03/2024
1343.0,,,ospan,symmetry,aj5hBD8EdXfyHrHD0m8SZJowF2B3,symmetry-judgement-task,73,484106,0.0-43.0-1.0-1.0-4.0,,,,,,,,,,1.0,1.0,,,,5c63363b935c87000118a78a,13:28:07,07/03/2024
,"<p style=""color:green; font-size: 35px"">Correct</p>",,ospan,feedback,aj5hBD8EdXfyHrHD0m8SZJowF2B3,html-keyboard-response,74,484860,0.0-43.0-1.0-1.0-5.0,,,,,,,,,,,,,,,5c63363b935c87000118a78a,13:28:07,07/03/2024
1222.1000000000931,"<p style=""font-size: 3rem;"">You responded correctly on 3 of 3 symmetry judgments. Good job!</p><br><br>",0,ospan,practice,aj5hBD8EdXfyHrHD0m8SZJowF2B3,html-button-response,75,488086,0.0-43.0-1.0-2.0,,,,,,,,,,,,,,,5c63363b935c87000118a78a,13:28:07,07/03/2024
4927.59999999986,"<div class = 'left_align' style='font-size: 3.25rem; line-height: 1.3;'>Now you will practice doing both parts of the experiment at the same time.<br><br>In the next practice set, you will be given one grid picture to judge.<br>Then letter will appear on the screen. Try to remember the letter.<br><br>It is <b>very important</b> to make the symmetry judgment as quickly and accurately as possible.<br><br>Just as before, once you have make the symmetry judgment, you can click Yes or No.<br><b>Note that you will no longer see Correct or Incorrect feedback.</div><br><br><br><br>",0,ospan,instruct,aj5hBD8EdXfyHrHD0m8SZJowF2B3,html-button-response,76,493268,0.0-43.0-2.0-0.0-0.0,,,,,,,,,,,,,,,5c63363b935c87000118a78a,13:28:07,07/03/2024
2014.3000000000466,"<div class = 'left_align' style='font-size: 3.25rem; line-height: 1.3;'>After the letter goes away, another grid picture will appear, and then<br>another letter.<br><br>At the end of each set of letters and grids, you will recall the letters to the best<br>of your ability. Remember, try your best to get the letters in the correct order.<br><br>It is important to <b>quickly</b> and <b>accurately</b> make the symmetry judgments.</div><br><br><br><br>",0,ospan,instruct,aj5hBD8EdXfyHrHD0m8SZJowF2B3,html-button-response,77,495536,0.0-43.0-2.0-0.0-1.0,,,,,,,,,,,,,,,5c63363b935c87000118a78a,13:28:07,07/03/2024
5900.59999999986,"<div class = 'left_align' style='font-size: 3.25rem; line-height: 1.3;'>On the feedback screen, if you are not doing well at the symmetry judgments,<br>you will also see a warning in the middle. This indicates your percent <br>correct for the grid pictures for the entire experiment.<br><br>It is <b>very</b> important for you to keep accuracy at least at 85%: <u>We can only use<br>data where the participant was at least 85% accurate on the judgments.</u> Therefore,<br> please try your best to perform well on the symmetry judgments, <b>at the same time</b><br>doing your best to recall as many letters as possible.<br><br>Click the button to try some practice problems.</div><br><br><br><br>",0,ospan,instruct,aj5hBD8EdXfyHrHD0m8SZJowF2B3,html-button-response,78,501692,0.0-43.0-2.0-0.0-2.0,,,,,,,,,,,,,,,5c63363b935c87000118a78a,13:28:07,07/03/2024
,"<p style=""font-size:75px;"">...</p>",,ospan,iti,aj5hBD8EdXfyHrHD0m8SZJowF2B3,html-keyboard-response,79,502946,0.0-43.0-2.0-1.0-0.0,,,,,,,,,,,,,,,5c63363b935c87000118a78a,13:28:07,07/03/2024
2073.0,,,ospan,symmetry,aj5hBD8EdXfyHrHD0m8SZJowF2B3,symmetry-judgement-task,80,506381,0.0-43.0-2.0-1.0-1.0-0.0,,,,,,,,,,1.0,1.0,,,,5c63363b935c87000118a78a,13:28:07,07/03/2024
,"<div style=""font-size: 10rem; color: #0000FF"">Y</div>",,ospan,letter,aj5hBD8EdXfyHrHD0m8SZJowF2B3,html-keyboard-response,81,507384,0.0-43.0-2.0-1.0-1.0-1.0,,,,,,,,,,,,,,,5c63363b935c87000118a78a,13:28:07,07/03/2024
1572.0,,,ospan,symmetry,aj5hBD8EdXfyHrHD0m8SZJowF2B3,symmetry-judgement-task,82,511062,0.0-43.0-2.0-1.0-1.0-2.0,,,,,,,,,,1.0,1.0,,,,5c63363b935c87000118a78a,13:28:07,07/03/2024
,"<div style=""font-size: 10rem; color: #0000FF"">K</div>",,ospan,letter,aj5hBD8EdXfyHrHD0m8SZJowF2B3,html-keyboard-response,83,512064,0.0-43.0-2.0-1.0-1.0-3.0,,,,,,,,,,,,,,,5c63363b935c87000118a78a,13:28:07,07/03/2024
958.0,,,ospan,symmetry,aj5hBD8EdXfyHrHD0m8SZJowF2B3,symmetry-judgement-task,84,515146,0.0-43.0-2.0-1.0-1.0-4.0,,,,,,,,,,1.0,1.0,,,,5c63363b935c87000118a78a,13:28:07,07/03/2024
,"<div style=""font-size: 10rem; color: #0000FF"">R</div>",,ospan,letter,aj5hBD8EdXfyHrHD0m8SZJowF2B3,html-keyboard-response,85,516148,0.0-43.0-2.0-1.0-1.0-5.0,,,,,,,,,,,,,,,5c63363b935c87000118a78a,13:28:07,07/03/2024
4764.699999999953,"<div class = numbox><p style=""font-size: 2.4rem"">Please recall the letters you saw to the best of your ability. If you do not remember a particular letter, use the SKIP button.<br><b>(When you are ready to lock in your answer, press ENTER)</b></p><button id = button_1 class = ""square num-button"" onclick = ""recordClick(this)""><div class = content><div class = numbers>C</div></div></button><button id = button_2 class = ""square num-button"" onclick = ""recordClick(this)""><div class = content><div class = numbers>G</div></div></button><button id = button_3 class = ""square num-button"" onclick = ""recordClick(this)""><div class = content><div class = numbers>H</div></div></button><button id = button_4 class = ""square num-button"" onclick = ""recordClick(this)""><div class = content><div class = numbers>J</div></div></button><button id = button_5 class = ""square num-button"" onclick = ""recordClick(this)""><div class = content><div class = numbers>K</div></div></button><button id = button_6 class = ""square num-button"" onclick = ""recordClick(this)""><div class = content><div class = numbers>L</div></div></button><button id = button_7 class = ""square num-button"" onclick = ""recordClick(this)""><div class = content><div class = numbers>N</div></div></button><button id = button_8 class = ""square num-button"" onclick = ""recordClick(this)""><div class = content><div class = numbers>P</div></div></button><button id = button_9 class = ""square num-button"" onclick = ""recordClick(this)""><div class = content><div class = numbers>Q</div></div></button><button id = button_10 class = ""square num-button"" onclick = ""recordClick(this)""><div class = content><div class = numbers>R</div></div></button><button id = button_11 class = ""square num-button"" onclick = ""recordClick(this)""><div class = content><div class = numbers>S</div></div></button><button id = button_12 class = ""square num-button"" onclick = ""recordClick(this)""><div class = content><div class = numbers>Y</div></div></button><button class = clear_button id = ""ClearButton"" onclick = ""clearResponse()"">BACKSPACE</button><button class = blank_button id = ""BlankButton"" onclick = ""blankResponse()"">SKIP</button><p style=""font-size: 2.4rem""><u><b>Current Answer:</b></u></p><br><br><div id=echoed_txt style=""font-size: 5rem; color:blue;""><b></b></div></div>",enter,ospan,retrieval,aj5hBD8EdXfyHrHD0m8SZJowF2B3,html-keyboard-response,86,521666,0.0-43.0-2.0-1.0-2.0-0.0,NA,NA,NA,3.0,"[""Y"",""K"",""R""]","[""Y"",""K"",""R""]",1.0,3.0,"['<font color=""green"">Y</font>', '<font color=""green"">K</font>', '<font color=""green"">R</font>']",,,,,,5c63363b935c87000118a78a,13:28:07,07/03/2024
1173.1000000000931,"['<p style=""font-size:44px"">Letters:<br><br><br><font color=""green"">Y</font> <font color=""green"">K</font> <font color=""green"">R</font></p><br><br><p style=""font-size:30px"">Symmetry:<br><br><font color=""green"">100%</font></p><br><br>']",0,ospan,practice_feedback,aj5hBD8EdXfyHrHD0m8SZJowF2B3,html-button-response,87,523346,0.0-43.0-2.0-1.0-2.0-1.0,,,,,,,,,,,,,,,5c63363b935c87000118a78a,13:28:07,07/03/2024
,"<p style=""font-size:75px;"">...</p>",,ospan,iti,aj5hBD8EdXfyHrHD0m8SZJowF2B3,html-keyboard-response,88,524350,0.0-43.0-2.0-2.0-0.0,,,,,,,,,,,,,,,5c63363b935c87000118a78a,13:28:07,07/03/2024
1718.0,,,ospan,symmetry,aj5hBD8EdXfyHrHD0m8SZJowF2B3,symmetry-judgement-task,89,527427,0.0-43.0-2.0-2.0-1.0-0.0,,,,,,,,,,1.0,1.0,,,,5c63363b935c87000118a78a,13:28:07,07/03/2024
,"<div style=""font-size: 10rem; color: #0000FF"">Y</div>",,ospan,letter,aj5hBD8EdXfyHrHD0m8SZJowF2B3,html-keyboard-response,90,528429,0.0-43.0-2.0-2.0-1.0-1.0,,,,,,,,,,,,,,,5c63363b935c87000118a78a,13:28:07,07/03/2024
1650.0,,,ospan,symmetry,aj5hBD8EdXfyHrHD0m8SZJowF2B3,symmetry-judgement-task,91,532188,0.0-43.0-2.0-2.0-1.0-2.0,,,,,,,,,,1.0,1.0,,,,5c63363b935c87000118a78a,13:28:07,07/03/2024
,"<div style=""font-size: 10rem; color: #0000FF"">R</div>",,ospan,letter,aj5hBD8EdXfyHrHD0m8SZJowF2B3,html-keyboard-response,92,533198,0.0-43.0-2.0-2.0-1.0-3.0,,,,,,,,,,,,,,,5c63363b935c87000118a78a,13:28:07,07/03/2024
2123.0,,,ospan,symmetry,aj5hBD8EdXfyHrHD0m8SZJowF2B3,symmetry-judgement-task,93,537408,0.0-43.0-2.0-2.0-1.0-4.0,,,,,,,,,,1.0,1.0,,,,5c63363b935c87000118a78a,13:28:07,07/03/2024
,"<div style=""font-size: 10rem; color: #0000FF"">Q</div>",,ospan,letter,aj5hBD8EdXfyHrHD0m8SZJowF2B3,html-keyboard-response,94,538411,0.0-43.0-2.0-2.0-1.0-5.0,,,,,,,,,,,,,,,5c63363b935c87000118a78a,13:28:07,07/03/2024
5266.299999999814,"<div class = numbox><p style=""font-size: 2.4rem"">Please recall the letters you saw to the best of your ability. If you do not remember a particular letter, use the SKIP button.<br><b>(When you are ready to lock in your answer, press ENTER)</b></p><button id = button_1 class = ""square num-button"" onclick = ""recordClick(this)""><div class = content><div class = numbers>C</div></div></button><button id = button_2 class = ""square num-button"" onclick = ""recordClick(this)""><div class = content><div class = numbers>G</div></div></button><button id = button_3 class = ""square num-button"" onclick = ""recordClick(this)""><div class = content><div class = numbers>H</div></div></button><button id = button_4 class = ""square num-button"" onclick = ""recordClick(this)""><div class = content><div class = numbers>J</div></div></button><button id = button_5 class = ""square num-button"" onclick = ""recordClick(this)""><div class = content><div class = numbers>K</div></div></button><button id = button_6 class = ""square num-button"" onclick = ""recordClick(this)""><div class = content><div class = numbers>L</div></div></button><button id = button_7 class = ""square num-button"" onclick = ""recordClick(this)""><div class = content><div class = numbers>N</div></div></button><button id = button_8 class = ""square num-button"" onclick = ""recordClick(this)""><div class = content><div class = numbers>P</div></div></button><button id = button_9 class = ""square num-button"" onclick = ""recordClick(this)""><div class = content><div class = numbers>Q</div></div></button><button id = button_10 class = ""square num-button"" onclick = ""recordClick(this)""><div class = content><div class = numbers>R</div></div></button><button id = button_11 class = ""square num-button"" onclick = ""recordClick(this)""><div class = content><div class = numbers>S</div></div></button><button id = button_12 class = ""square num-button"" onclick = ""recordClick(this)""><div class = content><div class = numbers>Y</div></div></button><button class = clear_button id = ""ClearButton"" onclick = ""clearResponse()"">BACKSPACE</button><button class = blank_button id = ""BlankButton"" onclick = ""blankResponse()"">SKIP</button><p style=""font-size: 2.4rem""><u><b>Current Answer:</b></u></p><br><br><div id=echoed_txt style=""font-size: 5rem; color:blue;""><b></b></div></div>",enter,ospan,retrieval,aj5hBD8EdXfyHrHD0m8SZJowF2B3,html-keyboard-response,95,544431,0.0-43.0-2.0-2.0-2.0-0.0,NA,NA,NA,3.0,"[""Y"",""R"",""Q""]","[""Y"",""R"",""Q""]",1.0,3.0,"['<font color=""green"">Y</font>', '<font color=""green"">R</font>', '<font color=""green"">Q</font>']",,,,,,5c63363b935c87000118a78a,13:28:07,07/03/2024
1669.0,"['<p style=""font-size:44px"">Letters:<br><br><br><font color=""green"">Y</font> <font color=""green"">R</font> <font color=""green"">Q</font></p><br><br><p style=""font-size:30px"">Symmetry:<br><br><font color=""green"">100%</font></p><br><br>']",0,ospan,practice_feedback,aj5hBD8EdXfyHrHD0m8SZJowF2B3,html-button-response,96,546607,0.0-43.0-2.0-2.0-2.0-1.0,,,,,,,,,,,,,,,5c63363b935c87000118a78a,13:28:07,07/03/2024
7085.799999999814,"<div class = 'left_align' style='font-size: 3rem; line-height: 1.3;'><b>Great work! That is the end of practice.</b><br><br>The real trials will look just like the practice trials you just completed.<br><br><u>Here, you will not see feedback</u>. First, you will see an grid picture to judge,<br>then a letter to remember. When the recall screen appears, report the letters in the<br>order presented. If you forget a letter, remember to use the <b>blank</b> button to move to the<br>next letter. Some of the sets will have more symmetry grids and letters than others.<br><br>It is important that you do your best on both the symmetry judgments and the letter recall<br>parts of the experiment. For for the symmetry judgments, try to work as <b>quickly</b> and <br>as <b>accurately</b> as possible. Remember to keep your symmetry accuracy at 85% or above.<br><br><b>For the letters, do NOT use any external aid (e.g., writing on paper, electronic device).</b><br><br>It is <u>very important</u> to our experiment to have a <b>true</b> view of your real performance.<br><br>Do not worry if you miss some when it gets hard! This task is meant to be very challenging!<br><br>Click the button to begin.</div><br><br><br><br>",0,ospan,starting_real_here,aj5hBD8EdXfyHrHD0m8SZJowF2B3,html-button-response,97,553698,0.0-43.0-2.0-3.0,,,,,,,,,,,,,,,5c63363b935c87000118a78a,13:28:07,07/03/2024
,"<p style=""font-size:75px;"">...</p>",,ospan,iti,aj5hBD8EdXfyHrHD0m8SZJowF2B3,html-keyboard-response,98,554952,0.0-43.0-3.0-0.0-0.0,,,,,,,,,,,,,,,5c63363b935c87000118a78a,13:28:07,07/03/2024
2000.0,,,ospan,symmetry,aj5hBD8EdXfyHrHD0m8SZJowF2B3,symmetry-judgement-task,99,558306,0.0-43.0-3.0-0.0-1.0-0.0,,,,,,,,,,1.0,1.0,,,,5c63363b935c87000118a78a,13:28:07,07/03/2024
,"<div style=""font-size: 10rem; color: #0000FF"">K</div>",,ospan,letter,aj5hBD8EdXfyHrHD0m8SZJowF2B3,html-keyboard-response,100,559309,0.0-43.0-3.0-0.0-1.0-1.0,,,,,,,,,,,,,,,5c63363b935c87000118a78a,13:28:07,07/03/2024
2042.0,,,ospan,symmetry,aj5hBD8EdXfyHrHD0m8SZJowF2B3,symmetry-judgement-task,101,563435,0.0-43.0-3.0-0.0-1.0-2.0,,,,,,,,,,1.0,1.0,,,,5c63363b935c87000118a78a,13:28:07,07/03/2024
,"<div style=""font-size: 10rem; color: #0000FF"">H</div>",,ospan,letter,aj5hBD8EdXfyHrHD0m8SZJowF2B3,html-keyboard-response,102,564437,0.0-43.0-3.0-0.0-1.0-3.0,,,,,,,,,,,,,,,5c63363b935c87000118a78a,13:28:07,07/03/2024
1302.0,,,ospan,symmetry,aj5hBD8EdXfyHrHD0m8SZJowF2B3,symmetry-judgement-task,103,567838,0.0-43.0-3.0-0.0-1.0-4.0,,,,,,,,,,1.0,1.0,,,,5c63363b935c87000118a78a,13:28:07,07/03/2024
,"<div style=""font-size: 10rem; color: #0000FF"">L</div>",,ospan,letter,aj5hBD8EdXfyHrHD0m8SZJowF2B3,html-keyboard-response,104,568841,0.0-43.0-3.0-0.0-1.0-5.0,,,,,,,,,,,,,,,5c63363b935c87000118a78a,13:28:07,07/03/2024
5227.700000000186,"<div class = numbox><p style=""font-size: 2.4rem"">Please recall the letters you saw to the best of your ability. If you do not remember a particular letter, use the SKIP button.<br><b>(When you are ready to lock in your answer, press ENTER)</b></p><button id = button_1 class = ""square num-button"" onclick = ""recordClick(this)""><div class = content><div class = numbers>C</div></div></button><button id = button_2 class = ""square num-button"" onclick = ""recordClick(this)""><div class = content><div class = numbers>G</div></div></button><button id = button_3 class = ""square num-button"" onclick = ""recordClick(this)""><div class = content><div class = numbers>H</div></div></button><button id = button_4 class = ""square num-button"" onclick = ""recordClick(this)""><div class = content><div class = numbers>J</div></div></button><button id = button_5 class = ""square num-button"" onclick = ""recordClick(this)""><div class = content><div class = numbers>K</div></div></button><button id = button_6 class = ""square num-button"" onclick = ""recordClick(this)""><div class = content><div class = numbers>L</div></div></button><button id = button_7 class = ""square num-button"" onclick = ""recordClick(this)""><div class = content><div class = numbers>N</div></div></button><button id = button_8 class = ""square num-button"" onclick = ""recordClick(this)""><div class = content><div class = numbers>P</div></div></button><button id = button_9 class = ""square num-button"" onclick = ""recordClick(this)""><div class = content><div class = numbers>Q</div></div></button><button id = button_10 class = ""square num-button"" onclick = ""recordClick(this)""><div class = content><div class = numbers>R</div></div></button><button id = button_11 class = ""square num-button"" onclick = ""recordClick(this)""><div class = content><div class = numbers>S</div></div></button><button id = button_12 class = ""square num-button"" onclick = ""recordClick(this)""><div class = content><div class = numbers>Y</div></div></button><button class = clear_button id = ""ClearButton"" onclick = ""clearResponse()"">BACKSPACE</button><button class = blank_button id = ""BlankButton"" onclick = ""blankResponse()"">SKIP</button><p style=""font-size: 2.4rem""><u><b>Current Answer:</b></u></p><br><br><div id=echoed_txt style=""font-size: 5rem; color:blue;""><b></b></div></div>",enter,ospan,retrieval,aj5hBD8EdXfyHrHD0m8SZJowF2B3,html-keyboard-response,105,574822,0.0-43.0-3.0-0.0-2.0,3,3,3,3.0,"[""K"",""H"",""L""]","[""K"",""H"",""L""]",1.0,3.0,,,,,,,5c63363b935c87000118a78a,13:28:07,07/03/2024
1160.7000000001863,[''],0,ospan,feedback,aj5hBD8EdXfyHrHD0m8SZJowF2B3,html-button-response,106,576486,0.0-43.0-3.0-0.0-3.0,,,,,,,,,,,,100.0,0.0,,5c63363b935c87000118a78a,13:28:07,07/03/2024
,"<p style=""font-size:75px;"">...</p>",,ospan,iti,aj5hBD8EdXfyHrHD0m8SZJowF2B3,html-keyboard-response,107,577491,0.0-43.0-4.0-0.0-0.0,,,,,,,,,,,,,,,5c63363b935c87000118a78a,13:28:07,07/03/2024
1462.0,,,ospan,symmetry,aj5hBD8EdXfyHrHD0m8SZJowF2B3,symmetry-judgement-task,108,580280,0.0-43.0-4.0-0.0-1.0-0.0,,,,,,,,,,1.0,1.0,,,,5c63363b935c87000118a78a,13:28:07,07/03/2024
,"<div style=""font-size: 10rem; color: #0000FF"">L</div>",,ospan,letter,aj5hBD8EdXfyHrHD0m8SZJowF2B3,html-keyboard-response,109,581283,0.0-43.0-4.0-0.0-1.0-1.0,,,,,,,,,,,,,,,5c63363b935c87000118a78a,13:28:07,07/03/2024
920.0,,,ospan,symmetry,aj5hBD8EdXfyHrHD0m8SZJowF2B3,symmetry-judgement-task,110,584283,0.0-43.0-4.0-0.0-1.0-2.0,,,,,,,,,,1.0,1.0,,,,5c63363b935c87000118a78a,13:28:07,07/03/2024
,"<div style=""font-size: 10rem; color: #0000FF"">N</div>",,ospan,letter,aj5hBD8EdXfyHrHD0m8SZJowF2B3,html-keyboard-response,111,585286,0.0-43.0-4.0-0.0-1.0-3.0,,,,,,,,,,,,,,,5c63363b935c87000118a78a,13:28:07,07/03/2024
940.0,,,ospan,symmetry,aj5hBD8EdXfyHrHD0m8SZJowF2B3,symmetry-judgement-task,112,588307,0.0-43.0-4.0-0.0-1.0-4.0,,,,,,,,,,1.0,1.0,,,,5c63363b935c87000118a78a,13:28:07,07/03/2024
,"<div style=""font-size: 10rem; color: #0000FF"">C</div>",,ospan,letter,aj5hBD8EdXfyHrHD0m8SZJowF2B3,html-keyboard-response,113,589310,0.0-43.0-4.0-0.0-1.0-5.0,,,,,,,,,,,,,,,5c63363b935c87000118a78a,13:28:07,07/03/2024
955.0,,,ospan,symmetry,aj5hBD8EdXfyHrHD0m8SZJowF2B3,symmetry-judgement-task,114,592372,0.0-43.0-4.0-0.0-1.0-6.0,,,,,,,,,,1.0,1.0,,,,5c63363b935c87000118a78a,13:28:07,07/03/2024
,"<div style=""font-size: 10rem; color: #0000FF"">P</div>",,ospan,letter,aj5hBD8EdXfyHrHD0m8SZJowF2B3,html-keyboard-response,115,593375,0.0-43.0-4.0-0.0-1.0-7.0,,,,,,,,,,,,,,,5c63363b935c87000118a78a,13:28:07,07/03/2024
6044.600000000093,"<div class = numbox><p style=""font-size: 2.4rem"">Please recall the letters you saw to the best of your ability. If you do not remember a particular letter, use the SKIP button.<br><b>(When you are ready to lock in your answer, press ENTER)</b></p><button id = button_1 class = ""square num-button"" onclick = ""recordClick(this)""><div class = content><div class = numbers>C</div></div></button><button id = button_2 class = ""square num-button"" onclick = ""recordClick(this)""><div class = content><div class = numbers>G</div></div></button><button id = button_3 class = ""square num-button"" onclick = ""recordClick(this)""><div class = content><div class = numbers>H</div></div></button><button id = button_4 class = ""square num-button"" onclick = ""recordClick(this)""><div class = content><div class = numbers>J</div></div></button><button id = button_5 class = ""square num-button"" onclick = ""recordClick(this)""><div class = content><div class = numbers>K</div></div></button><button id = button_6 class = ""square num-button"" onclick = ""recordClick(this)""><div class = content><div class = numbers>L</div></div></button><button id = button_7 class = ""square num-button"" onclick = ""recordClick(this)""><div class = content><div class = numbers>N</div></div></button><button id = button_8 class = ""square num-button"" onclick = ""recordClick(this)""><div class = content><div class = numbers>P</div></div></button><button id = button_9 class = ""square num-button"" onclick = ""recordClick(this)""><div class = content><div class = numbers>Q</div></div></button><button id = button_10 class = ""square num-button"" onclick = ""recordClick(this)""><div class = content><div class = numbers>R</div></div></button><button id = button_11 class = ""square num-button"" onclick = ""recordClick(this)""><div class = content><div class = numbers>S</div></div></button><button id = button_12 class = ""square num-button"" onclick = ""recordClick(this)""><div class = content><div class = numbers>Y</div></div></button><button class = clear_button id = ""ClearButton"" onclick = ""clearResponse()"">BACKSPACE</button><button class = blank_button id = ""BlankButton"" onclick = ""blankResponse()"">SKIP</button><p style=""font-size: 2.4rem""><u><b>Current Answer:</b></u></p><br><br><div id=echoed_txt style=""font-size: 5rem; color:blue;""><b></b></div></div>",enter,ospan,retrieval,aj5hBD8EdXfyHrHD0m8SZJowF2B3,html-keyboard-response,116,600175,0.0-43.0-4.0-0.0-2.0,7,7,7,4.0,"[""L"",""N"",""C"",""P""]","[""L"",""N"",""C"",""P""]",1.0,4.0,,,,,,,5c63363b935c87000118a78a,13:28:07,07/03/2024
1338.9000000001397,[''],0,ospan,feedback,aj5hBD8EdXfyHrHD0m8SZJowF2B3,html-button-response,117,602017,0.0-43.0-4.0-0.0-3.0,,,,,,,,,,,,100.0,0.0,,5c63363b935c87000118a78a,13:28:07,07/03/2024
,"<p style=""font-size:75px;"">...</p>",,ospan,iti,aj5hBD8EdXfyHrHD0m8SZJowF2B3,html-keyboard-response,118,603023,0.0-43.0-4.0-1.0-0.0,,,,,,,,,,,,,,,5c63363b935c87000118a78a,13:28:07,07/03/2024
1431.0,,,ospan,symmetry,aj5hBD8EdXfyHrHD0m8SZJowF2B3,symmetry-judgement-task,119,605509,0.0-43.0-4.0-1.0-1.0-0.0,,,,,,,,,,1.0,1.0,,,,5c63363b935c87000118a78a,13:28:07,07/03/2024
,"<div style=""font-size: 10rem; color: #0000FF"">N</div>",,ospan,letter,aj5hBD8EdXfyHrHD0m8SZJowF2B3,html-keyboard-response,120,606512,0.0-43.0-4.0-1.0-1.0-1.0,,,,,,,,,,,,,,,5c63363b935c87000118a78a,13:28:07,07/03/2024
1485.0,,,ospan,symmetry,aj5hBD8EdXfyHrHD0m8SZJowF2B3,symmetry-judgement-task,121,610093,0.0-43.0-4.0-1.0-1.0-2.0,,,,,,,,,,1.0,1.0,,,,5c63363b935c87000118a78a,13:28:07,07/03/2024
,"<div style=""font-size: 10rem; color: #0000FF"">J</div>",,ospan,letter,aj5hBD8EdXfyHrHD0m8SZJowF2B3,html-keyboard-response,122,611095,0.0-43.0-4.0-1.0-1.0-3.0,,,,,,,,,,,,,,,5c63363b935c87000118a78a,13:28:07,07/03/2024
2498.0,,,ospan,symmetry,aj5hBD8EdXfyHrHD0m8SZJowF2B3,symmetry-judgement-task,123,615713,0.0-43.0-4.0-1.0-1.0-4.0,,,,,,,,,,1.0,1.0,,,,5c63363b935c87000118a78a,13:28:07,07/03/2024
,"<div style=""font-size: 10rem; color: #0000FF"">Q</div>",,ospan,letter,aj5hBD8EdXfyHrHD0m8SZJowF2B3,html-keyboard-response,124,616715,0.0-43.0-4.0-1.0-1.0-5.0,,,,,,,,,,,,,,,5c63363b935c87000118a78a,13:28:07,07/03/2024
1143.0,,,ospan,symmetry,aj5hBD8EdXfyHrHD0m8SZJowF2B3,symmetry-judgement-task,125,619963,0.0-43.0-4.0-1.0-1.0-6.0,,,,,,,,,,1.0,1.0,,,,5c63363b935c87000118a78a,13:28:07,07/03/2024
,"<div style=""font-size: 10rem; color: #0000FF"">P</div>",,ospan,letter,aj5hBD8EdXfyHrHD0m8SZJowF2B3,html-keyboard-response,126,620966,0.0-43.0-4.0-1.0-1.0-7.0,,,,,,,,,,,,,,,5c63363b935c87000118a78a,13:28:07,07/03/2024
1477.0,,,ospan,symmetry,aj5hBD8EdXfyHrHD0m8SZJowF2B3,symmetry-judgement-task,127,624556,0.0-43.0-4.0-1.0-1.0-8.0,,,,,,,,,,1.0,1.0,,,,5c63363b935c87000118a78a,13:28:07,07/03/2024
,"<div style=""font-size: 10rem; color: #0000FF"">Y</div>",,ospan,letter,aj5hBD8EdXfyHrHD0m8SZJowF2B3,html-keyboard-response,128,625558,0.0-43.0-4.0-1.0-1.0-9.0,,,,,,,,,,,,,,,5c63363b935c87000118a78a,13:28:07,07/03/2024
9581.899999999907,"<div class = numbox><p style=""font-size: 2.4rem"">Please recall the letters you saw to the best of your ability. If you do not remember a particular letter, use the SKIP button.<br><b>(When you are ready to lock in your answer, press ENTER)</b></p><button id = button_1 class = ""square num-button"" onclick = ""recordClick(this)""><div class = content><div class = numbers>C</div></div></button><button id = button_2 class = ""square num-button"" onclick = ""recordClick(this)""><div class = content><div class = numbers>G</div></div></button><button id = button_3 class = ""square num-button"" onclick = ""recordClick(this)""><div class = content><div class = numbers>H</div></div></button><button id = button_4 class = ""square num-button"" onclick = ""recordClick(this)""><div class = content><div class = numbers>J</div></div></button><button id = button_5 class = ""square num-button"" onclick = ""recordClick(this)""><div class = content><div class = numbers>K</div></div></button><button id = button_6 class = ""square num-button"" onclick = ""recordClick(this)""><div class = content><div class = numbers>L</div></div></button><button id = button_7 class = ""square num-button"" onclick = ""recordClick(this)""><div class = content><div class = numbers>N</div></div></button><button id = button_8 class = ""square num-button"" onclick = ""recordClick(this)""><div class = content><div class = numbers>P</div></div></button><button id = button_9 class = ""square num-button"" onclick = ""recordClick(this)""><div class = content><div class = numbers>Q</div></div></button><button id = button_10 class = ""square num-button"" onclick = ""recordClick(this)""><div class = content><div class = numbers>R</div></div></button><button id = button_11 class = ""square num-button"" onclick = ""recordClick(this)""><div class = content><div class = numbers>S</div></div></button><button id = button_12 class = ""square num-button"" onclick = ""recordClick(this)""><div class = content><div class = numbers>Y</div></div></button><button class = clear_button id = ""ClearButton"" onclick = ""clearResponse()"">BACKSPACE</button><button class = blank_button id = ""BlankButton"" onclick = ""blankResponse()"">SKIP</button><p style=""font-size: 2.4rem""><u><b>Current Answer:</b></u></p><br><br><div id=echoed_txt style=""font-size: 5rem; color:blue;""><b></b></div></div>",enter,ospan,retrieval,aj5hBD8EdXfyHrHD0m8SZJowF2B3,html-keyboard-response,129,635893,0.0-43.0-4.0-1.0-2.0,12,12,12,5.0,"[""N"",""J"",""Q"",""P"",""Y""]","[""N"",""J"",""Q"",""P"",""Y""]",1.0,5.0,,,,,,,5c63363b935c87000118a78a,13:28:07,07/03/2024
1361.3000000000466,[''],0,ospan,feedback,aj5hBD8EdXfyHrHD0m8SZJowF2B3,html-button-response,130,637759,0.0-43.0-4.0-1.0-3.0,,,,,,,,,,,,100.0,0.0,,5c63363b935c87000118a78a,13:28:07,07/03/2024
,"<p style=""font-size:75px;"">...</p>",,ospan,iti,aj5hBD8EdXfyHrHD0m8SZJowF2B3,html-keyboard-response,131,638766,0.0-43.0-4.0-2.0-0.0,,,,,,,,,,,,,,,5c63363b935c87000118a78a,13:28:07,07/03/2024
1544.0,,,ospan,symmetry,aj5hBD8EdXfyHrHD0m8SZJowF2B3,symmetry-judgement-task,132,641633,0.0-43.0-4.0-2.0-1.0-0.0,,,,,,,,,,1.0,1.0,,,,5c63363b935c87000118a78a,13:28:07,07/03/2024
,"<div style=""font-size: 10rem; color: #0000FF"">Q</div>",,ospan,letter,aj5hBD8EdXfyHrHD0m8SZJowF2B3,html-keyboard-response,133,642636,0.0-43.0-4.0-2.0-1.0-1.0,,,,,,,,,,,,,,,5c63363b935c87000118a78a,13:28:07,07/03/2024
1580.0,,,ospan,symmetry,aj5hBD8EdXfyHrHD0m8SZJowF2B3,symmetry-judgement-task,134,646300,0.0-43.0-4.0-2.0-1.0-2.0,,,,,,,,,,1.0,1.0,,,,5c63363b935c87000118a78a,13:28:07,07/03/2024
,"<div style=""font-size: 10rem; color: #0000FF"">J</div>",,ospan,letter,aj5hBD8EdXfyHrHD0m8SZJowF2B3,html-keyboard-response,135,647302,0.0-43.0-4.0-2.0-1.0-3.0,,,,,,,,,,,,,,,5c63363b935c87000118a78a,13:28:07,07/03/2024
894.0,,,ospan,symmetry,aj5hBD8EdXfyHrHD0m8SZJowF2B3,symmetry-judgement-task,136,650305,0.0-43.0-4.0-2.0-1.0-4.0,,,,,,,,,,1.0,1.0,,,,5c63363b935c87000118a78a,13:28:07,07/03/2024
,"<div style=""font-size: 10rem; color: #0000FF"">Y</div>",,ospan,letter,aj5hBD8EdXfyHrHD0m8SZJowF2B3,html-keyboard-response,137,651308,0.0-43.0-4.0-2.0-1.0-5.0,,,,,,,,,,,,,,,5c63363b935c87000118a78a,13:28:07,07/03/2024
4685.899999999907,"<div class = numbox><p style=""font-size: 2.4rem"">Please recall the letters you saw to the best of your ability. If you do not remember a particular letter, use the SKIP button.<br><b>(When you are ready to lock in your answer, press ENTER)</b></p><button id = button_1 class = ""square num-button"" onclick = ""recordClick(this)""><div class = content><div class = numbers>C</div></div></button><button id = button_2 class = ""square num-button"" onclick = ""recordClick(this)""><div class = content><div class = numbers>G</div></div></button><button id = button_3 class = ""square num-button"" onclick = ""recordClick(this)""><div class = content><div class = numbers>H</div></div></button><button id = button_4 class = ""square num-button"" onclick = ""recordClick(this)""><div class = content><div class = numbers>J</div></div></button><button id = button_5 class = ""square num-button"" onclick = ""recordClick(this)""><div class = content><div class = numbers>K</div></div></button><button id = button_6 class = ""square num-button"" onclick = ""recordClick(this)""><div class = content><div class = numbers>L</div></div></button><button id = button_7 class = ""square num-button"" onclick = ""recordClick(this)""><div class = content><div class = numbers>N</div></div></button><button id = button_8 class = ""square num-button"" onclick = ""recordClick(this)""><div class = content><div class = numbers>P</div></div></button><button id = button_9 class = ""square num-button"" onclick = ""recordClick(this)""><div class = content><div class = numbers>Q</div></div></button><button id = button_10 class = ""square num-button"" onclick = ""recordClick(this)""><div class = content><div class = numbers>R</div></div></button><button id = button_11 class = ""square num-button"" onclick = ""recordClick(this)""><div class = content><div class = numbers>S</div></div></button><button id = button_12 class = ""square num-button"" onclick = ""recordClick(this)""><div class = content><div class = numbers>Y</div></div></button><button class = clear_button id = ""ClearButton"" onclick = ""clearResponse()"">BACKSPACE</button><button class = blank_button id = ""BlankButton"" onclick = ""blankResponse()"">SKIP</button><p style=""font-size: 2.4rem""><u><b>Current Answer:</b></u></p><br><br><div id=echoed_txt style=""font-size: 5rem; color:blue;""><b></b></div></div>",enter,ospan,retrieval,aj5hBD8EdXfyHrHD0m8SZJowF2B3,html-keyboard-response,138,656747,0.0-43.0-4.0-2.0-2.0,15,15,15,3.0,"[""Q"",""J"",""Y""]","[""Q"",""J"",""Y""]",1.0,3.0,,,,,,,5c63363b935c87000118a78a,13:28:07,07/03/2024
1495.0999999998603,[''],0,ospan,feedback,aj5hBD8EdXfyHrHD0m8SZJowF2B3,html-button-response,139,658746,0.0-43.0-4.0-2.0-3.0,,,,,,,,,,,,100.0,0.0,,5c63363b935c87000118a78a,13:28:07,07/03/2024
,"<p style=""font-size:75px;"">...</p>",,ospan,iti,aj5hBD8EdXfyHrHD0m8SZJowF2B3,html-keyboard-response,140,659752,0.0-43.0-5.0-0.0-0.0,,,,,,,,,,,,,,,5c63363b935c87000118a78a,13:28:07,07/03/2024
2290.0,,,ospan,symmetry,aj5hBD8EdXfyHrHD0m8SZJowF2B3,symmetry-judgement-task,141,663383,0.0-43.0-5.0-0.0-1.0-0.0,,,,,,,,,,1.0,1.0,,,,5c63363b935c87000118a78a,13:28:07,07/03/2024
,"<div style=""font-size: 10rem; color: #0000FF"">K</div>",,ospan,letter,aj5hBD8EdXfyHrHD0m8SZJowF2B3,html-keyboard-response,142,664387,0.0-43.0-5.0-0.0-1.0-1.0,,,,,,,,,,,,,,,5c63363b935c87000118a78a,13:28:07,07/03/2024
1343.0,,,ospan,symmetry,aj5hBD8EdXfyHrHD0m8SZJowF2B3,symmetry-judgement-task,143,667827,0.0-43.0-5.0-0.0-1.0-2.0,,,,,,,,,,1.0,1.0,,,,5c63363b935c87000118a78a,13:28:07,07/03/2024
,"<div style=""font-size: 10rem; color: #0000FF"">N</div>",,ospan,letter,aj5hBD8EdXfyHrHD0m8SZJowF2B3,html-keyboard-response,144,668830,0.0-43.0-5.0-0.0-1.0-3.0,,,,,,,,,,,,,,,5c63363b935c87000118a78a,13:28:07,07/03/2024
703.0,,,ospan,symmetry,aj5hBD8EdXfyHrHD0m8SZJowF2B3,symmetry-judgement-task,145,671653,0.0-43.0-5.0-0.0-1.0-4.0,,,,,,,,,,1.0,1.0,,,,5c63363b935c87000118a78a,13:28:07,07/03/2024
,"<div style=""font-size: 10rem; color: #0000FF"">Q</div>",,ospan,letter,aj5hBD8EdXfyHrHD0m8SZJowF2B3,html-keyboard-response,146,672656,0.0-43.0-5.0-0.0-1.0-5.0,,,,,,,,,,,,,,,5c63363b935c87000118a78a,13:28:07,07/03/2024
1258.0,,,ospan,symmetry,aj5hBD8EdXfyHrHD0m8SZJowF2B3,symmetry-judgement-task,147,676005,0.0-43.0-5.0-0.0-1.0-6.0,,,,,,,,,,1.0,1.0,,,,5c63363b935c87000118a78a,13:28:07,07/03/2024
,"<div style=""font-size: 10rem; color: #0000FF"">Y</div>",,ospan,letter,aj5hBD8EdXfyHrHD0m8SZJowF2B3,html-keyboard-response,148,677008,0.0-43.0-5.0-0.0-1.0-7.0,,,,,,,,,,,,,,,5c63363b935c87000118a78a,13:28:07,07/03/2024
1126.0,,,ospan,symmetry,aj5hBD8EdXfyHrHD0m8SZJowF2B3,symmetry-judgement-task,149,680250,0.0-43.0-5.0-0.0-1.0-8.0,,,,,,,,,,0.0,0.0,,,,5c63363b935c87000118a78a,13:28:07,07/03/2024
,"<div style=""font-size: 10rem; color: #0000FF"">C</div>",,ospan,letter,aj5hBD8EdXfyHrHD0m8SZJowF2B3,html-keyboard-response,150,681253,0.0-43.0-5.0-0.0-1.0-9.0,,,,,,,,,,,,,,,5c63363b935c87000118a78a,13:28:07,07/03/2024
1331.0,,,ospan,symmetry,aj5hBD8EdXfyHrHD0m8SZJowF2B3,symmetry-judgement-task,151,684681,0.0-43.0-5.0-0.0-1.0-10.0,,,,,,,,,,1.0,1.0,,,,5c63363b935c87000118a78a,13:28:07,07/03/2024
,"<div style=""font-size: 10rem; color: #0000FF"">G</div>",,ospan,letter,aj5hBD8EdXfyHrHD0m8SZJowF2B3,html-keyboard-response,152,685685,0.0-43.0-5.0-0.0-1.0-11.0,,,,,,,,,,,,,,,5c63363b935c87000118a78a,13:28:07,07/03/2024
6446.300000000047,"<div class = numbox><p style=""font-size: 2.4rem"">Please recall the letters you saw to the best of your ability. If you do not remember a particular letter, use the SKIP button.<br><b>(When you are ready to lock in your answer, press ENTER)</b></p><button id = button_1 class = ""square num-button"" onclick = ""recordClick(this)""><div class = content><div class = numbers>C</div></div></button><button id = button_2 class = ""square num-button"" onclick = ""recordClick(this)""><div class = content><div class = numbers>G</div></div></button><button id = button_3 class = ""square num-button"" onclick = ""recordClick(this)""><div class = content><div class = numbers>H</div></div></button><button id = button_4 class = ""square num-button"" onclick = ""recordClick(this)""><div class = content><div class = numbers>J</div></div></button><button id = button_5 class = ""square num-button"" onclick = ""recordClick(this)""><div class = content><div class = numbers>K</div></div></button><button id = button_6 class = ""square num-button"" onclick = ""recordClick(this)""><div class = content><div class = numbers>L</div></div></button><button id = button_7 class = ""square num-button"" onclick = ""recordClick(this)""><div class = content><div class = numbers>N</div></div></button><button id = button_8 class = ""square num-button"" onclick = ""recordClick(this)""><div class = content><div class = numbers>P</div></div></button><button id = button_9 class = ""square num-button"" onclick = ""recordClick(this)""><div class = content><div class = numbers>Q</div></div></button><button id = button_10 class = ""square num-button"" onclick = ""recordClick(this)""><div class = content><div class = numbers>R</div></div></button><button id = button_11 class = ""square num-button"" onclick = ""recordClick(this)""><div class = content><div class = numbers>S</div></div></button><button id = button_12 class = ""square num-button"" onclick = ""recordClick(this)""><div class = content><div class = numbers>Y</div></div></button><button class = clear_button id = ""ClearButton"" onclick = ""clearResponse()"">BACKSPACE</button><button class = blank_button id = ""BlankButton"" onclick = ""blankResponse()"">SKIP</button><p style=""font-size: 2.4rem""><u><b>Current Answer:</b></u></p><br><br><div id=echoed_txt style=""font-size: 5rem; color:blue;""><b></b></div></div>",enter,ospan,retrieval,aj5hBD8EdXfyHrHD0m8SZJowF2B3,html-keyboard-response,153,692884,0.0-43.0-5.0-0.0-2.0,21,19,15,6.0,"[""K"",""N"",""Q"",""Y"",""G""]","[""K"",""N"",""Q"",""Y"",""C"",""G""]",0.0,4.0,,,,,,,5c63363b935c87000118a78a,13:28:07,07/03/2024
1624.0,[''],0,ospan,feedback,aj5hBD8EdXfyHrHD0m8SZJowF2B3,html-button-response,154,695012,0.0-43.0-5.0-0.0-3.0,,,,,,,,,,,,95.0,0.0,,5c63363b935c87000118a78a,13:28:07,07/03/2024
,"<p style=""font-size:75px;"">...</p>",,ospan,iti,aj5hBD8EdXfyHrHD0m8SZJowF2B3,html-keyboard-response,155,696018,0.0-43.0-5.0-1.0-0.0,,,,,,,,,,,,,,,5c63363b935c87000118a78a,13:28:07,07/03/2024
1831.0,,,ospan,symmetry,aj5hBD8EdXfyHrHD0m8SZJowF2B3,symmetry-judgement-task,156,698903,0.0-43.0-5.0-1.0-1.0-0.0,,,,,,,,,,1.0,1.0,,,,5c63363b935c87000118a78a,13:28:07,07/03/2024
,"<div style=""font-size: 10rem; color: #0000FF"">S</div>",,ospan,letter,aj5hBD8EdXfyHrHD0m8SZJowF2B3,html-keyboard-response,157,699906,0.0-43.0-5.0-1.0-1.0-1.0,,,,,,,,,,,,,,,5c63363b935c87000118a78a,13:28:07,07/03/2024
1867.0,,,ospan,symmetry,aj5hBD8EdXfyHrHD0m8SZJowF2B3,symmetry-judgement-task,158,703870,0.0-43.0-5.0-1.0-1.0-2.0,,,,,,,,,,1.0,1.0,,,,5c63363b935c87000118a78a,13:28:07,07/03/2024
,"<div style=""font-size: 10rem; color: #0000FF"">P</div>",,ospan,letter,aj5hBD8EdXfyHrHD0m8SZJowF2B3,html-keyboard-response,159,704874,0.0-43.0-5.0-1.0-1.0-3.0,,,,,,,,,,,,,,,5c63363b935c87000118a78a,13:28:07,07/03/2024
727.0,,,ospan,symmetry,aj5hBD8EdXfyHrHD0m8SZJowF2B3,symmetry-judgement-task,160,707671,0.0-43.0-5.0-1.0-1.0-4.0,,,,,,,,,,1.0,1.0,,,,5c63363b935c87000118a78a,13:28:07,07/03/2024
,"<div style=""font-size: 10rem; color: #0000FF"">Y</div>",,ospan,letter,aj5hBD8EdXfyHrHD0m8SZJowF2B3,html-keyboard-response,161,708674,0.0-43.0-5.0-1.0-1.0-5.0,,,,,,,,,,,,,,,5c63363b935c87000118a78a,13:28:07,07/03/2024
1226.0,,,ospan,symmetry,aj5hBD8EdXfyHrHD0m8SZJowF2B3,symmetry-judgement-task,162,711992,0.0-43.0-5.0-1.0-1.0-6.0,,,,,,,,,,1.0,1.0,,,,5c63363b935c87000118a78a,13:28:07,07/03/2024
,"<div style=""font-size: 10rem; color: #0000FF"">C</div>",,ospan,letter,aj5hBD8EdXfyHrHD0m8SZJowF2B3,html-keyboard-response,163,712994,0.0-43.0-5.0-1.0-1.0-7.0,,,,,,,,,,,,,,,5c63363b935c87000118a78a,13:28:07,07/03/2024
1020.0,,,ospan,symmetry,aj5hBD8EdXfyHrHD0m8SZJowF2B3,symmetry-judgement-task,164,716105,0.0-43.0-5.0-1.0-1.0-8.0,,,,,,,,,,1.0,1.0,,,,5c63363b935c87000118a78a,13:28:07,07/03/2024
,"<div style=""font-size: 10rem; color: #0000FF"">G</div>",,ospan,letter,aj5hBD8EdXfyHrHD0m8SZJowF2B3,html-keyboard-response,165,717108,0.0-43.0-5.0-1.0-1.0-9.0,,,,,,,,,,,,,,,5c63363b935c87000118a78a,13:28:07,07/03/2024
1505.0,,,ospan,symmetry,aj5hBD8EdXfyHrHD0m8SZJowF2B3,symmetry-judgement-task,166,720696,0.0-43.0-5.0-1.0-1.0-10.0,,,,,,,,,,1.0,1.0,,,,5c63363b935c87000118a78a,13:28:07,07/03/2024
,"<div style=""font-size: 10rem; color: #0000FF"">H</div>",,ospan,letter,aj5hBD8EdXfyHrHD0m8SZJowF2B3,html-keyboard-response,167,721699,0.0-43.0-5.0-1.0-1.0-11.0,,,,,,,,,,,,,,,5c63363b935c87000118a78a,13:28:07,07/03/2024
972.0,,,ospan,symmetry,aj5hBD8EdXfyHrHD0m8SZJowF2B3,symmetry-judgement-task,168,724802,0.0-43.0-5.0-1.0-1.0-12.0,,,,,,,,,,1.0,1.0,,,,5c63363b935c87000118a78a,13:28:07,07/03/2024
,"<div style=""font-size: 10rem; color: #0000FF"">K</div>",,ospan,letter,aj5hBD8EdXfyHrHD0m8SZJowF2B3,html-keyboard-response,169,725805,0.0-43.0-5.0-1.0-1.0-13.0,,,,,,,,,,,,,,,5c63363b935c87000118a78a,13:28:07,07/03/2024
10534.700000000186,"<div class = numbox><p style=""font-size: 2.4rem"">Please recall the letters you saw to the best of your ability. If you do not remember a particular letter, use the SKIP button.<br><b>(When you are ready to lock in your answer, press ENTER)</b></p><button id = button_1 class = ""square num-button"" onclick = ""recordClick(this)""><div class = content><div class = numbers>C</div></div></button><button id = button_2 class = ""square num-button"" onclick = ""recordClick(this)""><div class = content><div class = numbers>G</div></div></button><button id = button_3 class = ""square num-button"" onclick = ""recordClick(this)""><div class = content><div class = numbers>H</div></div></button><button id = button_4 class = ""square num-button"" onclick = ""recordClick(this)""><div class = content><div class = numbers>J</div></div></button><button id = button_5 class = ""square num-button"" onclick = ""recordClick(this)""><div class = content><div class = numbers>K</div></div></button><button id = button_6 class = ""square num-button"" onclick = ""recordClick(this)""><div class = content><div class = numbers>L</div></div></button><button id = button_7 class = ""square num-button"" onclick = ""recordClick(this)""><div class = content><div class = numbers>N</div></div></button><button id = button_8 class = ""square num-button"" onclick = ""recordClick(this)""><div class = content><div class = numbers>P</div></div></button><button id = button_9 class = ""square num-button"" onclick = ""recordClick(this)""><div class = content><div class = numbers>Q</div></div></button><button id = button_10 class = ""square num-button"" onclick = ""recordClick(this)""><div class = content><div class = numbers>R</div></div></button><button id = button_11 class = ""square num-button"" onclick = ""recordClick(this)""><div class = content><div class = numbers>S</div></div></button><button id = button_12 class = ""square num-button"" onclick = ""recordClick(this)""><div class = content><div class = numbers>Y</div></div></button><button class = clear_button id = ""ClearButton"" onclick = ""clearResponse()"">BACKSPACE</button><button class = blank_button id = ""BlankButton"" onclick = ""blankResponse()"">SKIP</button><p style=""font-size: 2.4rem""><u><b>Current Answer:</b></u></p><br><br><div id=echoed_txt style=""font-size: 5rem; color:blue;""><b></b></div></div>",enter,ospan,retrieval,aj5hBD8EdXfyHrHD0m8SZJowF2B3,html-keyboard-response,170,737093,0.0-43.0-5.0-1.0-2.0,28,26,22,7.0,"[""S"",""P"",""Y"",""C"",""G"",""H"",""K""]","[""S"",""P"",""Y"",""C"",""G"",""H"",""K""]",1.0,7.0,,,,,,,5c63363b935c87000118a78a,13:28:07,07/03/2024
1429.0,[''],0,ospan,feedback,aj5hBD8EdXfyHrHD0m8SZJowF2B3,html-button-response,171,739026,0.0-43.0-5.0-1.0-3.0,,,,,,,,,,,,96.0,0.0,,5c63363b935c87000118a78a,13:28:07,07/03/2024
,"<p style=""font-size:75px;"">...</p>",,ospan,iti,aj5hBD8EdXfyHrHD0m8SZJowF2B3,html-keyboard-response,172,740031,0.0-43.0-6.0-0.0-0.0,,,,,,,,,,,,,,,5c63363b935c87000118a78a,13:28:07,07/03/2024
1881.0,,,ospan,symmetry,aj5hBD8EdXfyHrHD0m8SZJowF2B3,symmetry-judgement-task,173,743258,0.0-43.0-6.0-0.0-1.0-0.0,,,,,,,,,,1.0,1.0,,,,5c63363b935c87000118a78a,13:28:07,07/03/2024
,"<div style=""font-size: 10rem; color: #0000FF"">C</div>",,ospan,letter,aj5hBD8EdXfyHrHD0m8SZJowF2B3,html-keyboard-response,174,744260,0.0-43.0-6.0-0.0-1.0-1.0,,,,,,,,,,,,,,,5c63363b935c87000118a78a,13:28:07,07/03/2024
1261.0,,,ospan,symmetry,aj5hBD8EdXfyHrHD0m8SZJowF2B3,symmetry-judgement-task,175,747610,0.0-43.0-6.0-0.0-1.0-2.0,,,,,,,,,,1.0,1.0,,,,5c63363b935c87000118a78a,13:28:07,07/03/2024
,"<div style=""font-size: 10rem; color: #0000FF"">G</div>",,ospan,letter,aj5hBD8EdXfyHrHD0m8SZJowF2B3,html-keyboard-response,176,748613,0.0-43.0-6.0-0.0-1.0-3.0,,,,,,,,,,,,,,,5c63363b935c87000118a78a,13:28:07,07/03/2024
1097.0,,,ospan,symmetry,aj5hBD8EdXfyHrHD0m8SZJowF2B3,symmetry-judgement-task,177,751804,0.0-43.0-6.0-0.0-1.0-4.0,,,,,,,,,,1.0,1.0,,,,5c63363b935c87000118a78a,13:28:07,07/03/2024
,"<div style=""font-size: 10rem; color: #0000FF"">S</div>",,ospan,letter,aj5hBD8EdXfyHrHD0m8SZJowF2B3,html-keyboard-response,178,752807,0.0-43.0-6.0-0.0-1.0-5.0,,,,,,,,,,,,,,,5c63363b935c87000118a78a,13:28:07,07/03/2024
910.0,,,ospan,symmetry,aj5hBD8EdXfyHrHD0m8SZJowF2B3,symmetry-judgement-task,179,755797,0.0-43.0-6.0-0.0-1.0-6.0,,,,,,,,,,1.0,1.0,,,,5c63363b935c87000118a78a,13:28:07,07/03/2024
,"<div style=""font-size: 10rem; color: #0000FF"">K</div>",,ospan,letter,aj5hBD8EdXfyHrHD0m8SZJowF2B3,html-keyboard-response,180,756800,0.0-43.0-6.0-0.0-1.0-7.0,,,,,,,,,,,,,,,5c63363b935c87000118a78a,13:28:07,07/03/2024
749.0,,,ospan,symmetry,aj5hBD8EdXfyHrHD0m8SZJowF2B3,symmetry-judgement-task,181,759642,0.0-43.0-6.0-0.0-1.0-8.0,,,,,,,,,,1.0,1.0,,,,5c63363b935c87000118a78a,13:28:07,07/03/2024
,"<div style=""font-size: 10rem; color: #0000FF"">Y</div>",,ospan,letter,aj5hBD8EdXfyHrHD0m8SZJowF2B3,html-keyboard-response,182,760645,0.0-43.0-6.0-0.0-1.0-9.0,,,,,,,,,,,,,,,5c63363b935c87000118a78a,13:28:07,07/03/2024
7183.100000000093,"<div class = numbox><p style=""font-size: 2.4rem"">Please recall the letters you saw to the best of your ability. If you do not remember a particular letter, use the SKIP button.<br><b>(When you are ready to lock in your answer, press ENTER)</b></p><button id = button_1 class = ""square num-button"" onclick = ""recordClick(this)""><div class = content><div class = numbers>C</div></div></button><button id = button_2 class = ""square num-button"" onclick = ""recordClick(this)""><div class = content><div class = numbers>G</div></div></button><button id = button_3 class = ""square num-button"" onclick = ""recordClick(this)""><div class = content><div class = numbers>H</div></div></button><button id = button_4 class = ""square num-button"" onclick = ""recordClick(this)""><div class = content><div class = numbers>J</div></div></button><button id = button_5 class = ""square num-button"" onclick = ""recordClick(this)""><div class = content><div class = numbers>K</div></div></button><button id = button_6 class = ""square num-button"" onclick = ""recordClick(this)""><div class = content><div class = numbers>L</div></div></button><button id = button_7 class = ""square num-button"" onclick = ""recordClick(this)""><div class = content><div class = numbers>N</div></div></button><button id = button_8 class = ""square num-button"" onclick = ""recordClick(this)""><div class = content><div class = numbers>P</div></div></button><button id = button_9 class = ""square num-button"" onclick = ""recordClick(this)""><div class = content><div class = numbers>Q</div></div></button><button id = button_10 class = ""square num-button"" onclick = ""recordClick(this)""><div class = content><div class = numbers>R</div></div></button><button id = button_11 class = ""square num-button"" onclick = ""recordClick(this)""><div class = content><div class = numbers>S</div></div></button><button id = button_12 class = ""square num-button"" onclick = ""recordClick(this)""><div class = content><div class = numbers>Y</div></div></button><button class = clear_button id = ""ClearButton"" onclick = ""clearResponse()"">BACKSPACE</button><button class = blank_button id = ""BlankButton"" onclick = ""blankResponse()"">SKIP</button><p style=""font-size: 2.4rem""><u><b>Current Answer:</b></u></p><br><br><div id=echoed_txt style=""font-size: 5rem; color:blue;""><b></b></div></div>",enter,ospan,retrieval,aj5hBD8EdXfyHrHD0m8SZJowF2B3,html-keyboard-response,183,768582,0.0-43.0-6.0-0.0-2.0,33,31,27,5.0,"[""C"",""G"",""S"",""K"",""Y""]","[""C"",""G"",""S"",""K"",""Y""]",1.0,5.0,,,,,,,5c63363b935c87000118a78a,13:28:07,07/03/2024
2054.1999999999534,[''],0,ospan,feedback,aj5hBD8EdXfyHrHD0m8SZJowF2B3,html-button-response,184,771139,0.0-43.0-6.0-0.0-3.0,,,,,,,,,,,,97.0,0.0,,5c63363b935c87000118a78a,13:28:07,07/03/2024
,"<p style=""font-size:75px;"">...</p>",,ospan,iti,aj5hBD8EdXfyHrHD0m8SZJowF2B3,html-keyboard-response,185,772144,0.0-43.0-6.0-1.0-0.0,,,,,,,,,,,,,,,5c63363b935c87000118a78a,13:28:07,07/03/2024
1356.0,,,ospan,symmetry,aj5hBD8EdXfyHrHD0m8SZJowF2B3,symmetry-judgement-task,186,774874,0.0-43.0-6.0-1.0-1.0-0.0,,,,,,,,,,1.0,1.0,,,,5c63363b935c87000118a78a,13:28:07,07/03/2024
,"<div style=""font-size: 10rem; color: #0000FF"">J</div>",,ospan,letter,aj5hBD8EdXfyHrHD0m8SZJowF2B3,html-keyboard-response,187,775877,0.0-43.0-6.0-1.0-1.0-1.0,,,,,,,,,,,,,,,5c63363b935c87000118a78a,13:28:07,07/03/2024
719.0,,,ospan,symmetry,aj5hBD8EdXfyHrHD0m8SZJowF2B3,symmetry-judgement-task,188,778696,0.0-43.0-6.0-1.0-1.0-2.0,,,,,,,,,,1.0,1.0,,,,5c63363b935c87000118a78a,13:28:07,07/03/2024
,"<div style=""font-size: 10rem; color: #0000FF"">Y</div>",,ospan,letter,aj5hBD8EdXfyHrHD0m8SZJowF2B3,html-keyboard-response,189,779698,0.0-43.0-6.0-1.0-1.0-3.0,,,,,,,,,,,,,,,5c63363b935c87000118a78a,13:28:07,07/03/2024
1572.0,,,ospan,symmetry,aj5hBD8EdXfyHrHD0m8SZJowF2B3,symmetry-judgement-task,190,783346,0.0-43.0-6.0-1.0-1.0-4.0,,,,,,,,,,1.0,1.0,,,,5c63363b935c87000118a78a,13:28:07,07/03/2024
,"<div style=""font-size: 10rem; color: #0000FF"">R</div>",,ospan,letter,aj5hBD8EdXfyHrHD0m8SZJowF2B3,html-keyboard-response,191,784349,0.0-43.0-6.0-1.0-1.0-5.0,,,,,,,,,,,,,,,5c63363b935c87000118a78a,13:28:07,07/03/2024
1322.0,,,ospan,symmetry,aj5hBD8EdXfyHrHD0m8SZJowF2B3,symmetry-judgement-task,192,787749,0.0-43.0-6.0-1.0-1.0-6.0,,,,,,,,,,1.0,1.0,,,,5c63363b935c87000118a78a,13:28:07,07/03/2024
,"<div style=""font-size: 10rem; color: #0000FF"">S</div>",,ospan,letter,aj5hBD8EdXfyHrHD0m8SZJowF2B3,html-keyboard-response,193,788751,0.0-43.0-6.0-1.0-1.0-7.0,,,,,,,,,,,,,,,5c63363b935c87000118a78a,13:28:07,07/03/2024
1023.0,,,ospan,symmetry,aj5hBD8EdXfyHrHD0m8SZJowF2B3,symmetry-judgement-task,194,791884,0.0-43.0-6.0-1.0-1.0-8.0,,,,,,,,,,1.0,1.0,,,,5c63363b935c87000118a78a,13:28:07,07/03/2024
,"<div style=""font-size: 10rem; color: #0000FF"">C</div>",,ospan,letter,aj5hBD8EdXfyHrHD0m8SZJowF2B3,html-keyboard-response,195,792887,0.0-43.0-6.0-1.0-1.0-9.0,,,,,,,,,,,,,,,5c63363b935c87000118a78a,13:28:07,07/03/2024
842.0,,,ospan,symmetry,aj5hBD8EdXfyHrHD0m8SZJowF2B3,symmetry-judgement-task,196,795805,0.0-43.0-6.0-1.0-1.0-10.0,,,,,,,,,,1.0,1.0,,,,5c63363b935c87000118a78a,13:28:07,07/03/2024
,"<div style=""font-size: 10rem; color: #0000FF"">Q</div>",,ospan,letter,aj5hBD8EdXfyHrHD0m8SZJowF2B3,html-keyboard-response,197,796808,0.0-43.0-6.0-1.0-1.0-11.0,,,,,,,,,,,,,,,5c63363b935c87000118a78a,13:28:07,07/03/2024
748.0,,,ospan,symmetry,aj5hBD8EdXfyHrHD0m8SZJowF2B3,symmetry-judgement-task,198,799693,0.0-43.0-6.0-1.0-1.0-12.0,,,,,,,,,,1.0,1.0,,,,5c63363b935c87000118a78a,13:28:07,07/03/2024
,"<div style=""font-size: 10rem; color: #0000FF"">N</div>",,ospan,letter,aj5hBD8EdXfyHrHD0m8SZJowF2B3,html-keyboard-response,199,800695,0.0-43.0-6.0-1.0-1.0-13.0,,,,,,,,,,,,,,,5c63363b935c87000118a78a,13:28:07,07/03/2024
1035.0,,,ospan,symmetry,aj5hBD8EdXfyHrHD0m8SZJowF2B3,symmetry-judgement-task,200,803804,0.0-43.0-6.0-1.0-1.0-14.0,,,,,,,,,,1.0,1.0,,,,5c63363b935c87000118a78a,13:28:07,07/03/2024
,"<div style=""font-size: 10rem; color: #0000FF"">H</div>",,ospan,letter,aj5hBD8EdXfyHrHD0m8SZJowF2B3,html-keyboard-response,201,804808,0.0-43.0-6.0-1.0-1.0-15.0,,,,,,,,,,,,,,,5c63363b935c87000118a78a,13:28:07,07/03/2024
19218.899999999907,"<div class = numbox><p style=""font-size: 2.4rem"">Please recall the letters you saw to the best of your ability. If you do not remember a particular letter, use the SKIP button.<br><b>(When you are ready to lock in your answer, press ENTER)</b></p><button id = button_1 class = ""square num-button"" onclick = ""recordClick(this)""><div class = content><div class = numbers>C</div></div></button><button id = button_2 class = ""square num-button"" onclick = ""recordClick(this)""><div class = content><div class = numbers>G</div></div></button><button id = button_3 class = ""square num-button"" onclick = ""recordClick(this)""><div class = content><div class = numbers>H</div></div></button><button id = button_4 class = ""square num-button"" onclick = ""recordClick(this)""><div class = content><div class = numbers>J</div></div></button><button id = button_5 class = ""square num-button"" onclick = ""recordClick(this)""><div class = content><div class = numbers>K</div></div></button><button id = button_6 class = ""square num-button"" onclick = ""recordClick(this)""><div class = content><div class = numbers>L</div></div></button><button id = button_7 class = ""square num-button"" onclick = ""recordClick(this)""><div class = content><div class = numbers>N</div></div></button><button id = button_8 class = ""square num-button"" onclick = ""recordClick(this)""><div class = content><div class = numbers>P</div></div></button><button id = button_9 class = ""square num-button"" onclick = ""recordClick(this)""><div class = content><div class = numbers>Q</div></div></button><button id = button_10 class = ""square num-button"" onclick = ""recordClick(this)""><div class = content><div class = numbers>R</div></div></button><button id = button_11 class = ""square num-button"" onclick = ""recordClick(this)""><div class = content><div class = numbers>S</div></div></button><button id = button_12 class = ""square num-button"" onclick = ""recordClick(this)""><div class = content><div class = numbers>Y</div></div></button><button class = clear_button id = ""ClearButton"" onclick = ""clearResponse()"">BACKSPACE</button><button class = blank_button id = ""BlankButton"" onclick = ""blankResponse()"">SKIP</button><p style=""font-size: 2.4rem""><u><b>Current Answer:</b></u></p><br><br><div id=echoed_txt style=""font-size: 5rem; color:blue;""><b></b></div></div>",enter,ospan,retrieval,aj5hBD8EdXfyHrHD0m8SZJowF2B3,html-keyboard-response,202,824781,0.0-43.0-6.0-1.0-2.0,41,34,27,8.0,"[""J"",""Y"",""R"",""C"",""H"",""K"",""S""]","[""J"",""Y"",""R"",""S"",""C"",""Q"",""N"",""H""]",0.0,3.0,,,,,,,5c63363b935c87000118a78a,13:28:07,07/03/2024
2688.2000000001863,[''],0,ospan,feedback,aj5hBD8EdXfyHrHD0m8SZJowF2B3,html-button-response,203,827973,0.0-43.0-6.0-1.0-3.0,,,,,,,,,,,,98.0,0.0,,5c63363b935c87000118a78a,13:28:07,07/03/2024
6897.600000000093,,{'Q0': 'nothing'},ospan,survey_ospan,aj5hBD8EdXfyHrHD0m8SZJowF2B3,lmdlab-survey-text,204,835632,0.0-43.0-7.0,,,,,,,,,,,,,,aj5hBD8EdXfyHrHD0m8SZJowF2B3,5c63363b935c87000118a78a,13:28:07,07/03/2024
2399.3000000000466,<p><p style='font-size: 3rem'>Great work!<br><br>This completes the symmetry and memory task.</p><br><br><br>,0,ospan,finish,aj5hBD8EdXfyHrHD0m8SZJowF2B3,html-button-response,205,838040,0.0-43.0-8.0,41,34,27,,,,,,,,,98.0,,,5c63363b935c87000118a78a,13:28:07,07/03/2024
