rt,stimulus,response,exp_name,exp_stage,subjectID,trial_type,trial_index,time_elapsed,internal_node_id,ospan_shown,ospan_total,ospan_abs,length,resp_actual,resp_correct,full_correct,num_correct,feedback,accuracy,correct,math_acc,math_warning,databaseID,prolificID,start_time,date
2190.60000000149,<div class = 'left_align' style='font-size: 3.25rem; line-height: 1.3;'><p class = 'center_align'><b>Welcome to the Symmetry and Memory Task</b><br><br><br><br></p>Press 'continue' to show the instructions.<br><br><br><br></div>,0,ospan,instruct,6rHtdoquhjSeI0x0dfcpWtz2l3t1,html-button-response,54,553683,0.0-46.0-0.0-0.0-0.0,,,,,,,,,,,,,,,65dcc7be05b80dc664537a59,14:53:26,03/04/2024
11421.0,"<div class = 'left_align' style='font-size: 3.25rem; line-height: 1.3;'><p class = 'center_align'><b>Symmetry and Memory Task</b><br><br></p>In this task, you will try to memorize letters you see on the screen<br>while you also view black and white grid pictures.<br><br>In the next few minutes, you will have some practice to get you familiar<br>with how the task works.<br><br>It may be difficult sometimes, but please do not worry about making mistakes!<br><br>We will begin by practicing the letter part of the task.<br><br><br><br></div>",0,ospan,instruct,6rHtdoquhjSeI0x0dfcpWtz2l3t1,html-button-response,55,565371,0.0-46.0-0.0-0.0-1.0,,,,,,,,,,,,,,,65dcc7be05b80dc664537a59,14:53:26,03/04/2024
12034.0,"<div class = 'left_align' style='font-size: 3.25rem; line-height: 1.3;'>For this practice part, letters will appear on the screen one at a time.<br><br>Try to remember each letter in the order presented.<br><br>After some letters have been shown, you will see a response screen. Your<br>goal is to report the letters you saw <b>in order</b>. If you do not remember<br>a particular letter, you will have the option to leave it blank.<br><br><br><br></div>",0,ospan,instruct,6rHtdoquhjSeI0x0dfcpWtz2l3t1,html-button-response,56,577659,0.0-46.0-0.0-0.0-2.0,,,,,,,,,,,,,,,65dcc7be05b80dc664537a59,14:53:26,03/04/2024
3404.7000000029802,"<div class = 'left_align' style='font-size: 3.25rem; line-height: 1.3;'>Remember, it is very important to get the letters in the same<br>order as you see them.<br><br>When you are ready, you may begin the letter practice.</div><br><br><br><br>",0,ospan,instruct,6rHtdoquhjSeI0x0dfcpWtz2l3t1,html-button-response,57,581322,0.0-46.0-0.0-0.0-3.0,,,,,,,,,,,,,,,65dcc7be05b80dc664537a59,14:53:26,03/04/2024
,"<p style=""font-size:75px;"">...</p>",,ospan,iti,6rHtdoquhjSeI0x0dfcpWtz2l3t1,html-keyboard-response,58,582591,0.0-46.0-0.0-1.0-0.0,,,,,,,,,,,,,,,65dcc7be05b80dc664537a59,14:53:26,03/04/2024
,"<div style=""font-size: 10rem; color: #0000FF"">K</div>",,ospan,letter,6rHtdoquhjSeI0x0dfcpWtz2l3t1,html-keyboard-response,59,583607,0.0-46.0-0.0-1.0-1.0,,,,,,,,,,,,,,,65dcc7be05b80dc664537a59,14:53:26,03/04/2024
,"<div style=""font-size: 10rem; color: #0000FF"">N</div>",,ospan,letter,6rHtdoquhjSeI0x0dfcpWtz2l3t1,html-keyboard-response,60,585380,0.0-46.0-0.0-1.0-2.0,,,,,,,,,,,,,,,65dcc7be05b80dc664537a59,14:53:26,03/04/2024
13233.199999999255,"<div class = numbox><p style=""font-size: 2.4rem"">Please recall the letters you saw to the best of your ability. If you do not remember a particular letter, use the SKIP button.<br><b>(When you are ready to lock in your answer, press ENTER)</b></p><button id = button_1 class = ""square num-button"" onclick = ""recordClick(this)""><div class = content><div class = numbers>C</div></div></button><button id = button_2 class = ""square num-button"" onclick = ""recordClick(this)""><div class = content><div class = numbers>G</div></div></button><button id = button_3 class = ""square num-button"" onclick = ""recordClick(this)""><div class = content><div class = numbers>H</div></div></button><button id = button_4 class = ""square num-button"" onclick = ""recordClick(this)""><div class = content><div class = numbers>J</div></div></button><button id = button_5 class = ""square num-button"" onclick = ""recordClick(this)""><div class = content><div class = numbers>K</div></div></button><button id = button_6 class = ""square num-button"" onclick = ""recordClick(this)""><div class = content><div class = numbers>L</div></div></button><button id = button_7 class = ""square num-button"" onclick = ""recordClick(this)""><div class = content><div class = numbers>N</div></div></button><button id = button_8 class = ""square num-button"" onclick = ""recordClick(this)""><div class = content><div class = numbers>P</div></div></button><button id = button_9 class = ""square num-button"" onclick = ""recordClick(this)""><div class = content><div class = numbers>Q</div></div></button><button id = button_10 class = ""square num-button"" onclick = ""recordClick(this)""><div class = content><div class = numbers>R</div></div></button><button id = button_11 class = ""square num-button"" onclick = ""recordClick(this)""><div class = content><div class = numbers>S</div></div></button><button id = button_12 class = ""square num-button"" onclick = ""recordClick(this)""><div class = content><div class = numbers>Y</div></div></button><button class = clear_button id = ""ClearButton"" onclick = ""clearResponse()"">BACKSPACE</button><button class = blank_button id = ""BlankButton"" onclick = ""blankResponse()"">SKIP</button><p style=""font-size: 2.4rem""><u><b>Current Answer:</b></u></p><br><br><div id=echoed_txt style=""font-size: 5rem; color:blue;""><b></b></div></div>",enter,ospan,retrieval,6rHtdoquhjSeI0x0dfcpWtz2l3t1,html-keyboard-response,61,599379,0.0-46.0-0.0-1.0-3.0,NA,NA,NA,2.0,"[""K"",""N""]","[""K"",""N""]",1.0,2.0,"['<font color=""green"">K</font>', '<font color=""green"">N</font>']",,,,,,65dcc7be05b80dc664537a59,14:53:26,03/04/2024
1044.4000000022352,"['<p style=""font-size:44px"">Letters:<br><br><br><font color=""green"">K</font> <font color=""green"">N</font></p><br><br>']",0,ospan,practice_feedback,6rHtdoquhjSeI0x0dfcpWtz2l3t1,html-button-response,62,600931,0.0-46.0-0.0-1.0-4.0,,,,,,,,,,,,,,,65dcc7be05b80dc664537a59,14:53:26,03/04/2024
,"<p style=""font-size:75px;"">...</p>",,ospan,iti,6rHtdoquhjSeI0x0dfcpWtz2l3t1,html-keyboard-response,63,601940,0.0-46.0-0.0-2.0-0.0,,,,,,,,,,,,,,,65dcc7be05b80dc664537a59,14:53:26,03/04/2024
,"<div style=""font-size: 10rem; color: #0000FF"">C</div>",,ospan,letter,6rHtdoquhjSeI0x0dfcpWtz2l3t1,html-keyboard-response,64,602943,0.0-46.0-0.0-2.0-1.0,,,,,,,,,,,,,,,65dcc7be05b80dc664537a59,14:53:26,03/04/2024
,"<div style=""font-size: 10rem; color: #0000FF"">R</div>",,ospan,letter,6rHtdoquhjSeI0x0dfcpWtz2l3t1,html-keyboard-response,65,604716,0.0-46.0-0.0-2.0-2.0,,,,,,,,,,,,,,,65dcc7be05b80dc664537a59,14:53:26,03/04/2024
,"<div style=""font-size: 10rem; color: #0000FF"">P</div>",,ospan,letter,6rHtdoquhjSeI0x0dfcpWtz2l3t1,html-keyboard-response,66,606482,0.0-46.0-0.0-2.0-3.0,,,,,,,,,,,,,,,65dcc7be05b80dc664537a59,14:53:26,03/04/2024
4323.60000000149,"<div class = numbox><p style=""font-size: 2.4rem"">Please recall the letters you saw to the best of your ability. If you do not remember a particular letter, use the SKIP button.<br><b>(When you are ready to lock in your answer, press ENTER)</b></p><button id = button_1 class = ""square num-button"" onclick = ""recordClick(this)""><div class = content><div class = numbers>C</div></div></button><button id = button_2 class = ""square num-button"" onclick = ""recordClick(this)""><div class = content><div class = numbers>G</div></div></button><button id = button_3 class = ""square num-button"" onclick = ""recordClick(this)""><div class = content><div class = numbers>H</div></div></button><button id = button_4 class = ""square num-button"" onclick = ""recordClick(this)""><div class = content><div class = numbers>J</div></div></button><button id = button_5 class = ""square num-button"" onclick = ""recordClick(this)""><div class = content><div class = numbers>K</div></div></button><button id = button_6 class = ""square num-button"" onclick = ""recordClick(this)""><div class = content><div class = numbers>L</div></div></button><button id = button_7 class = ""square num-button"" onclick = ""recordClick(this)""><div class = content><div class = numbers>N</div></div></button><button id = button_8 class = ""square num-button"" onclick = ""recordClick(this)""><div class = content><div class = numbers>P</div></div></button><button id = button_9 class = ""square num-button"" onclick = ""recordClick(this)""><div class = content><div class = numbers>Q</div></div></button><button id = button_10 class = ""square num-button"" onclick = ""recordClick(this)""><div class = content><div class = numbers>R</div></div></button><button id = button_11 class = ""square num-button"" onclick = ""recordClick(this)""><div class = content><div class = numbers>S</div></div></button><button id = button_12 class = ""square num-button"" onclick = ""recordClick(this)""><div class = content><div class = numbers>Y</div></div></button><button class = clear_button id = ""ClearButton"" onclick = ""clearResponse()"">BACKSPACE</button><button class = blank_button id = ""BlankButton"" onclick = ""blankResponse()"">SKIP</button><p style=""font-size: 2.4rem""><u><b>Current Answer:</b></u></p><br><br><div id=echoed_txt style=""font-size: 5rem; color:blue;""><b></b></div></div>",enter,ospan,retrieval,6rHtdoquhjSeI0x0dfcpWtz2l3t1,html-keyboard-response,67,611563,0.0-46.0-0.0-2.0-4.0,NA,NA,NA,3.0,"[""C"",""R"",""P""]","[""C"",""R"",""P""]",1.0,3.0,"['<font color=""green"">C</font>', '<font color=""green"">R</font>', '<font color=""green"">P</font>']",,,,,,65dcc7be05b80dc664537a59,14:53:26,03/04/2024
1321.0,"['<p style=""font-size:44px"">Letters:<br><br><br><font color=""green"">C</font> <font color=""green"">R</font> <font color=""green"">P</font></p><br><br>']",0,ospan,practice_feedback,6rHtdoquhjSeI0x0dfcpWtz2l3t1,html-button-response,68,613386,0.0-46.0-0.0-2.0-5.0,,,,,,,,,,,,,,,65dcc7be05b80dc664537a59,14:53:26,03/04/2024
45310.5,"<div class = 'left_align' style='font-size: 3.25rem; line-height: 1.3;'>Now you will practice doing the <b>symmetry judgment part</b> of the experiment.<br><br>A black and white grid picture will appear on the screen and you have to judge if it is <br>symmetrical or asymetrical.<br><br>A picture is 'mirror' symmetrical if its left half is identical to the right half when flipped.<br>Here are examples of a symmetrical and an asymetrical picture:<br><br><center><img src='Stimuli/img/symm_instructions_extra.png' style='height:420px; width:900'></img></center><br>To judge symmetry, imagine you were to fold each picture down the middle, like a book –<br>would the left half match the right half when folded onto each other?<br><br></div><br>",0,ospan,instruct,6rHtdoquhjSeI0x0dfcpWtz2l3t1,html-button-response,69,658698,0.0-46.0-1.0-0.0-0.0,,,,,,,,,,,,,,,65dcc7be05b80dc664537a59,14:53:26,03/04/2024
3111.60000000149,"<div class = 'left_align' style='font-size: 3.25rem; line-height: 1.3;'>When you have viewed the picture and determined whether it is symmetrical or not,<br>you can <b>click the Yes or No button</b> below to answer.<br><br>If you take longer than 15 seconds, it will continue automatically<br>and record the answer as an error.</div><br>",0,ospan,instruct,6rHtdoquhjSeI0x0dfcpWtz2l3t1,html-button-response,70,662074,0.0-46.0-1.0-0.0-1.0,,,,,,,,,,,,,,,65dcc7be05b80dc664537a59,14:53:26,03/04/2024
3662.60000000149,"<div class = 'left_align' style='font-size: 3.25rem; line-height: 1.3;'>It is <b>very</b> important that you make the symmetry judgment correctly.<br><br>It is also important that you try and judge the picture as quickly as you can.<br><br>When you are ready, click on the button below to try some practice problems.</div><br><br><br><br>",0,ospan,instruct,6rHtdoquhjSeI0x0dfcpWtz2l3t1,html-button-response,71,666003,0.0-46.0-1.0-0.0-2.0,,,,,,,,,,,,,,,65dcc7be05b80dc664537a59,14:53:26,03/04/2024
3770.0,,,ospan,symmetry,6rHtdoquhjSeI0x0dfcpWtz2l3t1,symmetry-judgement-task,72,670609,0.0-46.0-1.0-1.0-0.0,,,,,,,,,,1.0,1.0,,,,65dcc7be05b80dc664537a59,14:53:26,03/04/2024
,"<p style=""color:green; font-size: 35px"">Correct</p>",,ospan,feedback,6rHtdoquhjSeI0x0dfcpWtz2l3t1,html-keyboard-response,73,671373,0.0-46.0-1.0-1.0-1.0,,,,,,,,,,,,,,,65dcc7be05b80dc664537a59,14:53:26,03/04/2024
5872.0,,,ospan,symmetry,6rHtdoquhjSeI0x0dfcpWtz2l3t1,symmetry-judgement-task,74,679965,0.0-46.0-1.0-1.0-2.0,,,,,,,,,,1.0,1.0,,,,65dcc7be05b80dc664537a59,14:53:26,03/04/2024
,"<p style=""color:green; font-size: 35px"">Correct</p>",,ospan,feedback,6rHtdoquhjSeI0x0dfcpWtz2l3t1,html-keyboard-response,75,680734,0.0-46.0-1.0-1.0-3.0,,,,,,,,,,,,,,,65dcc7be05b80dc664537a59,14:53:26,03/04/2024
3672.0,,,ospan,symmetry,6rHtdoquhjSeI0x0dfcpWtz2l3t1,symmetry-judgement-task,76,687129,0.0-46.0-1.0-1.0-4.0,,,,,,,,,,1.0,1.0,,,,65dcc7be05b80dc664537a59,14:53:26,03/04/2024
,"<p style=""color:green; font-size: 35px"">Correct</p>",,ospan,feedback,6rHtdoquhjSeI0x0dfcpWtz2l3t1,html-keyboard-response,77,687884,0.0-46.0-1.0-1.0-5.0,,,,,,,,,,,,,,,65dcc7be05b80dc664537a59,14:53:26,03/04/2024
1169.6000000014901,"<p style=""font-size: 3rem;"">You responded correctly on 3 of 3 symmetry judgments. Good job!</p><br><br>",0,ospan,practice,6rHtdoquhjSeI0x0dfcpWtz2l3t1,html-button-response,78,691059,0.0-46.0-1.0-2.0,,,,,,,,,,,,,,,65dcc7be05b80dc664537a59,14:53:26,03/04/2024
7567.0,"<div class = 'left_align' style='font-size: 3.25rem; line-height: 1.3;'>Now you will practice doing both parts of the experiment at the same time.<br><br>In the next practice set, you will be given one grid picture to judge.<br>Then letter will appear on the screen. Try to remember the letter.<br><br>It is <b>very important</b> to make the symmetry judgment as quickly and accurately as possible.<br><br>Just as before, once you have make the symmetry judgment, you can click Yes or No.<br><b>Note that you will no longer see Correct or Incorrect feedback.</div><br><br><br><br>",0,ospan,instruct,6rHtdoquhjSeI0x0dfcpWtz2l3t1,html-button-response,79,698890,0.0-46.0-2.0-0.0-0.0,,,,,,,,,,,,,,,65dcc7be05b80dc664537a59,14:53:26,03/04/2024
1577.3999999985099,"<div class = 'left_align' style='font-size: 3.25rem; line-height: 1.3;'>After the letter goes away, another grid picture will appear, and then<br>another letter.<br><br>At the end of each set of letters and grids, you will recall the letters to the best<br>of your ability. Remember, try your best to get the letters in the correct order.<br><br>It is important to <b>quickly</b> and <b>accurately</b> make the symmetry judgments.</div><br><br><br><br>",0,ospan,instruct,6rHtdoquhjSeI0x0dfcpWtz2l3t1,html-button-response,80,700730,0.0-46.0-2.0-0.0-1.0,,,,,,,,,,,,,,,65dcc7be05b80dc664537a59,14:53:26,03/04/2024
12720.599999997765,"<div class = 'left_align' style='font-size: 3.25rem; line-height: 1.3;'>On the feedback screen, if you are not doing well at the symmetry judgments,<br>you will also see a warning in the middle. This indicates your percent <br>correct for the grid pictures for the entire experiment.<br><br>It is <b>very</b> important for you to keep accuracy at least at 85%: <u>We can only use<br>data where the participant was at least 85% accurate on the judgments.</u> Therefore,<br> please try your best to perform well on the symmetry judgments, <b>at the same time</b><br>doing your best to recall as many letters as possible.<br><br>Click the button to try some practice problems.</div><br><br><br><br>",0,ospan,instruct,6rHtdoquhjSeI0x0dfcpWtz2l3t1,html-button-response,81,713714,0.0-46.0-2.0-0.0-2.0,,,,,,,,,,,,,,,65dcc7be05b80dc664537a59,14:53:26,03/04/2024
,"<p style=""font-size:75px;"">...</p>",,ospan,iti,6rHtdoquhjSeI0x0dfcpWtz2l3t1,html-keyboard-response,82,714980,0.0-46.0-2.0-1.0-0.0,,,,,,,,,,,,,,,65dcc7be05b80dc664537a59,14:53:26,03/04/2024
3377.0,,,ospan,symmetry,6rHtdoquhjSeI0x0dfcpWtz2l3t1,symmetry-judgement-task,83,719585,0.0-46.0-2.0-1.0-1.0-0.0,,,,,,,,,,1.0,1.0,,,,65dcc7be05b80dc664537a59,14:53:26,03/04/2024
,"<div style=""font-size: 10rem; color: #0000FF"">Y</div>",,ospan,letter,6rHtdoquhjSeI0x0dfcpWtz2l3t1,html-keyboard-response,84,720587,0.0-46.0-2.0-1.0-1.0-1.0,,,,,,,,,,,,,,,65dcc7be05b80dc664537a59,14:53:26,03/04/2024
5424.0,,,ospan,symmetry,6rHtdoquhjSeI0x0dfcpWtz2l3t1,symmetry-judgement-task,85,727987,0.0-46.0-2.0-1.0-1.0-2.0,,,,,,,,,,1.0,1.0,,,,65dcc7be05b80dc664537a59,14:53:26,03/04/2024
,"<div style=""font-size: 10rem; color: #0000FF"">Q</div>",,ospan,letter,6rHtdoquhjSeI0x0dfcpWtz2l3t1,html-keyboard-response,86,728995,0.0-46.0-2.0-1.0-1.0-3.0,,,,,,,,,,,,,,,65dcc7be05b80dc664537a59,14:53:26,03/04/2024
3440.0,,,ospan,symmetry,6rHtdoquhjSeI0x0dfcpWtz2l3t1,symmetry-judgement-task,87,734421,0.0-46.0-2.0-1.0-1.0-4.0,,,,,,,,,,1.0,1.0,,,,65dcc7be05b80dc664537a59,14:53:26,03/04/2024
,"<div style=""font-size: 10rem; color: #0000FF"">H</div>",,ospan,letter,6rHtdoquhjSeI0x0dfcpWtz2l3t1,html-keyboard-response,88,735423,0.0-46.0-2.0-1.0-1.0-5.0,,,,,,,,,,,,,,,65dcc7be05b80dc664537a59,14:53:26,03/04/2024
6381.10000000149,"<div class = numbox><p style=""font-size: 2.4rem"">Please recall the letters you saw to the best of your ability. If you do not remember a particular letter, use the SKIP button.<br><b>(When you are ready to lock in your answer, press ENTER)</b></p><button id = button_1 class = ""square num-button"" onclick = ""recordClick(this)""><div class = content><div class = numbers>C</div></div></button><button id = button_2 class = ""square num-button"" onclick = ""recordClick(this)""><div class = content><div class = numbers>G</div></div></button><button id = button_3 class = ""square num-button"" onclick = ""recordClick(this)""><div class = content><div class = numbers>H</div></div></button><button id = button_4 class = ""square num-button"" onclick = ""recordClick(this)""><div class = content><div class = numbers>J</div></div></button><button id = button_5 class = ""square num-button"" onclick = ""recordClick(this)""><div class = content><div class = numbers>K</div></div></button><button id = button_6 class = ""square num-button"" onclick = ""recordClick(this)""><div class = content><div class = numbers>L</div></div></button><button id = button_7 class = ""square num-button"" onclick = ""recordClick(this)""><div class = content><div class = numbers>N</div></div></button><button id = button_8 class = ""square num-button"" onclick = ""recordClick(this)""><div class = content><div class = numbers>P</div></div></button><button id = button_9 class = ""square num-button"" onclick = ""recordClick(this)""><div class = content><div class = numbers>Q</div></div></button><button id = button_10 class = ""square num-button"" onclick = ""recordClick(this)""><div class = content><div class = numbers>R</div></div></button><button id = button_11 class = ""square num-button"" onclick = ""recordClick(this)""><div class = content><div class = numbers>S</div></div></button><button id = button_12 class = ""square num-button"" onclick = ""recordClick(this)""><div class = content><div class = numbers>Y</div></div></button><button class = clear_button id = ""ClearButton"" onclick = ""clearResponse()"">BACKSPACE</button><button class = blank_button id = ""BlankButton"" onclick = ""blankResponse()"">SKIP</button><p style=""font-size: 2.4rem""><u><b>Current Answer:</b></u></p><br><br><div id=echoed_txt style=""font-size: 5rem; color:blue;""><b></b></div></div>",enter,ospan,retrieval,6rHtdoquhjSeI0x0dfcpWtz2l3t1,html-keyboard-response,89,742562,0.0-46.0-2.0-1.0-2.0-0.0,NA,NA,NA,3.0,"[""Y"",""Q"",""H""]","[""Y"",""Q"",""H""]",1.0,3.0,"['<font color=""green"">Y</font>', '<font color=""green"">Q</font>', '<font color=""green"">H</font>']",,,,,,65dcc7be05b80dc664537a59,14:53:26,03/04/2024
1505.3999999985099,"['<p style=""font-size:44px"">Letters:<br><br><br><font color=""green"">Y</font> <font color=""green"">Q</font> <font color=""green"">H</font></p><br><br><p style=""font-size:30px"">Symmetry:<br><br><font color=""green"">100%</font></p><br><br>']",0,ospan,practice_feedback,6rHtdoquhjSeI0x0dfcpWtz2l3t1,html-button-response,90,744579,0.0-46.0-2.0-1.0-2.0-1.0,,,,,,,,,,,,,,,65dcc7be05b80dc664537a59,14:53:26,03/04/2024
,"<p style=""font-size:75px;"">...</p>",,ospan,iti,6rHtdoquhjSeI0x0dfcpWtz2l3t1,html-keyboard-response,91,745591,0.0-46.0-2.0-2.0-0.0,,,,,,,,,,,,,,,65dcc7be05b80dc664537a59,14:53:26,03/04/2024
4797.0,,,ospan,symmetry,6rHtdoquhjSeI0x0dfcpWtz2l3t1,symmetry-judgement-task,92,751443,0.0-46.0-2.0-2.0-1.0-0.0,,,,,,,,,,1.0,1.0,,,,65dcc7be05b80dc664537a59,14:53:26,03/04/2024
,"<div style=""font-size: 10rem; color: #0000FF"">Y</div>",,ospan,letter,6rHtdoquhjSeI0x0dfcpWtz2l3t1,html-keyboard-response,93,752450,0.0-46.0-2.0-2.0-1.0-1.0,,,,,,,,,,,,,,,65dcc7be05b80dc664537a59,14:53:26,03/04/2024
3713.0,,,ospan,symmetry,6rHtdoquhjSeI0x0dfcpWtz2l3t1,symmetry-judgement-task,94,758156,0.0-46.0-2.0-2.0-1.0-2.0,,,,,,,,,,1.0,1.0,,,,65dcc7be05b80dc664537a59,14:53:26,03/04/2024
,"<div style=""font-size: 10rem; color: #0000FF"">J</div>",,ospan,letter,6rHtdoquhjSeI0x0dfcpWtz2l3t1,html-keyboard-response,95,759161,0.0-46.0-2.0-2.0-1.0-3.0,,,,,,,,,,,,,,,65dcc7be05b80dc664537a59,14:53:26,03/04/2024
4052.0,,,ospan,symmetry,6rHtdoquhjSeI0x0dfcpWtz2l3t1,symmetry-judgement-task,96,765210,0.0-46.0-2.0-2.0-1.0-4.0,,,,,,,,,,1.0,1.0,,,,65dcc7be05b80dc664537a59,14:53:26,03/04/2024
,"<div style=""font-size: 10rem; color: #0000FF"">L</div>",,ospan,letter,6rHtdoquhjSeI0x0dfcpWtz2l3t1,html-keyboard-response,97,766212,0.0-46.0-2.0-2.0-1.0-5.0,,,,,,,,,,,,,,,65dcc7be05b80dc664537a59,14:53:26,03/04/2024
10056.5,"<div class = numbox><p style=""font-size: 2.4rem"">Please recall the letters you saw to the best of your ability. If you do not remember a particular letter, use the SKIP button.<br><b>(When you are ready to lock in your answer, press ENTER)</b></p><button id = button_1 class = ""square num-button"" onclick = ""recordClick(this)""><div class = content><div class = numbers>C</div></div></button><button id = button_2 class = ""square num-button"" onclick = ""recordClick(this)""><div class = content><div class = numbers>G</div></div></button><button id = button_3 class = ""square num-button"" onclick = ""recordClick(this)""><div class = content><div class = numbers>H</div></div></button><button id = button_4 class = ""square num-button"" onclick = ""recordClick(this)""><div class = content><div class = numbers>J</div></div></button><button id = button_5 class = ""square num-button"" onclick = ""recordClick(this)""><div class = content><div class = numbers>K</div></div></button><button id = button_6 class = ""square num-button"" onclick = ""recordClick(this)""><div class = content><div class = numbers>L</div></div></button><button id = button_7 class = ""square num-button"" onclick = ""recordClick(this)""><div class = content><div class = numbers>N</div></div></button><button id = button_8 class = ""square num-button"" onclick = ""recordClick(this)""><div class = content><div class = numbers>P</div></div></button><button id = button_9 class = ""square num-button"" onclick = ""recordClick(this)""><div class = content><div class = numbers>Q</div></div></button><button id = button_10 class = ""square num-button"" onclick = ""recordClick(this)""><div class = content><div class = numbers>R</div></div></button><button id = button_11 class = ""square num-button"" onclick = ""recordClick(this)""><div class = content><div class = numbers>S</div></div></button><button id = button_12 class = ""square num-button"" onclick = ""recordClick(this)""><div class = content><div class = numbers>Y</div></div></button><button class = clear_button id = ""ClearButton"" onclick = ""clearResponse()"">BACKSPACE</button><button class = blank_button id = ""BlankButton"" onclick = ""blankResponse()"">SKIP</button><p style=""font-size: 2.4rem""><u><b>Current Answer:</b></u></p><br><br><div id=echoed_txt style=""font-size: 5rem; color:blue;""><b></b></div></div>",enter,ospan,retrieval,6rHtdoquhjSeI0x0dfcpWtz2l3t1,html-keyboard-response,98,777035,0.0-46.0-2.0-2.0-2.0-0.0,NA,NA,NA,3.0,"[""Y"",""J"",""L""]","[""Y"",""J"",""L""]",1.0,3.0,"['<font color=""green"">Y</font>', '<font color=""green"">J</font>', '<font color=""green"">L</font>']",,,,,,65dcc7be05b80dc664537a59,14:53:26,03/04/2024
3154.300000000745,"['<p style=""font-size:44px"">Letters:<br><br><br><font color=""green"">Y</font> <font color=""green"">J</font> <font color=""green"">L</font></p><br><br><p style=""font-size:30px"">Symmetry:<br><br><font color=""green"">100%</font></p><br><br>']",0,ospan,practice_feedback,6rHtdoquhjSeI0x0dfcpWtz2l3t1,html-button-response,99,780706,0.0-46.0-2.0-2.0-2.0-1.0,,,,,,,,,,,,,,,65dcc7be05b80dc664537a59,14:53:26,03/04/2024
7638.699999999255,"<div class = 'left_align' style='font-size: 3rem; line-height: 1.3;'><b>Great work! That is the end of practice.</b><br><br>The real trials will look just like the practice trials you just completed.<br><br><u>Here, you will not see feedback</u>. First, you will see an grid picture to judge,<br>then a letter to remember. When the recall screen appears, report the letters in the<br>order presented. If you forget a letter, remember to use the <b>blank</b> button to move to the<br>next letter. Some of the sets will have more symmetry grids and letters than others.<br><br>It is important that you do your best on both the symmetry judgments and the letter recall<br>parts of the experiment. For for the symmetry judgments, try to work as <b>quickly</b> and <br>as <b>accurately</b> as possible. Remember to keep your symmetry accuracy at 85% or above.<br><br><b>For the letters, do NOT use any external aid (e.g., writing on paper, electronic device).</b><br><br>It is <u>very important</u> to our experiment to have a <b>true</b> view of your real performance.<br><br>Do not worry if you miss some when it gets hard! This task is meant to be very challenging!<br><br>Click the button to begin.</div><br><br><br><br>",0,ospan,starting_real_here,6rHtdoquhjSeI0x0dfcpWtz2l3t1,html-button-response,100,788347,0.0-46.0-2.0-3.0,,,,,,,,,,,,,,,65dcc7be05b80dc664537a59,14:53:26,03/04/2024
,"<p style=""font-size:75px;"">...</p>",,ospan,iti,6rHtdoquhjSeI0x0dfcpWtz2l3t1,html-keyboard-response,101,789613,0.0-46.0-3.0-0.0-0.0,,,,,,,,,,,,,,,65dcc7be05b80dc664537a59,14:53:26,03/04/2024
4987.0,,,ospan,symmetry,6rHtdoquhjSeI0x0dfcpWtz2l3t1,symmetry-judgement-task,102,795846,0.0-46.0-3.0-0.0-1.0-0.0,,,,,,,,,,1.0,1.0,,,,65dcc7be05b80dc664537a59,14:53:26,03/04/2024
,"<div style=""font-size: 10rem; color: #0000FF"">P</div>",,ospan,letter,6rHtdoquhjSeI0x0dfcpWtz2l3t1,html-keyboard-response,103,796848,0.0-46.0-3.0-0.0-1.0-1.0,,,,,,,,,,,,,,,65dcc7be05b80dc664537a59,14:53:26,03/04/2024
5425.0,,,ospan,symmetry,6rHtdoquhjSeI0x0dfcpWtz2l3t1,symmetry-judgement-task,104,804249,0.0-46.0-3.0-0.0-1.0-2.0,,,,,,,,,,1.0,1.0,,,,65dcc7be05b80dc664537a59,14:53:26,03/04/2024
,"<div style=""font-size: 10rem; color: #0000FF"">C</div>",,ospan,letter,6rHtdoquhjSeI0x0dfcpWtz2l3t1,html-keyboard-response,105,805252,0.0-46.0-3.0-0.0-1.0-3.0,,,,,,,,,,,,,,,65dcc7be05b80dc664537a59,14:53:26,03/04/2024
4886.0,,,ospan,symmetry,6rHtdoquhjSeI0x0dfcpWtz2l3t1,symmetry-judgement-task,106,812106,0.0-46.0-3.0-0.0-1.0-4.0,,,,,,,,,,1.0,1.0,,,,65dcc7be05b80dc664537a59,14:53:26,03/04/2024
,"<div style=""font-size: 10rem; color: #0000FF"">G</div>",,ospan,letter,6rHtdoquhjSeI0x0dfcpWtz2l3t1,html-keyboard-response,107,813109,0.0-46.0-3.0-0.0-1.0-5.0,,,,,,,,,,,,,,,65dcc7be05b80dc664537a59,14:53:26,03/04/2024
7422.800000000745,"<div class = numbox><p style=""font-size: 2.4rem"">Please recall the letters you saw to the best of your ability. If you do not remember a particular letter, use the SKIP button.<br><b>(When you are ready to lock in your answer, press ENTER)</b></p><button id = button_1 class = ""square num-button"" onclick = ""recordClick(this)""><div class = content><div class = numbers>C</div></div></button><button id = button_2 class = ""square num-button"" onclick = ""recordClick(this)""><div class = content><div class = numbers>G</div></div></button><button id = button_3 class = ""square num-button"" onclick = ""recordClick(this)""><div class = content><div class = numbers>H</div></div></button><button id = button_4 class = ""square num-button"" onclick = ""recordClick(this)""><div class = content><div class = numbers>J</div></div></button><button id = button_5 class = ""square num-button"" onclick = ""recordClick(this)""><div class = content><div class = numbers>K</div></div></button><button id = button_6 class = ""square num-button"" onclick = ""recordClick(this)""><div class = content><div class = numbers>L</div></div></button><button id = button_7 class = ""square num-button"" onclick = ""recordClick(this)""><div class = content><div class = numbers>N</div></div></button><button id = button_8 class = ""square num-button"" onclick = ""recordClick(this)""><div class = content><div class = numbers>P</div></div></button><button id = button_9 class = ""square num-button"" onclick = ""recordClick(this)""><div class = content><div class = numbers>Q</div></div></button><button id = button_10 class = ""square num-button"" onclick = ""recordClick(this)""><div class = content><div class = numbers>R</div></div></button><button id = button_11 class = ""square num-button"" onclick = ""recordClick(this)""><div class = content><div class = numbers>S</div></div></button><button id = button_12 class = ""square num-button"" onclick = ""recordClick(this)""><div class = content><div class = numbers>Y</div></div></button><button class = clear_button id = ""ClearButton"" onclick = ""clearResponse()"">BACKSPACE</button><button class = blank_button id = ""BlankButton"" onclick = ""blankResponse()"">SKIP</button><p style=""font-size: 2.4rem""><u><b>Current Answer:</b></u></p><br><br><div id=echoed_txt style=""font-size: 5rem; color:blue;""><b></b></div></div>",enter,ospan,retrieval,6rHtdoquhjSeI0x0dfcpWtz2l3t1,html-keyboard-response,108,821306,0.0-46.0-3.0-0.0-2.0,3,2,0,3.0,"[""Y"",""C"",""G""]","[""P"",""C"",""G""]",0.0,2.0,,,,,,,65dcc7be05b80dc664537a59,14:53:26,03/04/2024
1170.7000000029802,[''],0,ospan,feedback,6rHtdoquhjSeI0x0dfcpWtz2l3t1,html-button-response,109,822994,0.0-46.0-3.0-0.0-3.0,,,,,,,,,,,,100.0,0.0,,65dcc7be05b80dc664537a59,14:53:26,03/04/2024
,"<p style=""font-size:75px;"">...</p>",,ospan,iti,6rHtdoquhjSeI0x0dfcpWtz2l3t1,html-keyboard-response,110,824007,0.0-46.0-4.0-0.0-0.0,,,,,,,,,,,,,,,65dcc7be05b80dc664537a59,14:53:26,03/04/2024
2938.0,,,ospan,symmetry,6rHtdoquhjSeI0x0dfcpWtz2l3t1,symmetry-judgement-task,111,828184,0.0-46.0-4.0-0.0-1.0-0.0,,,,,,,,,,1.0,1.0,,,,65dcc7be05b80dc664537a59,14:53:26,03/04/2024
,"<div style=""font-size: 10rem; color: #0000FF"">G</div>",,ospan,letter,6rHtdoquhjSeI0x0dfcpWtz2l3t1,html-keyboard-response,112,829200,0.0-46.0-4.0-0.0-1.0-1.0,,,,,,,,,,,,,,,65dcc7be05b80dc664537a59,14:53:26,03/04/2024
3262.0,,,ospan,symmetry,6rHtdoquhjSeI0x0dfcpWtz2l3t1,symmetry-judgement-task,113,834449,0.0-46.0-4.0-0.0-1.0-2.0,,,,,,,,,,1.0,1.0,,,,65dcc7be05b80dc664537a59,14:53:26,03/04/2024
,"<div style=""font-size: 10rem; color: #0000FF"">S</div>",,ospan,letter,6rHtdoquhjSeI0x0dfcpWtz2l3t1,html-keyboard-response,114,835452,0.0-46.0-4.0-0.0-1.0-3.0,,,,,,,,,,,,,,,65dcc7be05b80dc664537a59,14:53:26,03/04/2024
3201.0,,,ospan,symmetry,6rHtdoquhjSeI0x0dfcpWtz2l3t1,symmetry-judgement-task,115,840641,0.0-46.0-4.0-0.0-1.0-4.0,,,,,,,,,,1.0,1.0,,,,65dcc7be05b80dc664537a59,14:53:26,03/04/2024
,"<div style=""font-size: 10rem; color: #0000FF"">H</div>",,ospan,letter,6rHtdoquhjSeI0x0dfcpWtz2l3t1,html-keyboard-response,116,841645,0.0-46.0-4.0-0.0-1.0-5.0,,,,,,,,,,,,,,,65dcc7be05b80dc664537a59,14:53:26,03/04/2024
5506.0,,,ospan,symmetry,6rHtdoquhjSeI0x0dfcpWtz2l3t1,symmetry-judgement-task,117,849146,0.0-46.0-4.0-0.0-1.0-6.0,,,,,,,,,,1.0,1.0,,,,65dcc7be05b80dc664537a59,14:53:26,03/04/2024
,"<div style=""font-size: 10rem; color: #0000FF"">P</div>",,ospan,letter,6rHtdoquhjSeI0x0dfcpWtz2l3t1,html-keyboard-response,118,850148,0.0-46.0-4.0-0.0-1.0-7.0,,,,,,,,,,,,,,,65dcc7be05b80dc664537a59,14:53:26,03/04/2024
10170.300000000745,"<div class = numbox><p style=""font-size: 2.4rem"">Please recall the letters you saw to the best of your ability. If you do not remember a particular letter, use the SKIP button.<br><b>(When you are ready to lock in your answer, press ENTER)</b></p><button id = button_1 class = ""square num-button"" onclick = ""recordClick(this)""><div class = content><div class = numbers>C</div></div></button><button id = button_2 class = ""square num-button"" onclick = ""recordClick(this)""><div class = content><div class = numbers>G</div></div></button><button id = button_3 class = ""square num-button"" onclick = ""recordClick(this)""><div class = content><div class = numbers>H</div></div></button><button id = button_4 class = ""square num-button"" onclick = ""recordClick(this)""><div class = content><div class = numbers>J</div></div></button><button id = button_5 class = ""square num-button"" onclick = ""recordClick(this)""><div class = content><div class = numbers>K</div></div></button><button id = button_6 class = ""square num-button"" onclick = ""recordClick(this)""><div class = content><div class = numbers>L</div></div></button><button id = button_7 class = ""square num-button"" onclick = ""recordClick(this)""><div class = content><div class = numbers>N</div></div></button><button id = button_8 class = ""square num-button"" onclick = ""recordClick(this)""><div class = content><div class = numbers>P</div></div></button><button id = button_9 class = ""square num-button"" onclick = ""recordClick(this)""><div class = content><div class = numbers>Q</div></div></button><button id = button_10 class = ""square num-button"" onclick = ""recordClick(this)""><div class = content><div class = numbers>R</div></div></button><button id = button_11 class = ""square num-button"" onclick = ""recordClick(this)""><div class = content><div class = numbers>S</div></div></button><button id = button_12 class = ""square num-button"" onclick = ""recordClick(this)""><div class = content><div class = numbers>Y</div></div></button><button class = clear_button id = ""ClearButton"" onclick = ""clearResponse()"">BACKSPACE</button><button class = blank_button id = ""BlankButton"" onclick = ""blankResponse()"">SKIP</button><p style=""font-size: 2.4rem""><u><b>Current Answer:</b></u></p><br><br><div id=echoed_txt style=""font-size: 5rem; color:blue;""><b></b></div></div>",enter,ospan,retrieval,6rHtdoquhjSeI0x0dfcpWtz2l3t1,html-keyboard-response,119,861074,0.0-46.0-4.0-0.0-2.0,7,5,0,4.0,"[""G"",""C"",""H"",""P""]","[""G"",""S"",""H"",""P""]",0.0,3.0,,,,,,,65dcc7be05b80dc664537a59,14:53:26,03/04/2024
1027.0,[''],0,ospan,feedback,6rHtdoquhjSeI0x0dfcpWtz2l3t1,html-button-response,120,862610,0.0-46.0-4.0-0.0-3.0,,,,,,,,,,,,100.0,0.0,,65dcc7be05b80dc664537a59,14:53:26,03/04/2024
,"<p style=""font-size:75px;"">...</p>",,ospan,iti,6rHtdoquhjSeI0x0dfcpWtz2l3t1,html-keyboard-response,121,863622,0.0-46.0-4.0-1.0-0.0,,,,,,,,,,,,,,,65dcc7be05b80dc664537a59,14:53:26,03/04/2024
2532.0,,,ospan,symmetry,6rHtdoquhjSeI0x0dfcpWtz2l3t1,symmetry-judgement-task,122,867514,0.0-46.0-4.0-1.0-1.0-0.0,,,,,,,,,,1.0,1.0,,,,65dcc7be05b80dc664537a59,14:53:26,03/04/2024
,"<div style=""font-size: 10rem; color: #0000FF"">J</div>",,ospan,letter,6rHtdoquhjSeI0x0dfcpWtz2l3t1,html-keyboard-response,123,868518,0.0-46.0-4.0-1.0-1.0-1.0,,,,,,,,,,,,,,,65dcc7be05b80dc664537a59,14:53:26,03/04/2024
4169.0,,,ospan,symmetry,6rHtdoquhjSeI0x0dfcpWtz2l3t1,symmetry-judgement-task,124,874664,0.0-46.0-4.0-1.0-1.0-2.0,,,,,,,,,,1.0,1.0,,,,65dcc7be05b80dc664537a59,14:53:26,03/04/2024
,"<div style=""font-size: 10rem; color: #0000FF"">C</div>",,ospan,letter,6rHtdoquhjSeI0x0dfcpWtz2l3t1,html-keyboard-response,125,875682,0.0-46.0-4.0-1.0-1.0-3.0,,,,,,,,,,,,,,,65dcc7be05b80dc664537a59,14:53:26,03/04/2024
1751.0,,,ospan,symmetry,6rHtdoquhjSeI0x0dfcpWtz2l3t1,symmetry-judgement-task,126,879443,0.0-46.0-4.0-1.0-1.0-4.0,,,,,,,,,,1.0,1.0,,,,65dcc7be05b80dc664537a59,14:53:26,03/04/2024
,"<div style=""font-size: 10rem; color: #0000FF"">G</div>",,ospan,letter,6rHtdoquhjSeI0x0dfcpWtz2l3t1,html-keyboard-response,127,880461,0.0-46.0-4.0-1.0-1.0-5.0,,,,,,,,,,,,,,,65dcc7be05b80dc664537a59,14:53:26,03/04/2024
3479.0,,,ospan,symmetry,6rHtdoquhjSeI0x0dfcpWtz2l3t1,symmetry-judgement-task,128,885972,0.0-46.0-4.0-1.0-1.0-6.0,,,,,,,,,,1.0,1.0,,,,65dcc7be05b80dc664537a59,14:53:26,03/04/2024
,"<div style=""font-size: 10rem; color: #0000FF"">Y</div>",,ospan,letter,6rHtdoquhjSeI0x0dfcpWtz2l3t1,html-keyboard-response,129,886980,0.0-46.0-4.0-1.0-1.0-7.0,,,,,,,,,,,,,,,65dcc7be05b80dc664537a59,14:53:26,03/04/2024
1255.0,,,ospan,symmetry,6rHtdoquhjSeI0x0dfcpWtz2l3t1,symmetry-judgement-task,130,890230,0.0-46.0-4.0-1.0-1.0-8.0,,,,,,,,,,1.0,1.0,,,,65dcc7be05b80dc664537a59,14:53:26,03/04/2024
,"<div style=""font-size: 10rem; color: #0000FF"">Q</div>",,ospan,letter,6rHtdoquhjSeI0x0dfcpWtz2l3t1,html-keyboard-response,131,891247,0.0-46.0-4.0-1.0-1.0-9.0,,,,,,,,,,,,,,,65dcc7be05b80dc664537a59,14:53:26,03/04/2024
7895.0,"<div class = numbox><p style=""font-size: 2.4rem"">Please recall the letters you saw to the best of your ability. If you do not remember a particular letter, use the SKIP button.<br><b>(When you are ready to lock in your answer, press ENTER)</b></p><button id = button_1 class = ""square num-button"" onclick = ""recordClick(this)""><div class = content><div class = numbers>C</div></div></button><button id = button_2 class = ""square num-button"" onclick = ""recordClick(this)""><div class = content><div class = numbers>G</div></div></button><button id = button_3 class = ""square num-button"" onclick = ""recordClick(this)""><div class = content><div class = numbers>H</div></div></button><button id = button_4 class = ""square num-button"" onclick = ""recordClick(this)""><div class = content><div class = numbers>J</div></div></button><button id = button_5 class = ""square num-button"" onclick = ""recordClick(this)""><div class = content><div class = numbers>K</div></div></button><button id = button_6 class = ""square num-button"" onclick = ""recordClick(this)""><div class = content><div class = numbers>L</div></div></button><button id = button_7 class = ""square num-button"" onclick = ""recordClick(this)""><div class = content><div class = numbers>N</div></div></button><button id = button_8 class = ""square num-button"" onclick = ""recordClick(this)""><div class = content><div class = numbers>P</div></div></button><button id = button_9 class = ""square num-button"" onclick = ""recordClick(this)""><div class = content><div class = numbers>Q</div></div></button><button id = button_10 class = ""square num-button"" onclick = ""recordClick(this)""><div class = content><div class = numbers>R</div></div></button><button id = button_11 class = ""square num-button"" onclick = ""recordClick(this)""><div class = content><div class = numbers>S</div></div></button><button id = button_12 class = ""square num-button"" onclick = ""recordClick(this)""><div class = content><div class = numbers>Y</div></div></button><button class = clear_button id = ""ClearButton"" onclick = ""clearResponse()"">BACKSPACE</button><button class = blank_button id = ""BlankButton"" onclick = ""blankResponse()"">SKIP</button><p style=""font-size: 2.4rem""><u><b>Current Answer:</b></u></p><br><br><div id=echoed_txt style=""font-size: 5rem; color:blue;""><b></b></div></div>",enter,ospan,retrieval,6rHtdoquhjSeI0x0dfcpWtz2l3t1,html-keyboard-response,132,899898,0.0-46.0-4.0-1.0-2.0,12,8,0,5.0,"[""J"",""C"",""Y"",""G"",""Q""]","[""J"",""C"",""G"",""Y"",""Q""]",0.0,3.0,,,,,,,65dcc7be05b80dc664537a59,14:53:26,03/04/2024
838.8999999985099,[''],0,ospan,feedback,6rHtdoquhjSeI0x0dfcpWtz2l3t1,html-button-response,133,901242,0.0-46.0-4.0-1.0-3.0,,,,,,,,,,,,100.0,0.0,,65dcc7be05b80dc664537a59,14:53:26,03/04/2024
,"<p style=""font-size:75px;"">...</p>",,ospan,iti,6rHtdoquhjSeI0x0dfcpWtz2l3t1,html-keyboard-response,134,902253,0.0-46.0-4.0-2.0-0.0,,,,,,,,,,,,,,,65dcc7be05b80dc664537a59,14:53:26,03/04/2024
2941.0,,,ospan,symmetry,6rHtdoquhjSeI0x0dfcpWtz2l3t1,symmetry-judgement-task,135,906414,0.0-46.0-4.0-2.0-1.0-0.0,,,,,,,,,,1.0,1.0,,,,65dcc7be05b80dc664537a59,14:53:26,03/04/2024
,"<div style=""font-size: 10rem; color: #0000FF"">H</div>",,ospan,letter,6rHtdoquhjSeI0x0dfcpWtz2l3t1,html-keyboard-response,136,907416,0.0-46.0-4.0-2.0-1.0-1.0,,,,,,,,,,,,,,,65dcc7be05b80dc664537a59,14:53:26,03/04/2024
2793.0,,,ospan,symmetry,6rHtdoquhjSeI0x0dfcpWtz2l3t1,symmetry-judgement-task,137,912210,0.0-46.0-4.0-2.0-1.0-2.0,,,,,,,,,,1.0,1.0,,,,65dcc7be05b80dc664537a59,14:53:26,03/04/2024
,"<div style=""font-size: 10rem; color: #0000FF"">K</div>",,ospan,letter,6rHtdoquhjSeI0x0dfcpWtz2l3t1,html-keyboard-response,138,913213,0.0-46.0-4.0-2.0-1.0-3.0,,,,,,,,,,,,,,,65dcc7be05b80dc664537a59,14:53:26,03/04/2024
3714.0,,,ospan,symmetry,6rHtdoquhjSeI0x0dfcpWtz2l3t1,symmetry-judgement-task,139,918926,0.0-46.0-4.0-2.0-1.0-4.0,,,,,,,,,,1.0,1.0,,,,65dcc7be05b80dc664537a59,14:53:26,03/04/2024
,"<div style=""font-size: 10rem; color: #0000FF"">S</div>",,ospan,letter,6rHtdoquhjSeI0x0dfcpWtz2l3t1,html-keyboard-response,140,919928,0.0-46.0-4.0-2.0-1.0-5.0,,,,,,,,,,,,,,,65dcc7be05b80dc664537a59,14:53:26,03/04/2024
4428.39999999851,"<div class = numbox><p style=""font-size: 2.4rem"">Please recall the letters you saw to the best of your ability. If you do not remember a particular letter, use the SKIP button.<br><b>(When you are ready to lock in your answer, press ENTER)</b></p><button id = button_1 class = ""square num-button"" onclick = ""recordClick(this)""><div class = content><div class = numbers>C</div></div></button><button id = button_2 class = ""square num-button"" onclick = ""recordClick(this)""><div class = content><div class = numbers>G</div></div></button><button id = button_3 class = ""square num-button"" onclick = ""recordClick(this)""><div class = content><div class = numbers>H</div></div></button><button id = button_4 class = ""square num-button"" onclick = ""recordClick(this)""><div class = content><div class = numbers>J</div></div></button><button id = button_5 class = ""square num-button"" onclick = ""recordClick(this)""><div class = content><div class = numbers>K</div></div></button><button id = button_6 class = ""square num-button"" onclick = ""recordClick(this)""><div class = content><div class = numbers>L</div></div></button><button id = button_7 class = ""square num-button"" onclick = ""recordClick(this)""><div class = content><div class = numbers>N</div></div></button><button id = button_8 class = ""square num-button"" onclick = ""recordClick(this)""><div class = content><div class = numbers>P</div></div></button><button id = button_9 class = ""square num-button"" onclick = ""recordClick(this)""><div class = content><div class = numbers>Q</div></div></button><button id = button_10 class = ""square num-button"" onclick = ""recordClick(this)""><div class = content><div class = numbers>R</div></div></button><button id = button_11 class = ""square num-button"" onclick = ""recordClick(this)""><div class = content><div class = numbers>S</div></div></button><button id = button_12 class = ""square num-button"" onclick = ""recordClick(this)""><div class = content><div class = numbers>Y</div></div></button><button class = clear_button id = ""ClearButton"" onclick = ""clearResponse()"">BACKSPACE</button><button class = blank_button id = ""BlankButton"" onclick = ""blankResponse()"">SKIP</button><p style=""font-size: 2.4rem""><u><b>Current Answer:</b></u></p><br><br><div id=echoed_txt style=""font-size: 5rem; color:blue;""><b></b></div></div>",enter,ospan,retrieval,6rHtdoquhjSeI0x0dfcpWtz2l3t1,html-keyboard-response,141,925122,0.0-46.0-4.0-2.0-2.0,15,11,3,3.0,"[""H"",""K"",""S""]","[""H"",""K"",""S""]",1.0,3.0,,,,,,,65dcc7be05b80dc664537a59,14:53:26,03/04/2024
1273.9000000022352,[''],0,ospan,feedback,6rHtdoquhjSeI0x0dfcpWtz2l3t1,html-button-response,142,926915,0.0-46.0-4.0-2.0-3.0,,,,,,,,,,,,100.0,0.0,,65dcc7be05b80dc664537a59,14:53:26,03/04/2024
,"<p style=""font-size:75px;"">...</p>",,ospan,iti,6rHtdoquhjSeI0x0dfcpWtz2l3t1,html-keyboard-response,143,927921,0.0-46.0-5.0-0.0-0.0,,,,,,,,,,,,,,,65dcc7be05b80dc664537a59,14:53:26,03/04/2024
4884.0,,,ospan,symmetry,6rHtdoquhjSeI0x0dfcpWtz2l3t1,symmetry-judgement-task,144,933855,0.0-46.0-5.0-0.0-1.0-0.0,,,,,,,,,,1.0,1.0,,,,65dcc7be05b80dc664537a59,14:53:26,03/04/2024
,"<div style=""font-size: 10rem; color: #0000FF"">Y</div>",,ospan,letter,6rHtdoquhjSeI0x0dfcpWtz2l3t1,html-keyboard-response,145,934858,0.0-46.0-5.0-0.0-1.0-1.0,,,,,,,,,,,,,,,65dcc7be05b80dc664537a59,14:53:26,03/04/2024
2628.0,,,ospan,symmetry,6rHtdoquhjSeI0x0dfcpWtz2l3t1,symmetry-judgement-task,146,939469,0.0-46.0-5.0-0.0-1.0-2.0,,,,,,,,,,1.0,1.0,,,,65dcc7be05b80dc664537a59,14:53:26,03/04/2024
,"<div style=""font-size: 10rem; color: #0000FF"">K</div>",,ospan,letter,6rHtdoquhjSeI0x0dfcpWtz2l3t1,html-keyboard-response,147,940473,0.0-46.0-5.0-0.0-1.0-3.0,,,,,,,,,,,,,,,65dcc7be05b80dc664537a59,14:53:26,03/04/2024
3419.0,,,ospan,symmetry,6rHtdoquhjSeI0x0dfcpWtz2l3t1,symmetry-judgement-task,148,946138,0.0-46.0-5.0-0.0-1.0-4.0,,,,,,,,,,1.0,1.0,,,,65dcc7be05b80dc664537a59,14:53:26,03/04/2024
,"<div style=""font-size: 10rem; color: #0000FF"">R</div>",,ospan,letter,6rHtdoquhjSeI0x0dfcpWtz2l3t1,html-keyboard-response,149,947142,0.0-46.0-5.0-0.0-1.0-5.0,,,,,,,,,,,,,,,65dcc7be05b80dc664537a59,14:53:26,03/04/2024
2261.0,,,ospan,symmetry,6rHtdoquhjSeI0x0dfcpWtz2l3t1,symmetry-judgement-task,150,951404,0.0-46.0-5.0-0.0-1.0-6.0,,,,,,,,,,1.0,1.0,,,,65dcc7be05b80dc664537a59,14:53:26,03/04/2024
,"<div style=""font-size: 10rem; color: #0000FF"">C</div>",,ospan,letter,6rHtdoquhjSeI0x0dfcpWtz2l3t1,html-keyboard-response,151,952407,0.0-46.0-5.0-0.0-1.0-7.0,,,,,,,,,,,,,,,65dcc7be05b80dc664537a59,14:53:26,03/04/2024
1533.0,,,ospan,symmetry,6rHtdoquhjSeI0x0dfcpWtz2l3t1,symmetry-judgement-task,152,955940,0.0-46.0-5.0-0.0-1.0-8.0,,,,,,,,,,1.0,1.0,,,,65dcc7be05b80dc664537a59,14:53:26,03/04/2024
,"<div style=""font-size: 10rem; color: #0000FF"">G</div>",,ospan,letter,6rHtdoquhjSeI0x0dfcpWtz2l3t1,html-keyboard-response,153,956948,0.0-46.0-5.0-0.0-1.0-9.0,,,,,,,,,,,,,,,65dcc7be05b80dc664537a59,14:53:26,03/04/2024
1713.0,,,ospan,symmetry,6rHtdoquhjSeI0x0dfcpWtz2l3t1,symmetry-judgement-task,154,960656,0.0-46.0-5.0-0.0-1.0-10.0,,,,,,,,,,1.0,1.0,,,,65dcc7be05b80dc664537a59,14:53:26,03/04/2024
,"<div style=""font-size: 10rem; color: #0000FF"">L</div>",,ospan,letter,6rHtdoquhjSeI0x0dfcpWtz2l3t1,html-keyboard-response,155,961672,0.0-46.0-5.0-0.0-1.0-11.0,,,,,,,,,,,,,,,65dcc7be05b80dc664537a59,14:53:26,03/04/2024
8462.599999997765,"<div class = numbox><p style=""font-size: 2.4rem"">Please recall the letters you saw to the best of your ability. If you do not remember a particular letter, use the SKIP button.<br><b>(When you are ready to lock in your answer, press ENTER)</b></p><button id = button_1 class = ""square num-button"" onclick = ""recordClick(this)""><div class = content><div class = numbers>C</div></div></button><button id = button_2 class = ""square num-button"" onclick = ""recordClick(this)""><div class = content><div class = numbers>G</div></div></button><button id = button_3 class = ""square num-button"" onclick = ""recordClick(this)""><div class = content><div class = numbers>H</div></div></button><button id = button_4 class = ""square num-button"" onclick = ""recordClick(this)""><div class = content><div class = numbers>J</div></div></button><button id = button_5 class = ""square num-button"" onclick = ""recordClick(this)""><div class = content><div class = numbers>K</div></div></button><button id = button_6 class = ""square num-button"" onclick = ""recordClick(this)""><div class = content><div class = numbers>L</div></div></button><button id = button_7 class = ""square num-button"" onclick = ""recordClick(this)""><div class = content><div class = numbers>N</div></div></button><button id = button_8 class = ""square num-button"" onclick = ""recordClick(this)""><div class = content><div class = numbers>P</div></div></button><button id = button_9 class = ""square num-button"" onclick = ""recordClick(this)""><div class = content><div class = numbers>Q</div></div></button><button id = button_10 class = ""square num-button"" onclick = ""recordClick(this)""><div class = content><div class = numbers>R</div></div></button><button id = button_11 class = ""square num-button"" onclick = ""recordClick(this)""><div class = content><div class = numbers>S</div></div></button><button id = button_12 class = ""square num-button"" onclick = ""recordClick(this)""><div class = content><div class = numbers>Y</div></div></button><button class = clear_button id = ""ClearButton"" onclick = ""clearResponse()"">BACKSPACE</button><button class = blank_button id = ""BlankButton"" onclick = ""blankResponse()"">SKIP</button><p style=""font-size: 2.4rem""><u><b>Current Answer:</b></u></p><br><br><div id=echoed_txt style=""font-size: 5rem; color:blue;""><b></b></div></div>",enter,ospan,retrieval,6rHtdoquhjSeI0x0dfcpWtz2l3t1,html-keyboard-response,156,970890,0.0-46.0-5.0-0.0-2.0,21,17,9,6.0,"[""Y"",""K"",""R"",""C"",""G"",""L""]","[""Y"",""K"",""R"",""C"",""G"",""L""]",1.0,6.0,,,,,,,65dcc7be05b80dc664537a59,14:53:26,03/04/2024
937.5,[''],0,ospan,feedback,6rHtdoquhjSeI0x0dfcpWtz2l3t1,html-button-response,157,972330,0.0-46.0-5.0-0.0-3.0,,,,,,,,,,,,100.0,0.0,,65dcc7be05b80dc664537a59,14:53:26,03/04/2024
,"<p style=""font-size:75px;"">...</p>",,ospan,iti,6rHtdoquhjSeI0x0dfcpWtz2l3t1,html-keyboard-response,158,973344,0.0-46.0-5.0-1.0-0.0,,,,,,,,,,,,,,,65dcc7be05b80dc664537a59,14:53:26,03/04/2024
3961.0,,,ospan,symmetry,6rHtdoquhjSeI0x0dfcpWtz2l3t1,symmetry-judgement-task,159,978354,0.0-46.0-5.0-1.0-1.0-0.0,,,,,,,,,,1.0,1.0,,,,65dcc7be05b80dc664537a59,14:53:26,03/04/2024
,"<div style=""font-size: 10rem; color: #0000FF"">L</div>",,ospan,letter,6rHtdoquhjSeI0x0dfcpWtz2l3t1,html-keyboard-response,160,979362,0.0-46.0-5.0-1.0-1.0-1.0,,,,,,,,,,,,,,,65dcc7be05b80dc664537a59,14:53:26,03/04/2024
2112.0,,,ospan,symmetry,6rHtdoquhjSeI0x0dfcpWtz2l3t1,symmetry-judgement-task,161,983466,0.0-46.0-5.0-1.0-1.0-2.0,,,,,,,,,,1.0,1.0,,,,65dcc7be05b80dc664537a59,14:53:26,03/04/2024
,"<div style=""font-size: 10rem; color: #0000FF"">Q</div>",,ospan,letter,6rHtdoquhjSeI0x0dfcpWtz2l3t1,html-keyboard-response,162,984484,0.0-46.0-5.0-1.0-1.0-3.0,,,,,,,,,,,,,,,65dcc7be05b80dc664537a59,14:53:26,03/04/2024
1969.0,,,ospan,symmetry,6rHtdoquhjSeI0x0dfcpWtz2l3t1,symmetry-judgement-task,163,988458,0.0-46.0-5.0-1.0-1.0-4.0,,,,,,,,,,1.0,1.0,,,,65dcc7be05b80dc664537a59,14:53:26,03/04/2024
,"<div style=""font-size: 10rem; color: #0000FF"">H</div>",,ospan,letter,6rHtdoquhjSeI0x0dfcpWtz2l3t1,html-keyboard-response,164,989481,0.0-46.0-5.0-1.0-1.0-5.0,,,,,,,,,,,,,,,65dcc7be05b80dc664537a59,14:53:26,03/04/2024
1511.0,,,ospan,symmetry,6rHtdoquhjSeI0x0dfcpWtz2l3t1,symmetry-judgement-task,165,993018,0.0-46.0-5.0-1.0-1.0-6.0,,,,,,,,,,1.0,1.0,,,,65dcc7be05b80dc664537a59,14:53:26,03/04/2024
,"<div style=""font-size: 10rem; color: #0000FF"">S</div>",,ospan,letter,6rHtdoquhjSeI0x0dfcpWtz2l3t1,html-keyboard-response,166,994020,0.0-46.0-5.0-1.0-1.0-7.0,,,,,,,,,,,,,,,65dcc7be05b80dc664537a59,14:53:26,03/04/2024
1339.0,,,ospan,symmetry,6rHtdoquhjSeI0x0dfcpWtz2l3t1,symmetry-judgement-task,167,997350,0.0-46.0-5.0-1.0-1.0-8.0,,,,,,,,,,1.0,1.0,,,,65dcc7be05b80dc664537a59,14:53:26,03/04/2024
,"<div style=""font-size: 10rem; color: #0000FF"">Y</div>",,ospan,letter,6rHtdoquhjSeI0x0dfcpWtz2l3t1,html-keyboard-response,168,998362,0.0-46.0-5.0-1.0-1.0-9.0,,,,,,,,,,,,,,,65dcc7be05b80dc664537a59,14:53:26,03/04/2024
1759.0,,,ospan,symmetry,6rHtdoquhjSeI0x0dfcpWtz2l3t1,symmetry-judgement-task,169,1002121,0.0-46.0-5.0-1.0-1.0-10.0,,,,,,,,,,1.0,1.0,,,,65dcc7be05b80dc664537a59,14:53:26,03/04/2024
,"<div style=""font-size: 10rem; color: #0000FF"">C</div>",,ospan,letter,6rHtdoquhjSeI0x0dfcpWtz2l3t1,html-keyboard-response,170,1003134,0.0-46.0-5.0-1.0-1.0-11.0,,,,,,,,,,,,,,,65dcc7be05b80dc664537a59,14:53:26,03/04/2024
1195.0,,,ospan,symmetry,6rHtdoquhjSeI0x0dfcpWtz2l3t1,symmetry-judgement-task,171,1006325,0.0-46.0-5.0-1.0-1.0-12.0,,,,,,,,,,1.0,1.0,,,,65dcc7be05b80dc664537a59,14:53:26,03/04/2024
,"<div style=""font-size: 10rem; color: #0000FF"">R</div>",,ospan,letter,6rHtdoquhjSeI0x0dfcpWtz2l3t1,html-keyboard-response,172,1007327,0.0-46.0-5.0-1.0-1.0-13.0,,,,,,,,,,,,,,,65dcc7be05b80dc664537a59,14:53:26,03/04/2024
17815.900000002235,"<div class = numbox><p style=""font-size: 2.4rem"">Please recall the letters you saw to the best of your ability. If you do not remember a particular letter, use the SKIP button.<br><b>(When you are ready to lock in your answer, press ENTER)</b></p><button id = button_1 class = ""square num-button"" onclick = ""recordClick(this)""><div class = content><div class = numbers>C</div></div></button><button id = button_2 class = ""square num-button"" onclick = ""recordClick(this)""><div class = content><div class = numbers>G</div></div></button><button id = button_3 class = ""square num-button"" onclick = ""recordClick(this)""><div class = content><div class = numbers>H</div></div></button><button id = button_4 class = ""square num-button"" onclick = ""recordClick(this)""><div class = content><div class = numbers>J</div></div></button><button id = button_5 class = ""square num-button"" onclick = ""recordClick(this)""><div class = content><div class = numbers>K</div></div></button><button id = button_6 class = ""square num-button"" onclick = ""recordClick(this)""><div class = content><div class = numbers>L</div></div></button><button id = button_7 class = ""square num-button"" onclick = ""recordClick(this)""><div class = content><div class = numbers>N</div></div></button><button id = button_8 class = ""square num-button"" onclick = ""recordClick(this)""><div class = content><div class = numbers>P</div></div></button><button id = button_9 class = ""square num-button"" onclick = ""recordClick(this)""><div class = content><div class = numbers>Q</div></div></button><button id = button_10 class = ""square num-button"" onclick = ""recordClick(this)""><div class = content><div class = numbers>R</div></div></button><button id = button_11 class = ""square num-button"" onclick = ""recordClick(this)""><div class = content><div class = numbers>S</div></div></button><button id = button_12 class = ""square num-button"" onclick = ""recordClick(this)""><div class = content><div class = numbers>Y</div></div></button><button class = clear_button id = ""ClearButton"" onclick = ""clearResponse()"">BACKSPACE</button><button class = blank_button id = ""BlankButton"" onclick = ""blankResponse()"">SKIP</button><p style=""font-size: 2.4rem""><u><b>Current Answer:</b></u></p><br><br><div id=echoed_txt style=""font-size: 5rem; color:blue;""><b></b></div></div>",enter,ospan,retrieval,6rHtdoquhjSeI0x0dfcpWtz2l3t1,html-keyboard-response,173,1025906,0.0-46.0-5.0-1.0-2.0,28,23,9,7.0,"[""L"",""Q"",""H"",""S"",""Y"",""C""]","[""L"",""Q"",""H"",""S"",""Y"",""C"",""R""]",0.0,6.0,,,,,,,65dcc7be05b80dc664537a59,14:53:26,03/04/2024
1927.5,[''],0,ospan,feedback,6rHtdoquhjSeI0x0dfcpWtz2l3t1,html-button-response,174,1028338,0.0-46.0-5.0-1.0-3.0,,,,,,,,,,,,100.0,0.0,,65dcc7be05b80dc664537a59,14:53:26,03/04/2024
,"<p style=""font-size:75px;"">...</p>",,ospan,iti,6rHtdoquhjSeI0x0dfcpWtz2l3t1,html-keyboard-response,175,1029349,0.0-46.0-6.0-0.0-0.0,,,,,,,,,,,,,,,65dcc7be05b80dc664537a59,14:53:26,03/04/2024
4010.0,,,ospan,symmetry,6rHtdoquhjSeI0x0dfcpWtz2l3t1,symmetry-judgement-task,176,1034622,0.0-46.0-6.0-0.0-1.0-0.0,,,,,,,,,,1.0,1.0,,,,65dcc7be05b80dc664537a59,14:53:26,03/04/2024
,"<div style=""font-size: 10rem; color: #0000FF"">J</div>",,ospan,letter,6rHtdoquhjSeI0x0dfcpWtz2l3t1,html-keyboard-response,177,1035624,0.0-46.0-6.0-0.0-1.0-1.0,,,,,,,,,,,,,,,65dcc7be05b80dc664537a59,14:53:26,03/04/2024
1330.0,,,ospan,symmetry,6rHtdoquhjSeI0x0dfcpWtz2l3t1,symmetry-judgement-task,178,1038936,0.0-46.0-6.0-0.0-1.0-2.0,,,,,,,,,,1.0,1.0,,,,65dcc7be05b80dc664537a59,14:53:26,03/04/2024
,"<div style=""font-size: 10rem; color: #0000FF"">C</div>",,ospan,letter,6rHtdoquhjSeI0x0dfcpWtz2l3t1,html-keyboard-response,179,1039948,0.0-46.0-6.0-0.0-1.0-3.0,,,,,,,,,,,,,,,65dcc7be05b80dc664537a59,14:53:26,03/04/2024
3882.0,,,ospan,symmetry,6rHtdoquhjSeI0x0dfcpWtz2l3t1,symmetry-judgement-task,180,1045815,0.0-46.0-6.0-0.0-1.0-4.0,,,,,,,,,,1.0,1.0,,,,65dcc7be05b80dc664537a59,14:53:26,03/04/2024
,"<div style=""font-size: 10rem; color: #0000FF"">Q</div>",,ospan,letter,6rHtdoquhjSeI0x0dfcpWtz2l3t1,html-keyboard-response,181,1046833,0.0-46.0-6.0-0.0-1.0-5.0,,,,,,,,,,,,,,,65dcc7be05b80dc664537a59,14:53:26,03/04/2024
2025.0,,,ospan,symmetry,6rHtdoquhjSeI0x0dfcpWtz2l3t1,symmetry-judgement-task,182,1050827,0.0-46.0-6.0-0.0-1.0-6.0,,,,,,,,,,1.0,1.0,,,,65dcc7be05b80dc664537a59,14:53:26,03/04/2024
,"<div style=""font-size: 10rem; color: #0000FF"">L</div>",,ospan,letter,6rHtdoquhjSeI0x0dfcpWtz2l3t1,html-keyboard-response,183,1051843,0.0-46.0-6.0-0.0-1.0-7.0,,,,,,,,,,,,,,,65dcc7be05b80dc664537a59,14:53:26,03/04/2024
2017.0,,,ospan,symmetry,6rHtdoquhjSeI0x0dfcpWtz2l3t1,symmetry-judgement-task,184,1055837,0.0-46.0-6.0-0.0-1.0-8.0,,,,,,,,,,0.0,0.0,,,,65dcc7be05b80dc664537a59,14:53:26,03/04/2024
,"<div style=""font-size: 10rem; color: #0000FF"">H</div>",,ospan,letter,6rHtdoquhjSeI0x0dfcpWtz2l3t1,html-keyboard-response,185,1056838,0.0-46.0-6.0-0.0-1.0-9.0,,,,,,,,,,,,,,,65dcc7be05b80dc664537a59,14:53:26,03/04/2024
6246.89999999851,"<div class = numbox><p style=""font-size: 2.4rem"">Please recall the letters you saw to the best of your ability. If you do not remember a particular letter, use the SKIP button.<br><b>(When you are ready to lock in your answer, press ENTER)</b></p><button id = button_1 class = ""square num-button"" onclick = ""recordClick(this)""><div class = content><div class = numbers>C</div></div></button><button id = button_2 class = ""square num-button"" onclick = ""recordClick(this)""><div class = content><div class = numbers>G</div></div></button><button id = button_3 class = ""square num-button"" onclick = ""recordClick(this)""><div class = content><div class = numbers>H</div></div></button><button id = button_4 class = ""square num-button"" onclick = ""recordClick(this)""><div class = content><div class = numbers>J</div></div></button><button id = button_5 class = ""square num-button"" onclick = ""recordClick(this)""><div class = content><div class = numbers>K</div></div></button><button id = button_6 class = ""square num-button"" onclick = ""recordClick(this)""><div class = content><div class = numbers>L</div></div></button><button id = button_7 class = ""square num-button"" onclick = ""recordClick(this)""><div class = content><div class = numbers>N</div></div></button><button id = button_8 class = ""square num-button"" onclick = ""recordClick(this)""><div class = content><div class = numbers>P</div></div></button><button id = button_9 class = ""square num-button"" onclick = ""recordClick(this)""><div class = content><div class = numbers>Q</div></div></button><button id = button_10 class = ""square num-button"" onclick = ""recordClick(this)""><div class = content><div class = numbers>R</div></div></button><button id = button_11 class = ""square num-button"" onclick = ""recordClick(this)""><div class = content><div class = numbers>S</div></div></button><button id = button_12 class = ""square num-button"" onclick = ""recordClick(this)""><div class = content><div class = numbers>Y</div></div></button><button class = clear_button id = ""ClearButton"" onclick = ""clearResponse()"">BACKSPACE</button><button class = blank_button id = ""BlankButton"" onclick = ""blankResponse()"">SKIP</button><p style=""font-size: 2.4rem""><u><b>Current Answer:</b></u></p><br><br><div id=echoed_txt style=""font-size: 5rem; color:blue;""><b></b></div></div>",enter,ospan,retrieval,6rHtdoquhjSeI0x0dfcpWtz2l3t1,html-keyboard-response,186,1063858,0.0-46.0-6.0-0.0-2.0,33,27,9,5.0,"[""J"",""C"",""Q"",""L""]","[""J"",""C"",""Q"",""L"",""H""]",0.0,4.0,,,,,,,65dcc7be05b80dc664537a59,14:53:26,03/04/2024
746.8000000007451,[''],0,ospan,feedback,6rHtdoquhjSeI0x0dfcpWtz2l3t1,html-button-response,187,1065121,0.0-46.0-6.0-0.0-3.0,,,,,,,,,,,,97.0,0.0,,65dcc7be05b80dc664537a59,14:53:26,03/04/2024
,"<p style=""font-size:75px;"">...</p>",,ospan,iti,6rHtdoquhjSeI0x0dfcpWtz2l3t1,html-keyboard-response,188,1066135,0.0-46.0-6.0-1.0-0.0,,,,,,,,,,,,,,,65dcc7be05b80dc664537a59,14:53:26,03/04/2024
1317.0,,,ospan,symmetry,6rHtdoquhjSeI0x0dfcpWtz2l3t1,symmetry-judgement-task,189,1068686,0.0-46.0-6.0-1.0-1.0-0.0,,,,,,,,,,1.0,1.0,,,,65dcc7be05b80dc664537a59,14:53:26,03/04/2024
,"<div style=""font-size: 10rem; color: #0000FF"">L</div>",,ospan,letter,6rHtdoquhjSeI0x0dfcpWtz2l3t1,html-keyboard-response,190,1069689,0.0-46.0-6.0-1.0-1.0-1.0,,,,,,,,,,,,,,,65dcc7be05b80dc664537a59,14:53:26,03/04/2024
2207.0,,,ospan,symmetry,6rHtdoquhjSeI0x0dfcpWtz2l3t1,symmetry-judgement-task,191,1073881,0.0-46.0-6.0-1.0-1.0-2.0,,,,,,,,,,1.0,1.0,,,,65dcc7be05b80dc664537a59,14:53:26,03/04/2024
,"<div style=""font-size: 10rem; color: #0000FF"">G</div>",,ospan,letter,6rHtdoquhjSeI0x0dfcpWtz2l3t1,html-keyboard-response,192,1074884,0.0-46.0-6.0-1.0-1.0-3.0,,,,,,,,,,,,,,,65dcc7be05b80dc664537a59,14:53:26,03/04/2024
1292.0,,,ospan,symmetry,6rHtdoquhjSeI0x0dfcpWtz2l3t1,symmetry-judgement-task,193,1078139,0.0-46.0-6.0-1.0-1.0-4.0,,,,,,,,,,1.0,1.0,,,,65dcc7be05b80dc664537a59,14:53:26,03/04/2024
,"<div style=""font-size: 10rem; color: #0000FF"">H</div>",,ospan,letter,6rHtdoquhjSeI0x0dfcpWtz2l3t1,html-keyboard-response,194,1079146,0.0-46.0-6.0-1.0-1.0-5.0,,,,,,,,,,,,,,,65dcc7be05b80dc664537a59,14:53:26,03/04/2024
1162.0,,,ospan,symmetry,6rHtdoquhjSeI0x0dfcpWtz2l3t1,symmetry-judgement-task,195,1082329,0.0-46.0-6.0-1.0-1.0-6.0,,,,,,,,,,1.0,1.0,,,,65dcc7be05b80dc664537a59,14:53:26,03/04/2024
,"<div style=""font-size: 10rem; color: #0000FF"">N</div>",,ospan,letter,6rHtdoquhjSeI0x0dfcpWtz2l3t1,html-keyboard-response,196,1083353,0.0-46.0-6.0-1.0-1.0-7.0,,,,,,,,,,,,,,,65dcc7be05b80dc664537a59,14:53:26,03/04/2024
1230.0,,,ospan,symmetry,6rHtdoquhjSeI0x0dfcpWtz2l3t1,symmetry-judgement-task,197,1086578,0.0-46.0-6.0-1.0-1.0-8.0,,,,,,,,,,1.0,1.0,,,,65dcc7be05b80dc664537a59,14:53:26,03/04/2024
,"<div style=""font-size: 10rem; color: #0000FF"">K</div>",,ospan,letter,6rHtdoquhjSeI0x0dfcpWtz2l3t1,html-keyboard-response,198,1087580,0.0-46.0-6.0-1.0-1.0-9.0,,,,,,,,,,,,,,,65dcc7be05b80dc664537a59,14:53:26,03/04/2024
1773.0,,,ospan,symmetry,6rHtdoquhjSeI0x0dfcpWtz2l3t1,symmetry-judgement-task,199,1091334,0.0-46.0-6.0-1.0-1.0-10.0,,,,,,,,,,1.0,1.0,,,,65dcc7be05b80dc664537a59,14:53:26,03/04/2024
,"<div style=""font-size: 10rem; color: #0000FF"">S</div>",,ospan,letter,6rHtdoquhjSeI0x0dfcpWtz2l3t1,html-keyboard-response,200,1092336,0.0-46.0-6.0-1.0-1.0-11.0,,,,,,,,,,,,,,,65dcc7be05b80dc664537a59,14:53:26,03/04/2024
1259.0,,,ospan,symmetry,6rHtdoquhjSeI0x0dfcpWtz2l3t1,symmetry-judgement-task,201,1095622,0.0-46.0-6.0-1.0-1.0-12.0,,,,,,,,,,1.0,1.0,,,,65dcc7be05b80dc664537a59,14:53:26,03/04/2024
,"<div style=""font-size: 10rem; color: #0000FF"">C</div>",,ospan,letter,6rHtdoquhjSeI0x0dfcpWtz2l3t1,html-keyboard-response,202,1096625,0.0-46.0-6.0-1.0-1.0-13.0,,,,,,,,,,,,,,,65dcc7be05b80dc664537a59,14:53:26,03/04/2024
3239.0,,,ospan,symmetry,6rHtdoquhjSeI0x0dfcpWtz2l3t1,symmetry-judgement-task,203,1101858,0.0-46.0-6.0-1.0-1.0-14.0,,,,,,,,,,1.0,1.0,,,,65dcc7be05b80dc664537a59,14:53:26,03/04/2024
,"<div style=""font-size: 10rem; color: #0000FF"">Q</div>",,ospan,letter,6rHtdoquhjSeI0x0dfcpWtz2l3t1,html-keyboard-response,204,1102872,0.0-46.0-6.0-1.0-1.0-15.0,,,,,,,,,,,,,,,65dcc7be05b80dc664537a59,14:53:26,03/04/2024
10324.79999999702,"<div class = numbox><p style=""font-size: 2.4rem"">Please recall the letters you saw to the best of your ability. If you do not remember a particular letter, use the SKIP button.<br><b>(When you are ready to lock in your answer, press ENTER)</b></p><button id = button_1 class = ""square num-button"" onclick = ""recordClick(this)""><div class = content><div class = numbers>C</div></div></button><button id = button_2 class = ""square num-button"" onclick = ""recordClick(this)""><div class = content><div class = numbers>G</div></div></button><button id = button_3 class = ""square num-button"" onclick = ""recordClick(this)""><div class = content><div class = numbers>H</div></div></button><button id = button_4 class = ""square num-button"" onclick = ""recordClick(this)""><div class = content><div class = numbers>J</div></div></button><button id = button_5 class = ""square num-button"" onclick = ""recordClick(this)""><div class = content><div class = numbers>K</div></div></button><button id = button_6 class = ""square num-button"" onclick = ""recordClick(this)""><div class = content><div class = numbers>L</div></div></button><button id = button_7 class = ""square num-button"" onclick = ""recordClick(this)""><div class = content><div class = numbers>N</div></div></button><button id = button_8 class = ""square num-button"" onclick = ""recordClick(this)""><div class = content><div class = numbers>P</div></div></button><button id = button_9 class = ""square num-button"" onclick = ""recordClick(this)""><div class = content><div class = numbers>Q</div></div></button><button id = button_10 class = ""square num-button"" onclick = ""recordClick(this)""><div class = content><div class = numbers>R</div></div></button><button id = button_11 class = ""square num-button"" onclick = ""recordClick(this)""><div class = content><div class = numbers>S</div></div></button><button id = button_12 class = ""square num-button"" onclick = ""recordClick(this)""><div class = content><div class = numbers>Y</div></div></button><button class = clear_button id = ""ClearButton"" onclick = ""clearResponse()"">BACKSPACE</button><button class = blank_button id = ""BlankButton"" onclick = ""blankResponse()"">SKIP</button><p style=""font-size: 2.4rem""><u><b>Current Answer:</b></u></p><br><br><div id=echoed_txt style=""font-size: 5rem; color:blue;""><b></b></div></div>",enter,ospan,retrieval,6rHtdoquhjSeI0x0dfcpWtz2l3t1,html-keyboard-response,205,1113962,0.0-46.0-6.0-1.0-2.0,41,32,9,8.0,"[""L"",""G"",""H"",""N"",""K"",""Q""]","[""L"",""G"",""H"",""N"",""K"",""S"",""C"",""Q""]",0.0,5.0,,,,,,,65dcc7be05b80dc664537a59,14:53:26,03/04/2024
985.5,[''],0,ospan,feedback,6rHtdoquhjSeI0x0dfcpWtz2l3t1,html-button-response,206,1115450,0.0-46.0-6.0-1.0-3.0,,,,,,,,,,,,98.0,0.0,,65dcc7be05b80dc664537a59,14:53:26,03/04/2024
11845.300000000745,,{'Q0': 'it was difficult to focus on one task'},ospan,survey_ospan,6rHtdoquhjSeI0x0dfcpWtz2l3t1,lmdlab-survey-text,207,1128062,0.0-46.0-7.0,,,,,,,,,,,,,,6rHtdoquhjSeI0x0dfcpWtz2l3t1,65dcc7be05b80dc664537a59,14:53:26,03/04/2024
1649.9000000022352,<p><p style='font-size: 3rem'>Great work!<br><br>This completes the symmetry and memory task.</p><br><br><br>,0,ospan,finish,6rHtdoquhjSeI0x0dfcpWtz2l3t1,html-button-response,208,1129714,0.0-46.0-8.0,41,32,9,,,,,,,,,98.0,,,65dcc7be05b80dc664537a59,14:53:26,03/04/2024
