rt,stimulus,response,exp_name,exp_stage,subjectID,trial_type,trial_index,time_elapsed,internal_node_id,ospan_shown,ospan_total,ospan_abs,length,resp_actual,resp_correct,full_correct,num_correct,feedback,accuracy,correct,math_acc,math_warning,databaseID,prolificID,start_time,date
2010.9000000059605,<div class = 'left_align' style='font-size: 3.25rem; line-height: 1.3;'><p class = 'center_align'><b>Welcome to the Symmetry and Memory Task</b><br><br><br><br></p>Press 'continue' to show the instructions.<br><br><br><br></div>,0,ospan,instruct,TduwVrl1S3cMDDnf3HNdZWQw2P33,html-button-response,54,576422,0.0-46.0-0.0-0.0-0.0,,,,,,,,,,,,,,,5c4d8d706b23ab0001a34af2,13:22:53,03/04/2024
30679.0,"<div class = 'left_align' style='font-size: 3.25rem; line-height: 1.3;'><p class = 'center_align'><b>Symmetry and Memory Task</b><br><br></p>In this task, you will try to memorize letters you see on the screen<br>while you also view black and white grid pictures.<br><br>In the next few minutes, you will have some practice to get you familiar<br>with how the task works.<br><br>It may be difficult sometimes, but please do not worry about making mistakes!<br><br>We will begin by practicing the letter part of the task.<br><br><br><br></div>",0,ospan,instruct,TduwVrl1S3cMDDnf3HNdZWQw2P33,html-button-response,55,607359,0.0-46.0-0.0-0.0-1.0,,,,,,,,,,,,,,,5c4d8d706b23ab0001a34af2,13:22:53,03/04/2024
16497.20000000298,"<div class = 'left_align' style='font-size: 3.25rem; line-height: 1.3;'>For this practice part, letters will appear on the screen one at a time.<br><br>Try to remember each letter in the order presented.<br><br>After some letters have been shown, you will see a response screen. Your<br>goal is to report the letters you saw <b>in order</b>. If you do not remember<br>a particular letter, you will have the option to leave it blank.<br><br><br><br></div>",0,ospan,instruct,TduwVrl1S3cMDDnf3HNdZWQw2P33,html-button-response,56,624122,0.0-46.0-0.0-0.0-2.0,,,,,,,,,,,,,,,5c4d8d706b23ab0001a34af2,13:22:53,03/04/2024
2520.199999988079,"<div class = 'left_align' style='font-size: 3.25rem; line-height: 1.3;'>Remember, it is very important to get the letters in the same<br>order as you see them.<br><br>When you are ready, you may begin the letter practice.</div><br><br><br><br>",0,ospan,instruct,TduwVrl1S3cMDDnf3HNdZWQw2P33,html-button-response,57,626906,0.0-46.0-0.0-0.0-3.0,,,,,,,,,,,,,,,5c4d8d706b23ab0001a34af2,13:22:53,03/04/2024
,"<p style=""font-size:75px;"">...</p>",,ospan,iti,TduwVrl1S3cMDDnf3HNdZWQw2P33,html-keyboard-response,58,628170,0.0-46.0-0.0-1.0-0.0,,,,,,,,,,,,,,,5c4d8d706b23ab0001a34af2,13:22:53,03/04/2024
,"<div style=""font-size: 10rem; color: #0000FF"">P</div>",,ospan,letter,TduwVrl1S3cMDDnf3HNdZWQw2P33,html-keyboard-response,59,629179,0.0-46.0-0.0-1.0-1.0,,,,,,,,,,,,,,,5c4d8d706b23ab0001a34af2,13:22:53,03/04/2024
,"<div style=""font-size: 10rem; color: #0000FF"">Q</div>",,ospan,letter,TduwVrl1S3cMDDnf3HNdZWQw2P33,html-keyboard-response,60,630962,0.0-46.0-0.0-1.0-2.0,,,,,,,,,,,,,,,5c4d8d706b23ab0001a34af2,13:22:53,03/04/2024
10290.39999999106,"<div class = numbox><p style=""font-size: 2.4rem"">Please recall the letters you saw to the best of your ability. If you do not remember a particular letter, use the SKIP button.<br><b>(When you are ready to lock in your answer, press ENTER)</b></p><button id = button_1 class = ""square num-button"" onclick = ""recordClick(this)""><div class = content><div class = numbers>C</div></div></button><button id = button_2 class = ""square num-button"" onclick = ""recordClick(this)""><div class = content><div class = numbers>G</div></div></button><button id = button_3 class = ""square num-button"" onclick = ""recordClick(this)""><div class = content><div class = numbers>H</div></div></button><button id = button_4 class = ""square num-button"" onclick = ""recordClick(this)""><div class = content><div class = numbers>J</div></div></button><button id = button_5 class = ""square num-button"" onclick = ""recordClick(this)""><div class = content><div class = numbers>K</div></div></button><button id = button_6 class = ""square num-button"" onclick = ""recordClick(this)""><div class = content><div class = numbers>L</div></div></button><button id = button_7 class = ""square num-button"" onclick = ""recordClick(this)""><div class = content><div class = numbers>N</div></div></button><button id = button_8 class = ""square num-button"" onclick = ""recordClick(this)""><div class = content><div class = numbers>P</div></div></button><button id = button_9 class = ""square num-button"" onclick = ""recordClick(this)""><div class = content><div class = numbers>Q</div></div></button><button id = button_10 class = ""square num-button"" onclick = ""recordClick(this)""><div class = content><div class = numbers>R</div></div></button><button id = button_11 class = ""square num-button"" onclick = ""recordClick(this)""><div class = content><div class = numbers>S</div></div></button><button id = button_12 class = ""square num-button"" onclick = ""recordClick(this)""><div class = content><div class = numbers>Y</div></div></button><button class = clear_button id = ""ClearButton"" onclick = ""clearResponse()"">BACKSPACE</button><button class = blank_button id = ""BlankButton"" onclick = ""blankResponse()"">SKIP</button><p style=""font-size: 2.4rem""><u><b>Current Answer:</b></u></p><br><br><div id=echoed_txt style=""font-size: 5rem; color:blue;""><b></b></div></div>",enter,ospan,retrieval,TduwVrl1S3cMDDnf3HNdZWQw2P33,html-keyboard-response,61,642020,0.0-46.0-0.0-1.0-3.0,NA,NA,NA,2.0,"[""P"",""Q""]","[""P"",""Q""]",1.0,2.0,"['<font color=""green"">P</font>', '<font color=""green"">Q</font>']",,,,,,5c4d8d706b23ab0001a34af2,13:22:53,03/04/2024
1491.7999999970198,"['<p style=""font-size:44px"">Letters:<br><br><br><font color=""green"">P</font> <font color=""green"">Q</font></p><br><br>']",0,ospan,practice_feedback,TduwVrl1S3cMDDnf3HNdZWQw2P33,html-button-response,62,644023,0.0-46.0-0.0-1.0-4.0,,,,,,,,,,,,,,,5c4d8d706b23ab0001a34af2,13:22:53,03/04/2024
,"<p style=""font-size:75px;"">...</p>",,ospan,iti,TduwVrl1S3cMDDnf3HNdZWQw2P33,html-keyboard-response,63,645046,0.0-46.0-0.0-2.0-0.0,,,,,,,,,,,,,,,5c4d8d706b23ab0001a34af2,13:22:53,03/04/2024
,"<div style=""font-size: 10rem; color: #0000FF"">H</div>",,ospan,letter,TduwVrl1S3cMDDnf3HNdZWQw2P33,html-keyboard-response,64,646057,0.0-46.0-0.0-2.0-1.0,,,,,,,,,,,,,,,5c4d8d706b23ab0001a34af2,13:22:53,03/04/2024
,"<div style=""font-size: 10rem; color: #0000FF"">G</div>",,ospan,letter,TduwVrl1S3cMDDnf3HNdZWQw2P33,html-keyboard-response,65,647829,0.0-46.0-0.0-2.0-2.0,,,,,,,,,,,,,,,5c4d8d706b23ab0001a34af2,13:22:53,03/04/2024
,"<div style=""font-size: 10rem; color: #0000FF"">S</div>",,ospan,letter,TduwVrl1S3cMDDnf3HNdZWQw2P33,html-keyboard-response,66,649584,0.0-46.0-0.0-2.0-3.0,,,,,,,,,,,,,,,5c4d8d706b23ab0001a34af2,13:22:53,03/04/2024
4422.20000000298,"<div class = numbox><p style=""font-size: 2.4rem"">Please recall the letters you saw to the best of your ability. If you do not remember a particular letter, use the SKIP button.<br><b>(When you are ready to lock in your answer, press ENTER)</b></p><button id = button_1 class = ""square num-button"" onclick = ""recordClick(this)""><div class = content><div class = numbers>C</div></div></button><button id = button_2 class = ""square num-button"" onclick = ""recordClick(this)""><div class = content><div class = numbers>G</div></div></button><button id = button_3 class = ""square num-button"" onclick = ""recordClick(this)""><div class = content><div class = numbers>H</div></div></button><button id = button_4 class = ""square num-button"" onclick = ""recordClick(this)""><div class = content><div class = numbers>J</div></div></button><button id = button_5 class = ""square num-button"" onclick = ""recordClick(this)""><div class = content><div class = numbers>K</div></div></button><button id = button_6 class = ""square num-button"" onclick = ""recordClick(this)""><div class = content><div class = numbers>L</div></div></button><button id = button_7 class = ""square num-button"" onclick = ""recordClick(this)""><div class = content><div class = numbers>N</div></div></button><button id = button_8 class = ""square num-button"" onclick = ""recordClick(this)""><div class = content><div class = numbers>P</div></div></button><button id = button_9 class = ""square num-button"" onclick = ""recordClick(this)""><div class = content><div class = numbers>Q</div></div></button><button id = button_10 class = ""square num-button"" onclick = ""recordClick(this)""><div class = content><div class = numbers>R</div></div></button><button id = button_11 class = ""square num-button"" onclick = ""recordClick(this)""><div class = content><div class = numbers>S</div></div></button><button id = button_12 class = ""square num-button"" onclick = ""recordClick(this)""><div class = content><div class = numbers>Y</div></div></button><button class = clear_button id = ""ClearButton"" onclick = ""clearResponse()"">BACKSPACE</button><button class = blank_button id = ""BlankButton"" onclick = ""blankResponse()"">SKIP</button><p style=""font-size: 2.4rem""><u><b>Current Answer:</b></u></p><br><br><div id=echoed_txt style=""font-size: 5rem; color:blue;""><b></b></div></div>",enter,ospan,retrieval,TduwVrl1S3cMDDnf3HNdZWQw2P33,html-keyboard-response,67,654768,0.0-46.0-0.0-2.0-4.0,NA,NA,NA,3.0,"[""H"",""G"",""S""]","[""H"",""G"",""S""]",1.0,3.0,"['<font color=""green"">H</font>', '<font color=""green"">G</font>', '<font color=""green"">S</font>']",,,,,,5c4d8d706b23ab0001a34af2,13:22:53,03/04/2024
1408.699999988079,"['<p style=""font-size:44px"">Letters:<br><br><br><font color=""green"">H</font> <font color=""green"">G</font> <font color=""green"">S</font></p><br><br>']",0,ospan,practice_feedback,TduwVrl1S3cMDDnf3HNdZWQw2P33,html-button-response,68,656684,0.0-46.0-0.0-2.0-5.0,,,,,,,,,,,,,,,5c4d8d706b23ab0001a34af2,13:22:53,03/04/2024
23341.59999999404,"<div class = 'left_align' style='font-size: 3.25rem; line-height: 1.3;'>Now you will practice doing the <b>symmetry judgment part</b> of the experiment.<br><br>A black and white grid picture will appear on the screen and you have to judge if it is <br>symmetrical or asymetrical.<br><br>A picture is 'mirror' symmetrical if its left half is identical to the right half when flipped.<br>Here are examples of a symmetrical and an asymetrical picture:<br><br><center><img src='Stimuli/img/symm_instructions_extra.png' style='height:420px; width:900'></img></center><br>To judge symmetry, imagine you were to fold each picture down the middle, like a book –<br>would the left half match the right half when folded onto each other?<br><br></div><br>",0,ospan,instruct,TduwVrl1S3cMDDnf3HNdZWQw2P33,html-button-response,69,680033,0.0-46.0-1.0-0.0-0.0,,,,,,,,,,,,,,,5c4d8d706b23ab0001a34af2,13:22:53,03/04/2024
4827.5999999940395,"<div class = 'left_align' style='font-size: 3.25rem; line-height: 1.3;'>When you have viewed the picture and determined whether it is symmetrical or not,<br>you can <b>click the Yes or No button</b> below to answer.<br><br>If you take longer than 15 seconds, it will continue automatically<br>and record the answer as an error.</div><br>",0,ospan,instruct,TduwVrl1S3cMDDnf3HNdZWQw2P33,html-button-response,70,685125,0.0-46.0-1.0-0.0-1.0,,,,,,,,,,,,,,,5c4d8d706b23ab0001a34af2,13:22:53,03/04/2024
4919.399999991059,"<div class = 'left_align' style='font-size: 3.25rem; line-height: 1.3;'>It is <b>very</b> important that you make the symmetry judgment correctly.<br><br>It is also important that you try and judge the picture as quickly as you can.<br><br>When you are ready, click on the button below to try some practice problems.</div><br><br><br><br>",0,ospan,instruct,TduwVrl1S3cMDDnf3HNdZWQw2P33,html-button-response,71,690316,0.0-46.0-1.0-0.0-2.0,,,,,,,,,,,,,,,5c4d8d706b23ab0001a34af2,13:22:53,03/04/2024
2958.0,,,ospan,symmetry,TduwVrl1S3cMDDnf3HNdZWQw2P33,symmetry-judgement-task,72,694188,0.0-46.0-1.0-1.0-0.0,,,,,,,,,,1.0,1.0,,,,5c4d8d706b23ab0001a34af2,13:22:53,03/04/2024
,"<p style=""color:green; font-size: 35px"">Correct</p>",,ospan,feedback,TduwVrl1S3cMDDnf3HNdZWQw2P33,html-keyboard-response,73,694949,0.0-46.0-1.0-1.0-1.0,,,,,,,,,,,,,,,5c4d8d706b23ab0001a34af2,13:22:53,03/04/2024
1425.0,,,ospan,symmetry,TduwVrl1S3cMDDnf3HNdZWQw2P33,symmetry-judgement-task,74,699811,0.0-46.0-1.0-1.0-2.0,,,,,,,,,,1.0,1.0,,,,5c4d8d706b23ab0001a34af2,13:22:53,03/04/2024
,"<p style=""color:green; font-size: 35px"">Correct</p>",,ospan,feedback,TduwVrl1S3cMDDnf3HNdZWQw2P33,html-keyboard-response,75,700575,0.0-46.0-1.0-1.0-3.0,,,,,,,,,,,,,,,5c4d8d706b23ab0001a34af2,13:22:53,03/04/2024
2632.0,,,ospan,symmetry,TduwVrl1S3cMDDnf3HNdZWQw2P33,symmetry-judgement-task,76,706456,0.0-46.0-1.0-1.0-4.0,,,,,,,,,,1.0,1.0,,,,5c4d8d706b23ab0001a34af2,13:22:53,03/04/2024
,"<p style=""color:green; font-size: 35px"">Correct</p>",,ospan,feedback,TduwVrl1S3cMDDnf3HNdZWQw2P33,html-keyboard-response,77,707221,0.0-46.0-1.0-1.0-5.0,,,,,,,,,,,,,,,5c4d8d706b23ab0001a34af2,13:22:53,03/04/2024
2175.0999999940395,"<p style=""font-size: 3rem;"">You responded correctly on 3 of 3 symmetry judgments. Good job!</p><br><br>",0,ospan,practice,TduwVrl1S3cMDDnf3HNdZWQw2P33,html-button-response,78,711415,0.0-46.0-1.0-2.0,,,,,,,,,,,,,,,5c4d8d706b23ab0001a34af2,13:22:53,03/04/2024
19501.10000000894,"<div class = 'left_align' style='font-size: 3.25rem; line-height: 1.3;'>Now you will practice doing both parts of the experiment at the same time.<br><br>In the next practice set, you will be given one grid picture to judge.<br>Then letter will appear on the screen. Try to remember the letter.<br><br>It is <b>very important</b> to make the symmetry judgment as quickly and accurately as possible.<br><br>Just as before, once you have make the symmetry judgment, you can click Yes or No.<br><b>Note that you will no longer see Correct or Incorrect feedback.</div><br><br><br><br>",0,ospan,instruct,TduwVrl1S3cMDDnf3HNdZWQw2P33,html-button-response,79,731172,0.0-46.0-2.0-0.0-0.0,,,,,,,,,,,,,,,5c4d8d706b23ab0001a34af2,13:22:53,03/04/2024
7419.79999999702,"<div class = 'left_align' style='font-size: 3.25rem; line-height: 1.3;'>After the letter goes away, another grid picture will appear, and then<br>another letter.<br><br>At the end of each set of letters and grids, you will recall the letters to the best<br>of your ability. Remember, try your best to get the letters in the correct order.<br><br>It is important to <b>quickly</b> and <b>accurately</b> make the symmetry judgments.</div><br><br><br><br>",0,ospan,instruct,TduwVrl1S3cMDDnf3HNdZWQw2P33,html-button-response,80,738854,0.0-46.0-2.0-0.0-1.0,,,,,,,,,,,,,,,5c4d8d706b23ab0001a34af2,13:22:53,03/04/2024
21408.0,"<div class = 'left_align' style='font-size: 3.25rem; line-height: 1.3;'>On the feedback screen, if you are not doing well at the symmetry judgments,<br>you will also see a warning in the middle. This indicates your percent <br>correct for the grid pictures for the entire experiment.<br><br>It is <b>very</b> important for you to keep accuracy at least at 85%: <u>We can only use<br>data where the participant was at least 85% accurate on the judgments.</u> Therefore,<br> please try your best to perform well on the symmetry judgments, <b>at the same time</b><br>doing your best to recall as many letters as possible.<br><br>Click the button to try some practice problems.</div><br><br><br><br>",0,ospan,instruct,TduwVrl1S3cMDDnf3HNdZWQw2P33,html-button-response,81,760535,0.0-46.0-2.0-0.0-2.0,,,,,,,,,,,,,,,5c4d8d706b23ab0001a34af2,13:22:53,03/04/2024
,"<p style=""font-size:75px;"">...</p>",,ospan,iti,TduwVrl1S3cMDDnf3HNdZWQw2P33,html-keyboard-response,82,761817,0.0-46.0-2.0-1.0-0.0,,,,,,,,,,,,,,,5c4d8d706b23ab0001a34af2,13:22:53,03/04/2024
2002.0,,,ospan,symmetry,TduwVrl1S3cMDDnf3HNdZWQw2P33,symmetry-judgement-task,83,765598,0.0-46.0-2.0-1.0-1.0-0.0,,,,,,,,,,1.0,1.0,,,,5c4d8d706b23ab0001a34af2,13:22:53,03/04/2024
,"<div style=""font-size: 10rem; color: #0000FF"">L</div>",,ospan,letter,TduwVrl1S3cMDDnf3HNdZWQw2P33,html-keyboard-response,84,766608,0.0-46.0-2.0-1.0-1.0-1.0,,,,,,,,,,,,,,,5c4d8d706b23ab0001a34af2,13:22:53,03/04/2024
2233.0,,,ospan,symmetry,TduwVrl1S3cMDDnf3HNdZWQw2P33,symmetry-judgement-task,85,771290,0.0-46.0-2.0-1.0-1.0-2.0,,,,,,,,,,1.0,1.0,,,,5c4d8d706b23ab0001a34af2,13:22:53,03/04/2024
,"<div style=""font-size: 10rem; color: #0000FF"">Q</div>",,ospan,letter,TduwVrl1S3cMDDnf3HNdZWQw2P33,html-keyboard-response,86,772307,0.0-46.0-2.0-1.0-1.0-3.0,,,,,,,,,,,,,,,5c4d8d706b23ab0001a34af2,13:22:53,03/04/2024
2478.0,,,ospan,symmetry,TduwVrl1S3cMDDnf3HNdZWQw2P33,symmetry-judgement-task,87,777932,0.0-46.0-2.0-1.0-1.0-4.0,,,,,,,,,,1.0,1.0,,,,5c4d8d706b23ab0001a34af2,13:22:53,03/04/2024
,"<div style=""font-size: 10rem; color: #0000FF"">C</div>",,ospan,letter,TduwVrl1S3cMDDnf3HNdZWQw2P33,html-keyboard-response,88,778948,0.0-46.0-2.0-1.0-1.0-5.0,,,,,,,,,,,,,,,5c4d8d706b23ab0001a34af2,13:22:53,03/04/2024
5171.800000011921,"<div class = numbox><p style=""font-size: 2.4rem"">Please recall the letters you saw to the best of your ability. If you do not remember a particular letter, use the SKIP button.<br><b>(When you are ready to lock in your answer, press ENTER)</b></p><button id = button_1 class = ""square num-button"" onclick = ""recordClick(this)""><div class = content><div class = numbers>C</div></div></button><button id = button_2 class = ""square num-button"" onclick = ""recordClick(this)""><div class = content><div class = numbers>G</div></div></button><button id = button_3 class = ""square num-button"" onclick = ""recordClick(this)""><div class = content><div class = numbers>H</div></div></button><button id = button_4 class = ""square num-button"" onclick = ""recordClick(this)""><div class = content><div class = numbers>J</div></div></button><button id = button_5 class = ""square num-button"" onclick = ""recordClick(this)""><div class = content><div class = numbers>K</div></div></button><button id = button_6 class = ""square num-button"" onclick = ""recordClick(this)""><div class = content><div class = numbers>L</div></div></button><button id = button_7 class = ""square num-button"" onclick = ""recordClick(this)""><div class = content><div class = numbers>N</div></div></button><button id = button_8 class = ""square num-button"" onclick = ""recordClick(this)""><div class = content><div class = numbers>P</div></div></button><button id = button_9 class = ""square num-button"" onclick = ""recordClick(this)""><div class = content><div class = numbers>Q</div></div></button><button id = button_10 class = ""square num-button"" onclick = ""recordClick(this)""><div class = content><div class = numbers>R</div></div></button><button id = button_11 class = ""square num-button"" onclick = ""recordClick(this)""><div class = content><div class = numbers>S</div></div></button><button id = button_12 class = ""square num-button"" onclick = ""recordClick(this)""><div class = content><div class = numbers>Y</div></div></button><button class = clear_button id = ""ClearButton"" onclick = ""clearResponse()"">BACKSPACE</button><button class = blank_button id = ""BlankButton"" onclick = ""blankResponse()"">SKIP</button><p style=""font-size: 2.4rem""><u><b>Current Answer:</b></u></p><br><br><div id=echoed_txt style=""font-size: 5rem; color:blue;""><b></b></div></div>",enter,ospan,retrieval,TduwVrl1S3cMDDnf3HNdZWQw2P33,html-keyboard-response,89,784890,0.0-46.0-2.0-1.0-2.0-0.0,NA,NA,NA,3.0,"[""L"",""Q"",""C""]","[""L"",""Q"",""C""]",1.0,3.0,"['<font color=""green"">L</font>', '<font color=""green"">Q</font>', '<font color=""green"">C</font>']",,,,,,5c4d8d706b23ab0001a34af2,13:22:53,03/04/2024
2354.7999999970198,"['<p style=""font-size:44px"">Letters:<br><br><br><font color=""green"">L</font> <font color=""green"">Q</font> <font color=""green"">C</font></p><br><br><p style=""font-size:30px"">Symmetry:<br><br><font color=""green"">100%</font></p><br><br>']",0,ospan,practice_feedback,TduwVrl1S3cMDDnf3HNdZWQw2P33,html-button-response,90,787755,0.0-46.0-2.0-1.0-2.0-1.0,,,,,,,,,,,,,,,5c4d8d706b23ab0001a34af2,13:22:53,03/04/2024
,"<p style=""font-size:75px;"">...</p>",,ospan,iti,TduwVrl1S3cMDDnf3HNdZWQw2P33,html-keyboard-response,91,788773,0.0-46.0-2.0-2.0-0.0,,,,,,,,,,,,,,,5c4d8d706b23ab0001a34af2,13:22:53,03/04/2024
1756.0,,,ospan,symmetry,TduwVrl1S3cMDDnf3HNdZWQw2P33,symmetry-judgement-task,92,793151,0.0-46.0-2.0-2.0-1.0-0.0,,,,,,,,,,1.0,1.0,,,,5c4d8d706b23ab0001a34af2,13:22:53,03/04/2024
,"<div style=""font-size: 10rem; color: #0000FF"">K</div>",,ospan,letter,TduwVrl1S3cMDDnf3HNdZWQw2P33,html-keyboard-response,93,794169,0.0-46.0-2.0-2.0-1.0-1.0,,,,,,,,,,,,,,,5c4d8d706b23ab0001a34af2,13:22:53,03/04/2024
1626.0,,,ospan,symmetry,TduwVrl1S3cMDDnf3HNdZWQw2P33,symmetry-judgement-task,94,798297,0.0-46.0-2.0-2.0-1.0-2.0,,,,,,,,,,1.0,1.0,,,,5c4d8d706b23ab0001a34af2,13:22:53,03/04/2024
,"<div style=""font-size: 10rem; color: #0000FF"">L</div>",,ospan,letter,TduwVrl1S3cMDDnf3HNdZWQw2P33,html-keyboard-response,95,799311,0.0-46.0-2.0-2.0-1.0-3.0,,,,,,,,,,,,,,,5c4d8d706b23ab0001a34af2,13:22:53,03/04/2024
2023.0,,,ospan,symmetry,TduwVrl1S3cMDDnf3HNdZWQw2P33,symmetry-judgement-task,96,804191,0.0-46.0-2.0-2.0-1.0-4.0,,,,,,,,,,1.0,1.0,,,,5c4d8d706b23ab0001a34af2,13:22:53,03/04/2024
,"<div style=""font-size: 10rem; color: #0000FF"">Y</div>",,ospan,letter,TduwVrl1S3cMDDnf3HNdZWQw2P33,html-keyboard-response,97,805196,0.0-46.0-2.0-2.0-1.0-5.0,,,,,,,,,,,,,,,5c4d8d706b23ab0001a34af2,13:22:53,03/04/2024
4474.399999991059,"<div class = numbox><p style=""font-size: 2.4rem"">Please recall the letters you saw to the best of your ability. If you do not remember a particular letter, use the SKIP button.<br><b>(When you are ready to lock in your answer, press ENTER)</b></p><button id = button_1 class = ""square num-button"" onclick = ""recordClick(this)""><div class = content><div class = numbers>C</div></div></button><button id = button_2 class = ""square num-button"" onclick = ""recordClick(this)""><div class = content><div class = numbers>G</div></div></button><button id = button_3 class = ""square num-button"" onclick = ""recordClick(this)""><div class = content><div class = numbers>H</div></div></button><button id = button_4 class = ""square num-button"" onclick = ""recordClick(this)""><div class = content><div class = numbers>J</div></div></button><button id = button_5 class = ""square num-button"" onclick = ""recordClick(this)""><div class = content><div class = numbers>K</div></div></button><button id = button_6 class = ""square num-button"" onclick = ""recordClick(this)""><div class = content><div class = numbers>L</div></div></button><button id = button_7 class = ""square num-button"" onclick = ""recordClick(this)""><div class = content><div class = numbers>N</div></div></button><button id = button_8 class = ""square num-button"" onclick = ""recordClick(this)""><div class = content><div class = numbers>P</div></div></button><button id = button_9 class = ""square num-button"" onclick = ""recordClick(this)""><div class = content><div class = numbers>Q</div></div></button><button id = button_10 class = ""square num-button"" onclick = ""recordClick(this)""><div class = content><div class = numbers>R</div></div></button><button id = button_11 class = ""square num-button"" onclick = ""recordClick(this)""><div class = content><div class = numbers>S</div></div></button><button id = button_12 class = ""square num-button"" onclick = ""recordClick(this)""><div class = content><div class = numbers>Y</div></div></button><button class = clear_button id = ""ClearButton"" onclick = ""clearResponse()"">BACKSPACE</button><button class = blank_button id = ""BlankButton"" onclick = ""blankResponse()"">SKIP</button><p style=""font-size: 2.4rem""><u><b>Current Answer:</b></u></p><br><br><div id=echoed_txt style=""font-size: 5rem; color:blue;""><b></b></div></div>",enter,ospan,retrieval,TduwVrl1S3cMDDnf3HNdZWQw2P33,html-keyboard-response,98,810432,0.0-46.0-2.0-2.0-2.0-0.0,NA,NA,NA,3.0,"[""K"",""L"",""Y""]","[""K"",""L"",""Y""]",1.0,3.0,"['<font color=""green"">K</font>', '<font color=""green"">L</font>', '<font color=""green"">Y</font>']",,,,,,5c4d8d706b23ab0001a34af2,13:22:53,03/04/2024
862.2999999970198,"['<p style=""font-size:44px"">Letters:<br><br><br><font color=""green"">K</font> <font color=""green"">L</font> <font color=""green"">Y</font></p><br><br><p style=""font-size:30px"">Symmetry:<br><br><font color=""green"">100%</font></p><br><br>']",0,ospan,practice_feedback,TduwVrl1S3cMDDnf3HNdZWQw2P33,html-button-response,99,811802,0.0-46.0-2.0-2.0-2.0-1.0,,,,,,,,,,,,,,,5c4d8d706b23ab0001a34af2,13:22:53,03/04/2024
55743.10000000894,"<div class = 'left_align' style='font-size: 3rem; line-height: 1.3;'><b>Great work! That is the end of practice.</b><br><br>The real trials will look just like the practice trials you just completed.<br><br><u>Here, you will not see feedback</u>. First, you will see an grid picture to judge,<br>then a letter to remember. When the recall screen appears, report the letters in the<br>order presented. If you forget a letter, remember to use the <b>blank</b> button to move to the<br>next letter. Some of the sets will have more symmetry grids and letters than others.<br><br>It is important that you do your best on both the symmetry judgments and the letter recall<br>parts of the experiment. For for the symmetry judgments, try to work as <b>quickly</b> and <br>as <b>accurately</b> as possible. Remember to keep your symmetry accuracy at 85% or above.<br><br><b>For the letters, do NOT use any external aid (e.g., writing on paper, electronic device).</b><br><br>It is <u>very important</u> to our experiment to have a <b>true</b> view of your real performance.<br><br>Do not worry if you miss some when it gets hard! This task is meant to be very challenging!<br><br>Click the button to begin.</div><br><br><br><br>",0,ospan,starting_real_here,TduwVrl1S3cMDDnf3HNdZWQw2P33,html-button-response,100,867552,0.0-46.0-2.0-3.0,,,,,,,,,,,,,,,5c4d8d706b23ab0001a34af2,13:22:53,03/04/2024
,"<p style=""font-size:75px;"">...</p>",,ospan,iti,TduwVrl1S3cMDDnf3HNdZWQw2P33,html-keyboard-response,101,868826,0.0-46.0-3.0-0.0-0.0,,,,,,,,,,,,,,,5c4d8d706b23ab0001a34af2,13:22:53,03/04/2024
1280.0,,,ospan,symmetry,TduwVrl1S3cMDDnf3HNdZWQw2P33,symmetry-judgement-task,102,872042,0.0-46.0-3.0-0.0-1.0-0.0,,,,,,,,,,1.0,1.0,,,,5c4d8d706b23ab0001a34af2,13:22:53,03/04/2024
,"<div style=""font-size: 10rem; color: #0000FF"">J</div>",,ospan,letter,TduwVrl1S3cMDDnf3HNdZWQw2P33,html-keyboard-response,103,873058,0.0-46.0-3.0-0.0-1.0-1.0,,,,,,,,,,,,,,,5c4d8d706b23ab0001a34af2,13:22:53,03/04/2024
1819.0,,,ospan,symmetry,TduwVrl1S3cMDDnf3HNdZWQw2P33,symmetry-judgement-task,104,878895,0.0-46.0-3.0-0.0-1.0-2.0,,,,,,,,,,1.0,1.0,,,,5c4d8d706b23ab0001a34af2,13:22:53,03/04/2024
,"<div style=""font-size: 10rem; color: #0000FF"">H</div>",,ospan,letter,TduwVrl1S3cMDDnf3HNdZWQw2P33,html-keyboard-response,105,879917,0.0-46.0-3.0-0.0-1.0-3.0,,,,,,,,,,,,,,,5c4d8d706b23ab0001a34af2,13:22:53,03/04/2024
1781.0,,,ospan,symmetry,TduwVrl1S3cMDDnf3HNdZWQw2P33,symmetry-judgement-task,106,884762,0.0-46.0-3.0-0.0-1.0-4.0,,,,,,,,,,1.0,1.0,,,,5c4d8d706b23ab0001a34af2,13:22:53,03/04/2024
,"<div style=""font-size: 10rem; color: #0000FF"">N</div>",,ospan,letter,TduwVrl1S3cMDDnf3HNdZWQw2P33,html-keyboard-response,107,885779,0.0-46.0-3.0-0.0-1.0-5.0,,,,,,,,,,,,,,,5c4d8d706b23ab0001a34af2,13:22:53,03/04/2024
4449.9000000059605,"<div class = numbox><p style=""font-size: 2.4rem"">Please recall the letters you saw to the best of your ability. If you do not remember a particular letter, use the SKIP button.<br><b>(When you are ready to lock in your answer, press ENTER)</b></p><button id = button_1 class = ""square num-button"" onclick = ""recordClick(this)""><div class = content><div class = numbers>C</div></div></button><button id = button_2 class = ""square num-button"" onclick = ""recordClick(this)""><div class = content><div class = numbers>G</div></div></button><button id = button_3 class = ""square num-button"" onclick = ""recordClick(this)""><div class = content><div class = numbers>H</div></div></button><button id = button_4 class = ""square num-button"" onclick = ""recordClick(this)""><div class = content><div class = numbers>J</div></div></button><button id = button_5 class = ""square num-button"" onclick = ""recordClick(this)""><div class = content><div class = numbers>K</div></div></button><button id = button_6 class = ""square num-button"" onclick = ""recordClick(this)""><div class = content><div class = numbers>L</div></div></button><button id = button_7 class = ""square num-button"" onclick = ""recordClick(this)""><div class = content><div class = numbers>N</div></div></button><button id = button_8 class = ""square num-button"" onclick = ""recordClick(this)""><div class = content><div class = numbers>P</div></div></button><button id = button_9 class = ""square num-button"" onclick = ""recordClick(this)""><div class = content><div class = numbers>Q</div></div></button><button id = button_10 class = ""square num-button"" onclick = ""recordClick(this)""><div class = content><div class = numbers>R</div></div></button><button id = button_11 class = ""square num-button"" onclick = ""recordClick(this)""><div class = content><div class = numbers>S</div></div></button><button id = button_12 class = ""square num-button"" onclick = ""recordClick(this)""><div class = content><div class = numbers>Y</div></div></button><button class = clear_button id = ""ClearButton"" onclick = ""clearResponse()"">BACKSPACE</button><button class = blank_button id = ""BlankButton"" onclick = ""blankResponse()"">SKIP</button><p style=""font-size: 2.4rem""><u><b>Current Answer:</b></u></p><br><br><div id=echoed_txt style=""font-size: 5rem; color:blue;""><b></b></div></div>",enter,ospan,retrieval,TduwVrl1S3cMDDnf3HNdZWQw2P33,html-keyboard-response,108,890991,0.0-46.0-3.0-0.0-2.0,3,3,3,3.0,"[""J"",""H"",""N""]","[""J"",""H"",""N""]",1.0,3.0,,,,,,,5c4d8d706b23ab0001a34af2,13:22:53,03/04/2024
873.5,[''],0,ospan,feedback,TduwVrl1S3cMDDnf3HNdZWQw2P33,html-button-response,109,892372,0.0-46.0-3.0-0.0-3.0,,,,,,,,,,,,100.0,0.0,,5c4d8d706b23ab0001a34af2,13:22:53,03/04/2024
,"<p style=""font-size:75px;"">...</p>",,ospan,iti,TduwVrl1S3cMDDnf3HNdZWQw2P33,html-keyboard-response,110,893388,0.0-46.0-4.0-0.0-0.0,,,,,,,,,,,,,,,5c4d8d706b23ab0001a34af2,13:22:53,03/04/2024
1855.0,,,ospan,symmetry,TduwVrl1S3cMDDnf3HNdZWQw2P33,symmetry-judgement-task,111,896956,0.0-46.0-4.0-0.0-1.0-0.0,,,,,,,,,,1.0,1.0,,,,5c4d8d706b23ab0001a34af2,13:22:53,03/04/2024
,"<div style=""font-size: 10rem; color: #0000FF"">Q</div>",,ospan,letter,TduwVrl1S3cMDDnf3HNdZWQw2P33,html-keyboard-response,112,897969,0.0-46.0-4.0-0.0-1.0-1.0,,,,,,,,,,,,,,,5c4d8d706b23ab0001a34af2,13:22:53,03/04/2024
1665.0,,,ospan,symmetry,TduwVrl1S3cMDDnf3HNdZWQw2P33,symmetry-judgement-task,113,903645,0.0-46.0-4.0-0.0-1.0-2.0,,,,,,,,,,1.0,1.0,,,,5c4d8d706b23ab0001a34af2,13:22:53,03/04/2024
,"<div style=""font-size: 10rem; color: #0000FF"">G</div>",,ospan,letter,TduwVrl1S3cMDDnf3HNdZWQw2P33,html-keyboard-response,114,904660,0.0-46.0-4.0-0.0-1.0-3.0,,,,,,,,,,,,,,,5c4d8d706b23ab0001a34af2,13:22:53,03/04/2024
1860.0,,,ospan,symmetry,TduwVrl1S3cMDDnf3HNdZWQw2P33,symmetry-judgement-task,115,909571,0.0-46.0-4.0-0.0-1.0-4.0,,,,,,,,,,1.0,1.0,,,,5c4d8d706b23ab0001a34af2,13:22:53,03/04/2024
,"<div style=""font-size: 10rem; color: #0000FF"">C</div>",,ospan,letter,TduwVrl1S3cMDDnf3HNdZWQw2P33,html-keyboard-response,116,910586,0.0-46.0-4.0-0.0-1.0-5.0,,,,,,,,,,,,,,,5c4d8d706b23ab0001a34af2,13:22:53,03/04/2024
1800.0,,,ospan,symmetry,TduwVrl1S3cMDDnf3HNdZWQw2P33,symmetry-judgement-task,117,914883,0.0-46.0-4.0-0.0-1.0-6.0,,,,,,,,,,1.0,1.0,,,,5c4d8d706b23ab0001a34af2,13:22:53,03/04/2024
,"<div style=""font-size: 10rem; color: #0000FF"">J</div>",,ospan,letter,TduwVrl1S3cMDDnf3HNdZWQw2P33,html-keyboard-response,118,915897,0.0-46.0-4.0-0.0-1.0-7.0,,,,,,,,,,,,,,,5c4d8d706b23ab0001a34af2,13:22:53,03/04/2024
5357.5999999940395,"<div class = numbox><p style=""font-size: 2.4rem"">Please recall the letters you saw to the best of your ability. If you do not remember a particular letter, use the SKIP button.<br><b>(When you are ready to lock in your answer, press ENTER)</b></p><button id = button_1 class = ""square num-button"" onclick = ""recordClick(this)""><div class = content><div class = numbers>C</div></div></button><button id = button_2 class = ""square num-button"" onclick = ""recordClick(this)""><div class = content><div class = numbers>G</div></div></button><button id = button_3 class = ""square num-button"" onclick = ""recordClick(this)""><div class = content><div class = numbers>H</div></div></button><button id = button_4 class = ""square num-button"" onclick = ""recordClick(this)""><div class = content><div class = numbers>J</div></div></button><button id = button_5 class = ""square num-button"" onclick = ""recordClick(this)""><div class = content><div class = numbers>K</div></div></button><button id = button_6 class = ""square num-button"" onclick = ""recordClick(this)""><div class = content><div class = numbers>L</div></div></button><button id = button_7 class = ""square num-button"" onclick = ""recordClick(this)""><div class = content><div class = numbers>N</div></div></button><button id = button_8 class = ""square num-button"" onclick = ""recordClick(this)""><div class = content><div class = numbers>P</div></div></button><button id = button_9 class = ""square num-button"" onclick = ""recordClick(this)""><div class = content><div class = numbers>Q</div></div></button><button id = button_10 class = ""square num-button"" onclick = ""recordClick(this)""><div class = content><div class = numbers>R</div></div></button><button id = button_11 class = ""square num-button"" onclick = ""recordClick(this)""><div class = content><div class = numbers>S</div></div></button><button id = button_12 class = ""square num-button"" onclick = ""recordClick(this)""><div class = content><div class = numbers>Y</div></div></button><button class = clear_button id = ""ClearButton"" onclick = ""clearResponse()"">BACKSPACE</button><button class = blank_button id = ""BlankButton"" onclick = ""blankResponse()"">SKIP</button><p style=""font-size: 2.4rem""><u><b>Current Answer:</b></u></p><br><br><div id=echoed_txt style=""font-size: 5rem; color:blue;""><b></b></div></div>",enter,ospan,retrieval,TduwVrl1S3cMDDnf3HNdZWQw2P33,html-keyboard-response,119,922015,0.0-46.0-4.0-0.0-2.0,7,7,7,4.0,"[""Q"",""G"",""C"",""J""]","[""Q"",""G"",""C"",""J""]",1.0,4.0,,,,,,,5c4d8d706b23ab0001a34af2,13:22:53,03/04/2024
862.6999999880791,[''],0,ospan,feedback,TduwVrl1S3cMDDnf3HNdZWQw2P33,html-button-response,120,923395,0.0-46.0-4.0-0.0-3.0,,,,,,,,,,,,100.0,0.0,,5c4d8d706b23ab0001a34af2,13:22:53,03/04/2024
,"<p style=""font-size:75px;"">...</p>",,ospan,iti,TduwVrl1S3cMDDnf3HNdZWQw2P33,html-keyboard-response,121,924408,0.0-46.0-4.0-1.0-0.0,,,,,,,,,,,,,,,5c4d8d706b23ab0001a34af2,13:22:53,03/04/2024
1852.0,,,ospan,symmetry,TduwVrl1S3cMDDnf3HNdZWQw2P33,symmetry-judgement-task,122,927972,0.0-46.0-4.0-1.0-1.0-0.0,,,,,,,,,,1.0,1.0,,,,5c4d8d706b23ab0001a34af2,13:22:53,03/04/2024
,"<div style=""font-size: 10rem; color: #0000FF"">Y</div>",,ospan,letter,TduwVrl1S3cMDDnf3HNdZWQw2P33,html-keyboard-response,123,928987,0.0-46.0-4.0-1.0-1.0-1.0,,,,,,,,,,,,,,,5c4d8d706b23ab0001a34af2,13:22:53,03/04/2024
2285.0,,,ospan,symmetry,TduwVrl1S3cMDDnf3HNdZWQw2P33,symmetry-judgement-task,124,933885,0.0-46.0-4.0-1.0-1.0-2.0,,,,,,,,,,1.0,1.0,,,,5c4d8d706b23ab0001a34af2,13:22:53,03/04/2024
,"<div style=""font-size: 10rem; color: #0000FF"">N</div>",,ospan,letter,TduwVrl1S3cMDDnf3HNdZWQw2P33,html-keyboard-response,125,934898,0.0-46.0-4.0-1.0-1.0-3.0,,,,,,,,,,,,,,,5c4d8d706b23ab0001a34af2,13:22:53,03/04/2024
1368.0,,,ospan,symmetry,TduwVrl1S3cMDDnf3HNdZWQw2P33,symmetry-judgement-task,126,938776,0.0-46.0-4.0-1.0-1.0-4.0,,,,,,,,,,1.0,1.0,,,,5c4d8d706b23ab0001a34af2,13:22:53,03/04/2024
,"<div style=""font-size: 10rem; color: #0000FF"">S</div>",,ospan,letter,TduwVrl1S3cMDDnf3HNdZWQw2P33,html-keyboard-response,127,939793,0.0-46.0-4.0-1.0-1.0-5.0,,,,,,,,,,,,,,,5c4d8d706b23ab0001a34af2,13:22:53,03/04/2024
1507.0,,,ospan,symmetry,TduwVrl1S3cMDDnf3HNdZWQw2P33,symmetry-judgement-task,128,944592,0.0-46.0-4.0-1.0-1.0-6.0,,,,,,,,,,1.0,1.0,,,,5c4d8d706b23ab0001a34af2,13:22:53,03/04/2024
,"<div style=""font-size: 10rem; color: #0000FF"">H</div>",,ospan,letter,TduwVrl1S3cMDDnf3HNdZWQw2P33,html-keyboard-response,129,945606,0.0-46.0-4.0-1.0-1.0-7.0,,,,,,,,,,,,,,,5c4d8d706b23ab0001a34af2,13:22:53,03/04/2024
1381.0,,,ospan,symmetry,TduwVrl1S3cMDDnf3HNdZWQw2P33,symmetry-judgement-task,130,949514,0.0-46.0-4.0-1.0-1.0-8.0,,,,,,,,,,1.0,1.0,,,,5c4d8d706b23ab0001a34af2,13:22:53,03/04/2024
,"<div style=""font-size: 10rem; color: #0000FF"">G</div>",,ospan,letter,TduwVrl1S3cMDDnf3HNdZWQw2P33,html-keyboard-response,131,950532,0.0-46.0-4.0-1.0-1.0-9.0,,,,,,,,,,,,,,,5c4d8d706b23ab0001a34af2,13:22:53,03/04/2024
8099.600000008941,"<div class = numbox><p style=""font-size: 2.4rem"">Please recall the letters you saw to the best of your ability. If you do not remember a particular letter, use the SKIP button.<br><b>(When you are ready to lock in your answer, press ENTER)</b></p><button id = button_1 class = ""square num-button"" onclick = ""recordClick(this)""><div class = content><div class = numbers>C</div></div></button><button id = button_2 class = ""square num-button"" onclick = ""recordClick(this)""><div class = content><div class = numbers>G</div></div></button><button id = button_3 class = ""square num-button"" onclick = ""recordClick(this)""><div class = content><div class = numbers>H</div></div></button><button id = button_4 class = ""square num-button"" onclick = ""recordClick(this)""><div class = content><div class = numbers>J</div></div></button><button id = button_5 class = ""square num-button"" onclick = ""recordClick(this)""><div class = content><div class = numbers>K</div></div></button><button id = button_6 class = ""square num-button"" onclick = ""recordClick(this)""><div class = content><div class = numbers>L</div></div></button><button id = button_7 class = ""square num-button"" onclick = ""recordClick(this)""><div class = content><div class = numbers>N</div></div></button><button id = button_8 class = ""square num-button"" onclick = ""recordClick(this)""><div class = content><div class = numbers>P</div></div></button><button id = button_9 class = ""square num-button"" onclick = ""recordClick(this)""><div class = content><div class = numbers>Q</div></div></button><button id = button_10 class = ""square num-button"" onclick = ""recordClick(this)""><div class = content><div class = numbers>R</div></div></button><button id = button_11 class = ""square num-button"" onclick = ""recordClick(this)""><div class = content><div class = numbers>S</div></div></button><button id = button_12 class = ""square num-button"" onclick = ""recordClick(this)""><div class = content><div class = numbers>Y</div></div></button><button class = clear_button id = ""ClearButton"" onclick = ""clearResponse()"">BACKSPACE</button><button class = blank_button id = ""BlankButton"" onclick = ""blankResponse()"">SKIP</button><p style=""font-size: 2.4rem""><u><b>Current Answer:</b></u></p><br><br><div id=echoed_txt style=""font-size: 5rem; color:blue;""><b></b></div></div>",enter,ospan,retrieval,TduwVrl1S3cMDDnf3HNdZWQw2P33,html-keyboard-response,132,959401,0.0-46.0-4.0-1.0-2.0,12,12,12,5.0,"[""Y"",""N"",""S"",""H"",""G""]","[""Y"",""N"",""S"",""H"",""G""]",1.0,5.0,,,,,,,5c4d8d706b23ab0001a34af2,13:22:53,03/04/2024
951.9000000059605,[''],0,ospan,feedback,TduwVrl1S3cMDDnf3HNdZWQw2P33,html-button-response,133,960864,0.0-46.0-4.0-1.0-3.0,,,,,,,,,,,,100.0,0.0,,5c4d8d706b23ab0001a34af2,13:22:53,03/04/2024
,"<p style=""font-size:75px;"">...</p>",,ospan,iti,TduwVrl1S3cMDDnf3HNdZWQw2P33,html-keyboard-response,134,961888,0.0-46.0-4.0-2.0-0.0,,,,,,,,,,,,,,,5c4d8d706b23ab0001a34af2,13:22:53,03/04/2024
1623.0,,,ospan,symmetry,TduwVrl1S3cMDDnf3HNdZWQw2P33,symmetry-judgement-task,135,965284,0.0-46.0-4.0-2.0-1.0-0.0,,,,,,,,,,1.0,1.0,,,,5c4d8d706b23ab0001a34af2,13:22:53,03/04/2024
,"<div style=""font-size: 10rem; color: #0000FF"">S</div>",,ospan,letter,TduwVrl1S3cMDDnf3HNdZWQw2P33,html-keyboard-response,136,966300,0.0-46.0-4.0-2.0-1.0-1.0,,,,,,,,,,,,,,,5c4d8d706b23ab0001a34af2,13:22:53,03/04/2024
1792.0,,,ospan,symmetry,TduwVrl1S3cMDDnf3HNdZWQw2P33,symmetry-judgement-task,137,970545,0.0-46.0-4.0-2.0-1.0-2.0,,,,,,,,,,1.0,1.0,,,,5c4d8d706b23ab0001a34af2,13:22:53,03/04/2024
,"<div style=""font-size: 10rem; color: #0000FF"">R</div>",,ospan,letter,TduwVrl1S3cMDDnf3HNdZWQw2P33,html-keyboard-response,138,971560,0.0-46.0-4.0-2.0-1.0-3.0,,,,,,,,,,,,,,,5c4d8d706b23ab0001a34af2,13:22:53,03/04/2024
1224.0,,,ospan,symmetry,TduwVrl1S3cMDDnf3HNdZWQw2P33,symmetry-judgement-task,139,975325,0.0-46.0-4.0-2.0-1.0-4.0,,,,,,,,,,1.0,1.0,,,,5c4d8d706b23ab0001a34af2,13:22:53,03/04/2024
,"<div style=""font-size: 10rem; color: #0000FF"">H</div>",,ospan,letter,TduwVrl1S3cMDDnf3HNdZWQw2P33,html-keyboard-response,140,976340,0.0-46.0-4.0-2.0-1.0-5.0,,,,,,,,,,,,,,,5c4d8d706b23ab0001a34af2,13:22:53,03/04/2024
4822.5,"<div class = numbox><p style=""font-size: 2.4rem"">Please recall the letters you saw to the best of your ability. If you do not remember a particular letter, use the SKIP button.<br><b>(When you are ready to lock in your answer, press ENTER)</b></p><button id = button_1 class = ""square num-button"" onclick = ""recordClick(this)""><div class = content><div class = numbers>C</div></div></button><button id = button_2 class = ""square num-button"" onclick = ""recordClick(this)""><div class = content><div class = numbers>G</div></div></button><button id = button_3 class = ""square num-button"" onclick = ""recordClick(this)""><div class = content><div class = numbers>H</div></div></button><button id = button_4 class = ""square num-button"" onclick = ""recordClick(this)""><div class = content><div class = numbers>J</div></div></button><button id = button_5 class = ""square num-button"" onclick = ""recordClick(this)""><div class = content><div class = numbers>K</div></div></button><button id = button_6 class = ""square num-button"" onclick = ""recordClick(this)""><div class = content><div class = numbers>L</div></div></button><button id = button_7 class = ""square num-button"" onclick = ""recordClick(this)""><div class = content><div class = numbers>N</div></div></button><button id = button_8 class = ""square num-button"" onclick = ""recordClick(this)""><div class = content><div class = numbers>P</div></div></button><button id = button_9 class = ""square num-button"" onclick = ""recordClick(this)""><div class = content><div class = numbers>Q</div></div></button><button id = button_10 class = ""square num-button"" onclick = ""recordClick(this)""><div class = content><div class = numbers>R</div></div></button><button id = button_11 class = ""square num-button"" onclick = ""recordClick(this)""><div class = content><div class = numbers>S</div></div></button><button id = button_12 class = ""square num-button"" onclick = ""recordClick(this)""><div class = content><div class = numbers>Y</div></div></button><button class = clear_button id = ""ClearButton"" onclick = ""clearResponse()"">BACKSPACE</button><button class = blank_button id = ""BlankButton"" onclick = ""blankResponse()"">SKIP</button><p style=""font-size: 2.4rem""><u><b>Current Answer:</b></u></p><br><br><div id=echoed_txt style=""font-size: 5rem; color:blue;""><b></b></div></div>",enter,ospan,retrieval,TduwVrl1S3cMDDnf3HNdZWQw2P33,html-keyboard-response,141,981931,0.0-46.0-4.0-2.0-2.0,15,14,12,3.0,"[""H"",""R"",""H""]","[""S"",""R"",""H""]",0.0,2.0,,,,,,,5c4d8d706b23ab0001a34af2,13:22:53,03/04/2024
1278.0999999940395,[''],0,ospan,feedback,TduwVrl1S3cMDDnf3HNdZWQw2P33,html-button-response,142,983720,0.0-46.0-4.0-2.0-3.0,,,,,,,,,,,,100.0,0.0,,5c4d8d706b23ab0001a34af2,13:22:53,03/04/2024
,"<p style=""font-size:75px;"">...</p>",,ospan,iti,TduwVrl1S3cMDDnf3HNdZWQw2P33,html-keyboard-response,143,984743,0.0-46.0-5.0-0.0-0.0,,,,,,,,,,,,,,,5c4d8d706b23ab0001a34af2,13:22:53,03/04/2024
1562.0,,,ospan,symmetry,TduwVrl1S3cMDDnf3HNdZWQw2P33,symmetry-judgement-task,144,988083,0.0-46.0-5.0-0.0-1.0-0.0,,,,,,,,,,1.0,1.0,,,,5c4d8d706b23ab0001a34af2,13:22:53,03/04/2024
,"<div style=""font-size: 10rem; color: #0000FF"">P</div>",,ospan,letter,TduwVrl1S3cMDDnf3HNdZWQw2P33,html-keyboard-response,145,989097,0.0-46.0-5.0-0.0-1.0-1.0,,,,,,,,,,,,,,,5c4d8d706b23ab0001a34af2,13:22:53,03/04/2024
1025.0,,,ospan,symmetry,TduwVrl1S3cMDDnf3HNdZWQw2P33,symmetry-judgement-task,146,992678,0.0-46.0-5.0-0.0-1.0-2.0,,,,,,,,,,1.0,1.0,,,,5c4d8d706b23ab0001a34af2,13:22:53,03/04/2024
,"<div style=""font-size: 10rem; color: #0000FF"">J</div>",,ospan,letter,TduwVrl1S3cMDDnf3HNdZWQw2P33,html-keyboard-response,147,993688,0.0-46.0-5.0-0.0-1.0-3.0,,,,,,,,,,,,,,,5c4d8d706b23ab0001a34af2,13:22:53,03/04/2024
1509.0,,,ospan,symmetry,TduwVrl1S3cMDDnf3HNdZWQw2P33,symmetry-judgement-task,148,997738,0.0-46.0-5.0-0.0-1.0-4.0,,,,,,,,,,1.0,1.0,,,,5c4d8d706b23ab0001a34af2,13:22:53,03/04/2024
,"<div style=""font-size: 10rem; color: #0000FF"">N</div>",,ospan,letter,TduwVrl1S3cMDDnf3HNdZWQw2P33,html-keyboard-response,149,998750,0.0-46.0-5.0-0.0-1.0-5.0,,,,,,,,,,,,,,,5c4d8d706b23ab0001a34af2,13:22:53,03/04/2024
1665.0,,,ospan,symmetry,TduwVrl1S3cMDDnf3HNdZWQw2P33,symmetry-judgement-task,150,1002867,0.0-46.0-5.0-0.0-1.0-6.0,,,,,,,,,,1.0,1.0,,,,5c4d8d706b23ab0001a34af2,13:22:53,03/04/2024
,"<div style=""font-size: 10rem; color: #0000FF"">L</div>",,ospan,letter,TduwVrl1S3cMDDnf3HNdZWQw2P33,html-keyboard-response,151,1003879,0.0-46.0-5.0-0.0-1.0-7.0,,,,,,,,,,,,,,,5c4d8d706b23ab0001a34af2,13:22:53,03/04/2024
2158.0,,,ospan,symmetry,TduwVrl1S3cMDDnf3HNdZWQw2P33,symmetry-judgement-task,152,1008705,0.0-46.0-5.0-0.0-1.0-8.0,,,,,,,,,,1.0,1.0,,,,5c4d8d706b23ab0001a34af2,13:22:53,03/04/2024
,"<div style=""font-size: 10rem; color: #0000FF"">R</div>",,ospan,letter,TduwVrl1S3cMDDnf3HNdZWQw2P33,html-keyboard-response,153,1009721,0.0-46.0-5.0-0.0-1.0-9.0,,,,,,,,,,,,,,,5c4d8d706b23ab0001a34af2,13:22:53,03/04/2024
1320.0,,,ospan,symmetry,TduwVrl1S3cMDDnf3HNdZWQw2P33,symmetry-judgement-task,154,1013521,0.0-46.0-5.0-0.0-1.0-10.0,,,,,,,,,,1.0,1.0,,,,5c4d8d706b23ab0001a34af2,13:22:53,03/04/2024
,"<div style=""font-size: 10rem; color: #0000FF"">K</div>",,ospan,letter,TduwVrl1S3cMDDnf3HNdZWQw2P33,html-keyboard-response,155,1014537,0.0-46.0-5.0-0.0-1.0-11.0,,,,,,,,,,,,,,,5c4d8d706b23ab0001a34af2,13:22:53,03/04/2024
7661.600000008941,"<div class = numbox><p style=""font-size: 2.4rem"">Please recall the letters you saw to the best of your ability. If you do not remember a particular letter, use the SKIP button.<br><b>(When you are ready to lock in your answer, press ENTER)</b></p><button id = button_1 class = ""square num-button"" onclick = ""recordClick(this)""><div class = content><div class = numbers>C</div></div></button><button id = button_2 class = ""square num-button"" onclick = ""recordClick(this)""><div class = content><div class = numbers>G</div></div></button><button id = button_3 class = ""square num-button"" onclick = ""recordClick(this)""><div class = content><div class = numbers>H</div></div></button><button id = button_4 class = ""square num-button"" onclick = ""recordClick(this)""><div class = content><div class = numbers>J</div></div></button><button id = button_5 class = ""square num-button"" onclick = ""recordClick(this)""><div class = content><div class = numbers>K</div></div></button><button id = button_6 class = ""square num-button"" onclick = ""recordClick(this)""><div class = content><div class = numbers>L</div></div></button><button id = button_7 class = ""square num-button"" onclick = ""recordClick(this)""><div class = content><div class = numbers>N</div></div></button><button id = button_8 class = ""square num-button"" onclick = ""recordClick(this)""><div class = content><div class = numbers>P</div></div></button><button id = button_9 class = ""square num-button"" onclick = ""recordClick(this)""><div class = content><div class = numbers>Q</div></div></button><button id = button_10 class = ""square num-button"" onclick = ""recordClick(this)""><div class = content><div class = numbers>R</div></div></button><button id = button_11 class = ""square num-button"" onclick = ""recordClick(this)""><div class = content><div class = numbers>S</div></div></button><button id = button_12 class = ""square num-button"" onclick = ""recordClick(this)""><div class = content><div class = numbers>Y</div></div></button><button class = clear_button id = ""ClearButton"" onclick = ""clearResponse()"">BACKSPACE</button><button class = blank_button id = ""BlankButton"" onclick = ""blankResponse()"">SKIP</button><p style=""font-size: 2.4rem""><u><b>Current Answer:</b></u></p><br><br><div id=echoed_txt style=""font-size: 5rem; color:blue;""><b></b></div></div>",enter,ospan,retrieval,TduwVrl1S3cMDDnf3HNdZWQw2P33,html-keyboard-response,156,1022965,0.0-46.0-5.0-0.0-2.0,21,19,12,6.0,"[""P"",""J"",""N"",""L"",""R"",""S""]","[""P"",""J"",""N"",""L"",""R"",""K""]",0.0,5.0,,,,,,,5c4d8d706b23ab0001a34af2,13:22:53,03/04/2024
784.2999999970198,[''],0,ospan,feedback,TduwVrl1S3cMDDnf3HNdZWQw2P33,html-button-response,157,1024265,0.0-46.0-5.0-0.0-3.0,,,,,,,,,,,,100.0,0.0,,5c4d8d706b23ab0001a34af2,13:22:53,03/04/2024
,"<p style=""font-size:75px;"">...</p>",,ospan,iti,TduwVrl1S3cMDDnf3HNdZWQw2P33,html-keyboard-response,158,1025290,0.0-46.0-5.0-1.0-0.0,,,,,,,,,,,,,,,5c4d8d706b23ab0001a34af2,13:22:53,03/04/2024
1450.0,,,ospan,symmetry,TduwVrl1S3cMDDnf3HNdZWQw2P33,symmetry-judgement-task,159,1028491,0.0-46.0-5.0-1.0-1.0-0.0,,,,,,,,,,1.0,1.0,,,,5c4d8d706b23ab0001a34af2,13:22:53,03/04/2024
,"<div style=""font-size: 10rem; color: #0000FF"">Q</div>",,ospan,letter,TduwVrl1S3cMDDnf3HNdZWQw2P33,html-keyboard-response,160,1029504,0.0-46.0-5.0-1.0-1.0-1.0,,,,,,,,,,,,,,,5c4d8d706b23ab0001a34af2,13:22:53,03/04/2024
1186.0,,,ospan,symmetry,TduwVrl1S3cMDDnf3HNdZWQw2P33,symmetry-judgement-task,161,1033170,0.0-46.0-5.0-1.0-1.0-2.0,,,,,,,,,,1.0,1.0,,,,5c4d8d706b23ab0001a34af2,13:22:53,03/04/2024
,"<div style=""font-size: 10rem; color: #0000FF"">P</div>",,ospan,letter,TduwVrl1S3cMDDnf3HNdZWQw2P33,html-keyboard-response,162,1034183,0.0-46.0-5.0-1.0-1.0-3.0,,,,,,,,,,,,,,,5c4d8d706b23ab0001a34af2,13:22:53,03/04/2024
1364.0,,,ospan,symmetry,TduwVrl1S3cMDDnf3HNdZWQw2P33,symmetry-judgement-task,163,1038615,0.0-46.0-5.0-1.0-1.0-4.0,,,,,,,,,,1.0,1.0,,,,5c4d8d706b23ab0001a34af2,13:22:53,03/04/2024
,"<div style=""font-size: 10rem; color: #0000FF"">N</div>",,ospan,letter,TduwVrl1S3cMDDnf3HNdZWQw2P33,html-keyboard-response,164,1039628,0.0-46.0-5.0-1.0-1.0-5.0,,,,,,,,,,,,,,,5c4d8d706b23ab0001a34af2,13:22:53,03/04/2024
1385.0,,,ospan,symmetry,TduwVrl1S3cMDDnf3HNdZWQw2P33,symmetry-judgement-task,165,1044736,0.0-46.0-5.0-1.0-1.0-6.0,,,,,,,,,,1.0,1.0,,,,5c4d8d706b23ab0001a34af2,13:22:53,03/04/2024
,"<div style=""font-size: 10rem; color: #0000FF"">R</div>",,ospan,letter,TduwVrl1S3cMDDnf3HNdZWQw2P33,html-keyboard-response,166,1045754,0.0-46.0-5.0-1.0-1.0-7.0,,,,,,,,,,,,,,,5c4d8d706b23ab0001a34af2,13:22:53,03/04/2024
1351.0,,,ospan,symmetry,TduwVrl1S3cMDDnf3HNdZWQw2P33,symmetry-judgement-task,167,1050165,0.0-46.0-5.0-1.0-1.0-8.0,,,,,,,,,,1.0,1.0,,,,5c4d8d706b23ab0001a34af2,13:22:53,03/04/2024
,"<div style=""font-size: 10rem; color: #0000FF"">H</div>",,ospan,letter,TduwVrl1S3cMDDnf3HNdZWQw2P33,html-keyboard-response,168,1051179,0.0-46.0-5.0-1.0-1.0-9.0,,,,,,,,,,,,,,,5c4d8d706b23ab0001a34af2,13:22:53,03/04/2024
1261.0,,,ospan,symmetry,TduwVrl1S3cMDDnf3HNdZWQw2P33,symmetry-judgement-task,169,1054962,0.0-46.0-5.0-1.0-1.0-10.0,,,,,,,,,,1.0,1.0,,,,5c4d8d706b23ab0001a34af2,13:22:53,03/04/2024
,"<div style=""font-size: 10rem; color: #0000FF"">S</div>",,ospan,letter,TduwVrl1S3cMDDnf3HNdZWQw2P33,html-keyboard-response,170,1055977,0.0-46.0-5.0-1.0-1.0-11.0,,,,,,,,,,,,,,,5c4d8d706b23ab0001a34af2,13:22:53,03/04/2024
1263.0,,,ospan,symmetry,TduwVrl1S3cMDDnf3HNdZWQw2P33,symmetry-judgement-task,171,1059740,0.0-46.0-5.0-1.0-1.0-12.0,,,,,,,,,,1.0,1.0,,,,5c4d8d706b23ab0001a34af2,13:22:53,03/04/2024
,"<div style=""font-size: 10rem; color: #0000FF"">C</div>",,ospan,letter,TduwVrl1S3cMDDnf3HNdZWQw2P33,html-keyboard-response,172,1060744,0.0-46.0-5.0-1.0-1.0-13.0,,,,,,,,,,,,,,,5c4d8d706b23ab0001a34af2,13:22:53,03/04/2024
12789.0,"<div class = numbox><p style=""font-size: 2.4rem"">Please recall the letters you saw to the best of your ability. If you do not remember a particular letter, use the SKIP button.<br><b>(When you are ready to lock in your answer, press ENTER)</b></p><button id = button_1 class = ""square num-button"" onclick = ""recordClick(this)""><div class = content><div class = numbers>C</div></div></button><button id = button_2 class = ""square num-button"" onclick = ""recordClick(this)""><div class = content><div class = numbers>G</div></div></button><button id = button_3 class = ""square num-button"" onclick = ""recordClick(this)""><div class = content><div class = numbers>H</div></div></button><button id = button_4 class = ""square num-button"" onclick = ""recordClick(this)""><div class = content><div class = numbers>J</div></div></button><button id = button_5 class = ""square num-button"" onclick = ""recordClick(this)""><div class = content><div class = numbers>K</div></div></button><button id = button_6 class = ""square num-button"" onclick = ""recordClick(this)""><div class = content><div class = numbers>L</div></div></button><button id = button_7 class = ""square num-button"" onclick = ""recordClick(this)""><div class = content><div class = numbers>N</div></div></button><button id = button_8 class = ""square num-button"" onclick = ""recordClick(this)""><div class = content><div class = numbers>P</div></div></button><button id = button_9 class = ""square num-button"" onclick = ""recordClick(this)""><div class = content><div class = numbers>Q</div></div></button><button id = button_10 class = ""square num-button"" onclick = ""recordClick(this)""><div class = content><div class = numbers>R</div></div></button><button id = button_11 class = ""square num-button"" onclick = ""recordClick(this)""><div class = content><div class = numbers>S</div></div></button><button id = button_12 class = ""square num-button"" onclick = ""recordClick(this)""><div class = content><div class = numbers>Y</div></div></button><button class = clear_button id = ""ClearButton"" onclick = ""clearResponse()"">BACKSPACE</button><button class = blank_button id = ""BlankButton"" onclick = ""blankResponse()"">SKIP</button><p style=""font-size: 2.4rem""><u><b>Current Answer:</b></u></p><br><br><div id=echoed_txt style=""font-size: 5rem; color:blue;""><b></b></div></div>",enter,ospan,retrieval,TduwVrl1S3cMDDnf3HNdZWQw2P33,html-keyboard-response,173,1074297,0.0-46.0-5.0-1.0-2.0,28,22,12,7.0,"[""P"",""Q"",""N"",""R"",""H"",""K"",""H""]","[""Q"",""P"",""N"",""R"",""H"",""S"",""C""]",0.0,3.0,,,,,,,5c4d8d706b23ab0001a34af2,13:22:53,03/04/2024
727.0,[''],0,ospan,feedback,TduwVrl1S3cMDDnf3HNdZWQw2P33,html-button-response,174,1075539,0.0-46.0-5.0-1.0-3.0,,,,,,,,,,,,100.0,0.0,,5c4d8d706b23ab0001a34af2,13:22:53,03/04/2024
,"<p style=""font-size:75px;"">...</p>",,ospan,iti,TduwVrl1S3cMDDnf3HNdZWQw2P33,html-keyboard-response,175,1076557,0.0-46.0-6.0-0.0-0.0,,,,,,,,,,,,,,,5c4d8d706b23ab0001a34af2,13:22:53,03/04/2024
1980.0,,,ospan,symmetry,TduwVrl1S3cMDDnf3HNdZWQw2P33,symmetry-judgement-task,176,1079706,0.0-46.0-6.0-0.0-1.0-0.0,,,,,,,,,,1.0,1.0,,,,5c4d8d706b23ab0001a34af2,13:22:53,03/04/2024
,"<div style=""font-size: 10rem; color: #0000FF"">J</div>",,ospan,letter,TduwVrl1S3cMDDnf3HNdZWQw2P33,html-keyboard-response,177,1080721,0.0-46.0-6.0-0.0-1.0-1.0,,,,,,,,,,,,,,,5c4d8d706b23ab0001a34af2,13:22:53,03/04/2024
895.0,,,ospan,symmetry,TduwVrl1S3cMDDnf3HNdZWQw2P33,symmetry-judgement-task,178,1084516,0.0-46.0-6.0-0.0-1.0-2.0,,,,,,,,,,1.0,1.0,,,,5c4d8d706b23ab0001a34af2,13:22:53,03/04/2024
,"<div style=""font-size: 10rem; color: #0000FF"">N</div>",,ospan,letter,TduwVrl1S3cMDDnf3HNdZWQw2P33,html-keyboard-response,179,1085534,0.0-46.0-6.0-0.0-1.0-3.0,,,,,,,,,,,,,,,5c4d8d706b23ab0001a34af2,13:22:53,03/04/2024
1235.0,,,ospan,symmetry,TduwVrl1S3cMDDnf3HNdZWQw2P33,symmetry-judgement-task,180,1089316,0.0-46.0-6.0-0.0-1.0-4.0,,,,,,,,,,1.0,1.0,,,,5c4d8d706b23ab0001a34af2,13:22:53,03/04/2024
,"<div style=""font-size: 10rem; color: #0000FF"">H</div>",,ospan,letter,TduwVrl1S3cMDDnf3HNdZWQw2P33,html-keyboard-response,181,1090332,0.0-46.0-6.0-0.0-1.0-5.0,,,,,,,,,,,,,,,5c4d8d706b23ab0001a34af2,13:22:53,03/04/2024
1382.0,,,ospan,symmetry,TduwVrl1S3cMDDnf3HNdZWQw2P33,symmetry-judgement-task,182,1095142,0.0-46.0-6.0-0.0-1.0-6.0,,,,,,,,,,1.0,1.0,,,,5c4d8d706b23ab0001a34af2,13:22:53,03/04/2024
,"<div style=""font-size: 10rem; color: #0000FF"">R</div>",,ospan,letter,TduwVrl1S3cMDDnf3HNdZWQw2P33,html-keyboard-response,183,1096156,0.0-46.0-6.0-0.0-1.0-7.0,,,,,,,,,,,,,,,5c4d8d706b23ab0001a34af2,13:22:53,03/04/2024
877.0,,,ospan,symmetry,TduwVrl1S3cMDDnf3HNdZWQw2P33,symmetry-judgement-task,184,1100218,0.0-46.0-6.0-0.0-1.0-8.0,,,,,,,,,,1.0,1.0,,,,5c4d8d706b23ab0001a34af2,13:22:53,03/04/2024
,"<div style=""font-size: 10rem; color: #0000FF"">P</div>",,ospan,letter,TduwVrl1S3cMDDnf3HNdZWQw2P33,html-keyboard-response,185,1101238,0.0-46.0-6.0-0.0-1.0-9.0,,,,,,,,,,,,,,,5c4d8d706b23ab0001a34af2,13:22:53,03/04/2024
5540.699999988079,"<div class = numbox><p style=""font-size: 2.4rem"">Please recall the letters you saw to the best of your ability. If you do not remember a particular letter, use the SKIP button.<br><b>(When you are ready to lock in your answer, press ENTER)</b></p><button id = button_1 class = ""square num-button"" onclick = ""recordClick(this)""><div class = content><div class = numbers>C</div></div></button><button id = button_2 class = ""square num-button"" onclick = ""recordClick(this)""><div class = content><div class = numbers>G</div></div></button><button id = button_3 class = ""square num-button"" onclick = ""recordClick(this)""><div class = content><div class = numbers>H</div></div></button><button id = button_4 class = ""square num-button"" onclick = ""recordClick(this)""><div class = content><div class = numbers>J</div></div></button><button id = button_5 class = ""square num-button"" onclick = ""recordClick(this)""><div class = content><div class = numbers>K</div></div></button><button id = button_6 class = ""square num-button"" onclick = ""recordClick(this)""><div class = content><div class = numbers>L</div></div></button><button id = button_7 class = ""square num-button"" onclick = ""recordClick(this)""><div class = content><div class = numbers>N</div></div></button><button id = button_8 class = ""square num-button"" onclick = ""recordClick(this)""><div class = content><div class = numbers>P</div></div></button><button id = button_9 class = ""square num-button"" onclick = ""recordClick(this)""><div class = content><div class = numbers>Q</div></div></button><button id = button_10 class = ""square num-button"" onclick = ""recordClick(this)""><div class = content><div class = numbers>R</div></div></button><button id = button_11 class = ""square num-button"" onclick = ""recordClick(this)""><div class = content><div class = numbers>S</div></div></button><button id = button_12 class = ""square num-button"" onclick = ""recordClick(this)""><div class = content><div class = numbers>Y</div></div></button><button class = clear_button id = ""ClearButton"" onclick = ""clearResponse()"">BACKSPACE</button><button class = blank_button id = ""BlankButton"" onclick = ""blankResponse()"">SKIP</button><p style=""font-size: 2.4rem""><u><b>Current Answer:</b></u></p><br><br><div id=echoed_txt style=""font-size: 5rem; color:blue;""><b></b></div></div>",enter,ospan,retrieval,TduwVrl1S3cMDDnf3HNdZWQw2P33,html-keyboard-response,186,1107541,0.0-46.0-6.0-0.0-2.0,33,26,12,5.0,"[""P"",""N"",""H"",""R"",""P""]","[""J"",""N"",""H"",""R"",""P""]",0.0,4.0,,,,,,,5c4d8d706b23ab0001a34af2,13:22:53,03/04/2024
696.7999999970198,[''],0,ospan,feedback,TduwVrl1S3cMDDnf3HNdZWQw2P33,html-button-response,187,1108745,0.0-46.0-6.0-0.0-3.0,,,,,,,,,,,,100.0,0.0,,5c4d8d706b23ab0001a34af2,13:22:53,03/04/2024
,"<p style=""font-size:75px;"">...</p>",,ospan,iti,TduwVrl1S3cMDDnf3HNdZWQw2P33,html-keyboard-response,188,1109759,0.0-46.0-6.0-1.0-0.0,,,,,,,,,,,,,,,5c4d8d706b23ab0001a34af2,13:22:53,03/04/2024
1218.0,,,ospan,symmetry,TduwVrl1S3cMDDnf3HNdZWQw2P33,symmetry-judgement-task,189,1112722,0.0-46.0-6.0-1.0-1.0-0.0,,,,,,,,,,1.0,1.0,,,,5c4d8d706b23ab0001a34af2,13:22:53,03/04/2024
,"<div style=""font-size: 10rem; color: #0000FF"">G</div>",,ospan,letter,TduwVrl1S3cMDDnf3HNdZWQw2P33,html-keyboard-response,190,1113741,0.0-46.0-6.0-1.0-1.0-1.0,,,,,,,,,,,,,,,5c4d8d706b23ab0001a34af2,13:22:53,03/04/2024
1136.0,,,ospan,symmetry,TduwVrl1S3cMDDnf3HNdZWQw2P33,symmetry-judgement-task,191,1118783,0.0-46.0-6.0-1.0-1.0-2.0,,,,,,,,,,1.0,1.0,,,,5c4d8d706b23ab0001a34af2,13:22:53,03/04/2024
,"<div style=""font-size: 10rem; color: #0000FF"">P</div>",,ospan,letter,TduwVrl1S3cMDDnf3HNdZWQw2P33,html-keyboard-response,192,1119799,0.0-46.0-6.0-1.0-1.0-3.0,,,,,,,,,,,,,,,5c4d8d706b23ab0001a34af2,13:22:53,03/04/2024
1076.0,,,ospan,symmetry,TduwVrl1S3cMDDnf3HNdZWQw2P33,symmetry-judgement-task,193,1123444,0.0-46.0-6.0-1.0-1.0-4.0,,,,,,,,,,1.0,1.0,,,,5c4d8d706b23ab0001a34af2,13:22:53,03/04/2024
,"<div style=""font-size: 10rem; color: #0000FF"">R</div>",,ospan,letter,TduwVrl1S3cMDDnf3HNdZWQw2P33,html-keyboard-response,194,1124448,0.0-46.0-6.0-1.0-1.0-5.0,,,,,,,,,,,,,,,5c4d8d706b23ab0001a34af2,13:22:53,03/04/2024
1035.0,,,ospan,symmetry,TduwVrl1S3cMDDnf3HNdZWQw2P33,symmetry-judgement-task,195,1128323,0.0-46.0-6.0-1.0-1.0-6.0,,,,,,,,,,1.0,1.0,,,,5c4d8d706b23ab0001a34af2,13:22:53,03/04/2024
,"<div style=""font-size: 10rem; color: #0000FF"">L</div>",,ospan,letter,TduwVrl1S3cMDDnf3HNdZWQw2P33,html-keyboard-response,196,1129342,0.0-46.0-6.0-1.0-1.0-7.0,,,,,,,,,,,,,,,5c4d8d706b23ab0001a34af2,13:22:53,03/04/2024
2051.0,,,ospan,symmetry,TduwVrl1S3cMDDnf3HNdZWQw2P33,symmetry-judgement-task,197,1133935,0.0-46.0-6.0-1.0-1.0-8.0,,,,,,,,,,1.0,1.0,,,,5c4d8d706b23ab0001a34af2,13:22:53,03/04/2024
,"<div style=""font-size: 10rem; color: #0000FF"">C</div>",,ospan,letter,TduwVrl1S3cMDDnf3HNdZWQw2P33,html-keyboard-response,198,1134942,0.0-46.0-6.0-1.0-1.0-9.0,,,,,,,,,,,,,,,5c4d8d706b23ab0001a34af2,13:22:53,03/04/2024
1595.0,,,ospan,symmetry,TduwVrl1S3cMDDnf3HNdZWQw2P33,symmetry-judgement-task,199,1139816,0.0-46.0-6.0-1.0-1.0-10.0,,,,,,,,,,1.0,1.0,,,,5c4d8d706b23ab0001a34af2,13:22:53,03/04/2024
,"<div style=""font-size: 10rem; color: #0000FF"">J</div>",,ospan,letter,TduwVrl1S3cMDDnf3HNdZWQw2P33,html-keyboard-response,200,1140830,0.0-46.0-6.0-1.0-1.0-11.0,,,,,,,,,,,,,,,5c4d8d706b23ab0001a34af2,13:22:53,03/04/2024
1325.0,,,ospan,symmetry,TduwVrl1S3cMDDnf3HNdZWQw2P33,symmetry-judgement-task,201,1145090,0.0-46.0-6.0-1.0-1.0-12.0,,,,,,,,,,1.0,1.0,,,,5c4d8d706b23ab0001a34af2,13:22:53,03/04/2024
,"<div style=""font-size: 10rem; color: #0000FF"">Q</div>",,ospan,letter,TduwVrl1S3cMDDnf3HNdZWQw2P33,html-keyboard-response,202,1146106,0.0-46.0-6.0-1.0-1.0-13.0,,,,,,,,,,,,,,,5c4d8d706b23ab0001a34af2,13:22:53,03/04/2024
1506.0,,,ospan,symmetry,TduwVrl1S3cMDDnf3HNdZWQw2P33,symmetry-judgement-task,203,1151217,0.0-46.0-6.0-1.0-1.0-14.0,,,,,,,,,,1.0,1.0,,,,5c4d8d706b23ab0001a34af2,13:22:53,03/04/2024
,"<div style=""font-size: 10rem; color: #0000FF"">K</div>",,ospan,letter,TduwVrl1S3cMDDnf3HNdZWQw2P33,html-keyboard-response,204,1152236,0.0-46.0-6.0-1.0-1.0-15.0,,,,,,,,,,,,,,,5c4d8d706b23ab0001a34af2,13:22:53,03/04/2024
10844.40000000596,"<div class = numbox><p style=""font-size: 2.4rem"">Please recall the letters you saw to the best of your ability. If you do not remember a particular letter, use the SKIP button.<br><b>(When you are ready to lock in your answer, press ENTER)</b></p><button id = button_1 class = ""square num-button"" onclick = ""recordClick(this)""><div class = content><div class = numbers>C</div></div></button><button id = button_2 class = ""square num-button"" onclick = ""recordClick(this)""><div class = content><div class = numbers>G</div></div></button><button id = button_3 class = ""square num-button"" onclick = ""recordClick(this)""><div class = content><div class = numbers>H</div></div></button><button id = button_4 class = ""square num-button"" onclick = ""recordClick(this)""><div class = content><div class = numbers>J</div></div></button><button id = button_5 class = ""square num-button"" onclick = ""recordClick(this)""><div class = content><div class = numbers>K</div></div></button><button id = button_6 class = ""square num-button"" onclick = ""recordClick(this)""><div class = content><div class = numbers>L</div></div></button><button id = button_7 class = ""square num-button"" onclick = ""recordClick(this)""><div class = content><div class = numbers>N</div></div></button><button id = button_8 class = ""square num-button"" onclick = ""recordClick(this)""><div class = content><div class = numbers>P</div></div></button><button id = button_9 class = ""square num-button"" onclick = ""recordClick(this)""><div class = content><div class = numbers>Q</div></div></button><button id = button_10 class = ""square num-button"" onclick = ""recordClick(this)""><div class = content><div class = numbers>R</div></div></button><button id = button_11 class = ""square num-button"" onclick = ""recordClick(this)""><div class = content><div class = numbers>S</div></div></button><button id = button_12 class = ""square num-button"" onclick = ""recordClick(this)""><div class = content><div class = numbers>Y</div></div></button><button class = clear_button id = ""ClearButton"" onclick = ""clearResponse()"">BACKSPACE</button><button class = blank_button id = ""BlankButton"" onclick = ""blankResponse()"">SKIP</button><p style=""font-size: 2.4rem""><u><b>Current Answer:</b></u></p><br><br><div id=echoed_txt style=""font-size: 5rem; color:blue;""><b></b></div></div>",enter,ospan,retrieval,TduwVrl1S3cMDDnf3HNdZWQw2P33,html-keyboard-response,205,1163847,0.0-46.0-6.0-1.0-2.0,41,29,12,8.0,"[""G"",""P"",""R"",""H"",""_"",""_""]","[""G"",""P"",""R"",""L"",""C"",""J"",""Q"",""K""]",0.0,3.0,,,,,,,5c4d8d706b23ab0001a34af2,13:22:53,03/04/2024
1636.5,[''],0,ospan,feedback,TduwVrl1S3cMDDnf3HNdZWQw2P33,html-button-response,206,1165996,0.0-46.0-6.0-1.0-3.0,,,,,,,,,,,,100.0,0.0,,5c4d8d706b23ab0001a34af2,13:22:53,03/04/2024
52381.5,,"{'Q0': 'I enjoyed the challenge of remembering the numbers, while completing the task in between the numbers. '}",ospan,survey_ospan,TduwVrl1S3cMDDnf3HNdZWQw2P33,lmdlab-survey-text,207,1219151,0.0-46.0-7.0,,,,,,,,,,,,,,TduwVrl1S3cMDDnf3HNdZWQw2P33,5c4d8d706b23ab0001a34af2,13:22:53,03/04/2024
2323.7000000029802,<p><p style='font-size: 3rem'>Great work!<br><br>This completes the symmetry and memory task.</p><br><br><br>,0,ospan,finish,TduwVrl1S3cMDDnf3HNdZWQw2P33,html-button-response,208,1221490,0.0-46.0-8.0,41,29,12,,,,,,,,,100.0,,,5c4d8d706b23ab0001a34af2,13:22:53,03/04/2024
