rt,stimulus,response,exp_name,exp_stage,subjectID,trial_type,trial_index,time_elapsed,internal_node_id,ospan_shown,ospan_total,ospan_abs,length,resp_actual,resp_correct,full_correct,num_correct,feedback,accuracy,correct,math_acc,math_warning,databaseID,prolificID,start_time,date
1786.699999988079,<div class = 'left_align' style='font-size: 3.25rem; line-height: 1.3;'><p class = 'center_align'><b>Welcome to the Symmetry and Memory Task</b><br><br><br><br></p>Press 'continue' to show the instructions.<br><br><br><br></div>,0,ospan,instruct,hRUuLREVopaK41wFHMlwe02JD7M2,html-button-response,54,878303,0.0-46.0-0.0-0.0-0.0,,,,,,,,,,,,,,,5e9aff02f4a78b1a1fe7fc3c,20:13:08,03/04/2024
8460.09999999404,"<div class = 'left_align' style='font-size: 3.25rem; line-height: 1.3;'><p class = 'center_align'><b>Symmetry and Memory Task</b><br><br></p>In this task, you will try to memorize letters you see on the screen<br>while you also view black and white grid pictures.<br><br>In the next few minutes, you will have some practice to get you familiar<br>with how the task works.<br><br>It may be difficult sometimes, but please do not worry about making mistakes!<br><br>We will begin by practicing the letter part of the task.<br><br><br><br></div>",0,ospan,instruct,hRUuLREVopaK41wFHMlwe02JD7M2,html-button-response,55,887022,0.0-46.0-0.0-0.0-1.0,,,,,,,,,,,,,,,5e9aff02f4a78b1a1fe7fc3c,20:13:08,03/04/2024
11027.700000017881,"<div class = 'left_align' style='font-size: 3.25rem; line-height: 1.3;'>For this practice part, letters will appear on the screen one at a time.<br><br>Try to remember each letter in the order presented.<br><br>After some letters have been shown, you will see a response screen. Your<br>goal is to report the letters you saw <b>in order</b>. If you do not remember<br>a particular letter, you will have the option to leave it blank.<br><br><br><br></div>",0,ospan,instruct,hRUuLREVopaK41wFHMlwe02JD7M2,html-button-response,56,898308,0.0-46.0-0.0-0.0-2.0,,,,,,,,,,,,,,,5e9aff02f4a78b1a1fe7fc3c,20:13:08,03/04/2024
2518.100000023842,"<div class = 'left_align' style='font-size: 3.25rem; line-height: 1.3;'>Remember, it is very important to get the letters in the same<br>order as you see them.<br><br>When you are ready, you may begin the letter practice.</div><br><br><br><br>",0,ospan,instruct,hRUuLREVopaK41wFHMlwe02JD7M2,html-button-response,57,901090,0.0-46.0-0.0-0.0-3.0,,,,,,,,,,,,,,,5e9aff02f4a78b1a1fe7fc3c,20:13:08,03/04/2024
,"<p style=""font-size:75px;"">...</p>",,ospan,iti,hRUuLREVopaK41wFHMlwe02JD7M2,html-keyboard-response,58,902363,0.0-46.0-0.0-1.0-0.0,,,,,,,,,,,,,,,5e9aff02f4a78b1a1fe7fc3c,20:13:08,03/04/2024
,"<div style=""font-size: 10rem; color: #0000FF"">G</div>",,ospan,letter,hRUuLREVopaK41wFHMlwe02JD7M2,html-keyboard-response,59,903388,0.0-46.0-0.0-1.0-1.0,,,,,,,,,,,,,,,5e9aff02f4a78b1a1fe7fc3c,20:13:08,03/04/2024
,"<div style=""font-size: 10rem; color: #0000FF"">Y</div>",,ospan,letter,hRUuLREVopaK41wFHMlwe02JD7M2,html-keyboard-response,60,905169,0.0-46.0-0.0-1.0-2.0,,,,,,,,,,,,,,,5e9aff02f4a78b1a1fe7fc3c,20:13:08,03/04/2024
8984.299999982119,"<div class = numbox><p style=""font-size: 2.4rem"">Please recall the letters you saw to the best of your ability. If you do not remember a particular letter, use the SKIP button.<br><b>(When you are ready to lock in your answer, press ENTER)</b></p><button id = button_1 class = ""square num-button"" onclick = ""recordClick(this)""><div class = content><div class = numbers>C</div></div></button><button id = button_2 class = ""square num-button"" onclick = ""recordClick(this)""><div class = content><div class = numbers>G</div></div></button><button id = button_3 class = ""square num-button"" onclick = ""recordClick(this)""><div class = content><div class = numbers>H</div></div></button><button id = button_4 class = ""square num-button"" onclick = ""recordClick(this)""><div class = content><div class = numbers>J</div></div></button><button id = button_5 class = ""square num-button"" onclick = ""recordClick(this)""><div class = content><div class = numbers>K</div></div></button><button id = button_6 class = ""square num-button"" onclick = ""recordClick(this)""><div class = content><div class = numbers>L</div></div></button><button id = button_7 class = ""square num-button"" onclick = ""recordClick(this)""><div class = content><div class = numbers>N</div></div></button><button id = button_8 class = ""square num-button"" onclick = ""recordClick(this)""><div class = content><div class = numbers>P</div></div></button><button id = button_9 class = ""square num-button"" onclick = ""recordClick(this)""><div class = content><div class = numbers>Q</div></div></button><button id = button_10 class = ""square num-button"" onclick = ""recordClick(this)""><div class = content><div class = numbers>R</div></div></button><button id = button_11 class = ""square num-button"" onclick = ""recordClick(this)""><div class = content><div class = numbers>S</div></div></button><button id = button_12 class = ""square num-button"" onclick = ""recordClick(this)""><div class = content><div class = numbers>Y</div></div></button><button class = clear_button id = ""ClearButton"" onclick = ""clearResponse()"">BACKSPACE</button><button class = blank_button id = ""BlankButton"" onclick = ""blankResponse()"">SKIP</button><p style=""font-size: 2.4rem""><u><b>Current Answer:</b></u></p><br><br><div id=echoed_txt style=""font-size: 5rem; color:blue;""><b></b></div></div>",enter,ospan,retrieval,hRUuLREVopaK41wFHMlwe02JD7M2,html-keyboard-response,61,914920,0.0-46.0-0.0-1.0-3.0,NA,NA,NA,2.0,"[""G"",""Y""]","[""G"",""Y""]",1.0,2.0,"['<font color=""green"">G</font>', '<font color=""green"">Y</font>']",,,,,,5e9aff02f4a78b1a1fe7fc3c,20:13:08,03/04/2024
1260.699999988079,"['<p style=""font-size:44px"">Letters:<br><br><br><font color=""green"">G</font> <font color=""green"">Y</font></p><br><br>']",0,ospan,practice_feedback,hRUuLREVopaK41wFHMlwe02JD7M2,html-button-response,62,916696,0.0-46.0-0.0-1.0-4.0,,,,,,,,,,,,,,,5e9aff02f4a78b1a1fe7fc3c,20:13:08,03/04/2024
,"<p style=""font-size:75px;"">...</p>",,ospan,iti,hRUuLREVopaK41wFHMlwe02JD7M2,html-keyboard-response,63,917711,0.0-46.0-0.0-2.0-0.0,,,,,,,,,,,,,,,5e9aff02f4a78b1a1fe7fc3c,20:13:08,03/04/2024
,"<div style=""font-size: 10rem; color: #0000FF"">P</div>",,ospan,letter,hRUuLREVopaK41wFHMlwe02JD7M2,html-keyboard-response,64,918725,0.0-46.0-0.0-2.0-1.0,,,,,,,,,,,,,,,5e9aff02f4a78b1a1fe7fc3c,20:13:08,03/04/2024
,"<div style=""font-size: 10rem; color: #0000FF"">Y</div>",,ospan,letter,hRUuLREVopaK41wFHMlwe02JD7M2,html-keyboard-response,65,920490,0.0-46.0-0.0-2.0-2.0,,,,,,,,,,,,,,,5e9aff02f4a78b1a1fe7fc3c,20:13:08,03/04/2024
,"<div style=""font-size: 10rem; color: #0000FF"">R</div>",,ospan,letter,hRUuLREVopaK41wFHMlwe02JD7M2,html-keyboard-response,66,922248,0.0-46.0-0.0-2.0-3.0,,,,,,,,,,,,,,,5e9aff02f4a78b1a1fe7fc3c,20:13:08,03/04/2024
3001.5,"<div class = numbox><p style=""font-size: 2.4rem"">Please recall the letters you saw to the best of your ability. If you do not remember a particular letter, use the SKIP button.<br><b>(When you are ready to lock in your answer, press ENTER)</b></p><button id = button_1 class = ""square num-button"" onclick = ""recordClick(this)""><div class = content><div class = numbers>C</div></div></button><button id = button_2 class = ""square num-button"" onclick = ""recordClick(this)""><div class = content><div class = numbers>G</div></div></button><button id = button_3 class = ""square num-button"" onclick = ""recordClick(this)""><div class = content><div class = numbers>H</div></div></button><button id = button_4 class = ""square num-button"" onclick = ""recordClick(this)""><div class = content><div class = numbers>J</div></div></button><button id = button_5 class = ""square num-button"" onclick = ""recordClick(this)""><div class = content><div class = numbers>K</div></div></button><button id = button_6 class = ""square num-button"" onclick = ""recordClick(this)""><div class = content><div class = numbers>L</div></div></button><button id = button_7 class = ""square num-button"" onclick = ""recordClick(this)""><div class = content><div class = numbers>N</div></div></button><button id = button_8 class = ""square num-button"" onclick = ""recordClick(this)""><div class = content><div class = numbers>P</div></div></button><button id = button_9 class = ""square num-button"" onclick = ""recordClick(this)""><div class = content><div class = numbers>Q</div></div></button><button id = button_10 class = ""square num-button"" onclick = ""recordClick(this)""><div class = content><div class = numbers>R</div></div></button><button id = button_11 class = ""square num-button"" onclick = ""recordClick(this)""><div class = content><div class = numbers>S</div></div></button><button id = button_12 class = ""square num-button"" onclick = ""recordClick(this)""><div class = content><div class = numbers>Y</div></div></button><button class = clear_button id = ""ClearButton"" onclick = ""clearResponse()"">BACKSPACE</button><button class = blank_button id = ""BlankButton"" onclick = ""blankResponse()"">SKIP</button><p style=""font-size: 2.4rem""><u><b>Current Answer:</b></u></p><br><br><div id=echoed_txt style=""font-size: 5rem; color:blue;""><b></b></div></div>",enter,ospan,retrieval,hRUuLREVopaK41wFHMlwe02JD7M2,html-keyboard-response,67,926005,0.0-46.0-0.0-2.0-4.0,NA,NA,NA,3.0,"[""P"",""Y"",""R""]","[""P"",""Y"",""R""]",1.0,3.0,"['<font color=""green"">P</font>', '<font color=""green"">Y</font>', '<font color=""green"">R</font>']",,,,,,5e9aff02f4a78b1a1fe7fc3c,20:13:08,03/04/2024
2165.0,"['<p style=""font-size:44px"">Letters:<br><br><br><font color=""green"">P</font> <font color=""green"">Y</font> <font color=""green"">R</font></p><br><br>']",0,ospan,practice_feedback,hRUuLREVopaK41wFHMlwe02JD7M2,html-button-response,68,928673,0.0-46.0-0.0-2.0-5.0,,,,,,,,,,,,,,,5e9aff02f4a78b1a1fe7fc3c,20:13:08,03/04/2024
17278.0,"<div class = 'left_align' style='font-size: 3.25rem; line-height: 1.3;'>Now you will practice doing the <b>symmetry judgment part</b> of the experiment.<br><br>A black and white grid picture will appear on the screen and you have to judge if it is <br>symmetrical or asymetrical.<br><br>A picture is 'mirror' symmetrical if its left half is identical to the right half when flipped.<br>Here are examples of a symmetrical and an asymetrical picture:<br><br><center><img src='Stimuli/img/symm_instructions_extra.png' style='height:420px; width:900'></img></center><br>To judge symmetry, imagine you were to fold each picture down the middle, like a book –<br>would the left half match the right half when folded onto each other?<br><br></div><br>",0,ospan,instruct,hRUuLREVopaK41wFHMlwe02JD7M2,html-button-response,69,945953,0.0-46.0-1.0-0.0-0.0,,,,,,,,,,,,,,,5e9aff02f4a78b1a1fe7fc3c,20:13:08,03/04/2024
2681.5999999940395,"<div class = 'left_align' style='font-size: 3.25rem; line-height: 1.3;'>When you have viewed the picture and determined whether it is symmetrical or not,<br>you can <b>click the Yes or No button</b> below to answer.<br><br>If you take longer than 15 seconds, it will continue automatically<br>and record the answer as an error.</div><br>",0,ospan,instruct,hRUuLREVopaK41wFHMlwe02JD7M2,html-button-response,70,948900,0.0-46.0-1.0-0.0-1.0,,,,,,,,,,,,,,,5e9aff02f4a78b1a1fe7fc3c,20:13:08,03/04/2024
4026.199999988079,"<div class = 'left_align' style='font-size: 3.25rem; line-height: 1.3;'>It is <b>very</b> important that you make the symmetry judgment correctly.<br><br>It is also important that you try and judge the picture as quickly as you can.<br><br>When you are ready, click on the button below to try some practice problems.</div><br><br><br><br>",0,ospan,instruct,hRUuLREVopaK41wFHMlwe02JD7M2,html-button-response,71,953180,0.0-46.0-1.0-0.0-2.0,,,,,,,,,,,,,,,5e9aff02f4a78b1a1fe7fc3c,20:13:08,03/04/2024
4160.0,,,ospan,symmetry,hRUuLREVopaK41wFHMlwe02JD7M2,symmetry-judgement-task,72,958155,0.0-46.0-1.0-1.0-0.0,,,,,,,,,,1.0,1.0,,,,5e9aff02f4a78b1a1fe7fc3c,20:13:08,03/04/2024
,"<p style=""color:green; font-size: 35px"">Correct</p>",,ospan,feedback,hRUuLREVopaK41wFHMlwe02JD7M2,html-keyboard-response,73,958921,0.0-46.0-1.0-1.0-1.0,,,,,,,,,,,,,,,5e9aff02f4a78b1a1fe7fc3c,20:13:08,03/04/2024
1943.0,,,ospan,symmetry,hRUuLREVopaK41wFHMlwe02JD7M2,symmetry-judgement-task,74,963562,0.0-46.0-1.0-1.0-2.0,,,,,,,,,,1.0,1.0,,,,5e9aff02f4a78b1a1fe7fc3c,20:13:08,03/04/2024
,"<p style=""color:green; font-size: 35px"">Correct</p>",,ospan,feedback,hRUuLREVopaK41wFHMlwe02JD7M2,html-keyboard-response,75,964325,0.0-46.0-1.0-1.0-3.0,,,,,,,,,,,,,,,5e9aff02f4a78b1a1fe7fc3c,20:13:08,03/04/2024
2085.0,,,ospan,symmetry,hRUuLREVopaK41wFHMlwe02JD7M2,symmetry-judgement-task,76,969083,0.0-46.0-1.0-1.0-4.0,,,,,,,,,,1.0,1.0,,,,5e9aff02f4a78b1a1fe7fc3c,20:13:08,03/04/2024
,"<p style=""color:green; font-size: 35px"">Correct</p>",,ospan,feedback,hRUuLREVopaK41wFHMlwe02JD7M2,html-keyboard-response,77,969839,0.0-46.0-1.0-1.0-5.0,,,,,,,,,,,,,,,5e9aff02f4a78b1a1fe7fc3c,20:13:08,03/04/2024
1157.7000000178814,"<p style=""font-size: 3rem;"">You responded correctly on 3 of 3 symmetry judgments. Good job!</p><br><br>",0,ospan,practice,hRUuLREVopaK41wFHMlwe02JD7M2,html-button-response,78,973012,0.0-46.0-1.0-2.0,,,,,,,,,,,,,,,5e9aff02f4a78b1a1fe7fc3c,20:13:08,03/04/2024
2630.300000011921,"<div class = 'left_align' style='font-size: 3.25rem; line-height: 1.3;'>Now you will practice doing both parts of the experiment at the same time.<br><br>In the next practice set, you will be given one grid picture to judge.<br>Then letter will appear on the screen. Try to remember the letter.<br><br>It is <b>very important</b> to make the symmetry judgment as quickly and accurately as possible.<br><br>Just as before, once you have make the symmetry judgment, you can click Yes or No.<br><b>Note that you will no longer see Correct or Incorrect feedback.</div><br><br><br><br>",0,ospan,instruct,hRUuLREVopaK41wFHMlwe02JD7M2,html-button-response,79,975907,0.0-46.0-2.0-0.0-0.0,,,,,,,,,,,,,,,5e9aff02f4a78b1a1fe7fc3c,20:13:08,03/04/2024
3123.300000011921,"<div class = 'left_align' style='font-size: 3.25rem; line-height: 1.3;'>After the letter goes away, another grid picture will appear, and then<br>another letter.<br><br>At the end of each set of letters and grids, you will recall the letters to the best<br>of your ability. Remember, try your best to get the letters in the correct order.<br><br>It is important to <b>quickly</b> and <b>accurately</b> make the symmetry judgments.</div><br><br><br><br>",0,ospan,instruct,hRUuLREVopaK41wFHMlwe02JD7M2,html-button-response,80,979290,0.0-46.0-2.0-0.0-1.0,,,,,,,,,,,,,,,5e9aff02f4a78b1a1fe7fc3c,20:13:08,03/04/2024
6882.200000017881,"<div class = 'left_align' style='font-size: 3.25rem; line-height: 1.3;'>On the feedback screen, if you are not doing well at the symmetry judgments,<br>you will also see a warning in the middle. This indicates your percent <br>correct for the grid pictures for the entire experiment.<br><br>It is <b>very</b> important for you to keep accuracy at least at 85%: <u>We can only use<br>data where the participant was at least 85% accurate on the judgments.</u> Therefore,<br> please try your best to perform well on the symmetry judgments, <b>at the same time</b><br>doing your best to recall as many letters as possible.<br><br>Click the button to try some practice problems.</div><br><br><br><br>",0,ospan,instruct,hRUuLREVopaK41wFHMlwe02JD7M2,html-button-response,81,986439,0.0-46.0-2.0-0.0-2.0,,,,,,,,,,,,,,,5e9aff02f4a78b1a1fe7fc3c,20:13:08,03/04/2024
,"<p style=""font-size:75px;"">...</p>",,ospan,iti,hRUuLREVopaK41wFHMlwe02JD7M2,html-keyboard-response,82,987693,0.0-46.0-2.0-1.0-0.0,,,,,,,,,,,,,,,5e9aff02f4a78b1a1fe7fc3c,20:13:08,03/04/2024
2681.0,,,ospan,symmetry,hRUuLREVopaK41wFHMlwe02JD7M2,symmetry-judgement-task,83,991448,0.0-46.0-2.0-1.0-1.0-0.0,,,,,,,,,,1.0,1.0,,,,5e9aff02f4a78b1a1fe7fc3c,20:13:08,03/04/2024
,"<div style=""font-size: 10rem; color: #0000FF"">G</div>",,ospan,letter,hRUuLREVopaK41wFHMlwe02JD7M2,html-keyboard-response,84,992453,0.0-46.0-2.0-1.0-1.0-1.0,,,,,,,,,,,,,,,5e9aff02f4a78b1a1fe7fc3c,20:13:08,03/04/2024
2519.0,,,ospan,symmetry,hRUuLREVopaK41wFHMlwe02JD7M2,symmetry-judgement-task,85,996939,0.0-46.0-2.0-1.0-1.0-2.0,,,,,,,,,,1.0,1.0,,,,5e9aff02f4a78b1a1fe7fc3c,20:13:08,03/04/2024
,"<div style=""font-size: 10rem; color: #0000FF"">L</div>",,ospan,letter,hRUuLREVopaK41wFHMlwe02JD7M2,html-keyboard-response,86,997955,0.0-46.0-2.0-1.0-1.0-3.0,,,,,,,,,,,,,,,5e9aff02f4a78b1a1fe7fc3c,20:13:08,03/04/2024
1947.0,,,ospan,symmetry,hRUuLREVopaK41wFHMlwe02JD7M2,symmetry-judgement-task,87,1001845,0.0-46.0-2.0-1.0-1.0-4.0,,,,,,,,,,1.0,1.0,,,,5e9aff02f4a78b1a1fe7fc3c,20:13:08,03/04/2024
,"<div style=""font-size: 10rem; color: #0000FF"">Y</div>",,ospan,letter,hRUuLREVopaK41wFHMlwe02JD7M2,html-keyboard-response,88,1002853,0.0-46.0-2.0-1.0-1.0-5.0,,,,,,,,,,,,,,,5e9aff02f4a78b1a1fe7fc3c,20:13:08,03/04/2024
3099.399999976158,"<div class = numbox><p style=""font-size: 2.4rem"">Please recall the letters you saw to the best of your ability. If you do not remember a particular letter, use the SKIP button.<br><b>(When you are ready to lock in your answer, press ENTER)</b></p><button id = button_1 class = ""square num-button"" onclick = ""recordClick(this)""><div class = content><div class = numbers>C</div></div></button><button id = button_2 class = ""square num-button"" onclick = ""recordClick(this)""><div class = content><div class = numbers>G</div></div></button><button id = button_3 class = ""square num-button"" onclick = ""recordClick(this)""><div class = content><div class = numbers>H</div></div></button><button id = button_4 class = ""square num-button"" onclick = ""recordClick(this)""><div class = content><div class = numbers>J</div></div></button><button id = button_5 class = ""square num-button"" onclick = ""recordClick(this)""><div class = content><div class = numbers>K</div></div></button><button id = button_6 class = ""square num-button"" onclick = ""recordClick(this)""><div class = content><div class = numbers>L</div></div></button><button id = button_7 class = ""square num-button"" onclick = ""recordClick(this)""><div class = content><div class = numbers>N</div></div></button><button id = button_8 class = ""square num-button"" onclick = ""recordClick(this)""><div class = content><div class = numbers>P</div></div></button><button id = button_9 class = ""square num-button"" onclick = ""recordClick(this)""><div class = content><div class = numbers>Q</div></div></button><button id = button_10 class = ""square num-button"" onclick = ""recordClick(this)""><div class = content><div class = numbers>R</div></div></button><button id = button_11 class = ""square num-button"" onclick = ""recordClick(this)""><div class = content><div class = numbers>S</div></div></button><button id = button_12 class = ""square num-button"" onclick = ""recordClick(this)""><div class = content><div class = numbers>Y</div></div></button><button class = clear_button id = ""ClearButton"" onclick = ""clearResponse()"">BACKSPACE</button><button class = blank_button id = ""BlankButton"" onclick = ""blankResponse()"">SKIP</button><p style=""font-size: 2.4rem""><u><b>Current Answer:</b></u></p><br><br><div id=echoed_txt style=""font-size: 5rem; color:blue;""><b></b></div></div>",enter,ospan,retrieval,hRUuLREVopaK41wFHMlwe02JD7M2,html-keyboard-response,89,1006710,0.0-46.0-2.0-1.0-2.0-0.0,NA,NA,NA,3.0,"[""G"",""L"",""Y""]","[""G"",""L"",""Y""]",1.0,3.0,"['<font color=""green"">G</font>', '<font color=""green"">L</font>', '<font color=""green"">Y</font>']",,,,,,5e9aff02f4a78b1a1fe7fc3c,20:13:08,03/04/2024
889.4000000059605,"['<p style=""font-size:44px"">Letters:<br><br><br><font color=""green"">G</font> <font color=""green"">L</font> <font color=""green"">Y</font></p><br><br><p style=""font-size:30px"">Symmetry:<br><br><font color=""green"">100%</font></p><br><br>']",0,ospan,practice_feedback,hRUuLREVopaK41wFHMlwe02JD7M2,html-button-response,90,1008109,0.0-46.0-2.0-1.0-2.0-1.0,,,,,,,,,,,,,,,5e9aff02f4a78b1a1fe7fc3c,20:13:08,03/04/2024
,"<p style=""font-size:75px;"">...</p>",,ospan,iti,hRUuLREVopaK41wFHMlwe02JD7M2,html-keyboard-response,91,1009127,0.0-46.0-2.0-2.0-0.0,,,,,,,,,,,,,,,5e9aff02f4a78b1a1fe7fc3c,20:13:08,03/04/2024
1830.0,,,ospan,symmetry,hRUuLREVopaK41wFHMlwe02JD7M2,symmetry-judgement-task,92,1012125,0.0-46.0-2.0-2.0-1.0-0.0,,,,,,,,,,1.0,1.0,,,,5e9aff02f4a78b1a1fe7fc3c,20:13:08,03/04/2024
,"<div style=""font-size: 10rem; color: #0000FF"">L</div>",,ospan,letter,hRUuLREVopaK41wFHMlwe02JD7M2,html-keyboard-response,93,1013137,0.0-46.0-2.0-2.0-1.0-1.0,,,,,,,,,,,,,,,5e9aff02f4a78b1a1fe7fc3c,20:13:08,03/04/2024
1289.0,,,ospan,symmetry,hRUuLREVopaK41wFHMlwe02JD7M2,symmetry-judgement-task,94,1016356,0.0-46.0-2.0-2.0-1.0-2.0,,,,,,,,,,1.0,1.0,,,,5e9aff02f4a78b1a1fe7fc3c,20:13:08,03/04/2024
,"<div style=""font-size: 10rem; color: #0000FF"">R</div>",,ospan,letter,hRUuLREVopaK41wFHMlwe02JD7M2,html-keyboard-response,95,1017369,0.0-46.0-2.0-2.0-1.0-3.0,,,,,,,,,,,,,,,5e9aff02f4a78b1a1fe7fc3c,20:13:08,03/04/2024
2112.0,,,ospan,symmetry,hRUuLREVopaK41wFHMlwe02JD7M2,symmetry-judgement-task,96,1021431,0.0-46.0-2.0-2.0-1.0-4.0,,,,,,,,,,1.0,1.0,,,,5e9aff02f4a78b1a1fe7fc3c,20:13:08,03/04/2024
,"<div style=""font-size: 10rem; color: #0000FF"">N</div>",,ospan,letter,hRUuLREVopaK41wFHMlwe02JD7M2,html-keyboard-response,97,1022439,0.0-46.0-2.0-2.0-1.0-5.0,,,,,,,,,,,,,,,5e9aff02f4a78b1a1fe7fc3c,20:13:08,03/04/2024
3281.0,"<div class = numbox><p style=""font-size: 2.4rem"">Please recall the letters you saw to the best of your ability. If you do not remember a particular letter, use the SKIP button.<br><b>(When you are ready to lock in your answer, press ENTER)</b></p><button id = button_1 class = ""square num-button"" onclick = ""recordClick(this)""><div class = content><div class = numbers>C</div></div></button><button id = button_2 class = ""square num-button"" onclick = ""recordClick(this)""><div class = content><div class = numbers>G</div></div></button><button id = button_3 class = ""square num-button"" onclick = ""recordClick(this)""><div class = content><div class = numbers>H</div></div></button><button id = button_4 class = ""square num-button"" onclick = ""recordClick(this)""><div class = content><div class = numbers>J</div></div></button><button id = button_5 class = ""square num-button"" onclick = ""recordClick(this)""><div class = content><div class = numbers>K</div></div></button><button id = button_6 class = ""square num-button"" onclick = ""recordClick(this)""><div class = content><div class = numbers>L</div></div></button><button id = button_7 class = ""square num-button"" onclick = ""recordClick(this)""><div class = content><div class = numbers>N</div></div></button><button id = button_8 class = ""square num-button"" onclick = ""recordClick(this)""><div class = content><div class = numbers>P</div></div></button><button id = button_9 class = ""square num-button"" onclick = ""recordClick(this)""><div class = content><div class = numbers>Q</div></div></button><button id = button_10 class = ""square num-button"" onclick = ""recordClick(this)""><div class = content><div class = numbers>R</div></div></button><button id = button_11 class = ""square num-button"" onclick = ""recordClick(this)""><div class = content><div class = numbers>S</div></div></button><button id = button_12 class = ""square num-button"" onclick = ""recordClick(this)""><div class = content><div class = numbers>Y</div></div></button><button class = clear_button id = ""ClearButton"" onclick = ""clearResponse()"">BACKSPACE</button><button class = blank_button id = ""BlankButton"" onclick = ""blankResponse()"">SKIP</button><p style=""font-size: 2.4rem""><u><b>Current Answer:</b></u></p><br><br><div id=echoed_txt style=""font-size: 5rem; color:blue;""><b></b></div></div>",enter,ospan,retrieval,hRUuLREVopaK41wFHMlwe02JD7M2,html-keyboard-response,98,1026489,0.0-46.0-2.0-2.0-2.0-0.0,NA,NA,NA,3.0,"[""L"",""R"",""N""]","[""L"",""R"",""N""]",1.0,3.0,"['<font color=""green"">L</font>', '<font color=""green"">R</font>', '<font color=""green"">N</font>']",,,,,,5e9aff02f4a78b1a1fe7fc3c,20:13:08,03/04/2024
991.3000000119209,"['<p style=""font-size:44px"">Letters:<br><br><br><font color=""green"">L</font> <font color=""green"">R</font> <font color=""green"">N</font></p><br><br><p style=""font-size:30px"">Symmetry:<br><br><font color=""green"">100%</font></p><br><br>']",0,ospan,practice_feedback,hRUuLREVopaK41wFHMlwe02JD7M2,html-button-response,99,1027987,0.0-46.0-2.0-2.0-2.0-1.0,,,,,,,,,,,,,,,5e9aff02f4a78b1a1fe7fc3c,20:13:08,03/04/2024
6305.699999988079,"<div class = 'left_align' style='font-size: 3rem; line-height: 1.3;'><b>Great work! That is the end of practice.</b><br><br>The real trials will look just like the practice trials you just completed.<br><br><u>Here, you will not see feedback</u>. First, you will see an grid picture to judge,<br>then a letter to remember. When the recall screen appears, report the letters in the<br>order presented. If you forget a letter, remember to use the <b>blank</b> button to move to the<br>next letter. Some of the sets will have more symmetry grids and letters than others.<br><br>It is important that you do your best on both the symmetry judgments and the letter recall<br>parts of the experiment. For for the symmetry judgments, try to work as <b>quickly</b> and <br>as <b>accurately</b> as possible. Remember to keep your symmetry accuracy at 85% or above.<br><br><b>For the letters, do NOT use any external aid (e.g., writing on paper, electronic device).</b><br><br>It is <u>very important</u> to our experiment to have a <b>true</b> view of your real performance.<br><br>Do not worry if you miss some when it gets hard! This task is meant to be very challenging!<br><br>Click the button to begin.</div><br><br><br><br>",0,ospan,starting_real_here,hRUuLREVopaK41wFHMlwe02JD7M2,html-button-response,100,1034296,0.0-46.0-2.0-3.0,,,,,,,,,,,,,,,5e9aff02f4a78b1a1fe7fc3c,20:13:08,03/04/2024
,"<p style=""font-size:75px;"">...</p>",,ospan,iti,hRUuLREVopaK41wFHMlwe02JD7M2,html-keyboard-response,101,1035553,0.0-46.0-3.0-0.0-0.0,,,,,,,,,,,,,,,5e9aff02f4a78b1a1fe7fc3c,20:13:08,03/04/2024
2957.0,,,ospan,symmetry,hRUuLREVopaK41wFHMlwe02JD7M2,symmetry-judgement-task,102,1039669,0.0-46.0-3.0-0.0-1.0-0.0,,,,,,,,,,1.0,1.0,,,,5e9aff02f4a78b1a1fe7fc3c,20:13:08,03/04/2024
,"<div style=""font-size: 10rem; color: #0000FF"">Y</div>",,ospan,letter,hRUuLREVopaK41wFHMlwe02JD7M2,html-keyboard-response,103,1040686,0.0-46.0-3.0-0.0-1.0-1.0,,,,,,,,,,,,,,,5e9aff02f4a78b1a1fe7fc3c,20:13:08,03/04/2024
1166.0,,,ospan,symmetry,hRUuLREVopaK41wFHMlwe02JD7M2,symmetry-judgement-task,104,1043776,0.0-46.0-3.0-0.0-1.0-2.0,,,,,,,,,,1.0,1.0,,,,5e9aff02f4a78b1a1fe7fc3c,20:13:08,03/04/2024
,"<div style=""font-size: 10rem; color: #0000FF"">P</div>",,ospan,letter,hRUuLREVopaK41wFHMlwe02JD7M2,html-keyboard-response,105,1044794,0.0-46.0-3.0-0.0-1.0-3.0,,,,,,,,,,,,,,,5e9aff02f4a78b1a1fe7fc3c,20:13:08,03/04/2024
1205.0,,,ospan,symmetry,hRUuLREVopaK41wFHMlwe02JD7M2,symmetry-judgement-task,106,1047937,0.0-46.0-3.0-0.0-1.0-4.0,,,,,,,,,,1.0,1.0,,,,5e9aff02f4a78b1a1fe7fc3c,20:13:08,03/04/2024
,"<div style=""font-size: 10rem; color: #0000FF"">C</div>",,ospan,letter,hRUuLREVopaK41wFHMlwe02JD7M2,html-keyboard-response,107,1048944,0.0-46.0-3.0-0.0-1.0-5.0,,,,,,,,,,,,,,,5e9aff02f4a78b1a1fe7fc3c,20:13:08,03/04/2024
2804.699999988079,"<div class = numbox><p style=""font-size: 2.4rem"">Please recall the letters you saw to the best of your ability. If you do not remember a particular letter, use the SKIP button.<br><b>(When you are ready to lock in your answer, press ENTER)</b></p><button id = button_1 class = ""square num-button"" onclick = ""recordClick(this)""><div class = content><div class = numbers>C</div></div></button><button id = button_2 class = ""square num-button"" onclick = ""recordClick(this)""><div class = content><div class = numbers>G</div></div></button><button id = button_3 class = ""square num-button"" onclick = ""recordClick(this)""><div class = content><div class = numbers>H</div></div></button><button id = button_4 class = ""square num-button"" onclick = ""recordClick(this)""><div class = content><div class = numbers>J</div></div></button><button id = button_5 class = ""square num-button"" onclick = ""recordClick(this)""><div class = content><div class = numbers>K</div></div></button><button id = button_6 class = ""square num-button"" onclick = ""recordClick(this)""><div class = content><div class = numbers>L</div></div></button><button id = button_7 class = ""square num-button"" onclick = ""recordClick(this)""><div class = content><div class = numbers>N</div></div></button><button id = button_8 class = ""square num-button"" onclick = ""recordClick(this)""><div class = content><div class = numbers>P</div></div></button><button id = button_9 class = ""square num-button"" onclick = ""recordClick(this)""><div class = content><div class = numbers>Q</div></div></button><button id = button_10 class = ""square num-button"" onclick = ""recordClick(this)""><div class = content><div class = numbers>R</div></div></button><button id = button_11 class = ""square num-button"" onclick = ""recordClick(this)""><div class = content><div class = numbers>S</div></div></button><button id = button_12 class = ""square num-button"" onclick = ""recordClick(this)""><div class = content><div class = numbers>Y</div></div></button><button class = clear_button id = ""ClearButton"" onclick = ""clearResponse()"">BACKSPACE</button><button class = blank_button id = ""BlankButton"" onclick = ""blankResponse()"">SKIP</button><p style=""font-size: 2.4rem""><u><b>Current Answer:</b></u></p><br><br><div id=echoed_txt style=""font-size: 5rem; color:blue;""><b></b></div></div>",enter,ospan,retrieval,hRUuLREVopaK41wFHMlwe02JD7M2,html-keyboard-response,108,1052512,0.0-46.0-3.0-0.0-2.0,3,3,3,3.0,"[""Y"",""P"",""C""]","[""Y"",""P"",""C""]",1.0,3.0,,,,,,,5e9aff02f4a78b1a1fe7fc3c,20:13:08,03/04/2024
1563.9000000059605,[''],0,ospan,feedback,hRUuLREVopaK41wFHMlwe02JD7M2,html-button-response,109,1054587,0.0-46.0-3.0-0.0-3.0,,,,,,,,,,,,100.0,0.0,,5e9aff02f4a78b1a1fe7fc3c,20:13:08,03/04/2024
,"<p style=""font-size:75px;"">...</p>",,ospan,iti,hRUuLREVopaK41wFHMlwe02JD7M2,html-keyboard-response,110,1055592,0.0-46.0-4.0-0.0-0.0,,,,,,,,,,,,,,,5e9aff02f4a78b1a1fe7fc3c,20:13:08,03/04/2024
1874.0,,,ospan,symmetry,hRUuLREVopaK41wFHMlwe02JD7M2,symmetry-judgement-task,111,1058546,0.0-46.0-4.0-0.0-1.0-0.0,,,,,,,,,,1.0,1.0,,,,5e9aff02f4a78b1a1fe7fc3c,20:13:08,03/04/2024
,"<div style=""font-size: 10rem; color: #0000FF"">J</div>",,ospan,letter,hRUuLREVopaK41wFHMlwe02JD7M2,html-keyboard-response,112,1059558,0.0-46.0-4.0-0.0-1.0-1.0,,,,,,,,,,,,,,,5e9aff02f4a78b1a1fe7fc3c,20:13:08,03/04/2024
1195.0,,,ospan,symmetry,hRUuLREVopaK41wFHMlwe02JD7M2,symmetry-judgement-task,113,1062725,0.0-46.0-4.0-0.0-1.0-2.0,,,,,,,,,,1.0,1.0,,,,5e9aff02f4a78b1a1fe7fc3c,20:13:08,03/04/2024
,"<div style=""font-size: 10rem; color: #0000FF"">G</div>",,ospan,letter,hRUuLREVopaK41wFHMlwe02JD7M2,html-keyboard-response,114,1063734,0.0-46.0-4.0-0.0-1.0-3.0,,,,,,,,,,,,,,,5e9aff02f4a78b1a1fe7fc3c,20:13:08,03/04/2024
1217.0,,,ospan,symmetry,hRUuLREVopaK41wFHMlwe02JD7M2,symmetry-judgement-task,115,1066883,0.0-46.0-4.0-0.0-1.0-4.0,,,,,,,,,,1.0,1.0,,,,5e9aff02f4a78b1a1fe7fc3c,20:13:08,03/04/2024
,"<div style=""font-size: 10rem; color: #0000FF"">H</div>",,ospan,letter,hRUuLREVopaK41wFHMlwe02JD7M2,html-keyboard-response,116,1067884,0.0-46.0-4.0-0.0-1.0-5.0,,,,,,,,,,,,,,,5e9aff02f4a78b1a1fe7fc3c,20:13:08,03/04/2024
2128.0,,,ospan,symmetry,hRUuLREVopaK41wFHMlwe02JD7M2,symmetry-judgement-task,117,1071812,0.0-46.0-4.0-0.0-1.0-6.0,,,,,,,,,,1.0,1.0,,,,5e9aff02f4a78b1a1fe7fc3c,20:13:08,03/04/2024
,"<div style=""font-size: 10rem; color: #0000FF"">L</div>",,ospan,letter,hRUuLREVopaK41wFHMlwe02JD7M2,html-keyboard-response,118,1072814,0.0-46.0-4.0-0.0-1.0-7.0,,,,,,,,,,,,,,,5e9aff02f4a78b1a1fe7fc3c,20:13:08,03/04/2024
3617.9000000059605,"<div class = numbox><p style=""font-size: 2.4rem"">Please recall the letters you saw to the best of your ability. If you do not remember a particular letter, use the SKIP button.<br><b>(When you are ready to lock in your answer, press ENTER)</b></p><button id = button_1 class = ""square num-button"" onclick = ""recordClick(this)""><div class = content><div class = numbers>C</div></div></button><button id = button_2 class = ""square num-button"" onclick = ""recordClick(this)""><div class = content><div class = numbers>G</div></div></button><button id = button_3 class = ""square num-button"" onclick = ""recordClick(this)""><div class = content><div class = numbers>H</div></div></button><button id = button_4 class = ""square num-button"" onclick = ""recordClick(this)""><div class = content><div class = numbers>J</div></div></button><button id = button_5 class = ""square num-button"" onclick = ""recordClick(this)""><div class = content><div class = numbers>K</div></div></button><button id = button_6 class = ""square num-button"" onclick = ""recordClick(this)""><div class = content><div class = numbers>L</div></div></button><button id = button_7 class = ""square num-button"" onclick = ""recordClick(this)""><div class = content><div class = numbers>N</div></div></button><button id = button_8 class = ""square num-button"" onclick = ""recordClick(this)""><div class = content><div class = numbers>P</div></div></button><button id = button_9 class = ""square num-button"" onclick = ""recordClick(this)""><div class = content><div class = numbers>Q</div></div></button><button id = button_10 class = ""square num-button"" onclick = ""recordClick(this)""><div class = content><div class = numbers>R</div></div></button><button id = button_11 class = ""square num-button"" onclick = ""recordClick(this)""><div class = content><div class = numbers>S</div></div></button><button id = button_12 class = ""square num-button"" onclick = ""recordClick(this)""><div class = content><div class = numbers>Y</div></div></button><button class = clear_button id = ""ClearButton"" onclick = ""clearResponse()"">BACKSPACE</button><button class = blank_button id = ""BlankButton"" onclick = ""blankResponse()"">SKIP</button><p style=""font-size: 2.4rem""><u><b>Current Answer:</b></u></p><br><br><div id=echoed_txt style=""font-size: 5rem; color:blue;""><b></b></div></div>",enter,ospan,retrieval,hRUuLREVopaK41wFHMlwe02JD7M2,html-keyboard-response,119,1077197,0.0-46.0-4.0-0.0-2.0,7,7,7,4.0,"[""J"",""G"",""H"",""L""]","[""J"",""G"",""H"",""L""]",1.0,4.0,,,,,,,5e9aff02f4a78b1a1fe7fc3c,20:13:08,03/04/2024
597.5,[''],0,ospan,feedback,hRUuLREVopaK41wFHMlwe02JD7M2,html-button-response,120,1078303,0.0-46.0-4.0-0.0-3.0,,,,,,,,,,,,100.0,0.0,,5e9aff02f4a78b1a1fe7fc3c,20:13:08,03/04/2024
,"<p style=""font-size:75px;"">...</p>",,ospan,iti,hRUuLREVopaK41wFHMlwe02JD7M2,html-keyboard-response,121,1079323,0.0-46.0-4.0-1.0-0.0,,,,,,,,,,,,,,,5e9aff02f4a78b1a1fe7fc3c,20:13:08,03/04/2024
1556.0,,,ospan,symmetry,hRUuLREVopaK41wFHMlwe02JD7M2,symmetry-judgement-task,122,1081958,0.0-46.0-4.0-1.0-1.0-0.0,,,,,,,,,,1.0,1.0,,,,5e9aff02f4a78b1a1fe7fc3c,20:13:08,03/04/2024
,"<div style=""font-size: 10rem; color: #0000FF"">P</div>",,ospan,letter,hRUuLREVopaK41wFHMlwe02JD7M2,html-keyboard-response,123,1082968,0.0-46.0-4.0-1.0-1.0-1.0,,,,,,,,,,,,,,,5e9aff02f4a78b1a1fe7fc3c,20:13:08,03/04/2024
1619.0,,,ospan,symmetry,hRUuLREVopaK41wFHMlwe02JD7M2,symmetry-judgement-task,124,1086534,0.0-46.0-4.0-1.0-1.0-2.0,,,,,,,,,,1.0,1.0,,,,5e9aff02f4a78b1a1fe7fc3c,20:13:08,03/04/2024
,"<div style=""font-size: 10rem; color: #0000FF"">Q</div>",,ospan,letter,hRUuLREVopaK41wFHMlwe02JD7M2,html-keyboard-response,125,1087548,0.0-46.0-4.0-1.0-1.0-3.0,,,,,,,,,,,,,,,5e9aff02f4a78b1a1fe7fc3c,20:13:08,03/04/2024
1095.0,,,ospan,symmetry,hRUuLREVopaK41wFHMlwe02JD7M2,symmetry-judgement-task,126,1090572,0.0-46.0-4.0-1.0-1.0-4.0,,,,,,,,,,1.0,1.0,,,,5e9aff02f4a78b1a1fe7fc3c,20:13:08,03/04/2024
,"<div style=""font-size: 10rem; color: #0000FF"">C</div>",,ospan,letter,hRUuLREVopaK41wFHMlwe02JD7M2,html-keyboard-response,127,1091578,0.0-46.0-4.0-1.0-1.0-5.0,,,,,,,,,,,,,,,5e9aff02f4a78b1a1fe7fc3c,20:13:08,03/04/2024
1399.0,,,ospan,symmetry,hRUuLREVopaK41wFHMlwe02JD7M2,symmetry-judgement-task,128,1094935,0.0-46.0-4.0-1.0-1.0-6.0,,,,,,,,,,1.0,1.0,,,,5e9aff02f4a78b1a1fe7fc3c,20:13:08,03/04/2024
,"<div style=""font-size: 10rem; color: #0000FF"">L</div>",,ospan,letter,hRUuLREVopaK41wFHMlwe02JD7M2,html-keyboard-response,129,1095942,0.0-46.0-4.0-1.0-1.0-7.0,,,,,,,,,,,,,,,5e9aff02f4a78b1a1fe7fc3c,20:13:08,03/04/2024
1733.0,,,ospan,symmetry,hRUuLREVopaK41wFHMlwe02JD7M2,symmetry-judgement-task,130,1099635,0.0-46.0-4.0-1.0-1.0-8.0,,,,,,,,,,1.0,1.0,,,,5e9aff02f4a78b1a1fe7fc3c,20:13:08,03/04/2024
,"<div style=""font-size: 10rem; color: #0000FF"">G</div>",,ospan,letter,hRUuLREVopaK41wFHMlwe02JD7M2,html-keyboard-response,131,1100639,0.0-46.0-4.0-1.0-1.0-9.0,,,,,,,,,,,,,,,5e9aff02f4a78b1a1fe7fc3c,20:13:08,03/04/2024
10131.09999999404,"<div class = numbox><p style=""font-size: 2.4rem"">Please recall the letters you saw to the best of your ability. If you do not remember a particular letter, use the SKIP button.<br><b>(When you are ready to lock in your answer, press ENTER)</b></p><button id = button_1 class = ""square num-button"" onclick = ""recordClick(this)""><div class = content><div class = numbers>C</div></div></button><button id = button_2 class = ""square num-button"" onclick = ""recordClick(this)""><div class = content><div class = numbers>G</div></div></button><button id = button_3 class = ""square num-button"" onclick = ""recordClick(this)""><div class = content><div class = numbers>H</div></div></button><button id = button_4 class = ""square num-button"" onclick = ""recordClick(this)""><div class = content><div class = numbers>J</div></div></button><button id = button_5 class = ""square num-button"" onclick = ""recordClick(this)""><div class = content><div class = numbers>K</div></div></button><button id = button_6 class = ""square num-button"" onclick = ""recordClick(this)""><div class = content><div class = numbers>L</div></div></button><button id = button_7 class = ""square num-button"" onclick = ""recordClick(this)""><div class = content><div class = numbers>N</div></div></button><button id = button_8 class = ""square num-button"" onclick = ""recordClick(this)""><div class = content><div class = numbers>P</div></div></button><button id = button_9 class = ""square num-button"" onclick = ""recordClick(this)""><div class = content><div class = numbers>Q</div></div></button><button id = button_10 class = ""square num-button"" onclick = ""recordClick(this)""><div class = content><div class = numbers>R</div></div></button><button id = button_11 class = ""square num-button"" onclick = ""recordClick(this)""><div class = content><div class = numbers>S</div></div></button><button id = button_12 class = ""square num-button"" onclick = ""recordClick(this)""><div class = content><div class = numbers>Y</div></div></button><button class = clear_button id = ""ClearButton"" onclick = ""clearResponse()"">BACKSPACE</button><button class = blank_button id = ""BlankButton"" onclick = ""blankResponse()"">SKIP</button><p style=""font-size: 2.4rem""><u><b>Current Answer:</b></u></p><br><br><div id=echoed_txt style=""font-size: 5rem; color:blue;""><b></b></div></div>",enter,ospan,retrieval,hRUuLREVopaK41wFHMlwe02JD7M2,html-keyboard-response,132,1111530,0.0-46.0-4.0-1.0-2.0,12,12,12,5.0,"[""P"",""Q"",""C"",""L"",""G""]","[""P"",""Q"",""C"",""L"",""G""]",1.0,5.0,,,,,,,5e9aff02f4a78b1a1fe7fc3c,20:13:08,03/04/2024
711.5,[''],0,ospan,feedback,hRUuLREVopaK41wFHMlwe02JD7M2,html-button-response,133,1112763,0.0-46.0-4.0-1.0-3.0,,,,,,,,,,,,100.0,0.0,,5e9aff02f4a78b1a1fe7fc3c,20:13:08,03/04/2024
,"<p style=""font-size:75px;"">...</p>",,ospan,iti,hRUuLREVopaK41wFHMlwe02JD7M2,html-keyboard-response,134,1113780,0.0-46.0-4.0-2.0-0.0,,,,,,,,,,,,,,,5e9aff02f4a78b1a1fe7fc3c,20:13:08,03/04/2024
2254.0,,,ospan,symmetry,hRUuLREVopaK41wFHMlwe02JD7M2,symmetry-judgement-task,135,1117196,0.0-46.0-4.0-2.0-1.0-0.0,,,,,,,,,,1.0,1.0,,,,5e9aff02f4a78b1a1fe7fc3c,20:13:08,03/04/2024
,"<div style=""font-size: 10rem; color: #0000FF"">P</div>",,ospan,letter,hRUuLREVopaK41wFHMlwe02JD7M2,html-keyboard-response,136,1118211,0.0-46.0-4.0-2.0-1.0-1.0,,,,,,,,,,,,,,,5e9aff02f4a78b1a1fe7fc3c,20:13:08,03/04/2024
2345.0,,,ospan,symmetry,hRUuLREVopaK41wFHMlwe02JD7M2,symmetry-judgement-task,137,1122481,0.0-46.0-4.0-2.0-1.0-2.0,,,,,,,,,,1.0,1.0,,,,5e9aff02f4a78b1a1fe7fc3c,20:13:08,03/04/2024
,"<div style=""font-size: 10rem; color: #0000FF"">Y</div>",,ospan,letter,hRUuLREVopaK41wFHMlwe02JD7M2,html-keyboard-response,138,1123487,0.0-46.0-4.0-2.0-1.0-3.0,,,,,,,,,,,,,,,5e9aff02f4a78b1a1fe7fc3c,20:13:08,03/04/2024
2213.0,,,ospan,symmetry,hRUuLREVopaK41wFHMlwe02JD7M2,symmetry-judgement-task,139,1127632,0.0-46.0-4.0-2.0-1.0-4.0,,,,,,,,,,1.0,1.0,,,,5e9aff02f4a78b1a1fe7fc3c,20:13:08,03/04/2024
,"<div style=""font-size: 10rem; color: #0000FF"">H</div>",,ospan,letter,hRUuLREVopaK41wFHMlwe02JD7M2,html-keyboard-response,140,1128647,0.0-46.0-4.0-2.0-1.0-5.0,,,,,,,,,,,,,,,5e9aff02f4a78b1a1fe7fc3c,20:13:08,03/04/2024
2733.199999988079,"<div class = numbox><p style=""font-size: 2.4rem"">Please recall the letters you saw to the best of your ability. If you do not remember a particular letter, use the SKIP button.<br><b>(When you are ready to lock in your answer, press ENTER)</b></p><button id = button_1 class = ""square num-button"" onclick = ""recordClick(this)""><div class = content><div class = numbers>C</div></div></button><button id = button_2 class = ""square num-button"" onclick = ""recordClick(this)""><div class = content><div class = numbers>G</div></div></button><button id = button_3 class = ""square num-button"" onclick = ""recordClick(this)""><div class = content><div class = numbers>H</div></div></button><button id = button_4 class = ""square num-button"" onclick = ""recordClick(this)""><div class = content><div class = numbers>J</div></div></button><button id = button_5 class = ""square num-button"" onclick = ""recordClick(this)""><div class = content><div class = numbers>K</div></div></button><button id = button_6 class = ""square num-button"" onclick = ""recordClick(this)""><div class = content><div class = numbers>L</div></div></button><button id = button_7 class = ""square num-button"" onclick = ""recordClick(this)""><div class = content><div class = numbers>N</div></div></button><button id = button_8 class = ""square num-button"" onclick = ""recordClick(this)""><div class = content><div class = numbers>P</div></div></button><button id = button_9 class = ""square num-button"" onclick = ""recordClick(this)""><div class = content><div class = numbers>Q</div></div></button><button id = button_10 class = ""square num-button"" onclick = ""recordClick(this)""><div class = content><div class = numbers>R</div></div></button><button id = button_11 class = ""square num-button"" onclick = ""recordClick(this)""><div class = content><div class = numbers>S</div></div></button><button id = button_12 class = ""square num-button"" onclick = ""recordClick(this)""><div class = content><div class = numbers>Y</div></div></button><button class = clear_button id = ""ClearButton"" onclick = ""clearResponse()"">BACKSPACE</button><button class = blank_button id = ""BlankButton"" onclick = ""blankResponse()"">SKIP</button><p style=""font-size: 2.4rem""><u><b>Current Answer:</b></u></p><br><br><div id=echoed_txt style=""font-size: 5rem; color:blue;""><b></b></div></div>",enter,ospan,retrieval,hRUuLREVopaK41wFHMlwe02JD7M2,html-keyboard-response,141,1132133,0.0-46.0-4.0-2.0-2.0,15,15,15,3.0,"[""P"",""Y"",""H""]","[""P"",""Y"",""H""]",1.0,3.0,,,,,,,5e9aff02f4a78b1a1fe7fc3c,20:13:08,03/04/2024
1097.0999999940395,[''],0,ospan,feedback,hRUuLREVopaK41wFHMlwe02JD7M2,html-button-response,142,1133738,0.0-46.0-4.0-2.0-3.0,,,,,,,,,,,,100.0,0.0,,5e9aff02f4a78b1a1fe7fc3c,20:13:08,03/04/2024
,"<p style=""font-size:75px;"">...</p>",,ospan,iti,hRUuLREVopaK41wFHMlwe02JD7M2,html-keyboard-response,143,1134752,0.0-46.0-5.0-0.0-0.0,,,,,,,,,,,,,,,5e9aff02f4a78b1a1fe7fc3c,20:13:08,03/04/2024
1327.0,,,ospan,symmetry,hRUuLREVopaK41wFHMlwe02JD7M2,symmetry-judgement-task,144,1137252,0.0-46.0-5.0-0.0-1.0-0.0,,,,,,,,,,1.0,1.0,,,,5e9aff02f4a78b1a1fe7fc3c,20:13:08,03/04/2024
,"<div style=""font-size: 10rem; color: #0000FF"">K</div>",,ospan,letter,hRUuLREVopaK41wFHMlwe02JD7M2,html-keyboard-response,145,1138260,0.0-46.0-5.0-0.0-1.0-1.0,,,,,,,,,,,,,,,5e9aff02f4a78b1a1fe7fc3c,20:13:08,03/04/2024
1416.0,,,ospan,symmetry,hRUuLREVopaK41wFHMlwe02JD7M2,symmetry-judgement-task,146,1141598,0.0-46.0-5.0-0.0-1.0-2.0,,,,,,,,,,1.0,1.0,,,,5e9aff02f4a78b1a1fe7fc3c,20:13:08,03/04/2024
,"<div style=""font-size: 10rem; color: #0000FF"">J</div>",,ospan,letter,hRUuLREVopaK41wFHMlwe02JD7M2,html-keyboard-response,147,1142608,0.0-46.0-5.0-0.0-1.0-3.0,,,,,,,,,,,,,,,5e9aff02f4a78b1a1fe7fc3c,20:13:08,03/04/2024
2382.0,,,ospan,symmetry,hRUuLREVopaK41wFHMlwe02JD7M2,symmetry-judgement-task,148,1146916,0.0-46.0-5.0-0.0-1.0-4.0,,,,,,,,,,1.0,1.0,,,,5e9aff02f4a78b1a1fe7fc3c,20:13:08,03/04/2024
,"<div style=""font-size: 10rem; color: #0000FF"">Q</div>",,ospan,letter,hRUuLREVopaK41wFHMlwe02JD7M2,html-keyboard-response,149,1147921,0.0-46.0-5.0-0.0-1.0-5.0,,,,,,,,,,,,,,,5e9aff02f4a78b1a1fe7fc3c,20:13:08,03/04/2024
1706.0,,,ospan,symmetry,hRUuLREVopaK41wFHMlwe02JD7M2,symmetry-judgement-task,150,1151550,0.0-46.0-5.0-0.0-1.0-6.0,,,,,,,,,,1.0,1.0,,,,5e9aff02f4a78b1a1fe7fc3c,20:13:08,03/04/2024
,"<div style=""font-size: 10rem; color: #0000FF"">N</div>",,ospan,letter,hRUuLREVopaK41wFHMlwe02JD7M2,html-keyboard-response,151,1152575,0.0-46.0-5.0-0.0-1.0-7.0,,,,,,,,,,,,,,,5e9aff02f4a78b1a1fe7fc3c,20:13:08,03/04/2024
2357.0,,,ospan,symmetry,hRUuLREVopaK41wFHMlwe02JD7M2,symmetry-judgement-task,152,1156890,0.0-46.0-5.0-0.0-1.0-8.0,,,,,,,,,,1.0,1.0,,,,5e9aff02f4a78b1a1fe7fc3c,20:13:08,03/04/2024
,"<div style=""font-size: 10rem; color: #0000FF"">Y</div>",,ospan,letter,hRUuLREVopaK41wFHMlwe02JD7M2,html-keyboard-response,153,1157892,0.0-46.0-5.0-0.0-1.0-9.0,,,,,,,,,,,,,,,5e9aff02f4a78b1a1fe7fc3c,20:13:08,03/04/2024
1190.0,,,ospan,symmetry,hRUuLREVopaK41wFHMlwe02JD7M2,symmetry-judgement-task,154,1161037,0.0-46.0-5.0-0.0-1.0-10.0,,,,,,,,,,1.0,1.0,,,,5e9aff02f4a78b1a1fe7fc3c,20:13:08,03/04/2024
,"<div style=""font-size: 10rem; color: #0000FF"">C</div>",,ospan,letter,hRUuLREVopaK41wFHMlwe02JD7M2,html-keyboard-response,155,1162045,0.0-46.0-5.0-0.0-1.0-11.0,,,,,,,,,,,,,,,5e9aff02f4a78b1a1fe7fc3c,20:13:08,03/04/2024
6661.0,"<div class = numbox><p style=""font-size: 2.4rem"">Please recall the letters you saw to the best of your ability. If you do not remember a particular letter, use the SKIP button.<br><b>(When you are ready to lock in your answer, press ENTER)</b></p><button id = button_1 class = ""square num-button"" onclick = ""recordClick(this)""><div class = content><div class = numbers>C</div></div></button><button id = button_2 class = ""square num-button"" onclick = ""recordClick(this)""><div class = content><div class = numbers>G</div></div></button><button id = button_3 class = ""square num-button"" onclick = ""recordClick(this)""><div class = content><div class = numbers>H</div></div></button><button id = button_4 class = ""square num-button"" onclick = ""recordClick(this)""><div class = content><div class = numbers>J</div></div></button><button id = button_5 class = ""square num-button"" onclick = ""recordClick(this)""><div class = content><div class = numbers>K</div></div></button><button id = button_6 class = ""square num-button"" onclick = ""recordClick(this)""><div class = content><div class = numbers>L</div></div></button><button id = button_7 class = ""square num-button"" onclick = ""recordClick(this)""><div class = content><div class = numbers>N</div></div></button><button id = button_8 class = ""square num-button"" onclick = ""recordClick(this)""><div class = content><div class = numbers>P</div></div></button><button id = button_9 class = ""square num-button"" onclick = ""recordClick(this)""><div class = content><div class = numbers>Q</div></div></button><button id = button_10 class = ""square num-button"" onclick = ""recordClick(this)""><div class = content><div class = numbers>R</div></div></button><button id = button_11 class = ""square num-button"" onclick = ""recordClick(this)""><div class = content><div class = numbers>S</div></div></button><button id = button_12 class = ""square num-button"" onclick = ""recordClick(this)""><div class = content><div class = numbers>Y</div></div></button><button class = clear_button id = ""ClearButton"" onclick = ""clearResponse()"">BACKSPACE</button><button class = blank_button id = ""BlankButton"" onclick = ""blankResponse()"">SKIP</button><p style=""font-size: 2.4rem""><u><b>Current Answer:</b></u></p><br><br><div id=echoed_txt style=""font-size: 5rem; color:blue;""><b></b></div></div>",enter,ospan,retrieval,hRUuLREVopaK41wFHMlwe02JD7M2,html-keyboard-response,156,1169473,0.0-46.0-5.0-0.0-2.0,21,19,15,6.0,"[""K"",""J"",""Q"",""N"",""C"",""Y""]","[""K"",""J"",""Q"",""N"",""Y"",""C""]",0.0,4.0,,,,,,,5e9aff02f4a78b1a1fe7fc3c,20:13:08,03/04/2024
899.7999999821186,[''],0,ospan,feedback,hRUuLREVopaK41wFHMlwe02JD7M2,html-button-response,157,1170887,0.0-46.0-5.0-0.0-3.0,,,,,,,,,,,,100.0,0.0,,5e9aff02f4a78b1a1fe7fc3c,20:13:08,03/04/2024
,"<p style=""font-size:75px;"">...</p>",,ospan,iti,hRUuLREVopaK41wFHMlwe02JD7M2,html-keyboard-response,158,1171897,0.0-46.0-5.0-1.0-0.0,,,,,,,,,,,,,,,5e9aff02f4a78b1a1fe7fc3c,20:13:08,03/04/2024
1473.0,,,ospan,symmetry,hRUuLREVopaK41wFHMlwe02JD7M2,symmetry-judgement-task,159,1174534,0.0-46.0-5.0-1.0-1.0-0.0,,,,,,,,,,1.0,1.0,,,,5e9aff02f4a78b1a1fe7fc3c,20:13:08,03/04/2024
,"<div style=""font-size: 10rem; color: #0000FF"">Y</div>",,ospan,letter,hRUuLREVopaK41wFHMlwe02JD7M2,html-keyboard-response,160,1175538,0.0-46.0-5.0-1.0-1.0-1.0,,,,,,,,,,,,,,,5e9aff02f4a78b1a1fe7fc3c,20:13:08,03/04/2024
2025.0,,,ospan,symmetry,hRUuLREVopaK41wFHMlwe02JD7M2,symmetry-judgement-task,161,1179513,0.0-46.0-5.0-1.0-1.0-2.0,,,,,,,,,,1.0,1.0,,,,5e9aff02f4a78b1a1fe7fc3c,20:13:08,03/04/2024
,"<div style=""font-size: 10rem; color: #0000FF"">Q</div>",,ospan,letter,hRUuLREVopaK41wFHMlwe02JD7M2,html-keyboard-response,162,1180516,0.0-46.0-5.0-1.0-1.0-3.0,,,,,,,,,,,,,,,5e9aff02f4a78b1a1fe7fc3c,20:13:08,03/04/2024
1174.0,,,ospan,symmetry,hRUuLREVopaK41wFHMlwe02JD7M2,symmetry-judgement-task,163,1183623,0.0-46.0-5.0-1.0-1.0-4.0,,,,,,,,,,1.0,1.0,,,,5e9aff02f4a78b1a1fe7fc3c,20:13:08,03/04/2024
,"<div style=""font-size: 10rem; color: #0000FF"">L</div>",,ospan,letter,hRUuLREVopaK41wFHMlwe02JD7M2,html-keyboard-response,164,1184626,0.0-46.0-5.0-1.0-1.0-5.0,,,,,,,,,,,,,,,5e9aff02f4a78b1a1fe7fc3c,20:13:08,03/04/2024
1582.0,,,ospan,symmetry,hRUuLREVopaK41wFHMlwe02JD7M2,symmetry-judgement-task,165,1188166,0.0-46.0-5.0-1.0-1.0-6.0,,,,,,,,,,1.0,1.0,,,,5e9aff02f4a78b1a1fe7fc3c,20:13:08,03/04/2024
,"<div style=""font-size: 10rem; color: #0000FF"">S</div>",,ospan,letter,hRUuLREVopaK41wFHMlwe02JD7M2,html-keyboard-response,166,1189177,0.0-46.0-5.0-1.0-1.0-7.0,,,,,,,,,,,,,,,5e9aff02f4a78b1a1fe7fc3c,20:13:08,03/04/2024
977.0,,,ospan,symmetry,hRUuLREVopaK41wFHMlwe02JD7M2,symmetry-judgement-task,167,1192092,0.0-46.0-5.0-1.0-1.0-8.0,,,,,,,,,,1.0,1.0,,,,5e9aff02f4a78b1a1fe7fc3c,20:13:08,03/04/2024
,"<div style=""font-size: 10rem; color: #0000FF"">N</div>",,ospan,letter,hRUuLREVopaK41wFHMlwe02JD7M2,html-keyboard-response,168,1193099,0.0-46.0-5.0-1.0-1.0-9.0,,,,,,,,,,,,,,,5e9aff02f4a78b1a1fe7fc3c,20:13:08,03/04/2024
1216.0,,,ospan,symmetry,hRUuLREVopaK41wFHMlwe02JD7M2,symmetry-judgement-task,169,1196269,0.0-46.0-5.0-1.0-1.0-10.0,,,,,,,,,,1.0,1.0,,,,5e9aff02f4a78b1a1fe7fc3c,20:13:08,03/04/2024
,"<div style=""font-size: 10rem; color: #0000FF"">C</div>",,ospan,letter,hRUuLREVopaK41wFHMlwe02JD7M2,html-keyboard-response,170,1197272,0.0-46.0-5.0-1.0-1.0-11.0,,,,,,,,,,,,,,,5e9aff02f4a78b1a1fe7fc3c,20:13:08,03/04/2024
1200.0,,,ospan,symmetry,hRUuLREVopaK41wFHMlwe02JD7M2,symmetry-judgement-task,171,1200457,0.0-46.0-5.0-1.0-1.0-12.0,,,,,,,,,,1.0,1.0,,,,5e9aff02f4a78b1a1fe7fc3c,20:13:08,03/04/2024
,"<div style=""font-size: 10rem; color: #0000FF"">P</div>",,ospan,letter,hRUuLREVopaK41wFHMlwe02JD7M2,html-keyboard-response,172,1201472,0.0-46.0-5.0-1.0-1.0-13.0,,,,,,,,,,,,,,,5e9aff02f4a78b1a1fe7fc3c,20:13:08,03/04/2024
5842.4000000059605,"<div class = numbox><p style=""font-size: 2.4rem"">Please recall the letters you saw to the best of your ability. If you do not remember a particular letter, use the SKIP button.<br><b>(When you are ready to lock in your answer, press ENTER)</b></p><button id = button_1 class = ""square num-button"" onclick = ""recordClick(this)""><div class = content><div class = numbers>C</div></div></button><button id = button_2 class = ""square num-button"" onclick = ""recordClick(this)""><div class = content><div class = numbers>G</div></div></button><button id = button_3 class = ""square num-button"" onclick = ""recordClick(this)""><div class = content><div class = numbers>H</div></div></button><button id = button_4 class = ""square num-button"" onclick = ""recordClick(this)""><div class = content><div class = numbers>J</div></div></button><button id = button_5 class = ""square num-button"" onclick = ""recordClick(this)""><div class = content><div class = numbers>K</div></div></button><button id = button_6 class = ""square num-button"" onclick = ""recordClick(this)""><div class = content><div class = numbers>L</div></div></button><button id = button_7 class = ""square num-button"" onclick = ""recordClick(this)""><div class = content><div class = numbers>N</div></div></button><button id = button_8 class = ""square num-button"" onclick = ""recordClick(this)""><div class = content><div class = numbers>P</div></div></button><button id = button_9 class = ""square num-button"" onclick = ""recordClick(this)""><div class = content><div class = numbers>Q</div></div></button><button id = button_10 class = ""square num-button"" onclick = ""recordClick(this)""><div class = content><div class = numbers>R</div></div></button><button id = button_11 class = ""square num-button"" onclick = ""recordClick(this)""><div class = content><div class = numbers>S</div></div></button><button id = button_12 class = ""square num-button"" onclick = ""recordClick(this)""><div class = content><div class = numbers>Y</div></div></button><button class = clear_button id = ""ClearButton"" onclick = ""clearResponse()"">BACKSPACE</button><button class = blank_button id = ""BlankButton"" onclick = ""blankResponse()"">SKIP</button><p style=""font-size: 2.4rem""><u><b>Current Answer:</b></u></p><br><br><div id=echoed_txt style=""font-size: 5rem; color:blue;""><b></b></div></div>",enter,ospan,retrieval,hRUuLREVopaK41wFHMlwe02JD7M2,html-keyboard-response,173,1208067,0.0-46.0-5.0-1.0-2.0,28,24,15,7.0,"[""Y"",""Q"",""L"",""S"",""N"",""P"",""C""]","[""Y"",""Q"",""L"",""S"",""N"",""C"",""P""]",0.0,5.0,,,,,,,5e9aff02f4a78b1a1fe7fc3c,20:13:08,03/04/2024
1937.0999999940395,[''],0,ospan,feedback,hRUuLREVopaK41wFHMlwe02JD7M2,html-button-response,174,1210526,0.0-46.0-5.0-1.0-3.0,,,,,,,,,,,,100.0,0.0,,5e9aff02f4a78b1a1fe7fc3c,20:13:08,03/04/2024
,"<p style=""font-size:75px;"">...</p>",,ospan,iti,hRUuLREVopaK41wFHMlwe02JD7M2,html-keyboard-response,175,1211545,0.0-46.0-6.0-0.0-0.0,,,,,,,,,,,,,,,5e9aff02f4a78b1a1fe7fc3c,20:13:08,03/04/2024
1201.0,,,ospan,symmetry,hRUuLREVopaK41wFHMlwe02JD7M2,symmetry-judgement-task,176,1213908,0.0-46.0-6.0-0.0-1.0-0.0,,,,,,,,,,1.0,1.0,,,,5e9aff02f4a78b1a1fe7fc3c,20:13:08,03/04/2024
,"<div style=""font-size: 10rem; color: #0000FF"">Y</div>",,ospan,letter,hRUuLREVopaK41wFHMlwe02JD7M2,html-keyboard-response,177,1214925,0.0-46.0-6.0-0.0-1.0-1.0,,,,,,,,,,,,,,,5e9aff02f4a78b1a1fe7fc3c,20:13:08,03/04/2024
1509.0,,,ospan,symmetry,hRUuLREVopaK41wFHMlwe02JD7M2,symmetry-judgement-task,178,1218365,0.0-46.0-6.0-0.0-1.0-2.0,,,,,,,,,,1.0,1.0,,,,5e9aff02f4a78b1a1fe7fc3c,20:13:08,03/04/2024
,"<div style=""font-size: 10rem; color: #0000FF"">L</div>",,ospan,letter,hRUuLREVopaK41wFHMlwe02JD7M2,html-keyboard-response,179,1219368,0.0-46.0-6.0-0.0-1.0-3.0,,,,,,,,,,,,,,,5e9aff02f4a78b1a1fe7fc3c,20:13:08,03/04/2024
1546.0,,,ospan,symmetry,hRUuLREVopaK41wFHMlwe02JD7M2,symmetry-judgement-task,180,1222838,0.0-46.0-6.0-0.0-1.0-4.0,,,,,,,,,,1.0,1.0,,,,5e9aff02f4a78b1a1fe7fc3c,20:13:08,03/04/2024
,"<div style=""font-size: 10rem; color: #0000FF"">R</div>",,ospan,letter,hRUuLREVopaK41wFHMlwe02JD7M2,html-keyboard-response,181,1223845,0.0-46.0-6.0-0.0-1.0-5.0,,,,,,,,,,,,,,,5e9aff02f4a78b1a1fe7fc3c,20:13:08,03/04/2024
806.0,,,ospan,symmetry,hRUuLREVopaK41wFHMlwe02JD7M2,symmetry-judgement-task,182,1226618,0.0-46.0-6.0-0.0-1.0-6.0,,,,,,,,,,1.0,1.0,,,,5e9aff02f4a78b1a1fe7fc3c,20:13:08,03/04/2024
,"<div style=""font-size: 10rem; color: #0000FF"">K</div>",,ospan,letter,hRUuLREVopaK41wFHMlwe02JD7M2,html-keyboard-response,183,1227624,0.0-46.0-6.0-0.0-1.0-7.0,,,,,,,,,,,,,,,5e9aff02f4a78b1a1fe7fc3c,20:13:08,03/04/2024
1033.0,,,ospan,symmetry,hRUuLREVopaK41wFHMlwe02JD7M2,symmetry-judgement-task,184,1230614,0.0-46.0-6.0-0.0-1.0-8.0,,,,,,,,,,1.0,1.0,,,,5e9aff02f4a78b1a1fe7fc3c,20:13:08,03/04/2024
,"<div style=""font-size: 10rem; color: #0000FF"">N</div>",,ospan,letter,hRUuLREVopaK41wFHMlwe02JD7M2,html-keyboard-response,185,1231630,0.0-46.0-6.0-0.0-1.0-9.0,,,,,,,,,,,,,,,5e9aff02f4a78b1a1fe7fc3c,20:13:08,03/04/2024
4714.0999999940395,"<div class = numbox><p style=""font-size: 2.4rem"">Please recall the letters you saw to the best of your ability. If you do not remember a particular letter, use the SKIP button.<br><b>(When you are ready to lock in your answer, press ENTER)</b></p><button id = button_1 class = ""square num-button"" onclick = ""recordClick(this)""><div class = content><div class = numbers>C</div></div></button><button id = button_2 class = ""square num-button"" onclick = ""recordClick(this)""><div class = content><div class = numbers>G</div></div></button><button id = button_3 class = ""square num-button"" onclick = ""recordClick(this)""><div class = content><div class = numbers>H</div></div></button><button id = button_4 class = ""square num-button"" onclick = ""recordClick(this)""><div class = content><div class = numbers>J</div></div></button><button id = button_5 class = ""square num-button"" onclick = ""recordClick(this)""><div class = content><div class = numbers>K</div></div></button><button id = button_6 class = ""square num-button"" onclick = ""recordClick(this)""><div class = content><div class = numbers>L</div></div></button><button id = button_7 class = ""square num-button"" onclick = ""recordClick(this)""><div class = content><div class = numbers>N</div></div></button><button id = button_8 class = ""square num-button"" onclick = ""recordClick(this)""><div class = content><div class = numbers>P</div></div></button><button id = button_9 class = ""square num-button"" onclick = ""recordClick(this)""><div class = content><div class = numbers>Q</div></div></button><button id = button_10 class = ""square num-button"" onclick = ""recordClick(this)""><div class = content><div class = numbers>R</div></div></button><button id = button_11 class = ""square num-button"" onclick = ""recordClick(this)""><div class = content><div class = numbers>S</div></div></button><button id = button_12 class = ""square num-button"" onclick = ""recordClick(this)""><div class = content><div class = numbers>Y</div></div></button><button class = clear_button id = ""ClearButton"" onclick = ""clearResponse()"">BACKSPACE</button><button class = blank_button id = ""BlankButton"" onclick = ""blankResponse()"">SKIP</button><p style=""font-size: 2.4rem""><u><b>Current Answer:</b></u></p><br><br><div id=echoed_txt style=""font-size: 5rem; color:blue;""><b></b></div></div>",enter,ospan,retrieval,hRUuLREVopaK41wFHMlwe02JD7M2,html-keyboard-response,186,1237109,0.0-46.0-6.0-0.0-2.0,33,29,20,5.0,"[""Y"",""L"",""R"",""K"",""N""]","[""Y"",""L"",""R"",""K"",""N""]",1.0,5.0,,,,,,,5e9aff02f4a78b1a1fe7fc3c,20:13:08,03/04/2024
724.8000000119209,[''],0,ospan,feedback,hRUuLREVopaK41wFHMlwe02JD7M2,html-button-response,187,1238351,0.0-46.0-6.0-0.0-3.0,,,,,,,,,,,,100.0,0.0,,5e9aff02f4a78b1a1fe7fc3c,20:13:08,03/04/2024
,"<p style=""font-size:75px;"">...</p>",,ospan,iti,hRUuLREVopaK41wFHMlwe02JD7M2,html-keyboard-response,188,1239385,0.0-46.0-6.0-1.0-0.0,,,,,,,,,,,,,,,5e9aff02f4a78b1a1fe7fc3c,20:13:08,03/04/2024
1110.0,,,ospan,symmetry,hRUuLREVopaK41wFHMlwe02JD7M2,symmetry-judgement-task,189,1241691,0.0-46.0-6.0-1.0-1.0-0.0,,,,,,,,,,1.0,1.0,,,,5e9aff02f4a78b1a1fe7fc3c,20:13:08,03/04/2024
,"<div style=""font-size: 10rem; color: #0000FF"">P</div>",,ospan,letter,hRUuLREVopaK41wFHMlwe02JD7M2,html-keyboard-response,190,1242699,0.0-46.0-6.0-1.0-1.0-1.0,,,,,,,,,,,,,,,5e9aff02f4a78b1a1fe7fc3c,20:13:08,03/04/2024
969.0,,,ospan,symmetry,hRUuLREVopaK41wFHMlwe02JD7M2,symmetry-judgement-task,191,1245602,0.0-46.0-6.0-1.0-1.0-2.0,,,,,,,,,,1.0,1.0,,,,5e9aff02f4a78b1a1fe7fc3c,20:13:08,03/04/2024
,"<div style=""font-size: 10rem; color: #0000FF"">S</div>",,ospan,letter,hRUuLREVopaK41wFHMlwe02JD7M2,html-keyboard-response,192,1246604,0.0-46.0-6.0-1.0-1.0-3.0,,,,,,,,,,,,,,,5e9aff02f4a78b1a1fe7fc3c,20:13:08,03/04/2024
1114.0,,,ospan,symmetry,hRUuLREVopaK41wFHMlwe02JD7M2,symmetry-judgement-task,193,1249677,0.0-46.0-6.0-1.0-1.0-4.0,,,,,,,,,,1.0,1.0,,,,5e9aff02f4a78b1a1fe7fc3c,20:13:08,03/04/2024
,"<div style=""font-size: 10rem; color: #0000FF"">H</div>",,ospan,letter,hRUuLREVopaK41wFHMlwe02JD7M2,html-keyboard-response,194,1250684,0.0-46.0-6.0-1.0-1.0-5.0,,,,,,,,,,,,,,,5e9aff02f4a78b1a1fe7fc3c,20:13:08,03/04/2024
987.0,,,ospan,symmetry,hRUuLREVopaK41wFHMlwe02JD7M2,symmetry-judgement-task,195,1253589,0.0-46.0-6.0-1.0-1.0-6.0,,,,,,,,,,1.0,1.0,,,,5e9aff02f4a78b1a1fe7fc3c,20:13:08,03/04/2024
,"<div style=""font-size: 10rem; color: #0000FF"">Y</div>",,ospan,letter,hRUuLREVopaK41wFHMlwe02JD7M2,html-keyboard-response,196,1254602,0.0-46.0-6.0-1.0-1.0-7.0,,,,,,,,,,,,,,,5e9aff02f4a78b1a1fe7fc3c,20:13:08,03/04/2024
1645.0,,,ospan,symmetry,hRUuLREVopaK41wFHMlwe02JD7M2,symmetry-judgement-task,197,1258199,0.0-46.0-6.0-1.0-1.0-8.0,,,,,,,,,,1.0,1.0,,,,5e9aff02f4a78b1a1fe7fc3c,20:13:08,03/04/2024
,"<div style=""font-size: 10rem; color: #0000FF"">K</div>",,ospan,letter,hRUuLREVopaK41wFHMlwe02JD7M2,html-keyboard-response,198,1259210,0.0-46.0-6.0-1.0-1.0-9.0,,,,,,,,,,,,,,,5e9aff02f4a78b1a1fe7fc3c,20:13:08,03/04/2024
1081.0,,,ospan,symmetry,hRUuLREVopaK41wFHMlwe02JD7M2,symmetry-judgement-task,199,1262255,0.0-46.0-6.0-1.0-1.0-10.0,,,,,,,,,,1.0,1.0,,,,5e9aff02f4a78b1a1fe7fc3c,20:13:08,03/04/2024
,"<div style=""font-size: 10rem; color: #0000FF"">J</div>",,ospan,letter,hRUuLREVopaK41wFHMlwe02JD7M2,html-keyboard-response,200,1263280,0.0-46.0-6.0-1.0-1.0-11.0,,,,,,,,,,,,,,,5e9aff02f4a78b1a1fe7fc3c,20:13:08,03/04/2024
936.0,,,ospan,symmetry,hRUuLREVopaK41wFHMlwe02JD7M2,symmetry-judgement-task,201,1266157,0.0-46.0-6.0-1.0-1.0-12.0,,,,,,,,,,1.0,1.0,,,,5e9aff02f4a78b1a1fe7fc3c,20:13:08,03/04/2024
,"<div style=""font-size: 10rem; color: #0000FF"">L</div>",,ospan,letter,hRUuLREVopaK41wFHMlwe02JD7M2,html-keyboard-response,202,1267167,0.0-46.0-6.0-1.0-1.0-13.0,,,,,,,,,,,,,,,5e9aff02f4a78b1a1fe7fc3c,20:13:08,03/04/2024
1738.0,,,ospan,symmetry,hRUuLREVopaK41wFHMlwe02JD7M2,symmetry-judgement-task,203,1270872,0.0-46.0-6.0-1.0-1.0-14.0,,,,,,,,,,1.0,1.0,,,,5e9aff02f4a78b1a1fe7fc3c,20:13:08,03/04/2024
,"<div style=""font-size: 10rem; color: #0000FF"">Q</div>",,ospan,letter,hRUuLREVopaK41wFHMlwe02JD7M2,html-keyboard-response,204,1271879,0.0-46.0-6.0-1.0-1.0-15.0,,,,,,,,,,,,,,,5e9aff02f4a78b1a1fe7fc3c,20:13:08,03/04/2024
5948.5999999940395,"<div class = numbox><p style=""font-size: 2.4rem"">Please recall the letters you saw to the best of your ability. If you do not remember a particular letter, use the SKIP button.<br><b>(When you are ready to lock in your answer, press ENTER)</b></p><button id = button_1 class = ""square num-button"" onclick = ""recordClick(this)""><div class = content><div class = numbers>C</div></div></button><button id = button_2 class = ""square num-button"" onclick = ""recordClick(this)""><div class = content><div class = numbers>G</div></div></button><button id = button_3 class = ""square num-button"" onclick = ""recordClick(this)""><div class = content><div class = numbers>H</div></div></button><button id = button_4 class = ""square num-button"" onclick = ""recordClick(this)""><div class = content><div class = numbers>J</div></div></button><button id = button_5 class = ""square num-button"" onclick = ""recordClick(this)""><div class = content><div class = numbers>K</div></div></button><button id = button_6 class = ""square num-button"" onclick = ""recordClick(this)""><div class = content><div class = numbers>L</div></div></button><button id = button_7 class = ""square num-button"" onclick = ""recordClick(this)""><div class = content><div class = numbers>N</div></div></button><button id = button_8 class = ""square num-button"" onclick = ""recordClick(this)""><div class = content><div class = numbers>P</div></div></button><button id = button_9 class = ""square num-button"" onclick = ""recordClick(this)""><div class = content><div class = numbers>Q</div></div></button><button id = button_10 class = ""square num-button"" onclick = ""recordClick(this)""><div class = content><div class = numbers>R</div></div></button><button id = button_11 class = ""square num-button"" onclick = ""recordClick(this)""><div class = content><div class = numbers>S</div></div></button><button id = button_12 class = ""square num-button"" onclick = ""recordClick(this)""><div class = content><div class = numbers>Y</div></div></button><button class = clear_button id = ""ClearButton"" onclick = ""clearResponse()"">BACKSPACE</button><button class = blank_button id = ""BlankButton"" onclick = ""blankResponse()"">SKIP</button><p style=""font-size: 2.4rem""><u><b>Current Answer:</b></u></p><br><br><div id=echoed_txt style=""font-size: 5rem; color:blue;""><b></b></div></div>",enter,ospan,retrieval,hRUuLREVopaK41wFHMlwe02JD7M2,html-keyboard-response,205,1278585,0.0-46.0-6.0-1.0-2.0,41,37,28,8.0,"[""P"",""S"",""H"",""Y"",""K"",""J"",""L"",""Q""]","[""P"",""S"",""H"",""Y"",""K"",""J"",""L"",""Q""]",1.0,8.0,,,,,,,5e9aff02f4a78b1a1fe7fc3c,20:13:08,03/04/2024
684.4000000059605,[''],0,ospan,feedback,hRUuLREVopaK41wFHMlwe02JD7M2,html-button-response,206,1279786,0.0-46.0-6.0-1.0-3.0,,,,,,,,,,,,100.0,0.0,,5e9aff02f4a78b1a1fe7fc3c,20:13:08,03/04/2024
20512.40000000596,,"{'Q0': 'I enjoyed solving the puzzles given to me, all was clear'}",ospan,survey_ospan,hRUuLREVopaK41wFHMlwe02JD7M2,lmdlab-survey-text,207,1301071,0.0-46.0-7.0,,,,,,,,,,,,,,hRUuLREVopaK41wFHMlwe02JD7M2,5e9aff02f4a78b1a1fe7fc3c,20:13:08,03/04/2024
844.7999999821186,<p><p style='font-size: 3rem'>Great work!<br><br>This completes the symmetry and memory task.</p><br><br><br>,0,ospan,finish,hRUuLREVopaK41wFHMlwe02JD7M2,html-button-response,208,1301923,0.0-46.0-8.0,41,37,28,,,,,,,,,100.0,,,5e9aff02f4a78b1a1fe7fc3c,20:13:08,03/04/2024
