rt,stimulus,response,exp_name,exp_stage,subjectID,trial_type,trial_index,time_elapsed,internal_node_id,ospan_shown,ospan_total,ospan_abs,length,resp_actual,resp_correct,full_correct,num_correct,feedback,accuracy,correct,math_acc,math_warning,databaseID,prolificID,start_time,date
4685.800000000745,<div class = 'left_align' style='font-size: 3.25rem; line-height: 1.3;'><p class = 'center_align'><b>Welcome to the Symmetry and Memory Task</b><br><br><br><br></p>Press 'continue' to show the instructions.<br><br><br><br></div>,0,ospan,instruct,HQ0AN4Qpmrgh8U5vk9iWqKI6O6V2,html-button-response,54,682939,0.0-46.0-0.0-0.0-0.0,,,,,,,,,,,,,,,65f07c8102b4c1d4aa644c4a,20:03:22,02/04/2024
18700.0,"<div class = 'left_align' style='font-size: 3.25rem; line-height: 1.3;'><p class = 'center_align'><b>Symmetry and Memory Task</b><br><br></p>In this task, you will try to memorize letters you see on the screen<br>while you also view black and white grid pictures.<br><br>In the next few minutes, you will have some practice to get you familiar<br>with how the task works.<br><br>It may be difficult sometimes, but please do not worry about making mistakes!<br><br>We will begin by practicing the letter part of the task.<br><br><br><br></div>",0,ospan,instruct,HQ0AN4Qpmrgh8U5vk9iWqKI6O6V2,html-button-response,55,701892,0.0-46.0-0.0-0.0-1.0,,,,,,,,,,,,,,,65f07c8102b4c1d4aa644c4a,20:03:22,02/04/2024
101327.30000000075,"<div class = 'left_align' style='font-size: 3.25rem; line-height: 1.3;'>For this practice part, letters will appear on the screen one at a time.<br><br>Try to remember each letter in the order presented.<br><br>After some letters have been shown, you will see a response screen. Your<br>goal is to report the letters you saw <b>in order</b>. If you do not remember<br>a particular letter, you will have the option to leave it blank.<br><br><br><br></div>",0,ospan,instruct,HQ0AN4Qpmrgh8U5vk9iWqKI6O6V2,html-button-response,56,803486,0.0-46.0-0.0-0.0-2.0,,,,,,,,,,,,,,,65f07c8102b4c1d4aa644c4a,20:03:22,02/04/2024
4067.699999999255,"<div class = 'left_align' style='font-size: 3.25rem; line-height: 1.3;'>Remember, it is very important to get the letters in the same<br>order as you see them.<br><br>When you are ready, you may begin the letter practice.</div><br><br><br><br>",0,ospan,instruct,HQ0AN4Qpmrgh8U5vk9iWqKI6O6V2,html-button-response,57,807817,0.0-46.0-0.0-0.0-3.0,,,,,,,,,,,,,,,65f07c8102b4c1d4aa644c4a,20:03:22,02/04/2024
,"<p style=""font-size:75px;"">...</p>",,ospan,iti,HQ0AN4Qpmrgh8U5vk9iWqKI6O6V2,html-keyboard-response,58,809073,0.0-46.0-0.0-1.0-0.0,,,,,,,,,,,,,,,65f07c8102b4c1d4aa644c4a,20:03:22,02/04/2024
,"<div style=""font-size: 10rem; color: #0000FF"">S</div>",,ospan,letter,HQ0AN4Qpmrgh8U5vk9iWqKI6O6V2,html-keyboard-response,59,810087,0.0-46.0-0.0-1.0-1.0,,,,,,,,,,,,,,,65f07c8102b4c1d4aa644c4a,20:03:22,02/04/2024
,"<div style=""font-size: 10rem; color: #0000FF"">C</div>",,ospan,letter,HQ0AN4Qpmrgh8U5vk9iWqKI6O6V2,html-keyboard-response,60,811847,0.0-46.0-0.0-1.0-2.0,,,,,,,,,,,,,,,65f07c8102b4c1d4aa644c4a,20:03:22,02/04/2024
18838.599999999627,"<div class = numbox><p style=""font-size: 2.4rem"">Please recall the letters you saw to the best of your ability. If you do not remember a particular letter, use the SKIP button.<br><b>(When you are ready to lock in your answer, press ENTER)</b></p><button id = button_1 class = ""square num-button"" onclick = ""recordClick(this)""><div class = content><div class = numbers>C</div></div></button><button id = button_2 class = ""square num-button"" onclick = ""recordClick(this)""><div class = content><div class = numbers>G</div></div></button><button id = button_3 class = ""square num-button"" onclick = ""recordClick(this)""><div class = content><div class = numbers>H</div></div></button><button id = button_4 class = ""square num-button"" onclick = ""recordClick(this)""><div class = content><div class = numbers>J</div></div></button><button id = button_5 class = ""square num-button"" onclick = ""recordClick(this)""><div class = content><div class = numbers>K</div></div></button><button id = button_6 class = ""square num-button"" onclick = ""recordClick(this)""><div class = content><div class = numbers>L</div></div></button><button id = button_7 class = ""square num-button"" onclick = ""recordClick(this)""><div class = content><div class = numbers>N</div></div></button><button id = button_8 class = ""square num-button"" onclick = ""recordClick(this)""><div class = content><div class = numbers>P</div></div></button><button id = button_9 class = ""square num-button"" onclick = ""recordClick(this)""><div class = content><div class = numbers>Q</div></div></button><button id = button_10 class = ""square num-button"" onclick = ""recordClick(this)""><div class = content><div class = numbers>R</div></div></button><button id = button_11 class = ""square num-button"" onclick = ""recordClick(this)""><div class = content><div class = numbers>S</div></div></button><button id = button_12 class = ""square num-button"" onclick = ""recordClick(this)""><div class = content><div class = numbers>Y</div></div></button><button class = clear_button id = ""ClearButton"" onclick = ""clearResponse()"">BACKSPACE</button><button class = blank_button id = ""BlankButton"" onclick = ""blankResponse()"">SKIP</button><p style=""font-size: 2.4rem""><u><b>Current Answer:</b></u></p><br><br><div id=echoed_txt style=""font-size: 5rem; color:blue;""><b></b></div></div>",enter,ospan,retrieval,HQ0AN4Qpmrgh8U5vk9iWqKI6O6V2,html-keyboard-response,61,831454,0.0-46.0-0.0-1.0-3.0,NA,NA,NA,2.0,"[""S"",""C"",""L""]","[""S"",""C""]",1.0,2.0,"['<font color=""green"">S</font>', '<font color=""green"">C</font>']",,,,,,65f07c8102b4c1d4aa644c4a,20:03:22,02/04/2024
2813.199999999255,"['<p style=""font-size:44px"">Letters:<br><br><br><font color=""green"">S</font> <font color=""green"">C</font></p><br><br>']",0,ospan,practice_feedback,HQ0AN4Qpmrgh8U5vk9iWqKI6O6V2,html-button-response,62,834779,0.0-46.0-0.0-1.0-4.0,,,,,,,,,,,,,,,65f07c8102b4c1d4aa644c4a,20:03:22,02/04/2024
,"<p style=""font-size:75px;"">...</p>",,ospan,iti,HQ0AN4Qpmrgh8U5vk9iWqKI6O6V2,html-keyboard-response,63,835795,0.0-46.0-0.0-2.0-0.0,,,,,,,,,,,,,,,65f07c8102b4c1d4aa644c4a,20:03:22,02/04/2024
,"<div style=""font-size: 10rem; color: #0000FF"">R</div>",,ospan,letter,HQ0AN4Qpmrgh8U5vk9iWqKI6O6V2,html-keyboard-response,64,836802,0.0-46.0-0.0-2.0-1.0,,,,,,,,,,,,,,,65f07c8102b4c1d4aa644c4a,20:03:22,02/04/2024
,"<div style=""font-size: 10rem; color: #0000FF"">Q</div>",,ospan,letter,HQ0AN4Qpmrgh8U5vk9iWqKI6O6V2,html-keyboard-response,65,838565,0.0-46.0-0.0-2.0-2.0,,,,,,,,,,,,,,,65f07c8102b4c1d4aa644c4a,20:03:22,02/04/2024
,"<div style=""font-size: 10rem; color: #0000FF"">P</div>",,ospan,letter,HQ0AN4Qpmrgh8U5vk9iWqKI6O6V2,html-keyboard-response,66,840326,0.0-46.0-0.0-2.0-3.0,,,,,,,,,,,,,,,65f07c8102b4c1d4aa644c4a,20:03:22,02/04/2024
19922.900000000373,"<div class = numbox><p style=""font-size: 2.4rem"">Please recall the letters you saw to the best of your ability. If you do not remember a particular letter, use the SKIP button.<br><b>(When you are ready to lock in your answer, press ENTER)</b></p><button id = button_1 class = ""square num-button"" onclick = ""recordClick(this)""><div class = content><div class = numbers>C</div></div></button><button id = button_2 class = ""square num-button"" onclick = ""recordClick(this)""><div class = content><div class = numbers>G</div></div></button><button id = button_3 class = ""square num-button"" onclick = ""recordClick(this)""><div class = content><div class = numbers>H</div></div></button><button id = button_4 class = ""square num-button"" onclick = ""recordClick(this)""><div class = content><div class = numbers>J</div></div></button><button id = button_5 class = ""square num-button"" onclick = ""recordClick(this)""><div class = content><div class = numbers>K</div></div></button><button id = button_6 class = ""square num-button"" onclick = ""recordClick(this)""><div class = content><div class = numbers>L</div></div></button><button id = button_7 class = ""square num-button"" onclick = ""recordClick(this)""><div class = content><div class = numbers>N</div></div></button><button id = button_8 class = ""square num-button"" onclick = ""recordClick(this)""><div class = content><div class = numbers>P</div></div></button><button id = button_9 class = ""square num-button"" onclick = ""recordClick(this)""><div class = content><div class = numbers>Q</div></div></button><button id = button_10 class = ""square num-button"" onclick = ""recordClick(this)""><div class = content><div class = numbers>R</div></div></button><button id = button_11 class = ""square num-button"" onclick = ""recordClick(this)""><div class = content><div class = numbers>S</div></div></button><button id = button_12 class = ""square num-button"" onclick = ""recordClick(this)""><div class = content><div class = numbers>Y</div></div></button><button class = clear_button id = ""ClearButton"" onclick = ""clearResponse()"">BACKSPACE</button><button class = blank_button id = ""BlankButton"" onclick = ""blankResponse()"">SKIP</button><p style=""font-size: 2.4rem""><u><b>Current Answer:</b></u></p><br><br><div id=echoed_txt style=""font-size: 5rem; color:blue;""><b></b></div></div>",enter,ospan,retrieval,HQ0AN4Qpmrgh8U5vk9iWqKI6O6V2,html-keyboard-response,67,861009,0.0-46.0-0.0-2.0-4.0,NA,NA,NA,3.0,"[""R"",""Q"",""P""]","[""R"",""Q"",""P""]",1.0,3.0,"['<font color=""green"">R</font>', '<font color=""green"">Q</font>', '<font color=""green"">P</font>']",,,,,,65f07c8102b4c1d4aa644c4a,20:03:22,02/04/2024
2887.5999999996275,"['<p style=""font-size:44px"">Letters:<br><br><br><font color=""green"">R</font> <font color=""green"">Q</font> <font color=""green"">P</font></p><br><br>']",0,ospan,practice_feedback,HQ0AN4Qpmrgh8U5vk9iWqKI6O6V2,html-button-response,68,864411,0.0-46.0-0.0-2.0-5.0,,,,,,,,,,,,,,,65f07c8102b4c1d4aa644c4a,20:03:22,02/04/2024
24746.800000000745,"<div class = 'left_align' style='font-size: 3.25rem; line-height: 1.3;'>Now you will practice doing the <b>symmetry judgment part</b> of the experiment.<br><br>A black and white grid picture will appear on the screen and you have to judge if it is <br>symmetrical or asymetrical.<br><br>A picture is 'mirror' symmetrical if its left half is identical to the right half when flipped.<br>Here are examples of a symmetrical and an asymetrical picture:<br><br><center><img src='Stimuli/img/symm_instructions_extra.png' style='height:420px; width:900'></img></center><br>To judge symmetry, imagine you were to fold each picture down the middle, like a book –<br>would the left half match the right half when folded onto each other?<br><br></div><br>",0,ospan,instruct,HQ0AN4Qpmrgh8U5vk9iWqKI6O6V2,html-button-response,69,889160,0.0-46.0-1.0-0.0-0.0,,,,,,,,,,,,,,,65f07c8102b4c1d4aa644c4a,20:03:22,02/04/2024
6763.0,"<div class = 'left_align' style='font-size: 3.25rem; line-height: 1.3;'>When you have viewed the picture and determined whether it is symmetrical or not,<br>you can <b>click the Yes or No button</b> below to answer.<br><br>If you take longer than 15 seconds, it will continue automatically<br>and record the answer as an error.</div><br>",0,ospan,instruct,HQ0AN4Qpmrgh8U5vk9iWqKI6O6V2,html-button-response,70,896189,0.0-46.0-1.0-0.0-1.0,,,,,,,,,,,,,,,65f07c8102b4c1d4aa644c4a,20:03:22,02/04/2024
2035.0999999996275,"<div class = 'left_align' style='font-size: 3.25rem; line-height: 1.3;'>It is <b>very</b> important that you make the symmetry judgment correctly.<br><br>It is also important that you try and judge the picture as quickly as you can.<br><br>When you are ready, click on the button below to try some practice problems.</div><br><br><br><br>",0,ospan,instruct,HQ0AN4Qpmrgh8U5vk9iWqKI6O6V2,html-button-response,71,898479,0.0-46.0-1.0-0.0-2.0,,,,,,,,,,,,,,,65f07c8102b4c1d4aa644c4a,20:03:22,02/04/2024
3783.0,,,ospan,symmetry,HQ0AN4Qpmrgh8U5vk9iWqKI6O6V2,symmetry-judgement-task,72,903075,0.0-46.0-1.0-1.0-0.0,,,,,,,,,,1.0,1.0,,,,65f07c8102b4c1d4aa644c4a,20:03:22,02/04/2024
,"<p style=""color:green; font-size: 35px"">Correct</p>",,ospan,feedback,HQ0AN4Qpmrgh8U5vk9iWqKI6O6V2,html-keyboard-response,73,903838,0.0-46.0-1.0-1.0-1.0,,,,,,,,,,,,,,,65f07c8102b4c1d4aa644c4a,20:03:22,02/04/2024
3827.0,,,ospan,symmetry,HQ0AN4Qpmrgh8U5vk9iWqKI6O6V2,symmetry-judgement-task,74,910345,0.0-46.0-1.0-1.0-2.0,,,,,,,,,,1.0,1.0,,,,65f07c8102b4c1d4aa644c4a,20:03:22,02/04/2024
,"<p style=""color:green; font-size: 35px"">Correct</p>",,ospan,feedback,HQ0AN4Qpmrgh8U5vk9iWqKI6O6V2,html-keyboard-response,75,911105,0.0-46.0-1.0-1.0-3.0,,,,,,,,,,,,,,,65f07c8102b4c1d4aa644c4a,20:03:22,02/04/2024
1839.0,,,ospan,symmetry,HQ0AN4Qpmrgh8U5vk9iWqKI6O6V2,symmetry-judgement-task,76,915619,0.0-46.0-1.0-1.0-4.0,,,,,,,,,,1.0,1.0,,,,65f07c8102b4c1d4aa644c4a,20:03:22,02/04/2024
,"<p style=""color:green; font-size: 35px"">Correct</p>",,ospan,feedback,HQ0AN4Qpmrgh8U5vk9iWqKI6O6V2,html-keyboard-response,77,916374,0.0-46.0-1.0-1.0-5.0,,,,,,,,,,,,,,,65f07c8102b4c1d4aa644c4a,20:03:22,02/04/2024
2296.7999999988824,"<p style=""font-size: 3rem;"">You responded correctly on 3 of 3 symmetry judgments. Good job!</p><br><br>",0,ospan,practice,HQ0AN4Qpmrgh8U5vk9iWqKI6O6V2,html-button-response,78,920682,0.0-46.0-1.0-2.0,,,,,,,,,,,,,,,65f07c8102b4c1d4aa644c4a,20:03:22,02/04/2024
11918.099999999627,"<div class = 'left_align' style='font-size: 3.25rem; line-height: 1.3;'>Now you will practice doing both parts of the experiment at the same time.<br><br>In the next practice set, you will be given one grid picture to judge.<br>Then letter will appear on the screen. Try to remember the letter.<br><br>It is <b>very important</b> to make the symmetry judgment as quickly and accurately as possible.<br><br>Just as before, once you have make the symmetry judgment, you can click Yes or No.<br><b>Note that you will no longer see Correct or Incorrect feedback.</div><br><br><br><br>",0,ospan,instruct,HQ0AN4Qpmrgh8U5vk9iWqKI6O6V2,html-button-response,79,932866,0.0-46.0-2.0-0.0-0.0,,,,,,,,,,,,,,,65f07c8102b4c1d4aa644c4a,20:03:22,02/04/2024
6348.89999999851,"<div class = 'left_align' style='font-size: 3.25rem; line-height: 1.3;'>After the letter goes away, another grid picture will appear, and then<br>another letter.<br><br>At the end of each set of letters and grids, you will recall the letters to the best<br>of your ability. Remember, try your best to get the letters in the correct order.<br><br>It is important to <b>quickly</b> and <b>accurately</b> make the symmetry judgments.</div><br><br><br><br>",0,ospan,instruct,HQ0AN4Qpmrgh8U5vk9iWqKI6O6V2,html-button-response,80,939480,0.0-46.0-2.0-0.0-1.0,,,,,,,,,,,,,,,65f07c8102b4c1d4aa644c4a,20:03:22,02/04/2024
9473.299999998882,"<div class = 'left_align' style='font-size: 3.25rem; line-height: 1.3;'>On the feedback screen, if you are not doing well at the symmetry judgments,<br>you will also see a warning in the middle. This indicates your percent <br>correct for the grid pictures for the entire experiment.<br><br>It is <b>very</b> important for you to keep accuracy at least at 85%: <u>We can only use<br>data where the participant was at least 85% accurate on the judgments.</u> Therefore,<br> please try your best to perform well on the symmetry judgments, <b>at the same time</b><br>doing your best to recall as many letters as possible.<br><br>Click the button to try some practice problems.</div><br><br><br><br>",0,ospan,instruct,HQ0AN4Qpmrgh8U5vk9iWqKI6O6V2,html-button-response,81,949218,0.0-46.0-2.0-0.0-2.0,,,,,,,,,,,,,,,65f07c8102b4c1d4aa644c4a,20:03:22,02/04/2024
,"<p style=""font-size:75px;"">...</p>",,ospan,iti,HQ0AN4Qpmrgh8U5vk9iWqKI6O6V2,html-keyboard-response,82,950493,0.0-46.0-2.0-1.0-0.0,,,,,,,,,,,,,,,65f07c8102b4c1d4aa644c4a,20:03:22,02/04/2024
3419.0,,,ospan,symmetry,HQ0AN4Qpmrgh8U5vk9iWqKI6O6V2,symmetry-judgement-task,83,954959,0.0-46.0-2.0-1.0-1.0-0.0,,,,,,,,,,1.0,1.0,,,,65f07c8102b4c1d4aa644c4a,20:03:22,02/04/2024
,"<div style=""font-size: 10rem; color: #0000FF"">R</div>",,ospan,letter,HQ0AN4Qpmrgh8U5vk9iWqKI6O6V2,html-keyboard-response,84,955973,0.0-46.0-2.0-1.0-1.0-1.0,,,,,,,,,,,,,,,65f07c8102b4c1d4aa644c4a,20:03:22,02/04/2024
3669.0,,,ospan,symmetry,HQ0AN4Qpmrgh8U5vk9iWqKI6O6V2,symmetry-judgement-task,85,961577,0.0-46.0-2.0-1.0-1.0-2.0,,,,,,,,,,1.0,1.0,,,,65f07c8102b4c1d4aa644c4a,20:03:22,02/04/2024
,"<div style=""font-size: 10rem; color: #0000FF"">K</div>",,ospan,letter,HQ0AN4Qpmrgh8U5vk9iWqKI6O6V2,html-keyboard-response,86,962591,0.0-46.0-2.0-1.0-1.0-3.0,,,,,,,,,,,,,,,65f07c8102b4c1d4aa644c4a,20:03:22,02/04/2024
1536.0,,,ospan,symmetry,HQ0AN4Qpmrgh8U5vk9iWqKI6O6V2,symmetry-judgement-task,87,966043,0.0-46.0-2.0-1.0-1.0-4.0,,,,,,,,,,1.0,1.0,,,,65f07c8102b4c1d4aa644c4a,20:03:22,02/04/2024
,"<div style=""font-size: 10rem; color: #0000FF"">C</div>",,ospan,letter,HQ0AN4Qpmrgh8U5vk9iWqKI6O6V2,html-keyboard-response,88,967059,0.0-46.0-2.0-1.0-1.0-5.0,,,,,,,,,,,,,,,65f07c8102b4c1d4aa644c4a,20:03:22,02/04/2024
4002.7999999988824,"<div class = numbox><p style=""font-size: 2.4rem"">Please recall the letters you saw to the best of your ability. If you do not remember a particular letter, use the SKIP button.<br><b>(When you are ready to lock in your answer, press ENTER)</b></p><button id = button_1 class = ""square num-button"" onclick = ""recordClick(this)""><div class = content><div class = numbers>C</div></div></button><button id = button_2 class = ""square num-button"" onclick = ""recordClick(this)""><div class = content><div class = numbers>G</div></div></button><button id = button_3 class = ""square num-button"" onclick = ""recordClick(this)""><div class = content><div class = numbers>H</div></div></button><button id = button_4 class = ""square num-button"" onclick = ""recordClick(this)""><div class = content><div class = numbers>J</div></div></button><button id = button_5 class = ""square num-button"" onclick = ""recordClick(this)""><div class = content><div class = numbers>K</div></div></button><button id = button_6 class = ""square num-button"" onclick = ""recordClick(this)""><div class = content><div class = numbers>L</div></div></button><button id = button_7 class = ""square num-button"" onclick = ""recordClick(this)""><div class = content><div class = numbers>N</div></div></button><button id = button_8 class = ""square num-button"" onclick = ""recordClick(this)""><div class = content><div class = numbers>P</div></div></button><button id = button_9 class = ""square num-button"" onclick = ""recordClick(this)""><div class = content><div class = numbers>Q</div></div></button><button id = button_10 class = ""square num-button"" onclick = ""recordClick(this)""><div class = content><div class = numbers>R</div></div></button><button id = button_11 class = ""square num-button"" onclick = ""recordClick(this)""><div class = content><div class = numbers>S</div></div></button><button id = button_12 class = ""square num-button"" onclick = ""recordClick(this)""><div class = content><div class = numbers>Y</div></div></button><button class = clear_button id = ""ClearButton"" onclick = ""clearResponse()"">BACKSPACE</button><button class = blank_button id = ""BlankButton"" onclick = ""blankResponse()"">SKIP</button><p style=""font-size: 2.4rem""><u><b>Current Answer:</b></u></p><br><br><div id=echoed_txt style=""font-size: 5rem; color:blue;""><b></b></div></div>",enter,ospan,retrieval,HQ0AN4Qpmrgh8U5vk9iWqKI6O6V2,html-keyboard-response,89,971824,0.0-46.0-2.0-1.0-2.0-0.0,NA,NA,NA,3.0,"[""R"",""K""]","[""R"",""K"",""C""]",0.0,2.0,"['<font color=""green"">R</font>', '<font color=""green"">K</font>', '<font color=""red"">C</font>']",,,,,,65f07c8102b4c1d4aa644c4a,20:03:22,02/04/2024
2916.699999999255,"['<p style=""font-size:44px"">Letters:<br><br><br><font color=""green"">R</font> <font color=""green"">K</font> <font color=""red"">C</font></p><br><br><p style=""font-size:30px"">Symmetry:<br><br><font color=""green"">100%</font></p><br><br>']",0,ospan,practice_feedback,HQ0AN4Qpmrgh8U5vk9iWqKI6O6V2,html-button-response,90,975253,0.0-46.0-2.0-1.0-2.0-1.0,,,,,,,,,,,,,,,65f07c8102b4c1d4aa644c4a,20:03:22,02/04/2024
,"<p style=""font-size:75px;"">...</p>",,ospan,iti,HQ0AN4Qpmrgh8U5vk9iWqKI6O6V2,html-keyboard-response,91,976268,0.0-46.0-2.0-2.0-0.0,,,,,,,,,,,,,,,65f07c8102b4c1d4aa644c4a,20:03:22,02/04/2024
2410.0,,,ospan,symmetry,HQ0AN4Qpmrgh8U5vk9iWqKI6O6V2,symmetry-judgement-task,92,979856,0.0-46.0-2.0-2.0-1.0-0.0,,,,,,,,,,1.0,1.0,,,,65f07c8102b4c1d4aa644c4a,20:03:22,02/04/2024
,"<div style=""font-size: 10rem; color: #0000FF"">K</div>",,ospan,letter,HQ0AN4Qpmrgh8U5vk9iWqKI6O6V2,html-keyboard-response,93,980870,0.0-46.0-2.0-2.0-1.0-1.0,,,,,,,,,,,,,,,65f07c8102b4c1d4aa644c4a,20:03:22,02/04/2024
1657.0,,,ospan,symmetry,HQ0AN4Qpmrgh8U5vk9iWqKI6O6V2,symmetry-judgement-task,94,984440,0.0-46.0-2.0-2.0-1.0-2.0,,,,,,,,,,1.0,1.0,,,,65f07c8102b4c1d4aa644c4a,20:03:22,02/04/2024
,"<div style=""font-size: 10rem; color: #0000FF"">H</div>",,ospan,letter,HQ0AN4Qpmrgh8U5vk9iWqKI6O6V2,html-keyboard-response,95,985451,0.0-46.0-2.0-2.0-1.0-3.0,,,,,,,,,,,,,,,65f07c8102b4c1d4aa644c4a,20:03:22,02/04/2024
2330.0,,,ospan,symmetry,HQ0AN4Qpmrgh8U5vk9iWqKI6O6V2,symmetry-judgement-task,96,989726,0.0-46.0-2.0-2.0-1.0-4.0,,,,,,,,,,0.0,0.0,,,,65f07c8102b4c1d4aa644c4a,20:03:22,02/04/2024
,"<div style=""font-size: 10rem; color: #0000FF"">Y</div>",,ospan,letter,HQ0AN4Qpmrgh8U5vk9iWqKI6O6V2,html-keyboard-response,97,990729,0.0-46.0-2.0-2.0-1.0-5.0,,,,,,,,,,,,,,,65f07c8102b4c1d4aa644c4a,20:03:22,02/04/2024
7149.300000000745,"<div class = numbox><p style=""font-size: 2.4rem"">Please recall the letters you saw to the best of your ability. If you do not remember a particular letter, use the SKIP button.<br><b>(When you are ready to lock in your answer, press ENTER)</b></p><button id = button_1 class = ""square num-button"" onclick = ""recordClick(this)""><div class = content><div class = numbers>C</div></div></button><button id = button_2 class = ""square num-button"" onclick = ""recordClick(this)""><div class = content><div class = numbers>G</div></div></button><button id = button_3 class = ""square num-button"" onclick = ""recordClick(this)""><div class = content><div class = numbers>H</div></div></button><button id = button_4 class = ""square num-button"" onclick = ""recordClick(this)""><div class = content><div class = numbers>J</div></div></button><button id = button_5 class = ""square num-button"" onclick = ""recordClick(this)""><div class = content><div class = numbers>K</div></div></button><button id = button_6 class = ""square num-button"" onclick = ""recordClick(this)""><div class = content><div class = numbers>L</div></div></button><button id = button_7 class = ""square num-button"" onclick = ""recordClick(this)""><div class = content><div class = numbers>N</div></div></button><button id = button_8 class = ""square num-button"" onclick = ""recordClick(this)""><div class = content><div class = numbers>P</div></div></button><button id = button_9 class = ""square num-button"" onclick = ""recordClick(this)""><div class = content><div class = numbers>Q</div></div></button><button id = button_10 class = ""square num-button"" onclick = ""recordClick(this)""><div class = content><div class = numbers>R</div></div></button><button id = button_11 class = ""square num-button"" onclick = ""recordClick(this)""><div class = content><div class = numbers>S</div></div></button><button id = button_12 class = ""square num-button"" onclick = ""recordClick(this)""><div class = content><div class = numbers>Y</div></div></button><button class = clear_button id = ""ClearButton"" onclick = ""clearResponse()"">BACKSPACE</button><button class = blank_button id = ""BlankButton"" onclick = ""blankResponse()"">SKIP</button><p style=""font-size: 2.4rem""><u><b>Current Answer:</b></u></p><br><br><div id=echoed_txt style=""font-size: 5rem; color:blue;""><b></b></div></div>",enter,ospan,retrieval,HQ0AN4Qpmrgh8U5vk9iWqKI6O6V2,html-keyboard-response,98,998639,0.0-46.0-2.0-2.0-2.0-0.0,NA,NA,NA,3.0,"[""K"",""H"",""Y""]","[""K"",""H"",""Y""]",1.0,3.0,"['<font color=""green"">K</font>', '<font color=""green"">H</font>', '<font color=""green"">Y</font>']",,,,,,65f07c8102b4c1d4aa644c4a,20:03:22,02/04/2024
1897.5999999996275,"['<p style=""font-size:44px"">Letters:<br><br><br><font color=""green"">K</font> <font color=""green"">H</font> <font color=""green"">Y</font></p><br><br><p style=""font-size:30px"">Symmetry:<br><br><font color=""red"">83%</font></p><br><br>']",0,ospan,practice_feedback,HQ0AN4Qpmrgh8U5vk9iWqKI6O6V2,html-button-response,99,1001055,0.0-46.0-2.0-2.0-2.0-1.0,,,,,,,,,,,,,,,65f07c8102b4c1d4aa644c4a,20:03:22,02/04/2024
8690.300000000745,"<div class = 'left_align' style='font-size: 3rem; line-height: 1.3;'><b>Great work! That is the end of practice.</b><br><br>The real trials will look just like the practice trials you just completed.<br><br><u>Here, you will not see feedback</u>. First, you will see an grid picture to judge,<br>then a letter to remember. When the recall screen appears, report the letters in the<br>order presented. If you forget a letter, remember to use the <b>blank</b> button to move to the<br>next letter. Some of the sets will have more symmetry grids and letters than others.<br><br>It is important that you do your best on both the symmetry judgments and the letter recall<br>parts of the experiment. For for the symmetry judgments, try to work as <b>quickly</b> and <br>as <b>accurately</b> as possible. Remember to keep your symmetry accuracy at 85% or above.<br><br><b>For the letters, do NOT use any external aid (e.g., writing on paper, electronic device).</b><br><br>It is <u>very important</u> to our experiment to have a <b>true</b> view of your real performance.<br><br>Do not worry if you miss some when it gets hard! This task is meant to be very challenging!<br><br>Click the button to begin.</div><br><br><br><br>",0,ospan,starting_real_here,HQ0AN4Qpmrgh8U5vk9iWqKI6O6V2,html-button-response,100,1009748,0.0-46.0-2.0-3.0,,,,,,,,,,,,,,,65f07c8102b4c1d4aa644c4a,20:03:22,02/04/2024
,"<p style=""font-size:75px;"">...</p>",,ospan,iti,HQ0AN4Qpmrgh8U5vk9iWqKI6O6V2,html-keyboard-response,101,1011018,0.0-46.0-3.0-0.0-0.0,,,,,,,,,,,,,,,65f07c8102b4c1d4aa644c4a,20:03:22,02/04/2024
3480.0,,,ospan,symmetry,HQ0AN4Qpmrgh8U5vk9iWqKI6O6V2,symmetry-judgement-task,102,1015701,0.0-46.0-3.0-0.0-1.0-0.0,,,,,,,,,,1.0,1.0,,,,65f07c8102b4c1d4aa644c4a,20:03:22,02/04/2024
,"<div style=""font-size: 10rem; color: #0000FF"">R</div>",,ospan,letter,HQ0AN4Qpmrgh8U5vk9iWqKI6O6V2,html-keyboard-response,103,1016706,0.0-46.0-3.0-0.0-1.0-1.0,,,,,,,,,,,,,,,65f07c8102b4c1d4aa644c4a,20:03:22,02/04/2024
5617.0,,,ospan,symmetry,HQ0AN4Qpmrgh8U5vk9iWqKI6O6V2,symmetry-judgement-task,104,1024244,0.0-46.0-3.0-0.0-1.0-2.0,,,,,,,,,,1.0,1.0,,,,65f07c8102b4c1d4aa644c4a,20:03:22,02/04/2024
,"<div style=""font-size: 10rem; color: #0000FF"">C</div>",,ospan,letter,HQ0AN4Qpmrgh8U5vk9iWqKI6O6V2,html-keyboard-response,105,1025251,0.0-46.0-3.0-0.0-1.0-3.0,,,,,,,,,,,,,,,65f07c8102b4c1d4aa644c4a,20:03:22,02/04/2024
3776.0,,,ospan,symmetry,HQ0AN4Qpmrgh8U5vk9iWqKI6O6V2,symmetry-judgement-task,106,1030968,0.0-46.0-3.0-0.0-1.0-4.0,,,,,,,,,,0.0,0.0,,,,65f07c8102b4c1d4aa644c4a,20:03:22,02/04/2024
,"<div style=""font-size: 10rem; color: #0000FF"">H</div>",,ospan,letter,HQ0AN4Qpmrgh8U5vk9iWqKI6O6V2,html-keyboard-response,107,1031974,0.0-46.0-3.0-0.0-1.0-5.0,,,,,,,,,,,,,,,65f07c8102b4c1d4aa644c4a,20:03:22,02/04/2024
9231.5,"<div class = numbox><p style=""font-size: 2.4rem"">Please recall the letters you saw to the best of your ability. If you do not remember a particular letter, use the SKIP button.<br><b>(When you are ready to lock in your answer, press ENTER)</b></p><button id = button_1 class = ""square num-button"" onclick = ""recordClick(this)""><div class = content><div class = numbers>C</div></div></button><button id = button_2 class = ""square num-button"" onclick = ""recordClick(this)""><div class = content><div class = numbers>G</div></div></button><button id = button_3 class = ""square num-button"" onclick = ""recordClick(this)""><div class = content><div class = numbers>H</div></div></button><button id = button_4 class = ""square num-button"" onclick = ""recordClick(this)""><div class = content><div class = numbers>J</div></div></button><button id = button_5 class = ""square num-button"" onclick = ""recordClick(this)""><div class = content><div class = numbers>K</div></div></button><button id = button_6 class = ""square num-button"" onclick = ""recordClick(this)""><div class = content><div class = numbers>L</div></div></button><button id = button_7 class = ""square num-button"" onclick = ""recordClick(this)""><div class = content><div class = numbers>N</div></div></button><button id = button_8 class = ""square num-button"" onclick = ""recordClick(this)""><div class = content><div class = numbers>P</div></div></button><button id = button_9 class = ""square num-button"" onclick = ""recordClick(this)""><div class = content><div class = numbers>Q</div></div></button><button id = button_10 class = ""square num-button"" onclick = ""recordClick(this)""><div class = content><div class = numbers>R</div></div></button><button id = button_11 class = ""square num-button"" onclick = ""recordClick(this)""><div class = content><div class = numbers>S</div></div></button><button id = button_12 class = ""square num-button"" onclick = ""recordClick(this)""><div class = content><div class = numbers>Y</div></div></button><button class = clear_button id = ""ClearButton"" onclick = ""clearResponse()"">BACKSPACE</button><button class = blank_button id = ""BlankButton"" onclick = ""blankResponse()"">SKIP</button><p style=""font-size: 2.4rem""><u><b>Current Answer:</b></u></p><br><br><div id=echoed_txt style=""font-size: 5rem; color:blue;""><b></b></div></div>",enter,ospan,retrieval,HQ0AN4Qpmrgh8U5vk9iWqKI6O6V2,html-keyboard-response,108,1041957,0.0-46.0-3.0-0.0-2.0,3,1,0,3.0,"[""R"",""H""]","[""R"",""C"",""H""]",0.0,1.0,,,,,,,65f07c8102b4c1d4aa644c4a,20:03:22,02/04/2024
15981.299999998882,"['<p style=""font-size: 3.75rem"">Low symmetry accuracy!<br><br><br><font color=""red"">67%</font><br><br></p>']",0,ospan,feedback,HQ0AN4Qpmrgh8U5vk9iWqKI6O6V2,html-button-response,109,1058447,0.0-46.0-3.0-0.0-3.0,,,,,,,,,,,,67.0,1.0,,65f07c8102b4c1d4aa644c4a,20:03:22,02/04/2024
,"<p style=""font-size:75px;"">...</p>",,ospan,iti,HQ0AN4Qpmrgh8U5vk9iWqKI6O6V2,html-keyboard-response,110,1059460,0.0-46.0-4.0-0.0-0.0,,,,,,,,,,,,,,,65f07c8102b4c1d4aa644c4a,20:03:22,02/04/2024
4029.0,,,ospan,symmetry,HQ0AN4Qpmrgh8U5vk9iWqKI6O6V2,symmetry-judgement-task,111,1064645,0.0-46.0-4.0-0.0-1.0-0.0,,,,,,,,,,1.0,1.0,,,,65f07c8102b4c1d4aa644c4a,20:03:22,02/04/2024
,"<div style=""font-size: 10rem; color: #0000FF"">H</div>",,ospan,letter,HQ0AN4Qpmrgh8U5vk9iWqKI6O6V2,html-keyboard-response,112,1065661,0.0-46.0-4.0-0.0-1.0-1.0,,,,,,,,,,,,,,,65f07c8102b4c1d4aa644c4a,20:03:22,02/04/2024
2984.0,,,ospan,symmetry,HQ0AN4Qpmrgh8U5vk9iWqKI6O6V2,symmetry-judgement-task,113,1070547,0.0-46.0-4.0-0.0-1.0-2.0,,,,,,,,,,1.0,1.0,,,,65f07c8102b4c1d4aa644c4a,20:03:22,02/04/2024
,"<div style=""font-size: 10rem; color: #0000FF"">P</div>",,ospan,letter,HQ0AN4Qpmrgh8U5vk9iWqKI6O6V2,html-keyboard-response,114,1071562,0.0-46.0-4.0-0.0-1.0-3.0,,,,,,,,,,,,,,,65f07c8102b4c1d4aa644c4a,20:03:22,02/04/2024
3388.0,,,ospan,symmetry,HQ0AN4Qpmrgh8U5vk9iWqKI6O6V2,symmetry-judgement-task,115,1076880,0.0-46.0-4.0-0.0-1.0-4.0,,,,,,,,,,1.0,1.0,,,,65f07c8102b4c1d4aa644c4a,20:03:22,02/04/2024
,"<div style=""font-size: 10rem; color: #0000FF"">R</div>",,ospan,letter,HQ0AN4Qpmrgh8U5vk9iWqKI6O6V2,html-keyboard-response,116,1077891,0.0-46.0-4.0-0.0-1.0-5.0,,,,,,,,,,,,,,,65f07c8102b4c1d4aa644c4a,20:03:22,02/04/2024
5621.0,,,ospan,symmetry,HQ0AN4Qpmrgh8U5vk9iWqKI6O6V2,symmetry-judgement-task,117,1085419,0.0-46.0-4.0-0.0-1.0-6.0,,,,,,,,,,1.0,1.0,,,,65f07c8102b4c1d4aa644c4a,20:03:22,02/04/2024
,"<div style=""font-size: 10rem; color: #0000FF"">K</div>",,ospan,letter,HQ0AN4Qpmrgh8U5vk9iWqKI6O6V2,html-keyboard-response,118,1086428,0.0-46.0-4.0-0.0-1.0-7.0,,,,,,,,,,,,,,,65f07c8102b4c1d4aa644c4a,20:03:22,02/04/2024
11033.89999999851,"<div class = numbox><p style=""font-size: 2.4rem"">Please recall the letters you saw to the best of your ability. If you do not remember a particular letter, use the SKIP button.<br><b>(When you are ready to lock in your answer, press ENTER)</b></p><button id = button_1 class = ""square num-button"" onclick = ""recordClick(this)""><div class = content><div class = numbers>C</div></div></button><button id = button_2 class = ""square num-button"" onclick = ""recordClick(this)""><div class = content><div class = numbers>G</div></div></button><button id = button_3 class = ""square num-button"" onclick = ""recordClick(this)""><div class = content><div class = numbers>H</div></div></button><button id = button_4 class = ""square num-button"" onclick = ""recordClick(this)""><div class = content><div class = numbers>J</div></div></button><button id = button_5 class = ""square num-button"" onclick = ""recordClick(this)""><div class = content><div class = numbers>K</div></div></button><button id = button_6 class = ""square num-button"" onclick = ""recordClick(this)""><div class = content><div class = numbers>L</div></div></button><button id = button_7 class = ""square num-button"" onclick = ""recordClick(this)""><div class = content><div class = numbers>N</div></div></button><button id = button_8 class = ""square num-button"" onclick = ""recordClick(this)""><div class = content><div class = numbers>P</div></div></button><button id = button_9 class = ""square num-button"" onclick = ""recordClick(this)""><div class = content><div class = numbers>Q</div></div></button><button id = button_10 class = ""square num-button"" onclick = ""recordClick(this)""><div class = content><div class = numbers>R</div></div></button><button id = button_11 class = ""square num-button"" onclick = ""recordClick(this)""><div class = content><div class = numbers>S</div></div></button><button id = button_12 class = ""square num-button"" onclick = ""recordClick(this)""><div class = content><div class = numbers>Y</div></div></button><button class = clear_button id = ""ClearButton"" onclick = ""clearResponse()"">BACKSPACE</button><button class = blank_button id = ""BlankButton"" onclick = ""blankResponse()"">SKIP</button><p style=""font-size: 2.4rem""><u><b>Current Answer:</b></u></p><br><br><div id=echoed_txt style=""font-size: 5rem; color:blue;""><b></b></div></div>",enter,ospan,retrieval,HQ0AN4Qpmrgh8U5vk9iWqKI6O6V2,html-keyboard-response,119,1098222,0.0-46.0-4.0-0.0-2.0,7,5,4,4.0,"[""H"",""P"",""R"",""K""]","[""H"",""P"",""R"",""K""]",1.0,4.0,,,,,,,65f07c8102b4c1d4aa644c4a,20:03:22,02/04/2024
1318.3999999985099,[''],0,ospan,feedback,HQ0AN4Qpmrgh8U5vk9iWqKI6O6V2,html-button-response,120,1100055,0.0-46.0-4.0-0.0-3.0,,,,,,,,,,,,86.0,0.0,,65f07c8102b4c1d4aa644c4a,20:03:22,02/04/2024
,"<p style=""font-size:75px;"">...</p>",,ospan,iti,HQ0AN4Qpmrgh8U5vk9iWqKI6O6V2,html-keyboard-response,121,1101065,0.0-46.0-4.0-1.0-0.0,,,,,,,,,,,,,,,65f07c8102b4c1d4aa644c4a,20:03:22,02/04/2024
3199.0,,,ospan,symmetry,HQ0AN4Qpmrgh8U5vk9iWqKI6O6V2,symmetry-judgement-task,122,1105438,0.0-46.0-4.0-1.0-1.0-0.0,,,,,,,,,,1.0,1.0,,,,65f07c8102b4c1d4aa644c4a,20:03:22,02/04/2024
,"<div style=""font-size: 10rem; color: #0000FF"">S</div>",,ospan,letter,HQ0AN4Qpmrgh8U5vk9iWqKI6O6V2,html-keyboard-response,123,1106454,0.0-46.0-4.0-1.0-1.0-1.0,,,,,,,,,,,,,,,65f07c8102b4c1d4aa644c4a,20:03:22,02/04/2024
3063.0,,,ospan,symmetry,HQ0AN4Qpmrgh8U5vk9iWqKI6O6V2,symmetry-judgement-task,124,1111433,0.0-46.0-4.0-1.0-1.0-2.0,,,,,,,,,,1.0,1.0,,,,65f07c8102b4c1d4aa644c4a,20:03:22,02/04/2024
,"<div style=""font-size: 10rem; color: #0000FF"">C</div>",,ospan,letter,HQ0AN4Qpmrgh8U5vk9iWqKI6O6V2,html-keyboard-response,125,1112435,0.0-46.0-4.0-1.0-1.0-3.0,,,,,,,,,,,,,,,65f07c8102b4c1d4aa644c4a,20:03:22,02/04/2024
5326.0,,,ospan,symmetry,HQ0AN4Qpmrgh8U5vk9iWqKI6O6V2,symmetry-judgement-task,126,1119705,0.0-46.0-4.0-1.0-1.0-4.0,,,,,,,,,,1.0,1.0,,,,65f07c8102b4c1d4aa644c4a,20:03:22,02/04/2024
,"<div style=""font-size: 10rem; color: #0000FF"">H</div>",,ospan,letter,HQ0AN4Qpmrgh8U5vk9iWqKI6O6V2,html-keyboard-response,127,1120721,0.0-46.0-4.0-1.0-1.0-5.0,,,,,,,,,,,,,,,65f07c8102b4c1d4aa644c4a,20:03:22,02/04/2024
9618.0,,,ospan,symmetry,HQ0AN4Qpmrgh8U5vk9iWqKI6O6V2,symmetry-judgement-task,128,1132265,0.0-46.0-4.0-1.0-1.0-6.0,,,,,,,,,,1.0,1.0,,,,65f07c8102b4c1d4aa644c4a,20:03:22,02/04/2024
,"<div style=""font-size: 10rem; color: #0000FF"">N</div>",,ospan,letter,HQ0AN4Qpmrgh8U5vk9iWqKI6O6V2,html-keyboard-response,129,1133281,0.0-46.0-4.0-1.0-1.0-7.0,,,,,,,,,,,,,,,65f07c8102b4c1d4aa644c4a,20:03:22,02/04/2024
1977.0,,,ospan,symmetry,HQ0AN4Qpmrgh8U5vk9iWqKI6O6V2,symmetry-judgement-task,130,1137196,0.0-46.0-4.0-1.0-1.0-8.0,,,,,,,,,,0.0,0.0,,,,65f07c8102b4c1d4aa644c4a,20:03:22,02/04/2024
,"<div style=""font-size: 10rem; color: #0000FF"">Q</div>",,ospan,letter,HQ0AN4Qpmrgh8U5vk9iWqKI6O6V2,html-keyboard-response,131,1138211,0.0-46.0-4.0-1.0-1.0-9.0,,,,,,,,,,,,,,,65f07c8102b4c1d4aa644c4a,20:03:22,02/04/2024
10319.0,"<div class = numbox><p style=""font-size: 2.4rem"">Please recall the letters you saw to the best of your ability. If you do not remember a particular letter, use the SKIP button.<br><b>(When you are ready to lock in your answer, press ENTER)</b></p><button id = button_1 class = ""square num-button"" onclick = ""recordClick(this)""><div class = content><div class = numbers>C</div></div></button><button id = button_2 class = ""square num-button"" onclick = ""recordClick(this)""><div class = content><div class = numbers>G</div></div></button><button id = button_3 class = ""square num-button"" onclick = ""recordClick(this)""><div class = content><div class = numbers>H</div></div></button><button id = button_4 class = ""square num-button"" onclick = ""recordClick(this)""><div class = content><div class = numbers>J</div></div></button><button id = button_5 class = ""square num-button"" onclick = ""recordClick(this)""><div class = content><div class = numbers>K</div></div></button><button id = button_6 class = ""square num-button"" onclick = ""recordClick(this)""><div class = content><div class = numbers>L</div></div></button><button id = button_7 class = ""square num-button"" onclick = ""recordClick(this)""><div class = content><div class = numbers>N</div></div></button><button id = button_8 class = ""square num-button"" onclick = ""recordClick(this)""><div class = content><div class = numbers>P</div></div></button><button id = button_9 class = ""square num-button"" onclick = ""recordClick(this)""><div class = content><div class = numbers>Q</div></div></button><button id = button_10 class = ""square num-button"" onclick = ""recordClick(this)""><div class = content><div class = numbers>R</div></div></button><button id = button_11 class = ""square num-button"" onclick = ""recordClick(this)""><div class = content><div class = numbers>S</div></div></button><button id = button_12 class = ""square num-button"" onclick = ""recordClick(this)""><div class = content><div class = numbers>Y</div></div></button><button class = clear_button id = ""ClearButton"" onclick = ""clearResponse()"">BACKSPACE</button><button class = blank_button id = ""BlankButton"" onclick = ""blankResponse()"">SKIP</button><p style=""font-size: 2.4rem""><u><b>Current Answer:</b></u></p><br><br><div id=echoed_txt style=""font-size: 5rem; color:blue;""><b></b></div></div>",enter,ospan,retrieval,HQ0AN4Qpmrgh8U5vk9iWqKI6O6V2,html-keyboard-response,132,1149288,0.0-46.0-4.0-1.0-2.0,12,6,4,5.0,"[""S"",""H"",""N"",""Q""]","[""S"",""C"",""H"",""N"",""Q""]",0.0,1.0,,,,,,,65f07c8102b4c1d4aa644c4a,20:03:22,02/04/2024
3183.4000000003725,"['<p style=""font-size: 3.75rem"">Low symmetry accuracy!<br><br><br><font color=""purple"">83%</font><br><br></p>']",0,ospan,feedback,HQ0AN4Qpmrgh8U5vk9iWqKI6O6V2,html-button-response,133,1152990,0.0-46.0-4.0-1.0-3.0,,,,,,,,,,,,83.0,1.0,,65f07c8102b4c1d4aa644c4a,20:03:22,02/04/2024
,"<p style=""font-size:75px;"">...</p>",,ospan,iti,HQ0AN4Qpmrgh8U5vk9iWqKI6O6V2,html-keyboard-response,134,1153999,0.0-46.0-4.0-2.0-0.0,,,,,,,,,,,,,,,65f07c8102b4c1d4aa644c4a,20:03:22,02/04/2024
3853.0,,,ospan,symmetry,HQ0AN4Qpmrgh8U5vk9iWqKI6O6V2,symmetry-judgement-task,135,1159018,0.0-46.0-4.0-2.0-1.0-0.0,,,,,,,,,,1.0,1.0,,,,65f07c8102b4c1d4aa644c4a,20:03:22,02/04/2024
,"<div style=""font-size: 10rem; color: #0000FF"">J</div>",,ospan,letter,HQ0AN4Qpmrgh8U5vk9iWqKI6O6V2,html-keyboard-response,136,1160030,0.0-46.0-4.0-2.0-1.0-1.0,,,,,,,,,,,,,,,65f07c8102b4c1d4aa644c4a,20:03:22,02/04/2024
5570.0,,,ospan,symmetry,HQ0AN4Qpmrgh8U5vk9iWqKI6O6V2,symmetry-judgement-task,137,1167512,0.0-46.0-4.0-2.0-1.0-2.0,,,,,,,,,,1.0,1.0,,,,65f07c8102b4c1d4aa644c4a,20:03:22,02/04/2024
,"<div style=""font-size: 10rem; color: #0000FF"">L</div>",,ospan,letter,HQ0AN4Qpmrgh8U5vk9iWqKI6O6V2,html-keyboard-response,138,1168523,0.0-46.0-4.0-2.0-1.0-3.0,,,,,,,,,,,,,,,65f07c8102b4c1d4aa644c4a,20:03:22,02/04/2024
13532.0,,,ospan,symmetry,HQ0AN4Qpmrgh8U5vk9iWqKI6O6V2,symmetry-judgement-task,139,1183980,0.0-46.0-4.0-2.0-1.0-4.0,,,,,,,,,,1.0,1.0,,,,65f07c8102b4c1d4aa644c4a,20:03:22,02/04/2024
,"<div style=""font-size: 10rem; color: #0000FF"">K</div>",,ospan,letter,HQ0AN4Qpmrgh8U5vk9iWqKI6O6V2,html-keyboard-response,140,1184990,0.0-46.0-4.0-2.0-1.0-5.0,,,,,,,,,,,,,,,65f07c8102b4c1d4aa644c4a,20:03:22,02/04/2024
15159.099999999627,"<div class = numbox><p style=""font-size: 2.4rem"">Please recall the letters you saw to the best of your ability. If you do not remember a particular letter, use the SKIP button.<br><b>(When you are ready to lock in your answer, press ENTER)</b></p><button id = button_1 class = ""square num-button"" onclick = ""recordClick(this)""><div class = content><div class = numbers>C</div></div></button><button id = button_2 class = ""square num-button"" onclick = ""recordClick(this)""><div class = content><div class = numbers>G</div></div></button><button id = button_3 class = ""square num-button"" onclick = ""recordClick(this)""><div class = content><div class = numbers>H</div></div></button><button id = button_4 class = ""square num-button"" onclick = ""recordClick(this)""><div class = content><div class = numbers>J</div></div></button><button id = button_5 class = ""square num-button"" onclick = ""recordClick(this)""><div class = content><div class = numbers>K</div></div></button><button id = button_6 class = ""square num-button"" onclick = ""recordClick(this)""><div class = content><div class = numbers>L</div></div></button><button id = button_7 class = ""square num-button"" onclick = ""recordClick(this)""><div class = content><div class = numbers>N</div></div></button><button id = button_8 class = ""square num-button"" onclick = ""recordClick(this)""><div class = content><div class = numbers>P</div></div></button><button id = button_9 class = ""square num-button"" onclick = ""recordClick(this)""><div class = content><div class = numbers>Q</div></div></button><button id = button_10 class = ""square num-button"" onclick = ""recordClick(this)""><div class = content><div class = numbers>R</div></div></button><button id = button_11 class = ""square num-button"" onclick = ""recordClick(this)""><div class = content><div class = numbers>S</div></div></button><button id = button_12 class = ""square num-button"" onclick = ""recordClick(this)""><div class = content><div class = numbers>Y</div></div></button><button class = clear_button id = ""ClearButton"" onclick = ""clearResponse()"">BACKSPACE</button><button class = blank_button id = ""BlankButton"" onclick = ""blankResponse()"">SKIP</button><p style=""font-size: 2.4rem""><u><b>Current Answer:</b></u></p><br><br><div id=echoed_txt style=""font-size: 5rem; color:blue;""><b></b></div></div>",enter,ospan,retrieval,HQ0AN4Qpmrgh8U5vk9iWqKI6O6V2,html-keyboard-response,141,1200902,0.0-46.0-4.0-2.0-2.0,15,7,4,3.0,"[""_"",""_"",""K""]","[""J"",""L"",""K""]",0.0,1.0,,,,,,,65f07c8102b4c1d4aa644c4a,20:03:22,02/04/2024
2085.0999999996275,[''],0,ospan,feedback,HQ0AN4Qpmrgh8U5vk9iWqKI6O6V2,html-button-response,142,1203502,0.0-46.0-4.0-2.0-3.0,,,,,,,,,,,,87.0,0.0,,65f07c8102b4c1d4aa644c4a,20:03:22,02/04/2024
,"<p style=""font-size:75px;"">...</p>",,ospan,iti,HQ0AN4Qpmrgh8U5vk9iWqKI6O6V2,html-keyboard-response,143,1204511,0.0-46.0-5.0-0.0-0.0,,,,,,,,,,,,,,,65f07c8102b4c1d4aa644c4a,20:03:22,02/04/2024
3917.0,,,ospan,symmetry,HQ0AN4Qpmrgh8U5vk9iWqKI6O6V2,symmetry-judgement-task,144,1209594,0.0-46.0-5.0-0.0-1.0-0.0,,,,,,,,,,1.0,1.0,,,,65f07c8102b4c1d4aa644c4a,20:03:22,02/04/2024
,"<div style=""font-size: 10rem; color: #0000FF"">Q</div>",,ospan,letter,HQ0AN4Qpmrgh8U5vk9iWqKI6O6V2,html-keyboard-response,145,1210605,0.0-46.0-5.0-0.0-1.0-1.0,,,,,,,,,,,,,,,65f07c8102b4c1d4aa644c4a,20:03:22,02/04/2024
3251.0,,,ospan,symmetry,HQ0AN4Qpmrgh8U5vk9iWqKI6O6V2,symmetry-judgement-task,146,1215797,0.0-46.0-5.0-0.0-1.0-2.0,,,,,,,,,,1.0,1.0,,,,65f07c8102b4c1d4aa644c4a,20:03:22,02/04/2024
,"<div style=""font-size: 10rem; color: #0000FF"">L</div>",,ospan,letter,HQ0AN4Qpmrgh8U5vk9iWqKI6O6V2,html-keyboard-response,147,1216801,0.0-46.0-5.0-0.0-1.0-3.0,,,,,,,,,,,,,,,65f07c8102b4c1d4aa644c4a,20:03:22,02/04/2024
1700.0,,,ospan,symmetry,HQ0AN4Qpmrgh8U5vk9iWqKI6O6V2,symmetry-judgement-task,148,1220429,0.0-46.0-5.0-0.0-1.0-4.0,,,,,,,,,,1.0,1.0,,,,65f07c8102b4c1d4aa644c4a,20:03:22,02/04/2024
,"<div style=""font-size: 10rem; color: #0000FF"">R</div>",,ospan,letter,HQ0AN4Qpmrgh8U5vk9iWqKI6O6V2,html-keyboard-response,149,1221443,0.0-46.0-5.0-0.0-1.0-5.0,,,,,,,,,,,,,,,65f07c8102b4c1d4aa644c4a,20:03:22,02/04/2024
1887.0,,,ospan,symmetry,HQ0AN4Qpmrgh8U5vk9iWqKI6O6V2,symmetry-judgement-task,150,1225274,0.0-46.0-5.0-0.0-1.0-6.0,,,,,,,,,,1.0,1.0,,,,65f07c8102b4c1d4aa644c4a,20:03:22,02/04/2024
,"<div style=""font-size: 10rem; color: #0000FF"">J</div>",,ospan,letter,HQ0AN4Qpmrgh8U5vk9iWqKI6O6V2,html-keyboard-response,151,1226289,0.0-46.0-5.0-0.0-1.0-7.0,,,,,,,,,,,,,,,65f07c8102b4c1d4aa644c4a,20:03:22,02/04/2024
2302.0,,,ospan,symmetry,HQ0AN4Qpmrgh8U5vk9iWqKI6O6V2,symmetry-judgement-task,152,1230522,0.0-46.0-5.0-0.0-1.0-8.0,,,,,,,,,,1.0,1.0,,,,65f07c8102b4c1d4aa644c4a,20:03:22,02/04/2024
,"<div style=""font-size: 10rem; color: #0000FF"">S</div>",,ospan,letter,HQ0AN4Qpmrgh8U5vk9iWqKI6O6V2,html-keyboard-response,153,1231537,0.0-46.0-5.0-0.0-1.0-9.0,,,,,,,,,,,,,,,65f07c8102b4c1d4aa644c4a,20:03:22,02/04/2024
14076.0,,,ospan,symmetry,HQ0AN4Qpmrgh8U5vk9iWqKI6O6V2,symmetry-judgement-task,154,1247471,0.0-46.0-5.0-0.0-1.0-10.0,,,,,,,,,,1.0,1.0,,,,65f07c8102b4c1d4aa644c4a,20:03:22,02/04/2024
,"<div style=""font-size: 10rem; color: #0000FF"">Y</div>",,ospan,letter,HQ0AN4Qpmrgh8U5vk9iWqKI6O6V2,html-keyboard-response,155,1248477,0.0-46.0-5.0-0.0-1.0-11.0,,,,,,,,,,,,,,,65f07c8102b4c1d4aa644c4a,20:03:22,02/04/2024
8153.9000000003725,"<div class = numbox><p style=""font-size: 2.4rem"">Please recall the letters you saw to the best of your ability. If you do not remember a particular letter, use the SKIP button.<br><b>(When you are ready to lock in your answer, press ENTER)</b></p><button id = button_1 class = ""square num-button"" onclick = ""recordClick(this)""><div class = content><div class = numbers>C</div></div></button><button id = button_2 class = ""square num-button"" onclick = ""recordClick(this)""><div class = content><div class = numbers>G</div></div></button><button id = button_3 class = ""square num-button"" onclick = ""recordClick(this)""><div class = content><div class = numbers>H</div></div></button><button id = button_4 class = ""square num-button"" onclick = ""recordClick(this)""><div class = content><div class = numbers>J</div></div></button><button id = button_5 class = ""square num-button"" onclick = ""recordClick(this)""><div class = content><div class = numbers>K</div></div></button><button id = button_6 class = ""square num-button"" onclick = ""recordClick(this)""><div class = content><div class = numbers>L</div></div></button><button id = button_7 class = ""square num-button"" onclick = ""recordClick(this)""><div class = content><div class = numbers>N</div></div></button><button id = button_8 class = ""square num-button"" onclick = ""recordClick(this)""><div class = content><div class = numbers>P</div></div></button><button id = button_9 class = ""square num-button"" onclick = ""recordClick(this)""><div class = content><div class = numbers>Q</div></div></button><button id = button_10 class = ""square num-button"" onclick = ""recordClick(this)""><div class = content><div class = numbers>R</div></div></button><button id = button_11 class = ""square num-button"" onclick = ""recordClick(this)""><div class = content><div class = numbers>S</div></div></button><button id = button_12 class = ""square num-button"" onclick = ""recordClick(this)""><div class = content><div class = numbers>Y</div></div></button><button class = clear_button id = ""ClearButton"" onclick = ""clearResponse()"">BACKSPACE</button><button class = blank_button id = ""BlankButton"" onclick = ""blankResponse()"">SKIP</button><p style=""font-size: 2.4rem""><u><b>Current Answer:</b></u></p><br><br><div id=echoed_txt style=""font-size: 5rem; color:blue;""><b></b></div></div>",enter,ospan,retrieval,HQ0AN4Qpmrgh8U5vk9iWqKI6O6V2,html-keyboard-response,156,1257385,0.0-46.0-5.0-0.0-2.0,21,13,10,6.0,"[""Q"",""L"",""R"",""J"",""S"",""Y""]","[""Q"",""L"",""R"",""J"",""S"",""Y""]",1.0,6.0,,,,,,,65f07c8102b4c1d4aa644c4a,20:03:22,02/04/2024
2023.8999999985099,[''],0,ospan,feedback,HQ0AN4Qpmrgh8U5vk9iWqKI6O6V2,html-button-response,157,1259924,0.0-46.0-5.0-0.0-3.0,,,,,,,,,,,,90.0,0.0,,65f07c8102b4c1d4aa644c4a,20:03:22,02/04/2024
,"<p style=""font-size:75px;"">...</p>",,ospan,iti,HQ0AN4Qpmrgh8U5vk9iWqKI6O6V2,html-keyboard-response,158,1260929,0.0-46.0-5.0-1.0-0.0,,,,,,,,,,,,,,,65f07c8102b4c1d4aa644c4a,20:03:22,02/04/2024
2974.0,,,ospan,symmetry,HQ0AN4Qpmrgh8U5vk9iWqKI6O6V2,symmetry-judgement-task,159,1264950,0.0-46.0-5.0-1.0-1.0-0.0,,,,,,,,,,1.0,1.0,,,,65f07c8102b4c1d4aa644c4a,20:03:22,02/04/2024
,"<div style=""font-size: 10rem; color: #0000FF"">G</div>",,ospan,letter,HQ0AN4Qpmrgh8U5vk9iWqKI6O6V2,html-keyboard-response,160,1265954,0.0-46.0-5.0-1.0-1.0-1.0,,,,,,,,,,,,,,,65f07c8102b4c1d4aa644c4a,20:03:22,02/04/2024
1860.0,,,ospan,symmetry,HQ0AN4Qpmrgh8U5vk9iWqKI6O6V2,symmetry-judgement-task,161,1269741,0.0-46.0-5.0-1.0-1.0-2.0,,,,,,,,,,1.0,1.0,,,,65f07c8102b4c1d4aa644c4a,20:03:22,02/04/2024
,"<div style=""font-size: 10rem; color: #0000FF"">P</div>",,ospan,letter,HQ0AN4Qpmrgh8U5vk9iWqKI6O6V2,html-keyboard-response,162,1270753,0.0-46.0-5.0-1.0-1.0-3.0,,,,,,,,,,,,,,,65f07c8102b4c1d4aa644c4a,20:03:22,02/04/2024
1294.0,,,ospan,symmetry,HQ0AN4Qpmrgh8U5vk9iWqKI6O6V2,symmetry-judgement-task,163,1273969,0.0-46.0-5.0-1.0-1.0-4.0,,,,,,,,,,1.0,1.0,,,,65f07c8102b4c1d4aa644c4a,20:03:22,02/04/2024
,"<div style=""font-size: 10rem; color: #0000FF"">S</div>",,ospan,letter,HQ0AN4Qpmrgh8U5vk9iWqKI6O6V2,html-keyboard-response,164,1274977,0.0-46.0-5.0-1.0-1.0-5.0,,,,,,,,,,,,,,,65f07c8102b4c1d4aa644c4a,20:03:22,02/04/2024
1572.0,,,ospan,symmetry,HQ0AN4Qpmrgh8U5vk9iWqKI6O6V2,symmetry-judgement-task,165,1278476,0.0-46.0-5.0-1.0-1.0-6.0,,,,,,,,,,1.0,1.0,,,,65f07c8102b4c1d4aa644c4a,20:03:22,02/04/2024
,"<div style=""font-size: 10rem; color: #0000FF"">H</div>",,ospan,letter,HQ0AN4Qpmrgh8U5vk9iWqKI6O6V2,html-keyboard-response,166,1279479,0.0-46.0-5.0-1.0-1.0-7.0,,,,,,,,,,,,,,,65f07c8102b4c1d4aa644c4a,20:03:22,02/04/2024
2006.0,,,ospan,symmetry,HQ0AN4Qpmrgh8U5vk9iWqKI6O6V2,symmetry-judgement-task,167,1283404,0.0-46.0-5.0-1.0-1.0-8.0,,,,,,,,,,1.0,1.0,,,,65f07c8102b4c1d4aa644c4a,20:03:22,02/04/2024
,"<div style=""font-size: 10rem; color: #0000FF"">L</div>",,ospan,letter,HQ0AN4Qpmrgh8U5vk9iWqKI6O6V2,html-keyboard-response,168,1284413,0.0-46.0-5.0-1.0-1.0-9.0,,,,,,,,,,,,,,,65f07c8102b4c1d4aa644c4a,20:03:22,02/04/2024
2907.0,,,ospan,symmetry,HQ0AN4Qpmrgh8U5vk9iWqKI6O6V2,symmetry-judgement-task,169,1289244,0.0-46.0-5.0-1.0-1.0-10.0,,,,,,,,,,1.0,1.0,,,,65f07c8102b4c1d4aa644c4a,20:03:22,02/04/2024
,"<div style=""font-size: 10rem; color: #0000FF"">Q</div>",,ospan,letter,HQ0AN4Qpmrgh8U5vk9iWqKI6O6V2,html-keyboard-response,170,1290258,0.0-46.0-5.0-1.0-1.0-11.0,,,,,,,,,,,,,,,65f07c8102b4c1d4aa644c4a,20:03:22,02/04/2024
3369.0,,,ospan,symmetry,HQ0AN4Qpmrgh8U5vk9iWqKI6O6V2,symmetry-judgement-task,171,1295572,0.0-46.0-5.0-1.0-1.0-12.0,,,,,,,,,,1.0,1.0,,,,65f07c8102b4c1d4aa644c4a,20:03:22,02/04/2024
,"<div style=""font-size: 10rem; color: #0000FF"">N</div>",,ospan,letter,HQ0AN4Qpmrgh8U5vk9iWqKI6O6V2,html-keyboard-response,172,1296577,0.0-46.0-5.0-1.0-1.0-13.0,,,,,,,,,,,,,,,65f07c8102b4c1d4aa644c4a,20:03:22,02/04/2024
25129.099999999627,"<div class = numbox><p style=""font-size: 2.4rem"">Please recall the letters you saw to the best of your ability. If you do not remember a particular letter, use the SKIP button.<br><b>(When you are ready to lock in your answer, press ENTER)</b></p><button id = button_1 class = ""square num-button"" onclick = ""recordClick(this)""><div class = content><div class = numbers>C</div></div></button><button id = button_2 class = ""square num-button"" onclick = ""recordClick(this)""><div class = content><div class = numbers>G</div></div></button><button id = button_3 class = ""square num-button"" onclick = ""recordClick(this)""><div class = content><div class = numbers>H</div></div></button><button id = button_4 class = ""square num-button"" onclick = ""recordClick(this)""><div class = content><div class = numbers>J</div></div></button><button id = button_5 class = ""square num-button"" onclick = ""recordClick(this)""><div class = content><div class = numbers>K</div></div></button><button id = button_6 class = ""square num-button"" onclick = ""recordClick(this)""><div class = content><div class = numbers>L</div></div></button><button id = button_7 class = ""square num-button"" onclick = ""recordClick(this)""><div class = content><div class = numbers>N</div></div></button><button id = button_8 class = ""square num-button"" onclick = ""recordClick(this)""><div class = content><div class = numbers>P</div></div></button><button id = button_9 class = ""square num-button"" onclick = ""recordClick(this)""><div class = content><div class = numbers>Q</div></div></button><button id = button_10 class = ""square num-button"" onclick = ""recordClick(this)""><div class = content><div class = numbers>R</div></div></button><button id = button_11 class = ""square num-button"" onclick = ""recordClick(this)""><div class = content><div class = numbers>S</div></div></button><button id = button_12 class = ""square num-button"" onclick = ""recordClick(this)""><div class = content><div class = numbers>Y</div></div></button><button class = clear_button id = ""ClearButton"" onclick = ""clearResponse()"">BACKSPACE</button><button class = blank_button id = ""BlankButton"" onclick = ""blankResponse()"">SKIP</button><p style=""font-size: 2.4rem""><u><b>Current Answer:</b></u></p><br><br><div id=echoed_txt style=""font-size: 5rem; color:blue;""><b></b></div></div>",enter,ospan,retrieval,HQ0AN4Qpmrgh8U5vk9iWqKI6O6V2,html-keyboard-response,173,1322463,0.0-46.0-5.0-1.0-2.0,28,18,10,7.0,"[""G"",""P"",""H"",""H"",""L"",""Q""]","[""G"",""P"",""S"",""H"",""L"",""Q"",""N""]",0.0,5.0,,,,,,,65f07c8102b4c1d4aa644c4a,20:03:22,02/04/2024
1549.3999999985099,[''],0,ospan,feedback,HQ0AN4Qpmrgh8U5vk9iWqKI6O6V2,html-button-response,174,1324518,0.0-46.0-5.0-1.0-3.0,,,,,,,,,,,,93.0,0.0,,65f07c8102b4c1d4aa644c4a,20:03:22,02/04/2024
,"<p style=""font-size:75px;"">...</p>",,ospan,iti,HQ0AN4Qpmrgh8U5vk9iWqKI6O6V2,html-keyboard-response,175,1325524,0.0-46.0-6.0-0.0-0.0,,,,,,,,,,,,,,,65f07c8102b4c1d4aa644c4a,20:03:22,02/04/2024
3426.0,,,ospan,symmetry,HQ0AN4Qpmrgh8U5vk9iWqKI6O6V2,symmetry-judgement-task,176,1330126,0.0-46.0-6.0-0.0-1.0-0.0,,,,,,,,,,1.0,1.0,,,,65f07c8102b4c1d4aa644c4a,20:03:22,02/04/2024
,"<div style=""font-size: 10rem; color: #0000FF"">G</div>",,ospan,letter,HQ0AN4Qpmrgh8U5vk9iWqKI6O6V2,html-keyboard-response,177,1331131,0.0-46.0-6.0-0.0-1.0-1.0,,,,,,,,,,,,,,,65f07c8102b4c1d4aa644c4a,20:03:22,02/04/2024
4730.0,,,ospan,symmetry,HQ0AN4Qpmrgh8U5vk9iWqKI6O6V2,symmetry-judgement-task,178,1337789,0.0-46.0-6.0-0.0-1.0-2.0,,,,,,,,,,1.0,1.0,,,,65f07c8102b4c1d4aa644c4a,20:03:22,02/04/2024
,"<div style=""font-size: 10rem; color: #0000FF"">L</div>",,ospan,letter,HQ0AN4Qpmrgh8U5vk9iWqKI6O6V2,html-keyboard-response,179,1338794,0.0-46.0-6.0-0.0-1.0-3.0,,,,,,,,,,,,,,,65f07c8102b4c1d4aa644c4a,20:03:22,02/04/2024
3768.0,,,ospan,symmetry,HQ0AN4Qpmrgh8U5vk9iWqKI6O6V2,symmetry-judgement-task,180,1344491,0.0-46.0-6.0-0.0-1.0-4.0,,,,,,,,,,1.0,1.0,,,,65f07c8102b4c1d4aa644c4a,20:03:22,02/04/2024
,"<div style=""font-size: 10rem; color: #0000FF"">Q</div>",,ospan,letter,HQ0AN4Qpmrgh8U5vk9iWqKI6O6V2,html-keyboard-response,181,1345509,0.0-46.0-6.0-0.0-1.0-5.0,,,,,,,,,,,,,,,65f07c8102b4c1d4aa644c4a,20:03:22,02/04/2024
2616.0,,,ospan,symmetry,HQ0AN4Qpmrgh8U5vk9iWqKI6O6V2,symmetry-judgement-task,182,1350048,0.0-46.0-6.0-0.0-1.0-6.0,,,,,,,,,,1.0,1.0,,,,65f07c8102b4c1d4aa644c4a,20:03:22,02/04/2024
,"<div style=""font-size: 10rem; color: #0000FF"">P</div>",,ospan,letter,HQ0AN4Qpmrgh8U5vk9iWqKI6O6V2,html-keyboard-response,183,1351055,0.0-46.0-6.0-0.0-1.0-7.0,,,,,,,,,,,,,,,65f07c8102b4c1d4aa644c4a,20:03:22,02/04/2024
6033.0,,,ospan,symmetry,HQ0AN4Qpmrgh8U5vk9iWqKI6O6V2,symmetry-judgement-task,184,1359005,0.0-46.0-6.0-0.0-1.0-8.0,,,,,,,,,,1.0,1.0,,,,65f07c8102b4c1d4aa644c4a,20:03:22,02/04/2024
,"<div style=""font-size: 10rem; color: #0000FF"">J</div>",,ospan,letter,HQ0AN4Qpmrgh8U5vk9iWqKI6O6V2,html-keyboard-response,185,1360011,0.0-46.0-6.0-0.0-1.0-9.0,,,,,,,,,,,,,,,65f07c8102b4c1d4aa644c4a,20:03:22,02/04/2024
26140.0,"<div class = numbox><p style=""font-size: 2.4rem"">Please recall the letters you saw to the best of your ability. If you do not remember a particular letter, use the SKIP button.<br><b>(When you are ready to lock in your answer, press ENTER)</b></p><button id = button_1 class = ""square num-button"" onclick = ""recordClick(this)""><div class = content><div class = numbers>C</div></div></button><button id = button_2 class = ""square num-button"" onclick = ""recordClick(this)""><div class = content><div class = numbers>G</div></div></button><button id = button_3 class = ""square num-button"" onclick = ""recordClick(this)""><div class = content><div class = numbers>H</div></div></button><button id = button_4 class = ""square num-button"" onclick = ""recordClick(this)""><div class = content><div class = numbers>J</div></div></button><button id = button_5 class = ""square num-button"" onclick = ""recordClick(this)""><div class = content><div class = numbers>K</div></div></button><button id = button_6 class = ""square num-button"" onclick = ""recordClick(this)""><div class = content><div class = numbers>L</div></div></button><button id = button_7 class = ""square num-button"" onclick = ""recordClick(this)""><div class = content><div class = numbers>N</div></div></button><button id = button_8 class = ""square num-button"" onclick = ""recordClick(this)""><div class = content><div class = numbers>P</div></div></button><button id = button_9 class = ""square num-button"" onclick = ""recordClick(this)""><div class = content><div class = numbers>Q</div></div></button><button id = button_10 class = ""square num-button"" onclick = ""recordClick(this)""><div class = content><div class = numbers>R</div></div></button><button id = button_11 class = ""square num-button"" onclick = ""recordClick(this)""><div class = content><div class = numbers>S</div></div></button><button id = button_12 class = ""square num-button"" onclick = ""recordClick(this)""><div class = content><div class = numbers>Y</div></div></button><button class = clear_button id = ""ClearButton"" onclick = ""clearResponse()"">BACKSPACE</button><button class = blank_button id = ""BlankButton"" onclick = ""blankResponse()"">SKIP</button><p style=""font-size: 2.4rem""><u><b>Current Answer:</b></u></p><br><br><div id=echoed_txt style=""font-size: 5rem; color:blue;""><b></b></div></div>",enter,ospan,retrieval,HQ0AN4Qpmrgh8U5vk9iWqKI6O6V2,html-keyboard-response,186,1386911,0.0-46.0-6.0-0.0-2.0,33,23,15,5.0,"[""G"",""L"",""Q"",""P"",""J""]","[""G"",""L"",""Q"",""P"",""J""]",1.0,5.0,,,,,,,65f07c8102b4c1d4aa644c4a,20:03:22,02/04/2024
1592.800000000745,[''],0,ospan,feedback,HQ0AN4Qpmrgh8U5vk9iWqKI6O6V2,html-button-response,187,1389009,0.0-46.0-6.0-0.0-3.0,,,,,,,,,,,,94.0,0.0,,65f07c8102b4c1d4aa644c4a,20:03:22,02/04/2024
,"<p style=""font-size:75px;"">...</p>",,ospan,iti,HQ0AN4Qpmrgh8U5vk9iWqKI6O6V2,html-keyboard-response,188,1390016,0.0-46.0-6.0-1.0-0.0,,,,,,,,,,,,,,,65f07c8102b4c1d4aa644c4a,20:03:22,02/04/2024
11344.0,,,ospan,symmetry,HQ0AN4Qpmrgh8U5vk9iWqKI6O6V2,symmetry-judgement-task,189,1402551,0.0-46.0-6.0-1.0-1.0-0.0,,,,,,,,,,1.0,1.0,,,,65f07c8102b4c1d4aa644c4a,20:03:22,02/04/2024
,"<div style=""font-size: 10rem; color: #0000FF"">Y</div>",,ospan,letter,HQ0AN4Qpmrgh8U5vk9iWqKI6O6V2,html-keyboard-response,190,1403555,0.0-46.0-6.0-1.0-1.0-1.0,,,,,,,,,,,,,,,65f07c8102b4c1d4aa644c4a,20:03:22,02/04/2024
2218.0,,,ospan,symmetry,HQ0AN4Qpmrgh8U5vk9iWqKI6O6V2,symmetry-judgement-task,191,1407696,0.0-46.0-6.0-1.0-1.0-2.0,,,,,,,,,,1.0,1.0,,,,65f07c8102b4c1d4aa644c4a,20:03:22,02/04/2024
,"<div style=""font-size: 10rem; color: #0000FF"">S</div>",,ospan,letter,HQ0AN4Qpmrgh8U5vk9iWqKI6O6V2,html-keyboard-response,192,1408704,0.0-46.0-6.0-1.0-1.0-3.0,,,,,,,,,,,,,,,65f07c8102b4c1d4aa644c4a,20:03:22,02/04/2024
1658.0,,,ospan,symmetry,HQ0AN4Qpmrgh8U5vk9iWqKI6O6V2,symmetry-judgement-task,193,1412312,0.0-46.0-6.0-1.0-1.0-4.0,,,,,,,,,,1.0,1.0,,,,65f07c8102b4c1d4aa644c4a,20:03:22,02/04/2024
,"<div style=""font-size: 10rem; color: #0000FF"">C</div>",,ospan,letter,HQ0AN4Qpmrgh8U5vk9iWqKI6O6V2,html-keyboard-response,194,1413322,0.0-46.0-6.0-1.0-1.0-5.0,,,,,,,,,,,,,,,65f07c8102b4c1d4aa644c4a,20:03:22,02/04/2024
2390.0,,,ospan,symmetry,HQ0AN4Qpmrgh8U5vk9iWqKI6O6V2,symmetry-judgement-task,195,1417635,0.0-46.0-6.0-1.0-1.0-6.0,,,,,,,,,,1.0,1.0,,,,65f07c8102b4c1d4aa644c4a,20:03:22,02/04/2024
,"<div style=""font-size: 10rem; color: #0000FF"">K</div>",,ospan,letter,HQ0AN4Qpmrgh8U5vk9iWqKI6O6V2,html-keyboard-response,196,1418644,0.0-46.0-6.0-1.0-1.0-7.0,,,,,,,,,,,,,,,65f07c8102b4c1d4aa644c4a,20:03:22,02/04/2024
2243.0,,,ospan,symmetry,HQ0AN4Qpmrgh8U5vk9iWqKI6O6V2,symmetry-judgement-task,197,1422805,0.0-46.0-6.0-1.0-1.0-8.0,,,,,,,,,,1.0,1.0,,,,65f07c8102b4c1d4aa644c4a,20:03:22,02/04/2024
,"<div style=""font-size: 10rem; color: #0000FF"">Q</div>",,ospan,letter,HQ0AN4Qpmrgh8U5vk9iWqKI6O6V2,html-keyboard-response,198,1423819,0.0-46.0-6.0-1.0-1.0-9.0,,,,,,,,,,,,,,,65f07c8102b4c1d4aa644c4a,20:03:22,02/04/2024
2857.0,,,ospan,symmetry,HQ0AN4Qpmrgh8U5vk9iWqKI6O6V2,symmetry-judgement-task,199,1428602,0.0-46.0-6.0-1.0-1.0-10.0,,,,,,,,,,1.0,1.0,,,,65f07c8102b4c1d4aa644c4a,20:03:22,02/04/2024
,"<div style=""font-size: 10rem; color: #0000FF"">P</div>",,ospan,letter,HQ0AN4Qpmrgh8U5vk9iWqKI6O6V2,html-keyboard-response,200,1429619,0.0-46.0-6.0-1.0-1.0-11.0,,,,,,,,,,,,,,,65f07c8102b4c1d4aa644c4a,20:03:22,02/04/2024
1661.0,,,ospan,symmetry,HQ0AN4Qpmrgh8U5vk9iWqKI6O6V2,symmetry-judgement-task,201,1433217,0.0-46.0-6.0-1.0-1.0-12.0,,,,,,,,,,1.0,1.0,,,,65f07c8102b4c1d4aa644c4a,20:03:22,02/04/2024
,"<div style=""font-size: 10rem; color: #0000FF"">L</div>",,ospan,letter,HQ0AN4Qpmrgh8U5vk9iWqKI6O6V2,html-keyboard-response,202,1434229,0.0-46.0-6.0-1.0-1.0-13.0,,,,,,,,,,,,,,,65f07c8102b4c1d4aa644c4a,20:03:22,02/04/2024
3328.0,,,ospan,symmetry,HQ0AN4Qpmrgh8U5vk9iWqKI6O6V2,symmetry-judgement-task,203,1439476,0.0-46.0-6.0-1.0-1.0-14.0,,,,,,,,,,1.0,1.0,,,,65f07c8102b4c1d4aa644c4a,20:03:22,02/04/2024
,"<div style=""font-size: 10rem; color: #0000FF"">G</div>",,ospan,letter,HQ0AN4Qpmrgh8U5vk9iWqKI6O6V2,html-keyboard-response,204,1440492,0.0-46.0-6.0-1.0-1.0-15.0,,,,,,,,,,,,,,,65f07c8102b4c1d4aa644c4a,20:03:22,02/04/2024
22833.599999999627,"<div class = numbox><p style=""font-size: 2.4rem"">Please recall the letters you saw to the best of your ability. If you do not remember a particular letter, use the SKIP button.<br><b>(When you are ready to lock in your answer, press ENTER)</b></p><button id = button_1 class = ""square num-button"" onclick = ""recordClick(this)""><div class = content><div class = numbers>C</div></div></button><button id = button_2 class = ""square num-button"" onclick = ""recordClick(this)""><div class = content><div class = numbers>G</div></div></button><button id = button_3 class = ""square num-button"" onclick = ""recordClick(this)""><div class = content><div class = numbers>H</div></div></button><button id = button_4 class = ""square num-button"" onclick = ""recordClick(this)""><div class = content><div class = numbers>J</div></div></button><button id = button_5 class = ""square num-button"" onclick = ""recordClick(this)""><div class = content><div class = numbers>K</div></div></button><button id = button_6 class = ""square num-button"" onclick = ""recordClick(this)""><div class = content><div class = numbers>L</div></div></button><button id = button_7 class = ""square num-button"" onclick = ""recordClick(this)""><div class = content><div class = numbers>N</div></div></button><button id = button_8 class = ""square num-button"" onclick = ""recordClick(this)""><div class = content><div class = numbers>P</div></div></button><button id = button_9 class = ""square num-button"" onclick = ""recordClick(this)""><div class = content><div class = numbers>Q</div></div></button><button id = button_10 class = ""square num-button"" onclick = ""recordClick(this)""><div class = content><div class = numbers>R</div></div></button><button id = button_11 class = ""square num-button"" onclick = ""recordClick(this)""><div class = content><div class = numbers>S</div></div></button><button id = button_12 class = ""square num-button"" onclick = ""recordClick(this)""><div class = content><div class = numbers>Y</div></div></button><button class = clear_button id = ""ClearButton"" onclick = ""clearResponse()"">BACKSPACE</button><button class = blank_button id = ""BlankButton"" onclick = ""blankResponse()"">SKIP</button><p style=""font-size: 2.4rem""><u><b>Current Answer:</b></u></p><br><br><div id=echoed_txt style=""font-size: 5rem; color:blue;""><b></b></div></div>",enter,ospan,retrieval,HQ0AN4Qpmrgh8U5vk9iWqKI6O6V2,html-keyboard-response,205,1464092,0.0-46.0-6.0-1.0-2.0,41,31,23,8.0,"[""Y"",""S"",""C"",""K"",""Q"",""P"",""L"",""G""]","[""Y"",""S"",""C"",""K"",""Q"",""P"",""L"",""G""]",1.0,8.0,,,,,,,65f07c8102b4c1d4aa644c4a,20:03:22,02/04/2024
2268.199999999255,[''],0,ospan,feedback,HQ0AN4Qpmrgh8U5vk9iWqKI6O6V2,html-button-response,206,1466865,0.0-46.0-6.0-1.0-3.0,,,,,,,,,,,,95.0,0.0,,65f07c8102b4c1d4aa644c4a,20:03:22,02/04/2024
58882.70000000112,,"{'Q0': 'it was brain challenging for me,  I almost skipped pass each one.'}",ospan,survey_ospan,HQ0AN4Qpmrgh8U5vk9iWqKI6O6V2,lmdlab-survey-text,207,1526509,0.0-46.0-7.0,,,,,,,,,,,,,,HQ0AN4Qpmrgh8U5vk9iWqKI6O6V2,65f07c8102b4c1d4aa644c4a,20:03:22,02/04/2024
2014.9000000003725,<p><p style='font-size: 3rem'>Great work!<br><br>This completes the symmetry and memory task.</p><br><br><br>,0,ospan,finish,HQ0AN4Qpmrgh8U5vk9iWqKI6O6V2,html-button-response,208,1528530,0.0-46.0-8.0,41,31,23,,,,,,,,,95.0,,,65f07c8102b4c1d4aa644c4a,20:03:22,02/04/2024
