rt,stimulus,response,exp_name,exp_stage,subjectID,trial_type,trial_index,time_elapsed,internal_node_id,ospan_shown,ospan_total,ospan_abs,length,resp_actual,resp_correct,full_correct,num_correct,feedback,accuracy,correct,math_acc,math_warning,databaseID,prolificID,start_time,date
3780.399999976158,<div class = 'left_align' style='font-size: 3.25rem; line-height: 1.3;'><p class = 'center_align'><b>Welcome to the Symmetry and Memory Task</b><br><br><br><br></p>Press 'continue' to show the instructions.<br><br><br><br></div>,0,ospan,instruct,UL9ZiyK8xyLvLK8s2Li5dsIndtU2,html-button-response,54,615355,0.0-46.0-0.0-0.0-0.0,,,,,,,,,,,,,,,614793a7be62637e6a2ccf3e,13:12:39,03/04/2024
18333.5,"<div class = 'left_align' style='font-size: 3.25rem; line-height: 1.3;'><p class = 'center_align'><b>Symmetry and Memory Task</b><br><br></p>In this task, you will try to memorize letters you see on the screen<br>while you also view black and white grid pictures.<br><br>In the next few minutes, you will have some practice to get you familiar<br>with how the task works.<br><br>It may be difficult sometimes, but please do not worry about making mistakes!<br><br>We will begin by practicing the letter part of the task.<br><br><br><br></div>",0,ospan,instruct,UL9ZiyK8xyLvLK8s2Li5dsIndtU2,html-button-response,55,633943,0.0-46.0-0.0-0.0-1.0,,,,,,,,,,,,,,,614793a7be62637e6a2ccf3e,13:12:39,03/04/2024
31856.0,"<div class = 'left_align' style='font-size: 3.25rem; line-height: 1.3;'>For this practice part, letters will appear on the screen one at a time.<br><br>Try to remember each letter in the order presented.<br><br>After some letters have been shown, you will see a response screen. Your<br>goal is to report the letters you saw <b>in order</b>. If you do not remember<br>a particular letter, you will have the option to leave it blank.<br><br><br><br></div>",0,ospan,instruct,UL9ZiyK8xyLvLK8s2Li5dsIndtU2,html-button-response,56,666051,0.0-46.0-0.0-0.0-2.0,,,,,,,,,,,,,,,614793a7be62637e6a2ccf3e,13:12:39,03/04/2024
3596.5,"<div class = 'left_align' style='font-size: 3.25rem; line-height: 1.3;'>Remember, it is very important to get the letters in the same<br>order as you see them.<br><br>When you are ready, you may begin the letter practice.</div><br><br><br><br>",0,ospan,instruct,UL9ZiyK8xyLvLK8s2Li5dsIndtU2,html-button-response,57,669902,0.0-46.0-0.0-0.0-3.0,,,,,,,,,,,,,,,614793a7be62637e6a2ccf3e,13:12:39,03/04/2024
,"<p style=""font-size:75px;"">...</p>",,ospan,iti,UL9ZiyK8xyLvLK8s2Li5dsIndtU2,html-keyboard-response,58,671157,0.0-46.0-0.0-1.0-0.0,,,,,,,,,,,,,,,614793a7be62637e6a2ccf3e,13:12:39,03/04/2024
,"<div style=""font-size: 10rem; color: #0000FF"">N</div>",,ospan,letter,UL9ZiyK8xyLvLK8s2Li5dsIndtU2,html-keyboard-response,59,672162,0.0-46.0-0.0-1.0-1.0,,,,,,,,,,,,,,,614793a7be62637e6a2ccf3e,13:12:39,03/04/2024
,"<div style=""font-size: 10rem; color: #0000FF"">R</div>",,ospan,letter,UL9ZiyK8xyLvLK8s2Li5dsIndtU2,html-keyboard-response,60,673916,0.0-46.0-0.0-1.0-2.0,,,,,,,,,,,,,,,614793a7be62637e6a2ccf3e,13:12:39,03/04/2024
6661.599999964237,"<div class = numbox><p style=""font-size: 2.4rem"">Please recall the letters you saw to the best of your ability. If you do not remember a particular letter, use the SKIP button.<br><b>(When you are ready to lock in your answer, press ENTER)</b></p><button id = button_1 class = ""square num-button"" onclick = ""recordClick(this)""><div class = content><div class = numbers>C</div></div></button><button id = button_2 class = ""square num-button"" onclick = ""recordClick(this)""><div class = content><div class = numbers>G</div></div></button><button id = button_3 class = ""square num-button"" onclick = ""recordClick(this)""><div class = content><div class = numbers>H</div></div></button><button id = button_4 class = ""square num-button"" onclick = ""recordClick(this)""><div class = content><div class = numbers>J</div></div></button><button id = button_5 class = ""square num-button"" onclick = ""recordClick(this)""><div class = content><div class = numbers>K</div></div></button><button id = button_6 class = ""square num-button"" onclick = ""recordClick(this)""><div class = content><div class = numbers>L</div></div></button><button id = button_7 class = ""square num-button"" onclick = ""recordClick(this)""><div class = content><div class = numbers>N</div></div></button><button id = button_8 class = ""square num-button"" onclick = ""recordClick(this)""><div class = content><div class = numbers>P</div></div></button><button id = button_9 class = ""square num-button"" onclick = ""recordClick(this)""><div class = content><div class = numbers>Q</div></div></button><button id = button_10 class = ""square num-button"" onclick = ""recordClick(this)""><div class = content><div class = numbers>R</div></div></button><button id = button_11 class = ""square num-button"" onclick = ""recordClick(this)""><div class = content><div class = numbers>S</div></div></button><button id = button_12 class = ""square num-button"" onclick = ""recordClick(this)""><div class = content><div class = numbers>Y</div></div></button><button class = clear_button id = ""ClearButton"" onclick = ""clearResponse()"">BACKSPACE</button><button class = blank_button id = ""BlankButton"" onclick = ""blankResponse()"">SKIP</button><p style=""font-size: 2.4rem""><u><b>Current Answer:</b></u></p><br><br><div id=echoed_txt style=""font-size: 5rem; color:blue;""><b></b></div></div>",enter,ospan,retrieval,UL9ZiyK8xyLvLK8s2Li5dsIndtU2,html-keyboard-response,61,681332,0.0-46.0-0.0-1.0-3.0,NA,NA,NA,2.0,"[""N"",""R""]","[""N"",""R""]",1.0,2.0,"['<font color=""green"">N</font>', '<font color=""green"">R</font>']",,,,,,614793a7be62637e6a2ccf3e,13:12:39,03/04/2024
1864.300000011921,"['<p style=""font-size:44px"">Letters:<br><br><br><font color=""green"">N</font> <font color=""green"">R</font></p><br><br>']",0,ospan,practice_feedback,UL9ZiyK8xyLvLK8s2Li5dsIndtU2,html-button-response,62,683701,0.0-46.0-0.0-1.0-4.0,,,,,,,,,,,,,,,614793a7be62637e6a2ccf3e,13:12:39,03/04/2024
,"<p style=""font-size:75px;"">...</p>",,ospan,iti,UL9ZiyK8xyLvLK8s2Li5dsIndtU2,html-keyboard-response,63,684705,0.0-46.0-0.0-2.0-0.0,,,,,,,,,,,,,,,614793a7be62637e6a2ccf3e,13:12:39,03/04/2024
,"<div style=""font-size: 10rem; color: #0000FF"">J</div>",,ospan,letter,UL9ZiyK8xyLvLK8s2Li5dsIndtU2,html-keyboard-response,64,685707,0.0-46.0-0.0-2.0-1.0,,,,,,,,,,,,,,,614793a7be62637e6a2ccf3e,13:12:39,03/04/2024
,"<div style=""font-size: 10rem; color: #0000FF"">Q</div>",,ospan,letter,UL9ZiyK8xyLvLK8s2Li5dsIndtU2,html-keyboard-response,65,687461,0.0-46.0-0.0-2.0-2.0,,,,,,,,,,,,,,,614793a7be62637e6a2ccf3e,13:12:39,03/04/2024
,"<div style=""font-size: 10rem; color: #0000FF"">G</div>",,ospan,letter,UL9ZiyK8xyLvLK8s2Li5dsIndtU2,html-keyboard-response,66,689215,0.0-46.0-0.0-2.0-3.0,,,,,,,,,,,,,,,614793a7be62637e6a2ccf3e,13:12:39,03/04/2024
7798.0,"<div class = numbox><p style=""font-size: 2.4rem"">Please recall the letters you saw to the best of your ability. If you do not remember a particular letter, use the SKIP button.<br><b>(When you are ready to lock in your answer, press ENTER)</b></p><button id = button_1 class = ""square num-button"" onclick = ""recordClick(this)""><div class = content><div class = numbers>C</div></div></button><button id = button_2 class = ""square num-button"" onclick = ""recordClick(this)""><div class = content><div class = numbers>G</div></div></button><button id = button_3 class = ""square num-button"" onclick = ""recordClick(this)""><div class = content><div class = numbers>H</div></div></button><button id = button_4 class = ""square num-button"" onclick = ""recordClick(this)""><div class = content><div class = numbers>J</div></div></button><button id = button_5 class = ""square num-button"" onclick = ""recordClick(this)""><div class = content><div class = numbers>K</div></div></button><button id = button_6 class = ""square num-button"" onclick = ""recordClick(this)""><div class = content><div class = numbers>L</div></div></button><button id = button_7 class = ""square num-button"" onclick = ""recordClick(this)""><div class = content><div class = numbers>N</div></div></button><button id = button_8 class = ""square num-button"" onclick = ""recordClick(this)""><div class = content><div class = numbers>P</div></div></button><button id = button_9 class = ""square num-button"" onclick = ""recordClick(this)""><div class = content><div class = numbers>Q</div></div></button><button id = button_10 class = ""square num-button"" onclick = ""recordClick(this)""><div class = content><div class = numbers>R</div></div></button><button id = button_11 class = ""square num-button"" onclick = ""recordClick(this)""><div class = content><div class = numbers>S</div></div></button><button id = button_12 class = ""square num-button"" onclick = ""recordClick(this)""><div class = content><div class = numbers>Y</div></div></button><button class = clear_button id = ""ClearButton"" onclick = ""clearResponse()"">BACKSPACE</button><button class = blank_button id = ""BlankButton"" onclick = ""blankResponse()"">SKIP</button><p style=""font-size: 2.4rem""><u><b>Current Answer:</b></u></p><br><br><div id=echoed_txt style=""font-size: 5rem; color:blue;""><b></b></div></div>",enter,ospan,retrieval,UL9ZiyK8xyLvLK8s2Li5dsIndtU2,html-keyboard-response,67,697766,0.0-46.0-0.0-2.0-4.0,NA,NA,NA,3.0,"[""J"",""Q"",""G""]","[""J"",""Q"",""G""]",1.0,3.0,"['<font color=""green"">J</font>', '<font color=""green"">Q</font>', '<font color=""green"">G</font>']",,,,,,614793a7be62637e6a2ccf3e,13:12:39,03/04/2024
1599.699999988079,"['<p style=""font-size:44px"">Letters:<br><br><br><font color=""green"">J</font> <font color=""green"">Q</font> <font color=""green"">G</font></p><br><br>']",0,ospan,practice_feedback,UL9ZiyK8xyLvLK8s2Li5dsIndtU2,html-button-response,68,699869,0.0-46.0-0.0-2.0-5.0,,,,,,,,,,,,,,,614793a7be62637e6a2ccf3e,13:12:39,03/04/2024
34129.799999952316,"<div class = 'left_align' style='font-size: 3.25rem; line-height: 1.3;'>Now you will practice doing the <b>symmetry judgment part</b> of the experiment.<br><br>A black and white grid picture will appear on the screen and you have to judge if it is <br>symmetrical or asymetrical.<br><br>A picture is 'mirror' symmetrical if its left half is identical to the right half when flipped.<br>Here are examples of a symmetrical and an asymetrical picture:<br><br><center><img src='Stimuli/img/symm_instructions_extra.png' style='height:420px; width:900'></img></center><br>To judge symmetry, imagine you were to fold each picture down the middle, like a book –<br>would the left half match the right half when folded onto each other?<br><br></div><br>",0,ospan,instruct,UL9ZiyK8xyLvLK8s2Li5dsIndtU2,html-button-response,69,734003,0.0-46.0-1.0-0.0-0.0,,,,,,,,,,,,,,,614793a7be62637e6a2ccf3e,13:12:39,03/04/2024
7760.599999964237,"<div class = 'left_align' style='font-size: 3.25rem; line-height: 1.3;'>When you have viewed the picture and determined whether it is symmetrical or not,<br>you can <b>click the Yes or No button</b> below to answer.<br><br>If you take longer than 15 seconds, it will continue automatically<br>and record the answer as an error.</div><br>",0,ospan,instruct,UL9ZiyK8xyLvLK8s2Li5dsIndtU2,html-button-response,70,742019,0.0-46.0-1.0-0.0-1.0,,,,,,,,,,,,,,,614793a7be62637e6a2ccf3e,13:12:39,03/04/2024
5729.5,"<div class = 'left_align' style='font-size: 3.25rem; line-height: 1.3;'>It is <b>very</b> important that you make the symmetry judgment correctly.<br><br>It is also important that you try and judge the picture as quickly as you can.<br><br>When you are ready, click on the button below to try some practice problems.</div><br><br><br><br>",0,ospan,instruct,UL9ZiyK8xyLvLK8s2Li5dsIndtU2,html-button-response,71,748001,0.0-46.0-1.0-0.0-2.0,,,,,,,,,,,,,,,614793a7be62637e6a2ccf3e,13:12:39,03/04/2024
2984.0,,,ospan,symmetry,UL9ZiyK8xyLvLK8s2Li5dsIndtU2,symmetry-judgement-task,72,751787,0.0-46.0-1.0-1.0-0.0,,,,,,,,,,1.0,1.0,,,,614793a7be62637e6a2ccf3e,13:12:39,03/04/2024
,"<p style=""color:green; font-size: 35px"">Correct</p>",,ospan,feedback,UL9ZiyK8xyLvLK8s2Li5dsIndtU2,html-keyboard-response,73,752541,0.0-46.0-1.0-1.0-1.0,,,,,,,,,,,,,,,614793a7be62637e6a2ccf3e,13:12:39,03/04/2024
2006.0,,,ospan,symmetry,UL9ZiyK8xyLvLK8s2Li5dsIndtU2,symmetry-judgement-task,74,757153,0.0-46.0-1.0-1.0-2.0,,,,,,,,,,1.0,1.0,,,,614793a7be62637e6a2ccf3e,13:12:39,03/04/2024
,"<p style=""color:green; font-size: 35px"">Correct</p>",,ospan,feedback,UL9ZiyK8xyLvLK8s2Li5dsIndtU2,html-keyboard-response,75,757907,0.0-46.0-1.0-1.0-3.0,,,,,,,,,,,,,,,614793a7be62637e6a2ccf3e,13:12:39,03/04/2024
1442.0,,,ospan,symmetry,UL9ZiyK8xyLvLK8s2Li5dsIndtU2,symmetry-judgement-task,76,761969,0.0-46.0-1.0-1.0-4.0,,,,,,,,,,1.0,1.0,,,,614793a7be62637e6a2ccf3e,13:12:39,03/04/2024
,"<p style=""color:green; font-size: 35px"">Correct</p>",,ospan,feedback,UL9ZiyK8xyLvLK8s2Li5dsIndtU2,html-keyboard-response,77,762723,0.0-46.0-1.0-1.0-5.0,,,,,,,,,,,,,,,614793a7be62637e6a2ccf3e,13:12:39,03/04/2024
1327.9000000357628,"<p style=""font-size: 3rem;"">You responded correctly on 3 of 3 symmetry judgments. Good job!</p><br><br>",0,ospan,practice,UL9ZiyK8xyLvLK8s2Li5dsIndtU2,html-button-response,78,766055,0.0-46.0-1.0-2.0,,,,,,,,,,,,,,,614793a7be62637e6a2ccf3e,13:12:39,03/04/2024
23565.80000001192,"<div class = 'left_align' style='font-size: 3.25rem; line-height: 1.3;'>Now you will practice doing both parts of the experiment at the same time.<br><br>In the next practice set, you will be given one grid picture to judge.<br>Then letter will appear on the screen. Try to remember the letter.<br><br>It is <b>very important</b> to make the symmetry judgment as quickly and accurately as possible.<br><br>Just as before, once you have make the symmetry judgment, you can click Yes or No.<br><b>Note that you will no longer see Correct or Incorrect feedback.</div><br><br><br><br>",0,ospan,instruct,UL9ZiyK8xyLvLK8s2Li5dsIndtU2,html-button-response,79,789874,0.0-46.0-2.0-0.0-0.0,,,,,,,,,,,,,,,614793a7be62637e6a2ccf3e,13:12:39,03/04/2024
14916.300000011921,"<div class = 'left_align' style='font-size: 3.25rem; line-height: 1.3;'>After the letter goes away, another grid picture will appear, and then<br>another letter.<br><br>At the end of each set of letters and grids, you will recall the letters to the best<br>of your ability. Remember, try your best to get the letters in the correct order.<br><br>It is important to <b>quickly</b> and <b>accurately</b> make the symmetry judgments.</div><br><br><br><br>",0,ospan,instruct,UL9ZiyK8xyLvLK8s2Li5dsIndtU2,html-button-response,80,805045,0.0-46.0-2.0-0.0-1.0,,,,,,,,,,,,,,,614793a7be62637e6a2ccf3e,13:12:39,03/04/2024
14003.0,"<div class = 'left_align' style='font-size: 3.25rem; line-height: 1.3;'>On the feedback screen, if you are not doing well at the symmetry judgments,<br>you will also see a warning in the middle. This indicates your percent <br>correct for the grid pictures for the entire experiment.<br><br>It is <b>very</b> important for you to keep accuracy at least at 85%: <u>We can only use<br>data where the participant was at least 85% accurate on the judgments.</u> Therefore,<br> please try your best to perform well on the symmetry judgments, <b>at the same time</b><br>doing your best to recall as many letters as possible.<br><br>Click the button to try some practice problems.</div><br><br><br><br>",0,ospan,instruct,UL9ZiyK8xyLvLK8s2Li5dsIndtU2,html-button-response,81,819302,0.0-46.0-2.0-0.0-2.0,,,,,,,,,,,,,,,614793a7be62637e6a2ccf3e,13:12:39,03/04/2024
,"<p style=""font-size:75px;"">...</p>",,ospan,iti,UL9ZiyK8xyLvLK8s2Li5dsIndtU2,html-keyboard-response,82,820556,0.0-46.0-2.0-1.0-0.0,,,,,,,,,,,,,,,614793a7be62637e6a2ccf3e,13:12:39,03/04/2024
2099.0,,,ospan,symmetry,UL9ZiyK8xyLvLK8s2Li5dsIndtU2,symmetry-judgement-task,83,823771,0.0-46.0-2.0-1.0-1.0-0.0,,,,,,,,,,1.0,1.0,,,,614793a7be62637e6a2ccf3e,13:12:39,03/04/2024
,"<div style=""font-size: 10rem; color: #0000FF"">K</div>",,ospan,letter,UL9ZiyK8xyLvLK8s2Li5dsIndtU2,html-keyboard-response,84,824773,0.0-46.0-2.0-1.0-1.0-1.0,,,,,,,,,,,,,,,614793a7be62637e6a2ccf3e,13:12:39,03/04/2024
1716.0,,,ospan,symmetry,UL9ZiyK8xyLvLK8s2Li5dsIndtU2,symmetry-judgement-task,85,828354,0.0-46.0-2.0-1.0-1.0-2.0,,,,,,,,,,1.0,1.0,,,,614793a7be62637e6a2ccf3e,13:12:39,03/04/2024
,"<div style=""font-size: 10rem; color: #0000FF"">Y</div>",,ospan,letter,UL9ZiyK8xyLvLK8s2Li5dsIndtU2,html-keyboard-response,86,829357,0.0-46.0-2.0-1.0-1.0-3.0,,,,,,,,,,,,,,,614793a7be62637e6a2ccf3e,13:12:39,03/04/2024
1461.0,,,ospan,symmetry,UL9ZiyK8xyLvLK8s2Li5dsIndtU2,symmetry-judgement-task,87,832675,0.0-46.0-2.0-1.0-1.0-4.0,,,,,,,,,,1.0,1.0,,,,614793a7be62637e6a2ccf3e,13:12:39,03/04/2024
,"<div style=""font-size: 10rem; color: #0000FF"">C</div>",,ospan,letter,UL9ZiyK8xyLvLK8s2Li5dsIndtU2,html-keyboard-response,88,833678,0.0-46.0-2.0-1.0-1.0-5.0,,,,,,,,,,,,,,,614793a7be62637e6a2ccf3e,13:12:39,03/04/2024
6608.800000011921,"<div class = numbox><p style=""font-size: 2.4rem"">Please recall the letters you saw to the best of your ability. If you do not remember a particular letter, use the SKIP button.<br><b>(When you are ready to lock in your answer, press ENTER)</b></p><button id = button_1 class = ""square num-button"" onclick = ""recordClick(this)""><div class = content><div class = numbers>C</div></div></button><button id = button_2 class = ""square num-button"" onclick = ""recordClick(this)""><div class = content><div class = numbers>G</div></div></button><button id = button_3 class = ""square num-button"" onclick = ""recordClick(this)""><div class = content><div class = numbers>H</div></div></button><button id = button_4 class = ""square num-button"" onclick = ""recordClick(this)""><div class = content><div class = numbers>J</div></div></button><button id = button_5 class = ""square num-button"" onclick = ""recordClick(this)""><div class = content><div class = numbers>K</div></div></button><button id = button_6 class = ""square num-button"" onclick = ""recordClick(this)""><div class = content><div class = numbers>L</div></div></button><button id = button_7 class = ""square num-button"" onclick = ""recordClick(this)""><div class = content><div class = numbers>N</div></div></button><button id = button_8 class = ""square num-button"" onclick = ""recordClick(this)""><div class = content><div class = numbers>P</div></div></button><button id = button_9 class = ""square num-button"" onclick = ""recordClick(this)""><div class = content><div class = numbers>Q</div></div></button><button id = button_10 class = ""square num-button"" onclick = ""recordClick(this)""><div class = content><div class = numbers>R</div></div></button><button id = button_11 class = ""square num-button"" onclick = ""recordClick(this)""><div class = content><div class = numbers>S</div></div></button><button id = button_12 class = ""square num-button"" onclick = ""recordClick(this)""><div class = content><div class = numbers>Y</div></div></button><button class = clear_button id = ""ClearButton"" onclick = ""clearResponse()"">BACKSPACE</button><button class = blank_button id = ""BlankButton"" onclick = ""blankResponse()"">SKIP</button><p style=""font-size: 2.4rem""><u><b>Current Answer:</b></u></p><br><br><div id=echoed_txt style=""font-size: 5rem; color:blue;""><b></b></div></div>",enter,ospan,retrieval,UL9ZiyK8xyLvLK8s2Li5dsIndtU2,html-keyboard-response,89,841040,0.0-46.0-2.0-1.0-2.0-0.0,NA,NA,NA,3.0,"[""K"",""Y"",""C""]","[""K"",""Y"",""C""]",1.0,3.0,"['<font color=""green"">K</font>', '<font color=""green"">Y</font>', '<font color=""green"">C</font>']",,,,,,614793a7be62637e6a2ccf3e,13:12:39,03/04/2024
1709.2000000476837,"['<p style=""font-size:44px"">Letters:<br><br><br><font color=""green"">K</font> <font color=""green"">Y</font> <font color=""green"">C</font></p><br><br><p style=""font-size:30px"">Symmetry:<br><br><font color=""green"">100%</font></p><br><br>']",0,ospan,practice_feedback,UL9ZiyK8xyLvLK8s2Li5dsIndtU2,html-button-response,90,843253,0.0-46.0-2.0-1.0-2.0-1.0,,,,,,,,,,,,,,,614793a7be62637e6a2ccf3e,13:12:39,03/04/2024
,"<p style=""font-size:75px;"">...</p>",,ospan,iti,UL9ZiyK8xyLvLK8s2Li5dsIndtU2,html-keyboard-response,91,844257,0.0-46.0-2.0-2.0-0.0,,,,,,,,,,,,,,,614793a7be62637e6a2ccf3e,13:12:39,03/04/2024
1619.0,,,ospan,symmetry,UL9ZiyK8xyLvLK8s2Li5dsIndtU2,symmetry-judgement-task,92,846990,0.0-46.0-2.0-2.0-1.0-0.0,,,,,,,,,,1.0,1.0,,,,614793a7be62637e6a2ccf3e,13:12:39,03/04/2024
,"<div style=""font-size: 10rem; color: #0000FF"">K</div>",,ospan,letter,UL9ZiyK8xyLvLK8s2Li5dsIndtU2,html-keyboard-response,93,847992,0.0-46.0-2.0-2.0-1.0-1.0,,,,,,,,,,,,,,,614793a7be62637e6a2ccf3e,13:12:39,03/04/2024
1329.0,,,ospan,symmetry,UL9ZiyK8xyLvLK8s2Li5dsIndtU2,symmetry-judgement-task,94,851188,0.0-46.0-2.0-2.0-1.0-2.0,,,,,,,,,,1.0,1.0,,,,614793a7be62637e6a2ccf3e,13:12:39,03/04/2024
,"<div style=""font-size: 10rem; color: #0000FF"">Y</div>",,ospan,letter,UL9ZiyK8xyLvLK8s2Li5dsIndtU2,html-keyboard-response,95,852190,0.0-46.0-2.0-2.0-1.0-3.0,,,,,,,,,,,,,,,614793a7be62637e6a2ccf3e,13:12:39,03/04/2024
1651.0,,,ospan,symmetry,UL9ZiyK8xyLvLK8s2Li5dsIndtU2,symmetry-judgement-task,96,855704,0.0-46.0-2.0-2.0-1.0-4.0,,,,,,,,,,1.0,1.0,,,,614793a7be62637e6a2ccf3e,13:12:39,03/04/2024
,"<div style=""font-size: 10rem; color: #0000FF"">G</div>",,ospan,letter,UL9ZiyK8xyLvLK8s2Li5dsIndtU2,html-keyboard-response,97,856708,0.0-46.0-2.0-2.0-1.0-5.0,,,,,,,,,,,,,,,614793a7be62637e6a2ccf3e,13:12:39,03/04/2024
5214.0,"<div class = numbox><p style=""font-size: 2.4rem"">Please recall the letters you saw to the best of your ability. If you do not remember a particular letter, use the SKIP button.<br><b>(When you are ready to lock in your answer, press ENTER)</b></p><button id = button_1 class = ""square num-button"" onclick = ""recordClick(this)""><div class = content><div class = numbers>C</div></div></button><button id = button_2 class = ""square num-button"" onclick = ""recordClick(this)""><div class = content><div class = numbers>G</div></div></button><button id = button_3 class = ""square num-button"" onclick = ""recordClick(this)""><div class = content><div class = numbers>H</div></div></button><button id = button_4 class = ""square num-button"" onclick = ""recordClick(this)""><div class = content><div class = numbers>J</div></div></button><button id = button_5 class = ""square num-button"" onclick = ""recordClick(this)""><div class = content><div class = numbers>K</div></div></button><button id = button_6 class = ""square num-button"" onclick = ""recordClick(this)""><div class = content><div class = numbers>L</div></div></button><button id = button_7 class = ""square num-button"" onclick = ""recordClick(this)""><div class = content><div class = numbers>N</div></div></button><button id = button_8 class = ""square num-button"" onclick = ""recordClick(this)""><div class = content><div class = numbers>P</div></div></button><button id = button_9 class = ""square num-button"" onclick = ""recordClick(this)""><div class = content><div class = numbers>Q</div></div></button><button id = button_10 class = ""square num-button"" onclick = ""recordClick(this)""><div class = content><div class = numbers>R</div></div></button><button id = button_11 class = ""square num-button"" onclick = ""recordClick(this)""><div class = content><div class = numbers>S</div></div></button><button id = button_12 class = ""square num-button"" onclick = ""recordClick(this)""><div class = content><div class = numbers>Y</div></div></button><button class = clear_button id = ""ClearButton"" onclick = ""clearResponse()"">BACKSPACE</button><button class = blank_button id = ""BlankButton"" onclick = ""blankResponse()"">SKIP</button><p style=""font-size: 2.4rem""><u><b>Current Answer:</b></u></p><br><br><div id=echoed_txt style=""font-size: 5rem; color:blue;""><b></b></div></div>",enter,ospan,retrieval,UL9ZiyK8xyLvLK8s2Li5dsIndtU2,html-keyboard-response,98,862675,0.0-46.0-2.0-2.0-2.0-0.0,NA,NA,NA,3.0,"[""K"",""Y"",""G""]","[""K"",""Y"",""G""]",1.0,3.0,"['<font color=""green"">K</font>', '<font color=""green"">Y</font>', '<font color=""green"">G</font>']",,,,,,614793a7be62637e6a2ccf3e,13:12:39,03/04/2024
1706.800000011921,"['<p style=""font-size:44px"">Letters:<br><br><br><font color=""green"">K</font> <font color=""green"">Y</font> <font color=""green"">G</font></p><br><br><p style=""font-size:30px"">Symmetry:<br><br><font color=""green"">100%</font></p><br><br>']",0,ospan,practice_feedback,UL9ZiyK8xyLvLK8s2Li5dsIndtU2,html-button-response,99,864886,0.0-46.0-2.0-2.0-2.0-1.0,,,,,,,,,,,,,,,614793a7be62637e6a2ccf3e,13:12:39,03/04/2024
26173.0,"<div class = 'left_align' style='font-size: 3rem; line-height: 1.3;'><b>Great work! That is the end of practice.</b><br><br>The real trials will look just like the practice trials you just completed.<br><br><u>Here, you will not see feedback</u>. First, you will see an grid picture to judge,<br>then a letter to remember. When the recall screen appears, report the letters in the<br>order presented. If you forget a letter, remember to use the <b>blank</b> button to move to the<br>next letter. Some of the sets will have more symmetry grids and letters than others.<br><br>It is important that you do your best on both the symmetry judgments and the letter recall<br>parts of the experiment. For for the symmetry judgments, try to work as <b>quickly</b> and <br>as <b>accurately</b> as possible. Remember to keep your symmetry accuracy at 85% or above.<br><br><b>For the letters, do NOT use any external aid (e.g., writing on paper, electronic device).</b><br><br>It is <u>very important</u> to our experiment to have a <b>true</b> view of your real performance.<br><br>Do not worry if you miss some when it gets hard! This task is meant to be very challenging!<br><br>Click the button to begin.</div><br><br><br><br>",0,ospan,starting_real_here,UL9ZiyK8xyLvLK8s2Li5dsIndtU2,html-button-response,100,891063,0.0-46.0-2.0-3.0,,,,,,,,,,,,,,,614793a7be62637e6a2ccf3e,13:12:39,03/04/2024
,"<p style=""font-size:75px;"">...</p>",,ospan,iti,UL9ZiyK8xyLvLK8s2Li5dsIndtU2,html-keyboard-response,101,892323,0.0-46.0-3.0-0.0-0.0,,,,,,,,,,,,,,,614793a7be62637e6a2ccf3e,13:12:39,03/04/2024
1566.0,,,ospan,symmetry,UL9ZiyK8xyLvLK8s2Li5dsIndtU2,symmetry-judgement-task,102,895006,0.0-46.0-3.0-0.0-1.0-0.0,,,,,,,,,,1.0,1.0,,,,614793a7be62637e6a2ccf3e,13:12:39,03/04/2024
,"<div style=""font-size: 10rem; color: #0000FF"">L</div>",,ospan,letter,UL9ZiyK8xyLvLK8s2Li5dsIndtU2,html-keyboard-response,103,896009,0.0-46.0-3.0-0.0-1.0-1.0,,,,,,,,,,,,,,,614793a7be62637e6a2ccf3e,13:12:39,03/04/2024
1317.0,,,ospan,symmetry,UL9ZiyK8xyLvLK8s2Li5dsIndtU2,symmetry-judgement-task,104,899188,0.0-46.0-3.0-0.0-1.0-2.0,,,,,,,,,,1.0,1.0,,,,614793a7be62637e6a2ccf3e,13:12:39,03/04/2024
,"<div style=""font-size: 10rem; color: #0000FF"">P</div>",,ospan,letter,UL9ZiyK8xyLvLK8s2Li5dsIndtU2,html-keyboard-response,105,900190,0.0-46.0-3.0-0.0-1.0-3.0,,,,,,,,,,,,,,,614793a7be62637e6a2ccf3e,13:12:39,03/04/2024
1346.0,,,ospan,symmetry,UL9ZiyK8xyLvLK8s2Li5dsIndtU2,symmetry-judgement-task,106,903405,0.0-46.0-3.0-0.0-1.0-4.0,,,,,,,,,,1.0,1.0,,,,614793a7be62637e6a2ccf3e,13:12:39,03/04/2024
,"<div style=""font-size: 10rem; color: #0000FF"">R</div>",,ospan,letter,UL9ZiyK8xyLvLK8s2Li5dsIndtU2,html-keyboard-response,107,904408,0.0-46.0-3.0-0.0-1.0-5.0,,,,,,,,,,,,,,,614793a7be62637e6a2ccf3e,13:12:39,03/04/2024
3824.400000035763,"<div class = numbox><p style=""font-size: 2.4rem"">Please recall the letters you saw to the best of your ability. If you do not remember a particular letter, use the SKIP button.<br><b>(When you are ready to lock in your answer, press ENTER)</b></p><button id = button_1 class = ""square num-button"" onclick = ""recordClick(this)""><div class = content><div class = numbers>C</div></div></button><button id = button_2 class = ""square num-button"" onclick = ""recordClick(this)""><div class = content><div class = numbers>G</div></div></button><button id = button_3 class = ""square num-button"" onclick = ""recordClick(this)""><div class = content><div class = numbers>H</div></div></button><button id = button_4 class = ""square num-button"" onclick = ""recordClick(this)""><div class = content><div class = numbers>J</div></div></button><button id = button_5 class = ""square num-button"" onclick = ""recordClick(this)""><div class = content><div class = numbers>K</div></div></button><button id = button_6 class = ""square num-button"" onclick = ""recordClick(this)""><div class = content><div class = numbers>L</div></div></button><button id = button_7 class = ""square num-button"" onclick = ""recordClick(this)""><div class = content><div class = numbers>N</div></div></button><button id = button_8 class = ""square num-button"" onclick = ""recordClick(this)""><div class = content><div class = numbers>P</div></div></button><button id = button_9 class = ""square num-button"" onclick = ""recordClick(this)""><div class = content><div class = numbers>Q</div></div></button><button id = button_10 class = ""square num-button"" onclick = ""recordClick(this)""><div class = content><div class = numbers>R</div></div></button><button id = button_11 class = ""square num-button"" onclick = ""recordClick(this)""><div class = content><div class = numbers>S</div></div></button><button id = button_12 class = ""square num-button"" onclick = ""recordClick(this)""><div class = content><div class = numbers>Y</div></div></button><button class = clear_button id = ""ClearButton"" onclick = ""clearResponse()"">BACKSPACE</button><button class = blank_button id = ""BlankButton"" onclick = ""blankResponse()"">SKIP</button><p style=""font-size: 2.4rem""><u><b>Current Answer:</b></u></p><br><br><div id=echoed_txt style=""font-size: 5rem; color:blue;""><b></b></div></div>",enter,ospan,retrieval,UL9ZiyK8xyLvLK8s2Li5dsIndtU2,html-keyboard-response,108,908986,0.0-46.0-3.0-0.0-2.0,3,3,3,3.0,"[""L"",""P"",""R""]","[""L"",""P"",""R""]",1.0,3.0,,,,,,,614793a7be62637e6a2ccf3e,13:12:39,03/04/2024
1216.199999988079,[''],0,ospan,feedback,UL9ZiyK8xyLvLK8s2Li5dsIndtU2,html-button-response,109,910705,0.0-46.0-3.0-0.0-3.0,,,,,,,,,,,,100.0,0.0,,614793a7be62637e6a2ccf3e,13:12:39,03/04/2024
,"<p style=""font-size:75px;"">...</p>",,ospan,iti,UL9ZiyK8xyLvLK8s2Li5dsIndtU2,html-keyboard-response,110,911709,0.0-46.0-4.0-0.0-0.0,,,,,,,,,,,,,,,614793a7be62637e6a2ccf3e,13:12:39,03/04/2024
1332.0,,,ospan,symmetry,UL9ZiyK8xyLvLK8s2Li5dsIndtU2,symmetry-judgement-task,111,914155,0.0-46.0-4.0-0.0-1.0-0.0,,,,,,,,,,1.0,1.0,,,,614793a7be62637e6a2ccf3e,13:12:39,03/04/2024
,"<div style=""font-size: 10rem; color: #0000FF"">K</div>",,ospan,letter,UL9ZiyK8xyLvLK8s2Li5dsIndtU2,html-keyboard-response,112,915158,0.0-46.0-4.0-0.0-1.0-1.0,,,,,,,,,,,,,,,614793a7be62637e6a2ccf3e,13:12:39,03/04/2024
1163.0,,,ospan,symmetry,UL9ZiyK8xyLvLK8s2Li5dsIndtU2,symmetry-judgement-task,113,918188,0.0-46.0-4.0-0.0-1.0-2.0,,,,,,,,,,1.0,1.0,,,,614793a7be62637e6a2ccf3e,13:12:39,03/04/2024
,"<div style=""font-size: 10rem; color: #0000FF"">Q</div>",,ospan,letter,UL9ZiyK8xyLvLK8s2Li5dsIndtU2,html-keyboard-response,114,919190,0.0-46.0-4.0-0.0-1.0-3.0,,,,,,,,,,,,,,,614793a7be62637e6a2ccf3e,13:12:39,03/04/2024
1144.0,,,ospan,symmetry,UL9ZiyK8xyLvLK8s2Li5dsIndtU2,symmetry-judgement-task,115,922205,0.0-46.0-4.0-0.0-1.0-4.0,,,,,,,,,,1.0,1.0,,,,614793a7be62637e6a2ccf3e,13:12:39,03/04/2024
,"<div style=""font-size: 10rem; color: #0000FF"">S</div>",,ospan,letter,UL9ZiyK8xyLvLK8s2Li5dsIndtU2,html-keyboard-response,116,923208,0.0-46.0-4.0-0.0-1.0-5.0,,,,,,,,,,,,,,,614793a7be62637e6a2ccf3e,13:12:39,03/04/2024
1518.0,,,ospan,symmetry,UL9ZiyK8xyLvLK8s2Li5dsIndtU2,symmetry-judgement-task,117,926587,0.0-46.0-4.0-0.0-1.0-6.0,,,,,,,,,,1.0,1.0,,,,614793a7be62637e6a2ccf3e,13:12:39,03/04/2024
,"<div style=""font-size: 10rem; color: #0000FF"">Y</div>",,ospan,letter,UL9ZiyK8xyLvLK8s2Li5dsIndtU2,html-keyboard-response,118,927590,0.0-46.0-4.0-0.0-1.0-7.0,,,,,,,,,,,,,,,614793a7be62637e6a2ccf3e,13:12:39,03/04/2024
5135.599999964237,"<div class = numbox><p style=""font-size: 2.4rem"">Please recall the letters you saw to the best of your ability. If you do not remember a particular letter, use the SKIP button.<br><b>(When you are ready to lock in your answer, press ENTER)</b></p><button id = button_1 class = ""square num-button"" onclick = ""recordClick(this)""><div class = content><div class = numbers>C</div></div></button><button id = button_2 class = ""square num-button"" onclick = ""recordClick(this)""><div class = content><div class = numbers>G</div></div></button><button id = button_3 class = ""square num-button"" onclick = ""recordClick(this)""><div class = content><div class = numbers>H</div></div></button><button id = button_4 class = ""square num-button"" onclick = ""recordClick(this)""><div class = content><div class = numbers>J</div></div></button><button id = button_5 class = ""square num-button"" onclick = ""recordClick(this)""><div class = content><div class = numbers>K</div></div></button><button id = button_6 class = ""square num-button"" onclick = ""recordClick(this)""><div class = content><div class = numbers>L</div></div></button><button id = button_7 class = ""square num-button"" onclick = ""recordClick(this)""><div class = content><div class = numbers>N</div></div></button><button id = button_8 class = ""square num-button"" onclick = ""recordClick(this)""><div class = content><div class = numbers>P</div></div></button><button id = button_9 class = ""square num-button"" onclick = ""recordClick(this)""><div class = content><div class = numbers>Q</div></div></button><button id = button_10 class = ""square num-button"" onclick = ""recordClick(this)""><div class = content><div class = numbers>R</div></div></button><button id = button_11 class = ""square num-button"" onclick = ""recordClick(this)""><div class = content><div class = numbers>S</div></div></button><button id = button_12 class = ""square num-button"" onclick = ""recordClick(this)""><div class = content><div class = numbers>Y</div></div></button><button class = clear_button id = ""ClearButton"" onclick = ""clearResponse()"">BACKSPACE</button><button class = blank_button id = ""BlankButton"" onclick = ""blankResponse()"">SKIP</button><p style=""font-size: 2.4rem""><u><b>Current Answer:</b></u></p><br><br><div id=echoed_txt style=""font-size: 5rem; color:blue;""><b></b></div></div>",enter,ospan,retrieval,UL9ZiyK8xyLvLK8s2Li5dsIndtU2,html-keyboard-response,119,933479,0.0-46.0-4.0-0.0-2.0,7,7,7,4.0,"[""K"",""Q"",""S"",""Y""]","[""K"",""Q"",""S"",""Y""]",1.0,4.0,,,,,,,614793a7be62637e6a2ccf3e,13:12:39,03/04/2024
1223.5,[''],0,ospan,feedback,UL9ZiyK8xyLvLK8s2Li5dsIndtU2,html-button-response,120,935205,0.0-46.0-4.0-0.0-3.0,,,,,,,,,,,,100.0,0.0,,614793a7be62637e6a2ccf3e,13:12:39,03/04/2024
,"<p style=""font-size:75px;"">...</p>",,ospan,iti,UL9ZiyK8xyLvLK8s2Li5dsIndtU2,html-keyboard-response,121,936209,0.0-46.0-4.0-1.0-0.0,,,,,,,,,,,,,,,614793a7be62637e6a2ccf3e,13:12:39,03/04/2024
1340.0,,,ospan,symmetry,UL9ZiyK8xyLvLK8s2Li5dsIndtU2,symmetry-judgement-task,122,938590,0.0-46.0-4.0-1.0-1.0-0.0,,,,,,,,,,1.0,1.0,,,,614793a7be62637e6a2ccf3e,13:12:39,03/04/2024
,"<div style=""font-size: 10rem; color: #0000FF"">H</div>",,ospan,letter,UL9ZiyK8xyLvLK8s2Li5dsIndtU2,html-keyboard-response,123,939593,0.0-46.0-4.0-1.0-1.0-1.0,,,,,,,,,,,,,,,614793a7be62637e6a2ccf3e,13:12:39,03/04/2024
1396.0,,,ospan,symmetry,UL9ZiyK8xyLvLK8s2Li5dsIndtU2,symmetry-judgement-task,124,942855,0.0-46.0-4.0-1.0-1.0-2.0,,,,,,,,,,1.0,1.0,,,,614793a7be62637e6a2ccf3e,13:12:39,03/04/2024
,"<div style=""font-size: 10rem; color: #0000FF"">P</div>",,ospan,letter,UL9ZiyK8xyLvLK8s2Li5dsIndtU2,html-keyboard-response,125,943859,0.0-46.0-4.0-1.0-1.0-3.0,,,,,,,,,,,,,,,614793a7be62637e6a2ccf3e,13:12:39,03/04/2024
1416.0,,,ospan,symmetry,UL9ZiyK8xyLvLK8s2Li5dsIndtU2,symmetry-judgement-task,126,947139,0.0-46.0-4.0-1.0-1.0-4.0,,,,,,,,,,1.0,1.0,,,,614793a7be62637e6a2ccf3e,13:12:39,03/04/2024
,"<div style=""font-size: 10rem; color: #0000FF"">K</div>",,ospan,letter,UL9ZiyK8xyLvLK8s2Li5dsIndtU2,html-keyboard-response,127,948142,0.0-46.0-4.0-1.0-1.0-5.0,,,,,,,,,,,,,,,614793a7be62637e6a2ccf3e,13:12:39,03/04/2024
1194.0,,,ospan,symmetry,UL9ZiyK8xyLvLK8s2Li5dsIndtU2,symmetry-judgement-task,128,951206,0.0-46.0-4.0-1.0-1.0-6.0,,,,,,,,,,1.0,1.0,,,,614793a7be62637e6a2ccf3e,13:12:39,03/04/2024
,"<div style=""font-size: 10rem; color: #0000FF"">J</div>",,ospan,letter,UL9ZiyK8xyLvLK8s2Li5dsIndtU2,html-keyboard-response,129,952209,0.0-46.0-4.0-1.0-1.0-7.0,,,,,,,,,,,,,,,614793a7be62637e6a2ccf3e,13:12:39,03/04/2024
794.0,,,ospan,symmetry,UL9ZiyK8xyLvLK8s2Li5dsIndtU2,symmetry-judgement-task,130,954874,0.0-46.0-4.0-1.0-1.0-8.0,,,,,,,,,,1.0,1.0,,,,614793a7be62637e6a2ccf3e,13:12:39,03/04/2024
,"<div style=""font-size: 10rem; color: #0000FF"">Q</div>",,ospan,letter,UL9ZiyK8xyLvLK8s2Li5dsIndtU2,html-keyboard-response,131,955877,0.0-46.0-4.0-1.0-1.0-9.0,,,,,,,,,,,,,,,614793a7be62637e6a2ccf3e,13:12:39,03/04/2024
6243.300000011921,"<div class = numbox><p style=""font-size: 2.4rem"">Please recall the letters you saw to the best of your ability. If you do not remember a particular letter, use the SKIP button.<br><b>(When you are ready to lock in your answer, press ENTER)</b></p><button id = button_1 class = ""square num-button"" onclick = ""recordClick(this)""><div class = content><div class = numbers>C</div></div></button><button id = button_2 class = ""square num-button"" onclick = ""recordClick(this)""><div class = content><div class = numbers>G</div></div></button><button id = button_3 class = ""square num-button"" onclick = ""recordClick(this)""><div class = content><div class = numbers>H</div></div></button><button id = button_4 class = ""square num-button"" onclick = ""recordClick(this)""><div class = content><div class = numbers>J</div></div></button><button id = button_5 class = ""square num-button"" onclick = ""recordClick(this)""><div class = content><div class = numbers>K</div></div></button><button id = button_6 class = ""square num-button"" onclick = ""recordClick(this)""><div class = content><div class = numbers>L</div></div></button><button id = button_7 class = ""square num-button"" onclick = ""recordClick(this)""><div class = content><div class = numbers>N</div></div></button><button id = button_8 class = ""square num-button"" onclick = ""recordClick(this)""><div class = content><div class = numbers>P</div></div></button><button id = button_9 class = ""square num-button"" onclick = ""recordClick(this)""><div class = content><div class = numbers>Q</div></div></button><button id = button_10 class = ""square num-button"" onclick = ""recordClick(this)""><div class = content><div class = numbers>R</div></div></button><button id = button_11 class = ""square num-button"" onclick = ""recordClick(this)""><div class = content><div class = numbers>S</div></div></button><button id = button_12 class = ""square num-button"" onclick = ""recordClick(this)""><div class = content><div class = numbers>Y</div></div></button><button class = clear_button id = ""ClearButton"" onclick = ""clearResponse()"">BACKSPACE</button><button class = blank_button id = ""BlankButton"" onclick = ""blankResponse()"">SKIP</button><p style=""font-size: 2.4rem""><u><b>Current Answer:</b></u></p><br><br><div id=echoed_txt style=""font-size: 5rem; color:blue;""><b></b></div></div>",enter,ospan,retrieval,UL9ZiyK8xyLvLK8s2Li5dsIndtU2,html-keyboard-response,132,962874,0.0-46.0-4.0-1.0-2.0,12,12,12,5.0,"[""H"",""P"",""K"",""J"",""Q""]","[""H"",""P"",""K"",""J"",""Q""]",1.0,5.0,,,,,,,614793a7be62637e6a2ccf3e,13:12:39,03/04/2024
1492.199999988079,[''],0,ospan,feedback,UL9ZiyK8xyLvLK8s2Li5dsIndtU2,html-button-response,133,964869,0.0-46.0-4.0-1.0-3.0,,,,,,,,,,,,100.0,0.0,,614793a7be62637e6a2ccf3e,13:12:39,03/04/2024
,"<p style=""font-size:75px;"">...</p>",,ospan,iti,UL9ZiyK8xyLvLK8s2Li5dsIndtU2,html-keyboard-response,134,965873,0.0-46.0-4.0-2.0-0.0,,,,,,,,,,,,,,,614793a7be62637e6a2ccf3e,13:12:39,03/04/2024
1452.0,,,ospan,symmetry,UL9ZiyK8xyLvLK8s2Li5dsIndtU2,symmetry-judgement-task,135,968374,0.0-46.0-4.0-2.0-1.0-0.0,,,,,,,,,,1.0,1.0,,,,614793a7be62637e6a2ccf3e,13:12:39,03/04/2024
,"<div style=""font-size: 10rem; color: #0000FF"">K</div>",,ospan,letter,UL9ZiyK8xyLvLK8s2Li5dsIndtU2,html-keyboard-response,136,969377,0.0-46.0-4.0-2.0-1.0-1.0,,,,,,,,,,,,,,,614793a7be62637e6a2ccf3e,13:12:39,03/04/2024
897.0,,,ospan,symmetry,UL9ZiyK8xyLvLK8s2Li5dsIndtU2,symmetry-judgement-task,137,972140,0.0-46.0-4.0-2.0-1.0-2.0,,,,,,,,,,1.0,1.0,,,,614793a7be62637e6a2ccf3e,13:12:39,03/04/2024
,"<div style=""font-size: 10rem; color: #0000FF"">S</div>",,ospan,letter,UL9ZiyK8xyLvLK8s2Li5dsIndtU2,html-keyboard-response,138,973146,0.0-46.0-4.0-2.0-1.0-3.0,,,,,,,,,,,,,,,614793a7be62637e6a2ccf3e,13:12:39,03/04/2024
1524.0,,,ospan,symmetry,UL9ZiyK8xyLvLK8s2Li5dsIndtU2,symmetry-judgement-task,139,976540,0.0-46.0-4.0-2.0-1.0-4.0,,,,,,,,,,1.0,1.0,,,,614793a7be62637e6a2ccf3e,13:12:39,03/04/2024
,"<div style=""font-size: 10rem; color: #0000FF"">Y</div>",,ospan,letter,UL9ZiyK8xyLvLK8s2Li5dsIndtU2,html-keyboard-response,140,977543,0.0-46.0-4.0-2.0-1.0-5.0,,,,,,,,,,,,,,,614793a7be62637e6a2ccf3e,13:12:39,03/04/2024
3735.099999964237,"<div class = numbox><p style=""font-size: 2.4rem"">Please recall the letters you saw to the best of your ability. If you do not remember a particular letter, use the SKIP button.<br><b>(When you are ready to lock in your answer, press ENTER)</b></p><button id = button_1 class = ""square num-button"" onclick = ""recordClick(this)""><div class = content><div class = numbers>C</div></div></button><button id = button_2 class = ""square num-button"" onclick = ""recordClick(this)""><div class = content><div class = numbers>G</div></div></button><button id = button_3 class = ""square num-button"" onclick = ""recordClick(this)""><div class = content><div class = numbers>H</div></div></button><button id = button_4 class = ""square num-button"" onclick = ""recordClick(this)""><div class = content><div class = numbers>J</div></div></button><button id = button_5 class = ""square num-button"" onclick = ""recordClick(this)""><div class = content><div class = numbers>K</div></div></button><button id = button_6 class = ""square num-button"" onclick = ""recordClick(this)""><div class = content><div class = numbers>L</div></div></button><button id = button_7 class = ""square num-button"" onclick = ""recordClick(this)""><div class = content><div class = numbers>N</div></div></button><button id = button_8 class = ""square num-button"" onclick = ""recordClick(this)""><div class = content><div class = numbers>P</div></div></button><button id = button_9 class = ""square num-button"" onclick = ""recordClick(this)""><div class = content><div class = numbers>Q</div></div></button><button id = button_10 class = ""square num-button"" onclick = ""recordClick(this)""><div class = content><div class = numbers>R</div></div></button><button id = button_11 class = ""square num-button"" onclick = ""recordClick(this)""><div class = content><div class = numbers>S</div></div></button><button id = button_12 class = ""square num-button"" onclick = ""recordClick(this)""><div class = content><div class = numbers>Y</div></div></button><button class = clear_button id = ""ClearButton"" onclick = ""clearResponse()"">BACKSPACE</button><button class = blank_button id = ""BlankButton"" onclick = ""blankResponse()"">SKIP</button><p style=""font-size: 2.4rem""><u><b>Current Answer:</b></u></p><br><br><div id=echoed_txt style=""font-size: 5rem; color:blue;""><b></b></div></div>",enter,ospan,retrieval,UL9ZiyK8xyLvLK8s2Li5dsIndtU2,html-keyboard-response,141,982032,0.0-46.0-4.0-2.0-2.0,15,15,15,3.0,"[""K"",""S"",""Y""]","[""K"",""S"",""Y""]",1.0,3.0,,,,,,,614793a7be62637e6a2ccf3e,13:12:39,03/04/2024
1136.300000011921,[''],0,ospan,feedback,UL9ZiyK8xyLvLK8s2Li5dsIndtU2,html-button-response,142,983670,0.0-46.0-4.0-2.0-3.0,,,,,,,,,,,,100.0,0.0,,614793a7be62637e6a2ccf3e,13:12:39,03/04/2024
,"<p style=""font-size:75px;"">...</p>",,ospan,iti,UL9ZiyK8xyLvLK8s2Li5dsIndtU2,html-keyboard-response,143,984674,0.0-46.0-5.0-0.0-0.0,,,,,,,,,,,,,,,614793a7be62637e6a2ccf3e,13:12:39,03/04/2024
1702.0,,,ospan,symmetry,UL9ZiyK8xyLvLK8s2Li5dsIndtU2,symmetry-judgement-task,144,987492,0.0-46.0-5.0-0.0-1.0-0.0,,,,,,,,,,1.0,1.0,,,,614793a7be62637e6a2ccf3e,13:12:39,03/04/2024
,"<div style=""font-size: 10rem; color: #0000FF"">J</div>",,ospan,letter,UL9ZiyK8xyLvLK8s2Li5dsIndtU2,html-keyboard-response,145,988495,0.0-46.0-5.0-0.0-1.0-1.0,,,,,,,,,,,,,,,614793a7be62637e6a2ccf3e,13:12:39,03/04/2024
1280.0,,,ospan,symmetry,UL9ZiyK8xyLvLK8s2Li5dsIndtU2,symmetry-judgement-task,146,991638,0.0-46.0-5.0-0.0-1.0-2.0,,,,,,,,,,1.0,1.0,,,,614793a7be62637e6a2ccf3e,13:12:39,03/04/2024
,"<div style=""font-size: 10rem; color: #0000FF"">K</div>",,ospan,letter,UL9ZiyK8xyLvLK8s2Li5dsIndtU2,html-keyboard-response,147,992641,0.0-46.0-5.0-0.0-1.0-3.0,,,,,,,,,,,,,,,614793a7be62637e6a2ccf3e,13:12:39,03/04/2024
1913.0,,,ospan,symmetry,UL9ZiyK8xyLvLK8s2Li5dsIndtU2,symmetry-judgement-task,148,996423,0.0-46.0-5.0-0.0-1.0-4.0,,,,,,,,,,1.0,1.0,,,,614793a7be62637e6a2ccf3e,13:12:39,03/04/2024
,"<div style=""font-size: 10rem; color: #0000FF"">H</div>",,ospan,letter,UL9ZiyK8xyLvLK8s2Li5dsIndtU2,html-keyboard-response,149,997426,0.0-46.0-5.0-0.0-1.0-5.0,,,,,,,,,,,,,,,614793a7be62637e6a2ccf3e,13:12:39,03/04/2024
2797.0,,,ospan,symmetry,UL9ZiyK8xyLvLK8s2Li5dsIndtU2,symmetry-judgement-task,150,1002091,0.0-46.0-5.0-0.0-1.0-6.0,,,,,,,,,,1.0,1.0,,,,614793a7be62637e6a2ccf3e,13:12:39,03/04/2024
,"<div style=""font-size: 10rem; color: #0000FF"">N</div>",,ospan,letter,UL9ZiyK8xyLvLK8s2Li5dsIndtU2,html-keyboard-response,151,1003094,0.0-46.0-5.0-0.0-1.0-7.0,,,,,,,,,,,,,,,614793a7be62637e6a2ccf3e,13:12:39,03/04/2024
1428.0,,,ospan,symmetry,UL9ZiyK8xyLvLK8s2Li5dsIndtU2,symmetry-judgement-task,152,1006389,0.0-46.0-5.0-0.0-1.0-8.0,,,,,,,,,,1.0,1.0,,,,614793a7be62637e6a2ccf3e,13:12:39,03/04/2024
,"<div style=""font-size: 10rem; color: #0000FF"">G</div>",,ospan,letter,UL9ZiyK8xyLvLK8s2Li5dsIndtU2,html-keyboard-response,153,1007392,0.0-46.0-5.0-0.0-1.0-9.0,,,,,,,,,,,,,,,614793a7be62637e6a2ccf3e,13:12:39,03/04/2024
1228.0,,,ospan,symmetry,UL9ZiyK8xyLvLK8s2Li5dsIndtU2,symmetry-judgement-task,154,1010489,0.0-46.0-5.0-0.0-1.0-10.0,,,,,,,,,,1.0,1.0,,,,614793a7be62637e6a2ccf3e,13:12:39,03/04/2024
,"<div style=""font-size: 10rem; color: #0000FF"">L</div>",,ospan,letter,UL9ZiyK8xyLvLK8s2Li5dsIndtU2,html-keyboard-response,155,1011492,0.0-46.0-5.0-0.0-1.0-11.0,,,,,,,,,,,,,,,614793a7be62637e6a2ccf3e,13:12:39,03/04/2024
22793.600000023842,"<div class = numbox><p style=""font-size: 2.4rem"">Please recall the letters you saw to the best of your ability. If you do not remember a particular letter, use the SKIP button.<br><b>(When you are ready to lock in your answer, press ENTER)</b></p><button id = button_1 class = ""square num-button"" onclick = ""recordClick(this)""><div class = content><div class = numbers>C</div></div></button><button id = button_2 class = ""square num-button"" onclick = ""recordClick(this)""><div class = content><div class = numbers>G</div></div></button><button id = button_3 class = ""square num-button"" onclick = ""recordClick(this)""><div class = content><div class = numbers>H</div></div></button><button id = button_4 class = ""square num-button"" onclick = ""recordClick(this)""><div class = content><div class = numbers>J</div></div></button><button id = button_5 class = ""square num-button"" onclick = ""recordClick(this)""><div class = content><div class = numbers>K</div></div></button><button id = button_6 class = ""square num-button"" onclick = ""recordClick(this)""><div class = content><div class = numbers>L</div></div></button><button id = button_7 class = ""square num-button"" onclick = ""recordClick(this)""><div class = content><div class = numbers>N</div></div></button><button id = button_8 class = ""square num-button"" onclick = ""recordClick(this)""><div class = content><div class = numbers>P</div></div></button><button id = button_9 class = ""square num-button"" onclick = ""recordClick(this)""><div class = content><div class = numbers>Q</div></div></button><button id = button_10 class = ""square num-button"" onclick = ""recordClick(this)""><div class = content><div class = numbers>R</div></div></button><button id = button_11 class = ""square num-button"" onclick = ""recordClick(this)""><div class = content><div class = numbers>S</div></div></button><button id = button_12 class = ""square num-button"" onclick = ""recordClick(this)""><div class = content><div class = numbers>Y</div></div></button><button class = clear_button id = ""ClearButton"" onclick = ""clearResponse()"">BACKSPACE</button><button class = blank_button id = ""BlankButton"" onclick = ""blankResponse()"">SKIP</button><p style=""font-size: 2.4rem""><u><b>Current Answer:</b></u></p><br><br><div id=echoed_txt style=""font-size: 5rem; color:blue;""><b></b></div></div>",enter,ospan,retrieval,UL9ZiyK8xyLvLK8s2Li5dsIndtU2,html-keyboard-response,156,1035039,0.0-46.0-5.0-0.0-2.0,21,20,15,6.0,"[""J"",""K"",""H"",""N"",""G""]","[""J"",""K"",""H"",""N"",""G"",""L""]",0.0,5.0,,,,,,,614793a7be62637e6a2ccf3e,13:12:39,03/04/2024
1395.0,[''],0,ospan,feedback,UL9ZiyK8xyLvLK8s2Li5dsIndtU2,html-button-response,157,1036938,0.0-46.0-5.0-0.0-3.0,,,,,,,,,,,,100.0,0.0,,614793a7be62637e6a2ccf3e,13:12:39,03/04/2024
,"<p style=""font-size:75px;"">...</p>",,ospan,iti,UL9ZiyK8xyLvLK8s2Li5dsIndtU2,html-keyboard-response,158,1037942,0.0-46.0-5.0-1.0-0.0,,,,,,,,,,,,,,,614793a7be62637e6a2ccf3e,13:12:39,03/04/2024
1838.0,,,ospan,symmetry,UL9ZiyK8xyLvLK8s2Li5dsIndtU2,symmetry-judgement-task,159,1040824,0.0-46.0-5.0-1.0-1.0-0.0,,,,,,,,,,1.0,1.0,,,,614793a7be62637e6a2ccf3e,13:12:39,03/04/2024
,"<div style=""font-size: 10rem; color: #0000FF"">G</div>",,ospan,letter,UL9ZiyK8xyLvLK8s2Li5dsIndtU2,html-keyboard-response,160,1041828,0.0-46.0-5.0-1.0-1.0-1.0,,,,,,,,,,,,,,,614793a7be62637e6a2ccf3e,13:12:39,03/04/2024
2512.0,,,ospan,symmetry,UL9ZiyK8xyLvLK8s2Li5dsIndtU2,symmetry-judgement-task,161,1046207,0.0-46.0-5.0-1.0-1.0-2.0,,,,,,,,,,1.0,1.0,,,,614793a7be62637e6a2ccf3e,13:12:39,03/04/2024
,"<div style=""font-size: 10rem; color: #0000FF"">R</div>",,ospan,letter,UL9ZiyK8xyLvLK8s2Li5dsIndtU2,html-keyboard-response,162,1047209,0.0-46.0-5.0-1.0-1.0-3.0,,,,,,,,,,,,,,,614793a7be62637e6a2ccf3e,13:12:39,03/04/2024
1678.0,,,ospan,symmetry,UL9ZiyK8xyLvLK8s2Li5dsIndtU2,symmetry-judgement-task,163,1050757,0.0-46.0-5.0-1.0-1.0-4.0,,,,,,,,,,1.0,1.0,,,,614793a7be62637e6a2ccf3e,13:12:39,03/04/2024
,"<div style=""font-size: 10rem; color: #0000FF"">L</div>",,ospan,letter,UL9ZiyK8xyLvLK8s2Li5dsIndtU2,html-keyboard-response,164,1051759,0.0-46.0-5.0-1.0-1.0-5.0,,,,,,,,,,,,,,,614793a7be62637e6a2ccf3e,13:12:39,03/04/2024
1257.0,,,ospan,symmetry,UL9ZiyK8xyLvLK8s2Li5dsIndtU2,symmetry-judgement-task,165,1054873,0.0-46.0-5.0-1.0-1.0-6.0,,,,,,,,,,1.0,1.0,,,,614793a7be62637e6a2ccf3e,13:12:39,03/04/2024
,"<div style=""font-size: 10rem; color: #0000FF"">Q</div>",,ospan,letter,UL9ZiyK8xyLvLK8s2Li5dsIndtU2,html-keyboard-response,166,1055877,0.0-46.0-5.0-1.0-1.0-7.0,,,,,,,,,,,,,,,614793a7be62637e6a2ccf3e,13:12:39,03/04/2024
1402.0,,,ospan,symmetry,UL9ZiyK8xyLvLK8s2Li5dsIndtU2,symmetry-judgement-task,167,1059143,0.0-46.0-5.0-1.0-1.0-8.0,,,,,,,,,,1.0,1.0,,,,614793a7be62637e6a2ccf3e,13:12:39,03/04/2024
,"<div style=""font-size: 10rem; color: #0000FF"">Y</div>",,ospan,letter,UL9ZiyK8xyLvLK8s2Li5dsIndtU2,html-keyboard-response,168,1060146,0.0-46.0-5.0-1.0-1.0-9.0,,,,,,,,,,,,,,,614793a7be62637e6a2ccf3e,13:12:39,03/04/2024
1360.0,,,ospan,symmetry,UL9ZiyK8xyLvLK8s2Li5dsIndtU2,symmetry-judgement-task,169,1063373,0.0-46.0-5.0-1.0-1.0-10.0,,,,,,,,,,1.0,1.0,,,,614793a7be62637e6a2ccf3e,13:12:39,03/04/2024
,"<div style=""font-size: 10rem; color: #0000FF"">N</div>",,ospan,letter,UL9ZiyK8xyLvLK8s2Li5dsIndtU2,html-keyboard-response,170,1064376,0.0-46.0-5.0-1.0-1.0-11.0,,,,,,,,,,,,,,,614793a7be62637e6a2ccf3e,13:12:39,03/04/2024
1279.0,,,ospan,symmetry,UL9ZiyK8xyLvLK8s2Li5dsIndtU2,symmetry-judgement-task,171,1067524,0.0-46.0-5.0-1.0-1.0-12.0,,,,,,,,,,1.0,1.0,,,,614793a7be62637e6a2ccf3e,13:12:39,03/04/2024
,"<div style=""font-size: 10rem; color: #0000FF"">P</div>",,ospan,letter,UL9ZiyK8xyLvLK8s2Li5dsIndtU2,html-keyboard-response,172,1068527,0.0-46.0-5.0-1.0-1.0-13.0,,,,,,,,,,,,,,,614793a7be62637e6a2ccf3e,13:12:39,03/04/2024
32624.19999998808,"<div class = numbox><p style=""font-size: 2.4rem"">Please recall the letters you saw to the best of your ability. If you do not remember a particular letter, use the SKIP button.<br><b>(When you are ready to lock in your answer, press ENTER)</b></p><button id = button_1 class = ""square num-button"" onclick = ""recordClick(this)""><div class = content><div class = numbers>C</div></div></button><button id = button_2 class = ""square num-button"" onclick = ""recordClick(this)""><div class = content><div class = numbers>G</div></div></button><button id = button_3 class = ""square num-button"" onclick = ""recordClick(this)""><div class = content><div class = numbers>H</div></div></button><button id = button_4 class = ""square num-button"" onclick = ""recordClick(this)""><div class = content><div class = numbers>J</div></div></button><button id = button_5 class = ""square num-button"" onclick = ""recordClick(this)""><div class = content><div class = numbers>K</div></div></button><button id = button_6 class = ""square num-button"" onclick = ""recordClick(this)""><div class = content><div class = numbers>L</div></div></button><button id = button_7 class = ""square num-button"" onclick = ""recordClick(this)""><div class = content><div class = numbers>N</div></div></button><button id = button_8 class = ""square num-button"" onclick = ""recordClick(this)""><div class = content><div class = numbers>P</div></div></button><button id = button_9 class = ""square num-button"" onclick = ""recordClick(this)""><div class = content><div class = numbers>Q</div></div></button><button id = button_10 class = ""square num-button"" onclick = ""recordClick(this)""><div class = content><div class = numbers>R</div></div></button><button id = button_11 class = ""square num-button"" onclick = ""recordClick(this)""><div class = content><div class = numbers>S</div></div></button><button id = button_12 class = ""square num-button"" onclick = ""recordClick(this)""><div class = content><div class = numbers>Y</div></div></button><button class = clear_button id = ""ClearButton"" onclick = ""clearResponse()"">BACKSPACE</button><button class = blank_button id = ""BlankButton"" onclick = ""blankResponse()"">SKIP</button><p style=""font-size: 2.4rem""><u><b>Current Answer:</b></u></p><br><br><div id=echoed_txt style=""font-size: 5rem; color:blue;""><b></b></div></div>",enter,ospan,retrieval,UL9ZiyK8xyLvLK8s2Li5dsIndtU2,html-keyboard-response,173,1101905,0.0-46.0-5.0-1.0-2.0,28,27,22,7.0,"[""G"",""R"",""L"",""Q"",""Y"",""N"",""P""]","[""G"",""R"",""L"",""Q"",""Y"",""N"",""P""]",1.0,7.0,,,,,,,614793a7be62637e6a2ccf3e,13:12:39,03/04/2024
1451.8999999761581,[''],0,ospan,feedback,UL9ZiyK8xyLvLK8s2Li5dsIndtU2,html-button-response,174,1103861,0.0-46.0-5.0-1.0-3.0,,,,,,,,,,,,100.0,0.0,,614793a7be62637e6a2ccf3e,13:12:39,03/04/2024
,"<p style=""font-size:75px;"">...</p>",,ospan,iti,UL9ZiyK8xyLvLK8s2Li5dsIndtU2,html-keyboard-response,175,1104864,0.0-46.0-6.0-0.0-0.0,,,,,,,,,,,,,,,614793a7be62637e6a2ccf3e,13:12:39,03/04/2024
1231.0,,,ospan,symmetry,UL9ZiyK8xyLvLK8s2Li5dsIndtU2,symmetry-judgement-task,176,1107207,0.0-46.0-6.0-0.0-1.0-0.0,,,,,,,,,,1.0,1.0,,,,614793a7be62637e6a2ccf3e,13:12:39,03/04/2024
,"<div style=""font-size: 10rem; color: #0000FF"">J</div>",,ospan,letter,UL9ZiyK8xyLvLK8s2Li5dsIndtU2,html-keyboard-response,177,1108209,0.0-46.0-6.0-0.0-1.0-1.0,,,,,,,,,,,,,,,614793a7be62637e6a2ccf3e,13:12:39,03/04/2024
1917.0,,,ospan,symmetry,UL9ZiyK8xyLvLK8s2Li5dsIndtU2,symmetry-judgement-task,178,1111990,0.0-46.0-6.0-0.0-1.0-2.0,,,,,,,,,,1.0,1.0,,,,614793a7be62637e6a2ccf3e,13:12:39,03/04/2024
,"<div style=""font-size: 10rem; color: #0000FF"">R</div>",,ospan,letter,UL9ZiyK8xyLvLK8s2Li5dsIndtU2,html-keyboard-response,179,1112993,0.0-46.0-6.0-0.0-1.0-3.0,,,,,,,,,,,,,,,614793a7be62637e6a2ccf3e,13:12:39,03/04/2024
1124.0,,,ospan,symmetry,UL9ZiyK8xyLvLK8s2Li5dsIndtU2,symmetry-judgement-task,180,1115981,0.0-46.0-6.0-0.0-1.0-4.0,,,,,,,,,,1.0,1.0,,,,614793a7be62637e6a2ccf3e,13:12:39,03/04/2024
,"<div style=""font-size: 10rem; color: #0000FF"">P</div>",,ospan,letter,UL9ZiyK8xyLvLK8s2Li5dsIndtU2,html-keyboard-response,181,1116984,0.0-46.0-6.0-0.0-1.0-5.0,,,,,,,,,,,,,,,614793a7be62637e6a2ccf3e,13:12:39,03/04/2024
1099.0,,,ospan,symmetry,UL9ZiyK8xyLvLK8s2Li5dsIndtU2,symmetry-judgement-task,182,1119946,0.0-46.0-6.0-0.0-1.0-6.0,,,,,,,,,,1.0,1.0,,,,614793a7be62637e6a2ccf3e,13:12:39,03/04/2024
,"<div style=""font-size: 10rem; color: #0000FF"">N</div>",,ospan,letter,UL9ZiyK8xyLvLK8s2Li5dsIndtU2,html-keyboard-response,183,1120948,0.0-46.0-6.0-0.0-1.0-7.0,,,,,,,,,,,,,,,614793a7be62637e6a2ccf3e,13:12:39,03/04/2024
1075.0,,,ospan,symmetry,UL9ZiyK8xyLvLK8s2Li5dsIndtU2,symmetry-judgement-task,184,1123892,0.0-46.0-6.0-0.0-1.0-8.0,,,,,,,,,,1.0,1.0,,,,614793a7be62637e6a2ccf3e,13:12:39,03/04/2024
,"<div style=""font-size: 10rem; color: #0000FF"">C</div>",,ospan,letter,UL9ZiyK8xyLvLK8s2Li5dsIndtU2,html-keyboard-response,185,1124895,0.0-46.0-6.0-0.0-1.0-9.0,,,,,,,,,,,,,,,614793a7be62637e6a2ccf3e,13:12:39,03/04/2024
6353.200000047684,"<div class = numbox><p style=""font-size: 2.4rem"">Please recall the letters you saw to the best of your ability. If you do not remember a particular letter, use the SKIP button.<br><b>(When you are ready to lock in your answer, press ENTER)</b></p><button id = button_1 class = ""square num-button"" onclick = ""recordClick(this)""><div class = content><div class = numbers>C</div></div></button><button id = button_2 class = ""square num-button"" onclick = ""recordClick(this)""><div class = content><div class = numbers>G</div></div></button><button id = button_3 class = ""square num-button"" onclick = ""recordClick(this)""><div class = content><div class = numbers>H</div></div></button><button id = button_4 class = ""square num-button"" onclick = ""recordClick(this)""><div class = content><div class = numbers>J</div></div></button><button id = button_5 class = ""square num-button"" onclick = ""recordClick(this)""><div class = content><div class = numbers>K</div></div></button><button id = button_6 class = ""square num-button"" onclick = ""recordClick(this)""><div class = content><div class = numbers>L</div></div></button><button id = button_7 class = ""square num-button"" onclick = ""recordClick(this)""><div class = content><div class = numbers>N</div></div></button><button id = button_8 class = ""square num-button"" onclick = ""recordClick(this)""><div class = content><div class = numbers>P</div></div></button><button id = button_9 class = ""square num-button"" onclick = ""recordClick(this)""><div class = content><div class = numbers>Q</div></div></button><button id = button_10 class = ""square num-button"" onclick = ""recordClick(this)""><div class = content><div class = numbers>R</div></div></button><button id = button_11 class = ""square num-button"" onclick = ""recordClick(this)""><div class = content><div class = numbers>S</div></div></button><button id = button_12 class = ""square num-button"" onclick = ""recordClick(this)""><div class = content><div class = numbers>Y</div></div></button><button class = clear_button id = ""ClearButton"" onclick = ""clearResponse()"">BACKSPACE</button><button class = blank_button id = ""BlankButton"" onclick = ""blankResponse()"">SKIP</button><p style=""font-size: 2.4rem""><u><b>Current Answer:</b></u></p><br><br><div id=echoed_txt style=""font-size: 5rem; color:blue;""><b></b></div></div>",enter,ospan,retrieval,UL9ZiyK8xyLvLK8s2Li5dsIndtU2,html-keyboard-response,186,1132001,0.0-46.0-6.0-0.0-2.0,33,32,27,5.0,"[""J"",""R"",""P"",""N"",""C""]","[""J"",""R"",""P"",""N"",""C""]",1.0,5.0,,,,,,,614793a7be62637e6a2ccf3e,13:12:39,03/04/2024
903.0999999642372,[''],0,ospan,feedback,UL9ZiyK8xyLvLK8s2Li5dsIndtU2,html-button-response,187,1133406,0.0-46.0-6.0-0.0-3.0,,,,,,,,,,,,100.0,0.0,,614793a7be62637e6a2ccf3e,13:12:39,03/04/2024
,"<p style=""font-size:75px;"">...</p>",,ospan,iti,UL9ZiyK8xyLvLK8s2Li5dsIndtU2,html-keyboard-response,188,1134410,0.0-46.0-6.0-1.0-0.0,,,,,,,,,,,,,,,614793a7be62637e6a2ccf3e,13:12:39,03/04/2024
1918.0,,,ospan,symmetry,UL9ZiyK8xyLvLK8s2Li5dsIndtU2,symmetry-judgement-task,189,1137442,0.0-46.0-6.0-1.0-1.0-0.0,,,,,,,,,,1.0,1.0,,,,614793a7be62637e6a2ccf3e,13:12:39,03/04/2024
,"<div style=""font-size: 10rem; color: #0000FF"">C</div>",,ospan,letter,UL9ZiyK8xyLvLK8s2Li5dsIndtU2,html-keyboard-response,190,1138445,0.0-46.0-6.0-1.0-1.0-1.0,,,,,,,,,,,,,,,614793a7be62637e6a2ccf3e,13:12:39,03/04/2024
1431.0,,,ospan,symmetry,UL9ZiyK8xyLvLK8s2Li5dsIndtU2,symmetry-judgement-task,191,1141743,0.0-46.0-6.0-1.0-1.0-2.0,,,,,,,,,,1.0,1.0,,,,614793a7be62637e6a2ccf3e,13:12:39,03/04/2024
,"<div style=""font-size: 10rem; color: #0000FF"">Q</div>",,ospan,letter,UL9ZiyK8xyLvLK8s2Li5dsIndtU2,html-keyboard-response,192,1142746,0.0-46.0-6.0-1.0-1.0-3.0,,,,,,,,,,,,,,,614793a7be62637e6a2ccf3e,13:12:39,03/04/2024
1179.0,,,ospan,symmetry,UL9ZiyK8xyLvLK8s2Li5dsIndtU2,symmetry-judgement-task,193,1145790,0.0-46.0-6.0-1.0-1.0-4.0,,,,,,,,,,1.0,1.0,,,,614793a7be62637e6a2ccf3e,13:12:39,03/04/2024
,"<div style=""font-size: 10rem; color: #0000FF"">N</div>",,ospan,letter,UL9ZiyK8xyLvLK8s2Li5dsIndtU2,html-keyboard-response,194,1146793,0.0-46.0-6.0-1.0-1.0-5.0,,,,,,,,,,,,,,,614793a7be62637e6a2ccf3e,13:12:39,03/04/2024
1465.0,,,ospan,symmetry,UL9ZiyK8xyLvLK8s2Li5dsIndtU2,symmetry-judgement-task,195,1150125,0.0-46.0-6.0-1.0-1.0-6.0,,,,,,,,,,1.0,1.0,,,,614793a7be62637e6a2ccf3e,13:12:39,03/04/2024
,"<div style=""font-size: 10rem; color: #0000FF"">J</div>",,ospan,letter,UL9ZiyK8xyLvLK8s2Li5dsIndtU2,html-keyboard-response,196,1151128,0.0-46.0-6.0-1.0-1.0-7.0,,,,,,,,,,,,,,,614793a7be62637e6a2ccf3e,13:12:39,03/04/2024
1022.0,,,ospan,symmetry,UL9ZiyK8xyLvLK8s2Li5dsIndtU2,symmetry-judgement-task,197,1154024,0.0-46.0-6.0-1.0-1.0-8.0,,,,,,,,,,1.0,1.0,,,,614793a7be62637e6a2ccf3e,13:12:39,03/04/2024
,"<div style=""font-size: 10rem; color: #0000FF"">Y</div>",,ospan,letter,UL9ZiyK8xyLvLK8s2Li5dsIndtU2,html-keyboard-response,198,1155027,0.0-46.0-6.0-1.0-1.0-9.0,,,,,,,,,,,,,,,614793a7be62637e6a2ccf3e,13:12:39,03/04/2024
2246.0,,,ospan,symmetry,UL9ZiyK8xyLvLK8s2Li5dsIndtU2,symmetry-judgement-task,199,1159142,0.0-46.0-6.0-1.0-1.0-10.0,,,,,,,,,,1.0,1.0,,,,614793a7be62637e6a2ccf3e,13:12:39,03/04/2024
,"<div style=""font-size: 10rem; color: #0000FF"">G</div>",,ospan,letter,UL9ZiyK8xyLvLK8s2Li5dsIndtU2,html-keyboard-response,200,1160144,0.0-46.0-6.0-1.0-1.0-11.0,,,,,,,,,,,,,,,614793a7be62637e6a2ccf3e,13:12:39,03/04/2024
1616.0,,,ospan,symmetry,UL9ZiyK8xyLvLK8s2Li5dsIndtU2,symmetry-judgement-task,201,1163642,0.0-46.0-6.0-1.0-1.0-12.0,,,,,,,,,,1.0,1.0,,,,614793a7be62637e6a2ccf3e,13:12:39,03/04/2024
,"<div style=""font-size: 10rem; color: #0000FF"">R</div>",,ospan,letter,UL9ZiyK8xyLvLK8s2Li5dsIndtU2,html-keyboard-response,202,1164645,0.0-46.0-6.0-1.0-1.0-13.0,,,,,,,,,,,,,,,614793a7be62637e6a2ccf3e,13:12:39,03/04/2024
1418.0,,,ospan,symmetry,UL9ZiyK8xyLvLK8s2Li5dsIndtU2,symmetry-judgement-task,203,1167939,0.0-46.0-6.0-1.0-1.0-14.0,,,,,,,,,,1.0,1.0,,,,614793a7be62637e6a2ccf3e,13:12:39,03/04/2024
,"<div style=""font-size: 10rem; color: #0000FF"">K</div>",,ospan,letter,UL9ZiyK8xyLvLK8s2Li5dsIndtU2,html-keyboard-response,204,1168942,0.0-46.0-6.0-1.0-1.0-15.0,,,,,,,,,,,,,,,614793a7be62637e6a2ccf3e,13:12:39,03/04/2024
20803.30000001192,"<div class = numbox><p style=""font-size: 2.4rem"">Please recall the letters you saw to the best of your ability. If you do not remember a particular letter, use the SKIP button.<br><b>(When you are ready to lock in your answer, press ENTER)</b></p><button id = button_1 class = ""square num-button"" onclick = ""recordClick(this)""><div class = content><div class = numbers>C</div></div></button><button id = button_2 class = ""square num-button"" onclick = ""recordClick(this)""><div class = content><div class = numbers>G</div></div></button><button id = button_3 class = ""square num-button"" onclick = ""recordClick(this)""><div class = content><div class = numbers>H</div></div></button><button id = button_4 class = ""square num-button"" onclick = ""recordClick(this)""><div class = content><div class = numbers>J</div></div></button><button id = button_5 class = ""square num-button"" onclick = ""recordClick(this)""><div class = content><div class = numbers>K</div></div></button><button id = button_6 class = ""square num-button"" onclick = ""recordClick(this)""><div class = content><div class = numbers>L</div></div></button><button id = button_7 class = ""square num-button"" onclick = ""recordClick(this)""><div class = content><div class = numbers>N</div></div></button><button id = button_8 class = ""square num-button"" onclick = ""recordClick(this)""><div class = content><div class = numbers>P</div></div></button><button id = button_9 class = ""square num-button"" onclick = ""recordClick(this)""><div class = content><div class = numbers>Q</div></div></button><button id = button_10 class = ""square num-button"" onclick = ""recordClick(this)""><div class = content><div class = numbers>R</div></div></button><button id = button_11 class = ""square num-button"" onclick = ""recordClick(this)""><div class = content><div class = numbers>S</div></div></button><button id = button_12 class = ""square num-button"" onclick = ""recordClick(this)""><div class = content><div class = numbers>Y</div></div></button><button class = clear_button id = ""ClearButton"" onclick = ""clearResponse()"">BACKSPACE</button><button class = blank_button id = ""BlankButton"" onclick = ""blankResponse()"">SKIP</button><p style=""font-size: 2.4rem""><u><b>Current Answer:</b></u></p><br><br><div id=echoed_txt style=""font-size: 5rem; color:blue;""><b></b></div></div>",enter,ospan,retrieval,UL9ZiyK8xyLvLK8s2Li5dsIndtU2,html-keyboard-response,205,1190499,0.0-46.0-6.0-1.0-2.0,41,37,27,8.0,"[""C"",""Q"",""N"",""J"",""Y"",""_"",""K""]","[""C"",""Q"",""N"",""J"",""Y"",""G"",""R"",""K""]",0.0,5.0,,,,,,,614793a7be62637e6a2ccf3e,13:12:39,03/04/2024
1819.3999999761581,[''],0,ospan,feedback,UL9ZiyK8xyLvLK8s2Li5dsIndtU2,html-button-response,206,1192822,0.0-46.0-6.0-1.0-3.0,,,,,,,,,,,,100.0,0.0,,614793a7be62637e6a2ccf3e,13:12:39,03/04/2024
15133.0,,"{'Q0': 'Everything was clear and easy to follow, i understood the task completely '}",ospan,survey_ospan,UL9ZiyK8xyLvLK8s2Li5dsIndtU2,lmdlab-survey-text,207,1208710,0.0-46.0-7.0,,,,,,,,,,,,,,UL9ZiyK8xyLvLK8s2Li5dsIndtU2,614793a7be62637e6a2ccf3e,13:12:39,03/04/2024
1403.5999999642372,<p><p style='font-size: 3rem'>Great work!<br><br>This completes the symmetry and memory task.</p><br><br><br>,0,ospan,finish,UL9ZiyK8xyLvLK8s2Li5dsIndtU2,html-button-response,208,1210122,0.0-46.0-8.0,41,37,27,,,,,,,,,100.0,,,614793a7be62637e6a2ccf3e,13:12:39,03/04/2024
