rt,stimulus,response,exp_name,exp_stage,subjectID,trial_type,trial_index,time_elapsed,internal_node_id,ospan_shown,ospan_total,ospan_abs,length,resp_actual,resp_correct,full_correct,num_correct,feedback,accuracy,correct,math_acc,math_warning,databaseID,prolificID,start_time,date
1516.9999999999418,<div class = 'left_align' style='font-size: 3.25rem; line-height: 1.3;'><p class = 'center_align'><b>Welcome to the Symmetry and Memory Task</b><br><br><br><br></p>Press 'continue' to show the instructions.<br><br><br><br></div>,0,ospan,instruct,Vp1pzNox69c6G2WcpHnJjfX0REO2,html-button-response,54,494537,0.0-46.0-0.0-0.0-0.0,,,,,,,,,,,,,,,5c6e7cc242fe6b000190936a,13:25:29,03/04/2024
42285.99999999994,"<div class = 'left_align' style='font-size: 3.25rem; line-height: 1.3;'><p class = 'center_align'><b>Symmetry and Memory Task</b><br><br></p>In this task, you will try to memorize letters you see on the screen<br>while you also view black and white grid pictures.<br><br>In the next few minutes, you will have some practice to get you familiar<br>with how the task works.<br><br>It may be difficult sometimes, but please do not worry about making mistakes!<br><br>We will begin by practicing the letter part of the task.<br><br><br><br></div>",0,ospan,instruct,Vp1pzNox69c6G2WcpHnJjfX0REO2,html-button-response,55,537075,0.0-46.0-0.0-0.0-1.0,,,,,,,,,,,,,,,5c6e7cc242fe6b000190936a,13:25:29,03/04/2024
5485.0,"<div class = 'left_align' style='font-size: 3.25rem; line-height: 1.3;'>For this practice part, letters will appear on the screen one at a time.<br><br>Try to remember each letter in the order presented.<br><br>After some letters have been shown, you will see a response screen. Your<br>goal is to report the letters you saw <b>in order</b>. If you do not remember<br>a particular letter, you will have the option to leave it blank.<br><br><br><br></div>",0,ospan,instruct,Vp1pzNox69c6G2WcpHnJjfX0REO2,html-button-response,56,542813,0.0-46.0-0.0-0.0-2.0,,,,,,,,,,,,,,,5c6e7cc242fe6b000190936a,13:25:29,03/04/2024
2397.0,"<div class = 'left_align' style='font-size: 3.25rem; line-height: 1.3;'>Remember, it is very important to get the letters in the same<br>order as you see them.<br><br>When you are ready, you may begin the letter practice.</div><br><br><br><br>",0,ospan,instruct,Vp1pzNox69c6G2WcpHnJjfX0REO2,html-button-response,57,545462,0.0-46.0-0.0-0.0-3.0,,,,,,,,,,,,,,,5c6e7cc242fe6b000190936a,13:25:29,03/04/2024
,"<p style=""font-size:75px;"">...</p>",,ospan,iti,Vp1pzNox69c6G2WcpHnJjfX0REO2,html-keyboard-response,58,546716,0.0-46.0-0.0-1.0-0.0,,,,,,,,,,,,,,,5c6e7cc242fe6b000190936a,13:25:29,03/04/2024
,"<div style=""font-size: 10rem; color: #0000FF"">K</div>",,ospan,letter,Vp1pzNox69c6G2WcpHnJjfX0REO2,html-keyboard-response,59,547721,0.0-46.0-0.0-1.0-1.0,,,,,,,,,,,,,,,5c6e7cc242fe6b000190936a,13:25:29,03/04/2024
,"<div style=""font-size: 10rem; color: #0000FF"">R</div>",,ospan,letter,Vp1pzNox69c6G2WcpHnJjfX0REO2,html-keyboard-response,60,549475,0.0-46.0-0.0-1.0-2.0,,,,,,,,,,,,,,,5c6e7cc242fe6b000190936a,13:25:29,03/04/2024
6931.0,"<div class = numbox><p style=""font-size: 2.4rem"">Please recall the letters you saw to the best of your ability. If you do not remember a particular letter, use the SKIP button.<br><b>(When you are ready to lock in your answer, press ENTER)</b></p><button id = button_1 class = ""square num-button"" onclick = ""recordClick(this)""><div class = content><div class = numbers>C</div></div></button><button id = button_2 class = ""square num-button"" onclick = ""recordClick(this)""><div class = content><div class = numbers>G</div></div></button><button id = button_3 class = ""square num-button"" onclick = ""recordClick(this)""><div class = content><div class = numbers>H</div></div></button><button id = button_4 class = ""square num-button"" onclick = ""recordClick(this)""><div class = content><div class = numbers>J</div></div></button><button id = button_5 class = ""square num-button"" onclick = ""recordClick(this)""><div class = content><div class = numbers>K</div></div></button><button id = button_6 class = ""square num-button"" onclick = ""recordClick(this)""><div class = content><div class = numbers>L</div></div></button><button id = button_7 class = ""square num-button"" onclick = ""recordClick(this)""><div class = content><div class = numbers>N</div></div></button><button id = button_8 class = ""square num-button"" onclick = ""recordClick(this)""><div class = content><div class = numbers>P</div></div></button><button id = button_9 class = ""square num-button"" onclick = ""recordClick(this)""><div class = content><div class = numbers>Q</div></div></button><button id = button_10 class = ""square num-button"" onclick = ""recordClick(this)""><div class = content><div class = numbers>R</div></div></button><button id = button_11 class = ""square num-button"" onclick = ""recordClick(this)""><div class = content><div class = numbers>S</div></div></button><button id = button_12 class = ""square num-button"" onclick = ""recordClick(this)""><div class = content><div class = numbers>Y</div></div></button><button class = clear_button id = ""ClearButton"" onclick = ""clearResponse()"">BACKSPACE</button><button class = blank_button id = ""BlankButton"" onclick = ""blankResponse()"">SKIP</button><p style=""font-size: 2.4rem""><u><b>Current Answer:</b></u></p><br><br><div id=echoed_txt style=""font-size: 5rem; color:blue;""><b></b></div></div>",enter,ospan,retrieval,Vp1pzNox69c6G2WcpHnJjfX0REO2,html-keyboard-response,61,557160,0.0-46.0-0.0-1.0-3.0,NA,NA,NA,2.0,"[""K"",""R""]","[""K"",""R""]",1.0,2.0,"['<font color=""green"">K</font>', '<font color=""green"">R</font>']",,,,,,5c6e7cc242fe6b000190936a,13:25:29,03/04/2024
2006.0,"['<p style=""font-size:44px"">Letters:<br><br><br><font color=""green"">K</font> <font color=""green"">R</font></p><br><br>']",0,ospan,practice_feedback,Vp1pzNox69c6G2WcpHnJjfX0REO2,html-button-response,62,559671,0.0-46.0-0.0-1.0-4.0,,,,,,,,,,,,,,,5c6e7cc242fe6b000190936a,13:25:29,03/04/2024
,"<p style=""font-size:75px;"">...</p>",,ospan,iti,Vp1pzNox69c6G2WcpHnJjfX0REO2,html-keyboard-response,63,560673,0.0-46.0-0.0-2.0-0.0,,,,,,,,,,,,,,,5c6e7cc242fe6b000190936a,13:25:29,03/04/2024
,"<div style=""font-size: 10rem; color: #0000FF"">K</div>",,ospan,letter,Vp1pzNox69c6G2WcpHnJjfX0REO2,html-keyboard-response,64,561675,0.0-46.0-0.0-2.0-1.0,,,,,,,,,,,,,,,5c6e7cc242fe6b000190936a,13:25:29,03/04/2024
,"<div style=""font-size: 10rem; color: #0000FF"">C</div>",,ospan,letter,Vp1pzNox69c6G2WcpHnJjfX0REO2,html-keyboard-response,65,563429,0.0-46.0-0.0-2.0-2.0,,,,,,,,,,,,,,,5c6e7cc242fe6b000190936a,13:25:29,03/04/2024
,"<div style=""font-size: 10rem; color: #0000FF"">G</div>",,ospan,letter,Vp1pzNox69c6G2WcpHnJjfX0REO2,html-keyboard-response,66,565184,0.0-46.0-0.0-2.0-3.0,,,,,,,,,,,,,,,5c6e7cc242fe6b000190936a,13:25:29,03/04/2024
3871.0,"<div class = numbox><p style=""font-size: 2.4rem"">Please recall the letters you saw to the best of your ability. If you do not remember a particular letter, use the SKIP button.<br><b>(When you are ready to lock in your answer, press ENTER)</b></p><button id = button_1 class = ""square num-button"" onclick = ""recordClick(this)""><div class = content><div class = numbers>C</div></div></button><button id = button_2 class = ""square num-button"" onclick = ""recordClick(this)""><div class = content><div class = numbers>G</div></div></button><button id = button_3 class = ""square num-button"" onclick = ""recordClick(this)""><div class = content><div class = numbers>H</div></div></button><button id = button_4 class = ""square num-button"" onclick = ""recordClick(this)""><div class = content><div class = numbers>J</div></div></button><button id = button_5 class = ""square num-button"" onclick = ""recordClick(this)""><div class = content><div class = numbers>K</div></div></button><button id = button_6 class = ""square num-button"" onclick = ""recordClick(this)""><div class = content><div class = numbers>L</div></div></button><button id = button_7 class = ""square num-button"" onclick = ""recordClick(this)""><div class = content><div class = numbers>N</div></div></button><button id = button_8 class = ""square num-button"" onclick = ""recordClick(this)""><div class = content><div class = numbers>P</div></div></button><button id = button_9 class = ""square num-button"" onclick = ""recordClick(this)""><div class = content><div class = numbers>Q</div></div></button><button id = button_10 class = ""square num-button"" onclick = ""recordClick(this)""><div class = content><div class = numbers>R</div></div></button><button id = button_11 class = ""square num-button"" onclick = ""recordClick(this)""><div class = content><div class = numbers>S</div></div></button><button id = button_12 class = ""square num-button"" onclick = ""recordClick(this)""><div class = content><div class = numbers>Y</div></div></button><button class = clear_button id = ""ClearButton"" onclick = ""clearResponse()"">BACKSPACE</button><button class = blank_button id = ""BlankButton"" onclick = ""blankResponse()"">SKIP</button><p style=""font-size: 2.4rem""><u><b>Current Answer:</b></u></p><br><br><div id=echoed_txt style=""font-size: 5rem; color:blue;""><b></b></div></div>",enter,ospan,retrieval,Vp1pzNox69c6G2WcpHnJjfX0REO2,html-keyboard-response,67,569809,0.0-46.0-0.0-2.0-4.0,NA,NA,NA,3.0,"[""K"",""C"",""G""]","[""K"",""C"",""G""]",1.0,3.0,"['<font color=""green"">K</font>', '<font color=""green"">C</font>', '<font color=""green"">G</font>']",,,,,,5c6e7cc242fe6b000190936a,13:25:29,03/04/2024
990.0,"['<p style=""font-size:44px"">Letters:<br><br><br><font color=""green"">K</font> <font color=""green"">C</font> <font color=""green"">G</font></p><br><br>']",0,ospan,practice_feedback,Vp1pzNox69c6G2WcpHnJjfX0REO2,html-button-response,68,571301,0.0-46.0-0.0-2.0-5.0,,,,,,,,,,,,,,,5c6e7cc242fe6b000190936a,13:25:29,03/04/2024
10962.0,"<div class = 'left_align' style='font-size: 3.25rem; line-height: 1.3;'>Now you will practice doing the <b>symmetry judgment part</b> of the experiment.<br><br>A black and white grid picture will appear on the screen and you have to judge if it is <br>symmetrical or asymetrical.<br><br>A picture is 'mirror' symmetrical if its left half is identical to the right half when flipped.<br>Here are examples of a symmetrical and an asymetrical picture:<br><br><center><img src='Stimuli/img/symm_instructions_extra.png' style='height:420px; width:900'></img></center><br>To judge symmetry, imagine you were to fold each picture down the middle, like a book –<br>would the left half match the right half when folded onto each other?<br><br></div><br>",0,ospan,instruct,Vp1pzNox69c6G2WcpHnJjfX0REO2,html-button-response,69,582264,0.0-46.0-1.0-0.0-0.0,,,,,,,,,,,,,,,5c6e7cc242fe6b000190936a,13:25:29,03/04/2024
5410.0,"<div class = 'left_align' style='font-size: 3.25rem; line-height: 1.3;'>When you have viewed the picture and determined whether it is symmetrical or not,<br>you can <b>click the Yes or No button</b> below to answer.<br><br>If you take longer than 15 seconds, it will continue automatically<br>and record the answer as an error.</div><br>",0,ospan,instruct,Vp1pzNox69c6G2WcpHnJjfX0REO2,html-button-response,70,587925,0.0-46.0-1.0-0.0-1.0,,,,,,,,,,,,,,,5c6e7cc242fe6b000190936a,13:25:29,03/04/2024
7487.0,"<div class = 'left_align' style='font-size: 3.25rem; line-height: 1.3;'>It is <b>very</b> important that you make the symmetry judgment correctly.<br><br>It is also important that you try and judge the picture as quickly as you can.<br><br>When you are ready, click on the button below to try some practice problems.</div><br><br><br><br>",0,ospan,instruct,Vp1pzNox69c6G2WcpHnJjfX0REO2,html-button-response,71,595664,0.0-46.0-1.0-0.0-2.0,,,,,,,,,,,,,,,5c6e7cc242fe6b000190936a,13:25:29,03/04/2024
3092.0,,,ospan,symmetry,Vp1pzNox69c6G2WcpHnJjfX0REO2,symmetry-judgement-task,72,599562,0.0-46.0-1.0-1.0-0.0,,,,,,,,,,1.0,1.0,,,,5c6e7cc242fe6b000190936a,13:25:29,03/04/2024
,"<p style=""color:green; font-size: 35px"">Correct</p>",,ospan,feedback,Vp1pzNox69c6G2WcpHnJjfX0REO2,html-keyboard-response,73,600316,0.0-46.0-1.0-1.0-1.0,,,,,,,,,,,,,,,5c6e7cc242fe6b000190936a,13:25:29,03/04/2024
2093.0,,,ospan,symmetry,Vp1pzNox69c6G2WcpHnJjfX0REO2,symmetry-judgement-task,74,604972,0.0-46.0-1.0-1.0-2.0,,,,,,,,,,1.0,1.0,,,,5c6e7cc242fe6b000190936a,13:25:29,03/04/2024
,"<p style=""color:green; font-size: 35px"">Correct</p>",,ospan,feedback,Vp1pzNox69c6G2WcpHnJjfX0REO2,html-keyboard-response,75,605724,0.0-46.0-1.0-1.0-3.0,,,,,,,,,,,,,,,5c6e7cc242fe6b000190936a,13:25:29,03/04/2024
2525.0,,,ospan,symmetry,Vp1pzNox69c6G2WcpHnJjfX0REO2,symmetry-judgement-task,76,610810,0.0-46.0-1.0-1.0-4.0,,,,,,,,,,1.0,1.0,,,,5c6e7cc242fe6b000190936a,13:25:29,03/04/2024
,"<p style=""color:green; font-size: 35px"">Correct</p>",,ospan,feedback,Vp1pzNox69c6G2WcpHnJjfX0REO2,html-keyboard-response,77,611562,0.0-46.0-1.0-1.0-5.0,,,,,,,,,,,,,,,5c6e7cc242fe6b000190936a,13:25:29,03/04/2024
1141.9999999998836,"<p style=""font-size: 3rem;"">You responded correctly on 3 of 3 symmetry judgments. Good job!</p><br><br>",0,ospan,practice,Vp1pzNox69c6G2WcpHnJjfX0REO2,html-button-response,78,614708,0.0-46.0-1.0-2.0,,,,,,,,,,,,,,,5c6e7cc242fe6b000190936a,13:25:29,03/04/2024
10785.0,"<div class = 'left_align' style='font-size: 3.25rem; line-height: 1.3;'>Now you will practice doing both parts of the experiment at the same time.<br><br>In the next practice set, you will be given one grid picture to judge.<br>Then letter will appear on the screen. Try to remember the letter.<br><br>It is <b>very important</b> to make the symmetry judgment as quickly and accurately as possible.<br><br>Just as before, once you have make the symmetry judgment, you can click Yes or No.<br><b>Note that you will no longer see Correct or Incorrect feedback.</div><br><br><br><br>",0,ospan,instruct,Vp1pzNox69c6G2WcpHnJjfX0REO2,html-button-response,79,625746,0.0-46.0-2.0-0.0-0.0,,,,,,,,,,,,,,,5c6e7cc242fe6b000190936a,13:25:29,03/04/2024
5098.0,"<div class = 'left_align' style='font-size: 3.25rem; line-height: 1.3;'>After the letter goes away, another grid picture will appear, and then<br>another letter.<br><br>At the end of each set of letters and grids, you will recall the letters to the best<br>of your ability. Remember, try your best to get the letters in the correct order.<br><br>It is important to <b>quickly</b> and <b>accurately</b> make the symmetry judgments.</div><br><br><br><br>",0,ospan,instruct,Vp1pzNox69c6G2WcpHnJjfX0REO2,html-button-response,80,631097,0.0-46.0-2.0-0.0-1.0,,,,,,,,,,,,,,,5c6e7cc242fe6b000190936a,13:25:29,03/04/2024
8188.0,"<div class = 'left_align' style='font-size: 3.25rem; line-height: 1.3;'>On the feedback screen, if you are not doing well at the symmetry judgments,<br>you will also see a warning in the middle. This indicates your percent <br>correct for the grid pictures for the entire experiment.<br><br>It is <b>very</b> important for you to keep accuracy at least at 85%: <u>We can only use<br>data where the participant was at least 85% accurate on the judgments.</u> Therefore,<br> please try your best to perform well on the symmetry judgments, <b>at the same time</b><br>doing your best to recall as many letters as possible.<br><br>Click the button to try some practice problems.</div><br><br><br><br>",0,ospan,instruct,Vp1pzNox69c6G2WcpHnJjfX0REO2,html-button-response,81,639537,0.0-46.0-2.0-0.0-2.0,,,,,,,,,,,,,,,5c6e7cc242fe6b000190936a,13:25:29,03/04/2024
,"<p style=""font-size:75px;"">...</p>",,ospan,iti,Vp1pzNox69c6G2WcpHnJjfX0REO2,html-keyboard-response,82,640791,0.0-46.0-2.0-1.0-0.0,,,,,,,,,,,,,,,5c6e7cc242fe6b000190936a,13:25:29,03/04/2024
2697.0,,,ospan,symmetry,Vp1pzNox69c6G2WcpHnJjfX0REO2,symmetry-judgement-task,83,644546,0.0-46.0-2.0-1.0-1.0-0.0,,,,,,,,,,1.0,1.0,,,,5c6e7cc242fe6b000190936a,13:25:29,03/04/2024
,"<div style=""font-size: 10rem; color: #0000FF"">G</div>",,ospan,letter,Vp1pzNox69c6G2WcpHnJjfX0REO2,html-keyboard-response,84,645548,0.0-46.0-2.0-1.0-1.0-1.0,,,,,,,,,,,,,,,5c6e7cc242fe6b000190936a,13:25:29,03/04/2024
1645.0,,,ospan,symmetry,Vp1pzNox69c6G2WcpHnJjfX0REO2,symmetry-judgement-task,85,649010,0.0-46.0-2.0-1.0-1.0-2.0,,,,,,,,,,1.0,1.0,,,,5c6e7cc242fe6b000190936a,13:25:29,03/04/2024
,"<div style=""font-size: 10rem; color: #0000FF"">P</div>",,ospan,letter,Vp1pzNox69c6G2WcpHnJjfX0REO2,html-keyboard-response,86,650014,0.0-46.0-2.0-1.0-1.0-3.0,,,,,,,,,,,,,,,5c6e7cc242fe6b000190936a,13:25:29,03/04/2024
2224.0,,,ospan,symmetry,Vp1pzNox69c6G2WcpHnJjfX0REO2,symmetry-judgement-task,87,654045,0.0-46.0-2.0-1.0-1.0-4.0,,,,,,,,,,1.0,1.0,,,,5c6e7cc242fe6b000190936a,13:25:29,03/04/2024
,"<div style=""font-size: 10rem; color: #0000FF"">N</div>",,ospan,letter,Vp1pzNox69c6G2WcpHnJjfX0REO2,html-keyboard-response,88,655049,0.0-46.0-2.0-1.0-1.0-5.0,,,,,,,,,,,,,,,5c6e7cc242fe6b000190936a,13:25:29,03/04/2024
3425.0,"<div class = numbox><p style=""font-size: 2.4rem"">Please recall the letters you saw to the best of your ability. If you do not remember a particular letter, use the SKIP button.<br><b>(When you are ready to lock in your answer, press ENTER)</b></p><button id = button_1 class = ""square num-button"" onclick = ""recordClick(this)""><div class = content><div class = numbers>C</div></div></button><button id = button_2 class = ""square num-button"" onclick = ""recordClick(this)""><div class = content><div class = numbers>G</div></div></button><button id = button_3 class = ""square num-button"" onclick = ""recordClick(this)""><div class = content><div class = numbers>H</div></div></button><button id = button_4 class = ""square num-button"" onclick = ""recordClick(this)""><div class = content><div class = numbers>J</div></div></button><button id = button_5 class = ""square num-button"" onclick = ""recordClick(this)""><div class = content><div class = numbers>K</div></div></button><button id = button_6 class = ""square num-button"" onclick = ""recordClick(this)""><div class = content><div class = numbers>L</div></div></button><button id = button_7 class = ""square num-button"" onclick = ""recordClick(this)""><div class = content><div class = numbers>N</div></div></button><button id = button_8 class = ""square num-button"" onclick = ""recordClick(this)""><div class = content><div class = numbers>P</div></div></button><button id = button_9 class = ""square num-button"" onclick = ""recordClick(this)""><div class = content><div class = numbers>Q</div></div></button><button id = button_10 class = ""square num-button"" onclick = ""recordClick(this)""><div class = content><div class = numbers>R</div></div></button><button id = button_11 class = ""square num-button"" onclick = ""recordClick(this)""><div class = content><div class = numbers>S</div></div></button><button id = button_12 class = ""square num-button"" onclick = ""recordClick(this)""><div class = content><div class = numbers>Y</div></div></button><button class = clear_button id = ""ClearButton"" onclick = ""clearResponse()"">BACKSPACE</button><button class = blank_button id = ""BlankButton"" onclick = ""blankResponse()"">SKIP</button><p style=""font-size: 2.4rem""><u><b>Current Answer:</b></u></p><br><br><div id=echoed_txt style=""font-size: 5rem; color:blue;""><b></b></div></div>",enter,ospan,retrieval,Vp1pzNox69c6G2WcpHnJjfX0REO2,html-keyboard-response,89,659227,0.0-46.0-2.0-1.0-2.0-0.0,NA,NA,NA,3.0,"[""G"",""P"",""N""]","[""G"",""P"",""N""]",1.0,3.0,"['<font color=""green"">G</font>', '<font color=""green"">P</font>', '<font color=""green"">N</font>']",,,,,,5c6e7cc242fe6b000190936a,13:25:29,03/04/2024
1550.0,"['<p style=""font-size:44px"">Letters:<br><br><br><font color=""green"">G</font> <font color=""green"">P</font> <font color=""green"">N</font></p><br><br><p style=""font-size:30px"">Symmetry:<br><br><font color=""green"">100%</font></p><br><br>']",0,ospan,practice_feedback,Vp1pzNox69c6G2WcpHnJjfX0REO2,html-button-response,90,661280,0.0-46.0-2.0-1.0-2.0-1.0,,,,,,,,,,,,,,,5c6e7cc242fe6b000190936a,13:25:29,03/04/2024
,"<p style=""font-size:75px;"">...</p>",,ospan,iti,Vp1pzNox69c6G2WcpHnJjfX0REO2,html-keyboard-response,91,662282,0.0-46.0-2.0-2.0-0.0,,,,,,,,,,,,,,,5c6e7cc242fe6b000190936a,13:25:29,03/04/2024
1952.0,,,ospan,symmetry,Vp1pzNox69c6G2WcpHnJjfX0REO2,symmetry-judgement-task,92,665290,0.0-46.0-2.0-2.0-1.0-0.0,,,,,,,,,,1.0,1.0,,,,5c6e7cc242fe6b000190936a,13:25:29,03/04/2024
,"<div style=""font-size: 10rem; color: #0000FF"">S</div>",,ospan,letter,Vp1pzNox69c6G2WcpHnJjfX0REO2,html-keyboard-response,93,666291,0.0-46.0-2.0-2.0-1.0-1.0,,,,,,,,,,,,,,,5c6e7cc242fe6b000190936a,13:25:29,03/04/2024
1317.0,,,ospan,symmetry,Vp1pzNox69c6G2WcpHnJjfX0REO2,symmetry-judgement-task,94,669416,0.0-46.0-2.0-2.0-1.0-2.0,,,,,,,,,,1.0,1.0,,,,5c6e7cc242fe6b000190936a,13:25:29,03/04/2024
,"<div style=""font-size: 10rem; color: #0000FF"">J</div>",,ospan,letter,Vp1pzNox69c6G2WcpHnJjfX0REO2,html-keyboard-response,95,670419,0.0-46.0-2.0-2.0-1.0-3.0,,,,,,,,,,,,,,,5c6e7cc242fe6b000190936a,13:25:29,03/04/2024
2151.0,,,ospan,symmetry,Vp1pzNox69c6G2WcpHnJjfX0REO2,symmetry-judgement-task,96,674382,0.0-46.0-2.0-2.0-1.0-4.0,,,,,,,,,,1.0,1.0,,,,5c6e7cc242fe6b000190936a,13:25:29,03/04/2024
,"<div style=""font-size: 10rem; color: #0000FF"">N</div>",,ospan,letter,Vp1pzNox69c6G2WcpHnJjfX0REO2,html-keyboard-response,97,675385,0.0-46.0-2.0-2.0-1.0-5.0,,,,,,,,,,,,,,,5c6e7cc242fe6b000190936a,13:25:29,03/04/2024
4544.0,"<div class = numbox><p style=""font-size: 2.4rem"">Please recall the letters you saw to the best of your ability. If you do not remember a particular letter, use the SKIP button.<br><b>(When you are ready to lock in your answer, press ENTER)</b></p><button id = button_1 class = ""square num-button"" onclick = ""recordClick(this)""><div class = content><div class = numbers>C</div></div></button><button id = button_2 class = ""square num-button"" onclick = ""recordClick(this)""><div class = content><div class = numbers>G</div></div></button><button id = button_3 class = ""square num-button"" onclick = ""recordClick(this)""><div class = content><div class = numbers>H</div></div></button><button id = button_4 class = ""square num-button"" onclick = ""recordClick(this)""><div class = content><div class = numbers>J</div></div></button><button id = button_5 class = ""square num-button"" onclick = ""recordClick(this)""><div class = content><div class = numbers>K</div></div></button><button id = button_6 class = ""square num-button"" onclick = ""recordClick(this)""><div class = content><div class = numbers>L</div></div></button><button id = button_7 class = ""square num-button"" onclick = ""recordClick(this)""><div class = content><div class = numbers>N</div></div></button><button id = button_8 class = ""square num-button"" onclick = ""recordClick(this)""><div class = content><div class = numbers>P</div></div></button><button id = button_9 class = ""square num-button"" onclick = ""recordClick(this)""><div class = content><div class = numbers>Q</div></div></button><button id = button_10 class = ""square num-button"" onclick = ""recordClick(this)""><div class = content><div class = numbers>R</div></div></button><button id = button_11 class = ""square num-button"" onclick = ""recordClick(this)""><div class = content><div class = numbers>S</div></div></button><button id = button_12 class = ""square num-button"" onclick = ""recordClick(this)""><div class = content><div class = numbers>Y</div></div></button><button class = clear_button id = ""ClearButton"" onclick = ""clearResponse()"">BACKSPACE</button><button class = blank_button id = ""BlankButton"" onclick = ""blankResponse()"">SKIP</button><p style=""font-size: 2.4rem""><u><b>Current Answer:</b></u></p><br><br><div id=echoed_txt style=""font-size: 5rem; color:blue;""><b></b></div></div>",enter,ospan,retrieval,Vp1pzNox69c6G2WcpHnJjfX0REO2,html-keyboard-response,98,680681,0.0-46.0-2.0-2.0-2.0-0.0,NA,NA,NA,3.0,"[""S"",""J"",""N""]","[""S"",""J"",""N""]",1.0,3.0,"['<font color=""green"">S</font>', '<font color=""green"">J</font>', '<font color=""green"">N</font>']",,,,,,5c6e7cc242fe6b000190936a,13:25:29,03/04/2024
752.9999999998836,"['<p style=""font-size:44px"">Letters:<br><br><br><font color=""green"">S</font> <font color=""green"">J</font> <font color=""green"">N</font></p><br><br><p style=""font-size:30px"">Symmetry:<br><br><font color=""green"">100%</font></p><br><br>']",0,ospan,practice_feedback,Vp1pzNox69c6G2WcpHnJjfX0REO2,html-button-response,99,681939,0.0-46.0-2.0-2.0-2.0-1.0,,,,,,,,,,,,,,,5c6e7cc242fe6b000190936a,13:25:29,03/04/2024
7948.000000000116,"<div class = 'left_align' style='font-size: 3rem; line-height: 1.3;'><b>Great work! That is the end of practice.</b><br><br>The real trials will look just like the practice trials you just completed.<br><br><u>Here, you will not see feedback</u>. First, you will see an grid picture to judge,<br>then a letter to remember. When the recall screen appears, report the letters in the<br>order presented. If you forget a letter, remember to use the <b>blank</b> button to move to the<br>next letter. Some of the sets will have more symmetry grids and letters than others.<br><br>It is important that you do your best on both the symmetry judgments and the letter recall<br>parts of the experiment. For for the symmetry judgments, try to work as <b>quickly</b> and <br>as <b>accurately</b> as possible. Remember to keep your symmetry accuracy at 85% or above.<br><br><b>For the letters, do NOT use any external aid (e.g., writing on paper, electronic device).</b><br><br>It is <u>very important</u> to our experiment to have a <b>true</b> view of your real performance.<br><br>Do not worry if you miss some when it gets hard! This task is meant to be very challenging!<br><br>Click the button to begin.</div><br><br><br><br>",0,ospan,starting_real_here,Vp1pzNox69c6G2WcpHnJjfX0REO2,html-button-response,100,689888,0.0-46.0-2.0-3.0,,,,,,,,,,,,,,,5c6e7cc242fe6b000190936a,13:25:29,03/04/2024
,"<p style=""font-size:75px;"">...</p>",,ospan,iti,Vp1pzNox69c6G2WcpHnJjfX0REO2,html-keyboard-response,101,691142,0.0-46.0-3.0-0.0-0.0,,,,,,,,,,,,,,,5c6e7cc242fe6b000190936a,13:25:29,03/04/2024
1843.0,,,ospan,symmetry,Vp1pzNox69c6G2WcpHnJjfX0REO2,symmetry-judgement-task,102,694044,0.0-46.0-3.0-0.0-1.0-0.0,,,,,,,,,,1.0,1.0,,,,5c6e7cc242fe6b000190936a,13:25:29,03/04/2024
,"<div style=""font-size: 10rem; color: #0000FF"">Y</div>",,ospan,letter,Vp1pzNox69c6G2WcpHnJjfX0REO2,html-keyboard-response,103,695048,0.0-46.0-3.0-0.0-1.0-1.0,,,,,,,,,,,,,,,5c6e7cc242fe6b000190936a,13:25:29,03/04/2024
1974.0,,,ospan,symmetry,Vp1pzNox69c6G2WcpHnJjfX0REO2,symmetry-judgement-task,104,698830,0.0-46.0-3.0-0.0-1.0-2.0,,,,,,,,,,1.0,1.0,,,,5c6e7cc242fe6b000190936a,13:25:29,03/04/2024
,"<div style=""font-size: 10rem; color: #0000FF"">G</div>",,ospan,letter,Vp1pzNox69c6G2WcpHnJjfX0REO2,html-keyboard-response,105,699833,0.0-46.0-3.0-0.0-1.0-3.0,,,,,,,,,,,,,,,5c6e7cc242fe6b000190936a,13:25:29,03/04/2024
1288.0,,,ospan,symmetry,Vp1pzNox69c6G2WcpHnJjfX0REO2,symmetry-judgement-task,106,702924,0.0-46.0-3.0-0.0-1.0-4.0,,,,,,,,,,1.0,1.0,,,,5c6e7cc242fe6b000190936a,13:25:29,03/04/2024
,"<div style=""font-size: 10rem; color: #0000FF"">K</div>",,ospan,letter,Vp1pzNox69c6G2WcpHnJjfX0REO2,html-keyboard-response,107,703926,0.0-46.0-3.0-0.0-1.0-5.0,,,,,,,,,,,,,,,5c6e7cc242fe6b000190936a,13:25:29,03/04/2024
4061.0,"<div class = numbox><p style=""font-size: 2.4rem"">Please recall the letters you saw to the best of your ability. If you do not remember a particular letter, use the SKIP button.<br><b>(When you are ready to lock in your answer, press ENTER)</b></p><button id = button_1 class = ""square num-button"" onclick = ""recordClick(this)""><div class = content><div class = numbers>C</div></div></button><button id = button_2 class = ""square num-button"" onclick = ""recordClick(this)""><div class = content><div class = numbers>G</div></div></button><button id = button_3 class = ""square num-button"" onclick = ""recordClick(this)""><div class = content><div class = numbers>H</div></div></button><button id = button_4 class = ""square num-button"" onclick = ""recordClick(this)""><div class = content><div class = numbers>J</div></div></button><button id = button_5 class = ""square num-button"" onclick = ""recordClick(this)""><div class = content><div class = numbers>K</div></div></button><button id = button_6 class = ""square num-button"" onclick = ""recordClick(this)""><div class = content><div class = numbers>L</div></div></button><button id = button_7 class = ""square num-button"" onclick = ""recordClick(this)""><div class = content><div class = numbers>N</div></div></button><button id = button_8 class = ""square num-button"" onclick = ""recordClick(this)""><div class = content><div class = numbers>P</div></div></button><button id = button_9 class = ""square num-button"" onclick = ""recordClick(this)""><div class = content><div class = numbers>Q</div></div></button><button id = button_10 class = ""square num-button"" onclick = ""recordClick(this)""><div class = content><div class = numbers>R</div></div></button><button id = button_11 class = ""square num-button"" onclick = ""recordClick(this)""><div class = content><div class = numbers>S</div></div></button><button id = button_12 class = ""square num-button"" onclick = ""recordClick(this)""><div class = content><div class = numbers>Y</div></div></button><button class = clear_button id = ""ClearButton"" onclick = ""clearResponse()"">BACKSPACE</button><button class = blank_button id = ""BlankButton"" onclick = ""blankResponse()"">SKIP</button><p style=""font-size: 2.4rem""><u><b>Current Answer:</b></u></p><br><br><div id=echoed_txt style=""font-size: 5rem; color:blue;""><b></b></div></div>",enter,ospan,retrieval,Vp1pzNox69c6G2WcpHnJjfX0REO2,html-keyboard-response,108,708741,0.0-46.0-3.0-0.0-2.0,3,3,3,3.0,"[""Y"",""G"",""K""]","[""Y"",""G"",""K""]",1.0,3.0,,,,,,,5c6e7cc242fe6b000190936a,13:25:29,03/04/2024
732.0,[''],0,ospan,feedback,Vp1pzNox69c6G2WcpHnJjfX0REO2,html-button-response,109,709976,0.0-46.0-3.0-0.0-3.0,,,,,,,,,,,,100.0,0.0,,5c6e7cc242fe6b000190936a,13:25:29,03/04/2024
,"<p style=""font-size:75px;"">...</p>",,ospan,iti,Vp1pzNox69c6G2WcpHnJjfX0REO2,html-keyboard-response,110,710978,0.0-46.0-4.0-0.0-0.0,,,,,,,,,,,,,,,5c6e7cc242fe6b000190936a,13:25:29,03/04/2024
1602.0,,,ospan,symmetry,Vp1pzNox69c6G2WcpHnJjfX0REO2,symmetry-judgement-task,111,713636,0.0-46.0-4.0-0.0-1.0-0.0,,,,,,,,,,1.0,1.0,,,,5c6e7cc242fe6b000190936a,13:25:29,03/04/2024
,"<div style=""font-size: 10rem; color: #0000FF"">G</div>",,ospan,letter,Vp1pzNox69c6G2WcpHnJjfX0REO2,html-keyboard-response,112,714639,0.0-46.0-4.0-0.0-1.0-1.0,,,,,,,,,,,,,,,5c6e7cc242fe6b000190936a,13:25:29,03/04/2024
1191.0,,,ospan,symmetry,Vp1pzNox69c6G2WcpHnJjfX0REO2,symmetry-judgement-task,113,717641,0.0-46.0-4.0-0.0-1.0-2.0,,,,,,,,,,1.0,1.0,,,,5c6e7cc242fe6b000190936a,13:25:29,03/04/2024
,"<div style=""font-size: 10rem; color: #0000FF"">S</div>",,ospan,letter,Vp1pzNox69c6G2WcpHnJjfX0REO2,html-keyboard-response,114,718642,0.0-46.0-4.0-0.0-1.0-3.0,,,,,,,,,,,,,,,5c6e7cc242fe6b000190936a,13:25:29,03/04/2024
1845.0,,,ospan,symmetry,Vp1pzNox69c6G2WcpHnJjfX0REO2,symmetry-judgement-task,115,722298,0.0-46.0-4.0-0.0-1.0-4.0,,,,,,,,,,1.0,1.0,,,,5c6e7cc242fe6b000190936a,13:25:29,03/04/2024
,"<div style=""font-size: 10rem; color: #0000FF"">C</div>",,ospan,letter,Vp1pzNox69c6G2WcpHnJjfX0REO2,html-keyboard-response,116,723300,0.0-46.0-4.0-0.0-1.0-5.0,,,,,,,,,,,,,,,5c6e7cc242fe6b000190936a,13:25:29,03/04/2024
1288.0,,,ospan,symmetry,Vp1pzNox69c6G2WcpHnJjfX0REO2,symmetry-judgement-task,117,726392,0.0-46.0-4.0-0.0-1.0-6.0,,,,,,,,,,1.0,1.0,,,,5c6e7cc242fe6b000190936a,13:25:29,03/04/2024
,"<div style=""font-size: 10rem; color: #0000FF"">J</div>",,ospan,letter,Vp1pzNox69c6G2WcpHnJjfX0REO2,html-keyboard-response,118,727394,0.0-46.0-4.0-0.0-1.0-7.0,,,,,,,,,,,,,,,5c6e7cc242fe6b000190936a,13:25:29,03/04/2024
4899.0,"<div class = numbox><p style=""font-size: 2.4rem"">Please recall the letters you saw to the best of your ability. If you do not remember a particular letter, use the SKIP button.<br><b>(When you are ready to lock in your answer, press ENTER)</b></p><button id = button_1 class = ""square num-button"" onclick = ""recordClick(this)""><div class = content><div class = numbers>C</div></div></button><button id = button_2 class = ""square num-button"" onclick = ""recordClick(this)""><div class = content><div class = numbers>G</div></div></button><button id = button_3 class = ""square num-button"" onclick = ""recordClick(this)""><div class = content><div class = numbers>H</div></div></button><button id = button_4 class = ""square num-button"" onclick = ""recordClick(this)""><div class = content><div class = numbers>J</div></div></button><button id = button_5 class = ""square num-button"" onclick = ""recordClick(this)""><div class = content><div class = numbers>K</div></div></button><button id = button_6 class = ""square num-button"" onclick = ""recordClick(this)""><div class = content><div class = numbers>L</div></div></button><button id = button_7 class = ""square num-button"" onclick = ""recordClick(this)""><div class = content><div class = numbers>N</div></div></button><button id = button_8 class = ""square num-button"" onclick = ""recordClick(this)""><div class = content><div class = numbers>P</div></div></button><button id = button_9 class = ""square num-button"" onclick = ""recordClick(this)""><div class = content><div class = numbers>Q</div></div></button><button id = button_10 class = ""square num-button"" onclick = ""recordClick(this)""><div class = content><div class = numbers>R</div></div></button><button id = button_11 class = ""square num-button"" onclick = ""recordClick(this)""><div class = content><div class = numbers>S</div></div></button><button id = button_12 class = ""square num-button"" onclick = ""recordClick(this)""><div class = content><div class = numbers>Y</div></div></button><button class = clear_button id = ""ClearButton"" onclick = ""clearResponse()"">BACKSPACE</button><button class = blank_button id = ""BlankButton"" onclick = ""blankResponse()"">SKIP</button><p style=""font-size: 2.4rem""><u><b>Current Answer:</b></u></p><br><br><div id=echoed_txt style=""font-size: 5rem; color:blue;""><b></b></div></div>",enter,ospan,retrieval,Vp1pzNox69c6G2WcpHnJjfX0REO2,html-keyboard-response,119,733047,0.0-46.0-4.0-0.0-2.0,7,7,7,4.0,"[""G"",""S"",""C"",""J""]","[""G"",""S"",""C"",""J""]",1.0,4.0,,,,,,,5c6e7cc242fe6b000190936a,13:25:29,03/04/2024
859.0,[''],0,ospan,feedback,Vp1pzNox69c6G2WcpHnJjfX0REO2,html-button-response,120,734407,0.0-46.0-4.0-0.0-3.0,,,,,,,,,,,,100.0,0.0,,5c6e7cc242fe6b000190936a,13:25:29,03/04/2024
,"<p style=""font-size:75px;"">...</p>",,ospan,iti,Vp1pzNox69c6G2WcpHnJjfX0REO2,html-keyboard-response,121,735409,0.0-46.0-4.0-1.0-0.0,,,,,,,,,,,,,,,5c6e7cc242fe6b000190936a,13:25:29,03/04/2024
1684.0,,,ospan,symmetry,Vp1pzNox69c6G2WcpHnJjfX0REO2,symmetry-judgement-task,122,738155,0.0-46.0-4.0-1.0-1.0-0.0,,,,,,,,,,1.0,1.0,,,,5c6e7cc242fe6b000190936a,13:25:29,03/04/2024
,"<div style=""font-size: 10rem; color: #0000FF"">L</div>",,ospan,letter,Vp1pzNox69c6G2WcpHnJjfX0REO2,html-keyboard-response,123,739157,0.0-46.0-4.0-1.0-1.0-1.0,,,,,,,,,,,,,,,5c6e7cc242fe6b000190936a,13:25:29,03/04/2024
1019.0,,,ospan,symmetry,Vp1pzNox69c6G2WcpHnJjfX0REO2,symmetry-judgement-task,124,741984,0.0-46.0-4.0-1.0-1.0-2.0,,,,,,,,,,1.0,1.0,,,,5c6e7cc242fe6b000190936a,13:25:29,03/04/2024
,"<div style=""font-size: 10rem; color: #0000FF"">Q</div>",,ospan,letter,Vp1pzNox69c6G2WcpHnJjfX0REO2,html-keyboard-response,125,742986,0.0-46.0-4.0-1.0-1.0-3.0,,,,,,,,,,,,,,,5c6e7cc242fe6b000190936a,13:25:29,03/04/2024
874.0,,,ospan,symmetry,Vp1pzNox69c6G2WcpHnJjfX0REO2,symmetry-judgement-task,126,745670,0.0-46.0-4.0-1.0-1.0-4.0,,,,,,,,,,1.0,1.0,,,,5c6e7cc242fe6b000190936a,13:25:29,03/04/2024
,"<div style=""font-size: 10rem; color: #0000FF"">C</div>",,ospan,letter,Vp1pzNox69c6G2WcpHnJjfX0REO2,html-keyboard-response,127,746673,0.0-46.0-4.0-1.0-1.0-5.0,,,,,,,,,,,,,,,5c6e7cc242fe6b000190936a,13:25:29,03/04/2024
1687.0,,,ospan,symmetry,Vp1pzNox69c6G2WcpHnJjfX0REO2,symmetry-judgement-task,128,750177,0.0-46.0-4.0-1.0-1.0-6.0,,,,,,,,,,1.0,1.0,,,,5c6e7cc242fe6b000190936a,13:25:29,03/04/2024
,"<div style=""font-size: 10rem; color: #0000FF"">J</div>",,ospan,letter,Vp1pzNox69c6G2WcpHnJjfX0REO2,html-keyboard-response,129,751179,0.0-46.0-4.0-1.0-1.0-7.0,,,,,,,,,,,,,,,5c6e7cc242fe6b000190936a,13:25:29,03/04/2024
2248.0,,,ospan,symmetry,Vp1pzNox69c6G2WcpHnJjfX0REO2,symmetry-judgement-task,130,755212,0.0-46.0-4.0-1.0-1.0-8.0,,,,,,,,,,1.0,1.0,,,,5c6e7cc242fe6b000190936a,13:25:29,03/04/2024
,"<div style=""font-size: 10rem; color: #0000FF"">N</div>",,ospan,letter,Vp1pzNox69c6G2WcpHnJjfX0REO2,html-keyboard-response,131,756214,0.0-46.0-4.0-1.0-1.0-9.0,,,,,,,,,,,,,,,5c6e7cc242fe6b000190936a,13:25:29,03/04/2024
7533.0,"<div class = numbox><p style=""font-size: 2.4rem"">Please recall the letters you saw to the best of your ability. If you do not remember a particular letter, use the SKIP button.<br><b>(When you are ready to lock in your answer, press ENTER)</b></p><button id = button_1 class = ""square num-button"" onclick = ""recordClick(this)""><div class = content><div class = numbers>C</div></div></button><button id = button_2 class = ""square num-button"" onclick = ""recordClick(this)""><div class = content><div class = numbers>G</div></div></button><button id = button_3 class = ""square num-button"" onclick = ""recordClick(this)""><div class = content><div class = numbers>H</div></div></button><button id = button_4 class = ""square num-button"" onclick = ""recordClick(this)""><div class = content><div class = numbers>J</div></div></button><button id = button_5 class = ""square num-button"" onclick = ""recordClick(this)""><div class = content><div class = numbers>K</div></div></button><button id = button_6 class = ""square num-button"" onclick = ""recordClick(this)""><div class = content><div class = numbers>L</div></div></button><button id = button_7 class = ""square num-button"" onclick = ""recordClick(this)""><div class = content><div class = numbers>N</div></div></button><button id = button_8 class = ""square num-button"" onclick = ""recordClick(this)""><div class = content><div class = numbers>P</div></div></button><button id = button_9 class = ""square num-button"" onclick = ""recordClick(this)""><div class = content><div class = numbers>Q</div></div></button><button id = button_10 class = ""square num-button"" onclick = ""recordClick(this)""><div class = content><div class = numbers>R</div></div></button><button id = button_11 class = ""square num-button"" onclick = ""recordClick(this)""><div class = content><div class = numbers>S</div></div></button><button id = button_12 class = ""square num-button"" onclick = ""recordClick(this)""><div class = content><div class = numbers>Y</div></div></button><button class = clear_button id = ""ClearButton"" onclick = ""clearResponse()"">BACKSPACE</button><button class = blank_button id = ""BlankButton"" onclick = ""blankResponse()"">SKIP</button><p style=""font-size: 2.4rem""><u><b>Current Answer:</b></u></p><br><br><div id=echoed_txt style=""font-size: 5rem; color:blue;""><b></b></div></div>",enter,ospan,retrieval,Vp1pzNox69c6G2WcpHnJjfX0REO2,html-keyboard-response,132,764501,0.0-46.0-4.0-1.0-2.0,12,12,12,5.0,"[""L"",""Q"",""C"",""J"",""N""]","[""L"",""Q"",""C"",""J"",""N""]",1.0,5.0,,,,,,,5c6e7cc242fe6b000190936a,13:25:29,03/04/2024
679.0,[''],0,ospan,feedback,Vp1pzNox69c6G2WcpHnJjfX0REO2,html-button-response,133,765683,0.0-46.0-4.0-1.0-3.0,,,,,,,,,,,,100.0,0.0,,5c6e7cc242fe6b000190936a,13:25:29,03/04/2024
,"<p style=""font-size:75px;"">...</p>",,ospan,iti,Vp1pzNox69c6G2WcpHnJjfX0REO2,html-keyboard-response,134,766686,0.0-46.0-4.0-2.0-0.0,,,,,,,,,,,,,,,5c6e7cc242fe6b000190936a,13:25:29,03/04/2024
1697.0,,,ospan,symmetry,Vp1pzNox69c6G2WcpHnJjfX0REO2,symmetry-judgement-task,135,769436,0.0-46.0-4.0-2.0-1.0-0.0,,,,,,,,,,1.0,1.0,,,,5c6e7cc242fe6b000190936a,13:25:29,03/04/2024
,"<div style=""font-size: 10rem; color: #0000FF"">G</div>",,ospan,letter,Vp1pzNox69c6G2WcpHnJjfX0REO2,html-keyboard-response,136,770438,0.0-46.0-4.0-2.0-1.0-1.0,,,,,,,,,,,,,,,5c6e7cc242fe6b000190936a,13:25:29,03/04/2024
1403.0,,,ospan,symmetry,Vp1pzNox69c6G2WcpHnJjfX0REO2,symmetry-judgement-task,137,773652,0.0-46.0-4.0-2.0-1.0-2.0,,,,,,,,,,1.0,1.0,,,,5c6e7cc242fe6b000190936a,13:25:29,03/04/2024
,"<div style=""font-size: 10rem; color: #0000FF"">R</div>",,ospan,letter,Vp1pzNox69c6G2WcpHnJjfX0REO2,html-keyboard-response,138,774655,0.0-46.0-4.0-2.0-1.0-3.0,,,,,,,,,,,,,,,5c6e7cc242fe6b000190936a,13:25:29,03/04/2024
854.0,,,ospan,symmetry,Vp1pzNox69c6G2WcpHnJjfX0REO2,symmetry-judgement-task,139,777313,0.0-46.0-4.0-2.0-1.0-4.0,,,,,,,,,,1.0,1.0,,,,5c6e7cc242fe6b000190936a,13:25:29,03/04/2024
,"<div style=""font-size: 10rem; color: #0000FF"">Y</div>",,ospan,letter,Vp1pzNox69c6G2WcpHnJjfX0REO2,html-keyboard-response,140,778315,0.0-46.0-4.0-2.0-1.0-5.0,,,,,,,,,,,,,,,5c6e7cc242fe6b000190936a,13:25:29,03/04/2024
4856.0,"<div class = numbox><p style=""font-size: 2.4rem"">Please recall the letters you saw to the best of your ability. If you do not remember a particular letter, use the SKIP button.<br><b>(When you are ready to lock in your answer, press ENTER)</b></p><button id = button_1 class = ""square num-button"" onclick = ""recordClick(this)""><div class = content><div class = numbers>C</div></div></button><button id = button_2 class = ""square num-button"" onclick = ""recordClick(this)""><div class = content><div class = numbers>G</div></div></button><button id = button_3 class = ""square num-button"" onclick = ""recordClick(this)""><div class = content><div class = numbers>H</div></div></button><button id = button_4 class = ""square num-button"" onclick = ""recordClick(this)""><div class = content><div class = numbers>J</div></div></button><button id = button_5 class = ""square num-button"" onclick = ""recordClick(this)""><div class = content><div class = numbers>K</div></div></button><button id = button_6 class = ""square num-button"" onclick = ""recordClick(this)""><div class = content><div class = numbers>L</div></div></button><button id = button_7 class = ""square num-button"" onclick = ""recordClick(this)""><div class = content><div class = numbers>N</div></div></button><button id = button_8 class = ""square num-button"" onclick = ""recordClick(this)""><div class = content><div class = numbers>P</div></div></button><button id = button_9 class = ""square num-button"" onclick = ""recordClick(this)""><div class = content><div class = numbers>Q</div></div></button><button id = button_10 class = ""square num-button"" onclick = ""recordClick(this)""><div class = content><div class = numbers>R</div></div></button><button id = button_11 class = ""square num-button"" onclick = ""recordClick(this)""><div class = content><div class = numbers>S</div></div></button><button id = button_12 class = ""square num-button"" onclick = ""recordClick(this)""><div class = content><div class = numbers>Y</div></div></button><button class = clear_button id = ""ClearButton"" onclick = ""clearResponse()"">BACKSPACE</button><button class = blank_button id = ""BlankButton"" onclick = ""blankResponse()"">SKIP</button><p style=""font-size: 2.4rem""><u><b>Current Answer:</b></u></p><br><br><div id=echoed_txt style=""font-size: 5rem; color:blue;""><b></b></div></div>",enter,ospan,retrieval,Vp1pzNox69c6G2WcpHnJjfX0REO2,html-keyboard-response,141,783923,0.0-46.0-4.0-2.0-2.0,15,15,15,3.0,"[""G"",""R"",""Y""]","[""G"",""R"",""Y""]",1.0,3.0,,,,,,,5c6e7cc242fe6b000190936a,13:25:29,03/04/2024
1185.0,[''],0,ospan,feedback,Vp1pzNox69c6G2WcpHnJjfX0REO2,html-button-response,142,785611,0.0-46.0-4.0-2.0-3.0,,,,,,,,,,,,100.0,0.0,,5c6e7cc242fe6b000190936a,13:25:29,03/04/2024
,"<p style=""font-size:75px;"">...</p>",,ospan,iti,Vp1pzNox69c6G2WcpHnJjfX0REO2,html-keyboard-response,143,786613,0.0-46.0-5.0-0.0-0.0,,,,,,,,,,,,,,,5c6e7cc242fe6b000190936a,13:25:29,03/04/2024
1460.0,,,ospan,symmetry,Vp1pzNox69c6G2WcpHnJjfX0REO2,symmetry-judgement-task,144,789124,0.0-46.0-5.0-0.0-1.0-0.0,,,,,,,,,,1.0,1.0,,,,5c6e7cc242fe6b000190936a,13:25:29,03/04/2024
,"<div style=""font-size: 10rem; color: #0000FF"">G</div>",,ospan,letter,Vp1pzNox69c6G2WcpHnJjfX0REO2,html-keyboard-response,145,790125,0.0-46.0-5.0-0.0-1.0-1.0,,,,,,,,,,,,,,,5c6e7cc242fe6b000190936a,13:25:29,03/04/2024
1450.0,,,ospan,symmetry,Vp1pzNox69c6G2WcpHnJjfX0REO2,symmetry-judgement-task,146,793388,0.0-46.0-5.0-0.0-1.0-2.0,,,,,,,,,,1.0,1.0,,,,5c6e7cc242fe6b000190936a,13:25:29,03/04/2024
,"<div style=""font-size: 10rem; color: #0000FF"">N</div>",,ospan,letter,Vp1pzNox69c6G2WcpHnJjfX0REO2,html-keyboard-response,147,794389,0.0-46.0-5.0-0.0-1.0-3.0,,,,,,,,,,,,,,,5c6e7cc242fe6b000190936a,13:25:29,03/04/2024
1839.0,,,ospan,symmetry,Vp1pzNox69c6G2WcpHnJjfX0REO2,symmetry-judgement-task,148,798036,0.0-46.0-5.0-0.0-1.0-4.0,,,,,,,,,,1.0,1.0,,,,5c6e7cc242fe6b000190936a,13:25:29,03/04/2024
,"<div style=""font-size: 10rem; color: #0000FF"">L</div>",,ospan,letter,Vp1pzNox69c6G2WcpHnJjfX0REO2,html-keyboard-response,149,799038,0.0-46.0-5.0-0.0-1.0-5.0,,,,,,,,,,,,,,,5c6e7cc242fe6b000190936a,13:25:29,03/04/2024
1696.0,,,ospan,symmetry,Vp1pzNox69c6G2WcpHnJjfX0REO2,symmetry-judgement-task,150,802518,0.0-46.0-5.0-0.0-1.0-6.0,,,,,,,,,,1.0,1.0,,,,5c6e7cc242fe6b000190936a,13:25:29,03/04/2024
,"<div style=""font-size: 10rem; color: #0000FF"">H</div>",,ospan,letter,Vp1pzNox69c6G2WcpHnJjfX0REO2,html-keyboard-response,151,803519,0.0-46.0-5.0-0.0-1.0-7.0,,,,,,,,,,,,,,,5c6e7cc242fe6b000190936a,13:25:29,03/04/2024
1372.0,,,ospan,symmetry,Vp1pzNox69c6G2WcpHnJjfX0REO2,symmetry-judgement-task,152,806676,0.0-46.0-5.0-0.0-1.0-8.0,,,,,,,,,,1.0,1.0,,,,5c6e7cc242fe6b000190936a,13:25:29,03/04/2024
,"<div style=""font-size: 10rem; color: #0000FF"">K</div>",,ospan,letter,Vp1pzNox69c6G2WcpHnJjfX0REO2,html-keyboard-response,153,807679,0.0-46.0-5.0-0.0-1.0-9.0,,,,,,,,,,,,,,,5c6e7cc242fe6b000190936a,13:25:29,03/04/2024
4693.0,,,ospan,symmetry,Vp1pzNox69c6G2WcpHnJjfX0REO2,symmetry-judgement-task,154,814170,0.0-46.0-5.0-0.0-1.0-10.0,,,,,,,,,,1.0,1.0,,,,5c6e7cc242fe6b000190936a,13:25:29,03/04/2024
,"<div style=""font-size: 10rem; color: #0000FF"">R</div>",,ospan,letter,Vp1pzNox69c6G2WcpHnJjfX0REO2,html-keyboard-response,155,815171,0.0-46.0-5.0-0.0-1.0-11.0,,,,,,,,,,,,,,,5c6e7cc242fe6b000190936a,13:25:29,03/04/2024
6319.0,"<div class = numbox><p style=""font-size: 2.4rem"">Please recall the letters you saw to the best of your ability. If you do not remember a particular letter, use the SKIP button.<br><b>(When you are ready to lock in your answer, press ENTER)</b></p><button id = button_1 class = ""square num-button"" onclick = ""recordClick(this)""><div class = content><div class = numbers>C</div></div></button><button id = button_2 class = ""square num-button"" onclick = ""recordClick(this)""><div class = content><div class = numbers>G</div></div></button><button id = button_3 class = ""square num-button"" onclick = ""recordClick(this)""><div class = content><div class = numbers>H</div></div></button><button id = button_4 class = ""square num-button"" onclick = ""recordClick(this)""><div class = content><div class = numbers>J</div></div></button><button id = button_5 class = ""square num-button"" onclick = ""recordClick(this)""><div class = content><div class = numbers>K</div></div></button><button id = button_6 class = ""square num-button"" onclick = ""recordClick(this)""><div class = content><div class = numbers>L</div></div></button><button id = button_7 class = ""square num-button"" onclick = ""recordClick(this)""><div class = content><div class = numbers>N</div></div></button><button id = button_8 class = ""square num-button"" onclick = ""recordClick(this)""><div class = content><div class = numbers>P</div></div></button><button id = button_9 class = ""square num-button"" onclick = ""recordClick(this)""><div class = content><div class = numbers>Q</div></div></button><button id = button_10 class = ""square num-button"" onclick = ""recordClick(this)""><div class = content><div class = numbers>R</div></div></button><button id = button_11 class = ""square num-button"" onclick = ""recordClick(this)""><div class = content><div class = numbers>S</div></div></button><button id = button_12 class = ""square num-button"" onclick = ""recordClick(this)""><div class = content><div class = numbers>Y</div></div></button><button class = clear_button id = ""ClearButton"" onclick = ""clearResponse()"">BACKSPACE</button><button class = blank_button id = ""BlankButton"" onclick = ""blankResponse()"">SKIP</button><p style=""font-size: 2.4rem""><u><b>Current Answer:</b></u></p><br><br><div id=echoed_txt style=""font-size: 5rem; color:blue;""><b></b></div></div>",enter,ospan,retrieval,Vp1pzNox69c6G2WcpHnJjfX0REO2,html-keyboard-response,156,822241,0.0-46.0-5.0-0.0-2.0,21,19,15,6.0,"[""G"",""L"",""N"",""H"",""K"",""R""]","[""G"",""N"",""L"",""H"",""K"",""R""]",0.0,4.0,,,,,,,5c6e7cc242fe6b000190936a,13:25:29,03/04/2024
858.0,[''],0,ospan,feedback,Vp1pzNox69c6G2WcpHnJjfX0REO2,html-button-response,157,823602,0.0-46.0-5.0-0.0-3.0,,,,,,,,,,,,100.0,0.0,,5c6e7cc242fe6b000190936a,13:25:29,03/04/2024
,"<p style=""font-size:75px;"">...</p>",,ospan,iti,Vp1pzNox69c6G2WcpHnJjfX0REO2,html-keyboard-response,158,824604,0.0-46.0-5.0-1.0-0.0,,,,,,,,,,,,,,,5c6e7cc242fe6b000190936a,13:25:29,03/04/2024
1709.0,,,ospan,symmetry,Vp1pzNox69c6G2WcpHnJjfX0REO2,symmetry-judgement-task,159,827374,0.0-46.0-5.0-1.0-1.0-0.0,,,,,,,,,,1.0,1.0,,,,5c6e7cc242fe6b000190936a,13:25:29,03/04/2024
,"<div style=""font-size: 10rem; color: #0000FF"">L</div>",,ospan,letter,Vp1pzNox69c6G2WcpHnJjfX0REO2,html-keyboard-response,160,828377,0.0-46.0-5.0-1.0-1.0-1.0,,,,,,,,,,,,,,,5c6e7cc242fe6b000190936a,13:25:29,03/04/2024
1036.0,,,ospan,symmetry,Vp1pzNox69c6G2WcpHnJjfX0REO2,symmetry-judgement-task,161,831196,0.0-46.0-5.0-1.0-1.0-2.0,,,,,,,,,,1.0,1.0,,,,5c6e7cc242fe6b000190936a,13:25:29,03/04/2024
,"<div style=""font-size: 10rem; color: #0000FF"">C</div>",,ospan,letter,Vp1pzNox69c6G2WcpHnJjfX0REO2,html-keyboard-response,162,832199,0.0-46.0-5.0-1.0-1.0-3.0,,,,,,,,,,,,,,,5c6e7cc242fe6b000190936a,13:25:29,03/04/2024
1020.0,,,ospan,symmetry,Vp1pzNox69c6G2WcpHnJjfX0REO2,symmetry-judgement-task,163,835025,0.0-46.0-5.0-1.0-1.0-4.0,,,,,,,,,,1.0,1.0,,,,5c6e7cc242fe6b000190936a,13:25:29,03/04/2024
,"<div style=""font-size: 10rem; color: #0000FF"">S</div>",,ospan,letter,Vp1pzNox69c6G2WcpHnJjfX0REO2,html-keyboard-response,164,836027,0.0-46.0-5.0-1.0-1.0-5.0,,,,,,,,,,,,,,,5c6e7cc242fe6b000190936a,13:25:29,03/04/2024
1228.0,,,ospan,symmetry,Vp1pzNox69c6G2WcpHnJjfX0REO2,symmetry-judgement-task,165,839040,0.0-46.0-5.0-1.0-1.0-6.0,,,,,,,,,,1.0,1.0,,,,5c6e7cc242fe6b000190936a,13:25:29,03/04/2024
,"<div style=""font-size: 10rem; color: #0000FF"">G</div>",,ospan,letter,Vp1pzNox69c6G2WcpHnJjfX0REO2,html-keyboard-response,166,840043,0.0-46.0-5.0-1.0-1.0-7.0,,,,,,,,,,,,,,,5c6e7cc242fe6b000190936a,13:25:29,03/04/2024
1185.0,,,ospan,symmetry,Vp1pzNox69c6G2WcpHnJjfX0REO2,symmetry-judgement-task,167,843012,0.0-46.0-5.0-1.0-1.0-8.0,,,,,,,,,,1.0,1.0,,,,5c6e7cc242fe6b000190936a,13:25:29,03/04/2024
,"<div style=""font-size: 10rem; color: #0000FF"">K</div>",,ospan,letter,Vp1pzNox69c6G2WcpHnJjfX0REO2,html-keyboard-response,168,844015,0.0-46.0-5.0-1.0-1.0-9.0,,,,,,,,,,,,,,,5c6e7cc242fe6b000190936a,13:25:29,03/04/2024
1973.0,,,ospan,symmetry,Vp1pzNox69c6G2WcpHnJjfX0REO2,symmetry-judgement-task,169,847794,0.0-46.0-5.0-1.0-1.0-10.0,,,,,,,,,,1.0,1.0,,,,5c6e7cc242fe6b000190936a,13:25:29,03/04/2024
,"<div style=""font-size: 10rem; color: #0000FF"">P</div>",,ospan,letter,Vp1pzNox69c6G2WcpHnJjfX0REO2,html-keyboard-response,170,848796,0.0-46.0-5.0-1.0-1.0-11.0,,,,,,,,,,,,,,,5c6e7cc242fe6b000190936a,13:25:29,03/04/2024
1315.0,,,ospan,symmetry,Vp1pzNox69c6G2WcpHnJjfX0REO2,symmetry-judgement-task,171,851898,0.0-46.0-5.0-1.0-1.0-12.0,,,,,,,,,,1.0,1.0,,,,5c6e7cc242fe6b000190936a,13:25:29,03/04/2024
,"<div style=""font-size: 10rem; color: #0000FF"">J</div>",,ospan,letter,Vp1pzNox69c6G2WcpHnJjfX0REO2,html-keyboard-response,172,852900,0.0-46.0-5.0-1.0-1.0-13.0,,,,,,,,,,,,,,,5c6e7cc242fe6b000190936a,13:25:29,03/04/2024
6293.0,"<div class = numbox><p style=""font-size: 2.4rem"">Please recall the letters you saw to the best of your ability. If you do not remember a particular letter, use the SKIP button.<br><b>(When you are ready to lock in your answer, press ENTER)</b></p><button id = button_1 class = ""square num-button"" onclick = ""recordClick(this)""><div class = content><div class = numbers>C</div></div></button><button id = button_2 class = ""square num-button"" onclick = ""recordClick(this)""><div class = content><div class = numbers>G</div></div></button><button id = button_3 class = ""square num-button"" onclick = ""recordClick(this)""><div class = content><div class = numbers>H</div></div></button><button id = button_4 class = ""square num-button"" onclick = ""recordClick(this)""><div class = content><div class = numbers>J</div></div></button><button id = button_5 class = ""square num-button"" onclick = ""recordClick(this)""><div class = content><div class = numbers>K</div></div></button><button id = button_6 class = ""square num-button"" onclick = ""recordClick(this)""><div class = content><div class = numbers>L</div></div></button><button id = button_7 class = ""square num-button"" onclick = ""recordClick(this)""><div class = content><div class = numbers>N</div></div></button><button id = button_8 class = ""square num-button"" onclick = ""recordClick(this)""><div class = content><div class = numbers>P</div></div></button><button id = button_9 class = ""square num-button"" onclick = ""recordClick(this)""><div class = content><div class = numbers>Q</div></div></button><button id = button_10 class = ""square num-button"" onclick = ""recordClick(this)""><div class = content><div class = numbers>R</div></div></button><button id = button_11 class = ""square num-button"" onclick = ""recordClick(this)""><div class = content><div class = numbers>S</div></div></button><button id = button_12 class = ""square num-button"" onclick = ""recordClick(this)""><div class = content><div class = numbers>Y</div></div></button><button class = clear_button id = ""ClearButton"" onclick = ""clearResponse()"">BACKSPACE</button><button class = blank_button id = ""BlankButton"" onclick = ""blankResponse()"">SKIP</button><p style=""font-size: 2.4rem""><u><b>Current Answer:</b></u></p><br><br><div id=echoed_txt style=""font-size: 5rem; color:blue;""><b></b></div></div>",enter,ospan,retrieval,Vp1pzNox69c6G2WcpHnJjfX0REO2,html-keyboard-response,173,859946,0.0-46.0-5.0-1.0-2.0,28,22,15,7.0,"[""L"",""G"",""S"",""C"",""L"",""P"",""K""]","[""L"",""C"",""S"",""G"",""K"",""P"",""J""]",0.0,3.0,,,,,,,5c6e7cc242fe6b000190936a,13:25:29,03/04/2024
1222.0,[''],0,ospan,feedback,Vp1pzNox69c6G2WcpHnJjfX0REO2,html-button-response,174,861671,0.0-46.0-5.0-1.0-3.0,,,,,,,,,,,,100.0,0.0,,5c6e7cc242fe6b000190936a,13:25:29,03/04/2024
,"<p style=""font-size:75px;"">...</p>",,ospan,iti,Vp1pzNox69c6G2WcpHnJjfX0REO2,html-keyboard-response,175,862674,0.0-46.0-6.0-0.0-0.0,,,,,,,,,,,,,,,5c6e7cc242fe6b000190936a,13:25:29,03/04/2024
1425.0,,,ospan,symmetry,Vp1pzNox69c6G2WcpHnJjfX0REO2,symmetry-judgement-task,176,865161,0.0-46.0-6.0-0.0-1.0-0.0,,,,,,,,,,1.0,1.0,,,,5c6e7cc242fe6b000190936a,13:25:29,03/04/2024
,"<div style=""font-size: 10rem; color: #0000FF"">C</div>",,ospan,letter,Vp1pzNox69c6G2WcpHnJjfX0REO2,html-keyboard-response,177,866163,0.0-46.0-6.0-0.0-1.0-1.0,,,,,,,,,,,,,,,5c6e7cc242fe6b000190936a,13:25:29,03/04/2024
1125.0,,,ospan,symmetry,Vp1pzNox69c6G2WcpHnJjfX0REO2,symmetry-judgement-task,178,869079,0.0-46.0-6.0-0.0-1.0-2.0,,,,,,,,,,1.0,1.0,,,,5c6e7cc242fe6b000190936a,13:25:29,03/04/2024
,"<div style=""font-size: 10rem; color: #0000FF"">N</div>",,ospan,letter,Vp1pzNox69c6G2WcpHnJjfX0REO2,html-keyboard-response,179,870081,0.0-46.0-6.0-0.0-1.0-3.0,,,,,,,,,,,,,,,5c6e7cc242fe6b000190936a,13:25:29,03/04/2024
1232.0,,,ospan,symmetry,Vp1pzNox69c6G2WcpHnJjfX0REO2,symmetry-judgement-task,180,873126,0.0-46.0-6.0-0.0-1.0-4.0,,,,,,,,,,1.0,1.0,,,,5c6e7cc242fe6b000190936a,13:25:29,03/04/2024
,"<div style=""font-size: 10rem; color: #0000FF"">K</div>",,ospan,letter,Vp1pzNox69c6G2WcpHnJjfX0REO2,html-keyboard-response,181,874128,0.0-46.0-6.0-0.0-1.0-5.0,,,,,,,,,,,,,,,5c6e7cc242fe6b000190936a,13:25:29,03/04/2024
913.0,,,ospan,symmetry,Vp1pzNox69c6G2WcpHnJjfX0REO2,symmetry-judgement-task,182,876853,0.0-46.0-6.0-0.0-1.0-6.0,,,,,,,,,,1.0,1.0,,,,5c6e7cc242fe6b000190936a,13:25:29,03/04/2024
,"<div style=""font-size: 10rem; color: #0000FF"">Y</div>",,ospan,letter,Vp1pzNox69c6G2WcpHnJjfX0REO2,html-keyboard-response,183,877855,0.0-46.0-6.0-0.0-1.0-7.0,,,,,,,,,,,,,,,5c6e7cc242fe6b000190936a,13:25:29,03/04/2024
1575.0,,,ospan,symmetry,Vp1pzNox69c6G2WcpHnJjfX0REO2,symmetry-judgement-task,184,881236,0.0-46.0-6.0-0.0-1.0-8.0,,,,,,,,,,1.0,1.0,,,,5c6e7cc242fe6b000190936a,13:25:29,03/04/2024
,"<div style=""font-size: 10rem; color: #0000FF"">S</div>",,ospan,letter,Vp1pzNox69c6G2WcpHnJjfX0REO2,html-keyboard-response,185,882238,0.0-46.0-6.0-0.0-1.0-9.0,,,,,,,,,,,,,,,5c6e7cc242fe6b000190936a,13:25:29,03/04/2024
5278.0,"<div class = numbox><p style=""font-size: 2.4rem"">Please recall the letters you saw to the best of your ability. If you do not remember a particular letter, use the SKIP button.<br><b>(When you are ready to lock in your answer, press ENTER)</b></p><button id = button_1 class = ""square num-button"" onclick = ""recordClick(this)""><div class = content><div class = numbers>C</div></div></button><button id = button_2 class = ""square num-button"" onclick = ""recordClick(this)""><div class = content><div class = numbers>G</div></div></button><button id = button_3 class = ""square num-button"" onclick = ""recordClick(this)""><div class = content><div class = numbers>H</div></div></button><button id = button_4 class = ""square num-button"" onclick = ""recordClick(this)""><div class = content><div class = numbers>J</div></div></button><button id = button_5 class = ""square num-button"" onclick = ""recordClick(this)""><div class = content><div class = numbers>K</div></div></button><button id = button_6 class = ""square num-button"" onclick = ""recordClick(this)""><div class = content><div class = numbers>L</div></div></button><button id = button_7 class = ""square num-button"" onclick = ""recordClick(this)""><div class = content><div class = numbers>N</div></div></button><button id = button_8 class = ""square num-button"" onclick = ""recordClick(this)""><div class = content><div class = numbers>P</div></div></button><button id = button_9 class = ""square num-button"" onclick = ""recordClick(this)""><div class = content><div class = numbers>Q</div></div></button><button id = button_10 class = ""square num-button"" onclick = ""recordClick(this)""><div class = content><div class = numbers>R</div></div></button><button id = button_11 class = ""square num-button"" onclick = ""recordClick(this)""><div class = content><div class = numbers>S</div></div></button><button id = button_12 class = ""square num-button"" onclick = ""recordClick(this)""><div class = content><div class = numbers>Y</div></div></button><button class = clear_button id = ""ClearButton"" onclick = ""clearResponse()"">BACKSPACE</button><button class = blank_button id = ""BlankButton"" onclick = ""blankResponse()"">SKIP</button><p style=""font-size: 2.4rem""><u><b>Current Answer:</b></u></p><br><br><div id=echoed_txt style=""font-size: 5rem; color:blue;""><b></b></div></div>",enter,ospan,retrieval,Vp1pzNox69c6G2WcpHnJjfX0REO2,html-keyboard-response,186,888270,0.0-46.0-6.0-0.0-2.0,33,27,20,5.0,"[""C"",""N"",""K"",""Y"",""S""]","[""C"",""N"",""K"",""Y"",""S""]",1.0,5.0,,,,,,,5c6e7cc242fe6b000190936a,13:25:29,03/04/2024
856.0,[''],0,ospan,feedback,Vp1pzNox69c6G2WcpHnJjfX0REO2,html-button-response,187,889630,0.0-46.0-6.0-0.0-3.0,,,,,,,,,,,,100.0,0.0,,5c6e7cc242fe6b000190936a,13:25:29,03/04/2024
,"<p style=""font-size:75px;"">...</p>",,ospan,iti,Vp1pzNox69c6G2WcpHnJjfX0REO2,html-keyboard-response,188,890633,0.0-46.0-6.0-1.0-0.0,,,,,,,,,,,,,,,5c6e7cc242fe6b000190936a,13:25:29,03/04/2024
2601.0,,,ospan,symmetry,Vp1pzNox69c6G2WcpHnJjfX0REO2,symmetry-judgement-task,189,894292,0.0-46.0-6.0-1.0-1.0-0.0,,,,,,,,,,1.0,1.0,,,,5c6e7cc242fe6b000190936a,13:25:29,03/04/2024
,"<div style=""font-size: 10rem; color: #0000FF"">Y</div>",,ospan,letter,Vp1pzNox69c6G2WcpHnJjfX0REO2,html-keyboard-response,190,895295,0.0-46.0-6.0-1.0-1.0-1.0,,,,,,,,,,,,,,,5c6e7cc242fe6b000190936a,13:25:29,03/04/2024
1536.0,,,ospan,symmetry,Vp1pzNox69c6G2WcpHnJjfX0REO2,symmetry-judgement-task,191,898636,0.0-46.0-6.0-1.0-1.0-2.0,,,,,,,,,,1.0,1.0,,,,5c6e7cc242fe6b000190936a,13:25:29,03/04/2024
,"<div style=""font-size: 10rem; color: #0000FF"">K</div>",,ospan,letter,Vp1pzNox69c6G2WcpHnJjfX0REO2,html-keyboard-response,192,899637,0.0-46.0-6.0-1.0-1.0-3.0,,,,,,,,,,,,,,,5c6e7cc242fe6b000190936a,13:25:29,03/04/2024
1486.0,,,ospan,symmetry,Vp1pzNox69c6G2WcpHnJjfX0REO2,symmetry-judgement-task,193,902934,0.0-46.0-6.0-1.0-1.0-4.0,,,,,,,,,,1.0,1.0,,,,5c6e7cc242fe6b000190936a,13:25:29,03/04/2024
,"<div style=""font-size: 10rem; color: #0000FF"">H</div>",,ospan,letter,Vp1pzNox69c6G2WcpHnJjfX0REO2,html-keyboard-response,194,903936,0.0-46.0-6.0-1.0-1.0-5.0,,,,,,,,,,,,,,,5c6e7cc242fe6b000190936a,13:25:29,03/04/2024
1136.0,,,ospan,symmetry,Vp1pzNox69c6G2WcpHnJjfX0REO2,symmetry-judgement-task,195,906885,0.0-46.0-6.0-1.0-1.0-6.0,,,,,,,,,,1.0,1.0,,,,5c6e7cc242fe6b000190936a,13:25:29,03/04/2024
,"<div style=""font-size: 10rem; color: #0000FF"">G</div>",,ospan,letter,Vp1pzNox69c6G2WcpHnJjfX0REO2,html-keyboard-response,196,907886,0.0-46.0-6.0-1.0-1.0-7.0,,,,,,,,,,,,,,,5c6e7cc242fe6b000190936a,13:25:29,03/04/2024
908.0,,,ospan,symmetry,Vp1pzNox69c6G2WcpHnJjfX0REO2,symmetry-judgement-task,197,910604,0.0-46.0-6.0-1.0-1.0-8.0,,,,,,,,,,1.0,1.0,,,,5c6e7cc242fe6b000190936a,13:25:29,03/04/2024
,"<div style=""font-size: 10rem; color: #0000FF"">C</div>",,ospan,letter,Vp1pzNox69c6G2WcpHnJjfX0REO2,html-keyboard-response,198,911606,0.0-46.0-6.0-1.0-1.0-9.0,,,,,,,,,,,,,,,5c6e7cc242fe6b000190936a,13:25:29,03/04/2024
1084.0,,,ospan,symmetry,Vp1pzNox69c6G2WcpHnJjfX0REO2,symmetry-judgement-task,199,914501,0.0-46.0-6.0-1.0-1.0-10.0,,,,,,,,,,1.0,1.0,,,,5c6e7cc242fe6b000190936a,13:25:29,03/04/2024
,"<div style=""font-size: 10rem; color: #0000FF"">S</div>",,ospan,letter,Vp1pzNox69c6G2WcpHnJjfX0REO2,html-keyboard-response,200,915504,0.0-46.0-6.0-1.0-1.0-11.0,,,,,,,,,,,,,,,5c6e7cc242fe6b000190936a,13:25:29,03/04/2024
1473.0,,,ospan,symmetry,Vp1pzNox69c6G2WcpHnJjfX0REO2,symmetry-judgement-task,201,918784,0.0-46.0-6.0-1.0-1.0-12.0,,,,,,,,,,1.0,1.0,,,,5c6e7cc242fe6b000190936a,13:25:29,03/04/2024
,"<div style=""font-size: 10rem; color: #0000FF"">N</div>",,ospan,letter,Vp1pzNox69c6G2WcpHnJjfX0REO2,html-keyboard-response,202,919786,0.0-46.0-6.0-1.0-1.0-13.0,,,,,,,,,,,,,,,5c6e7cc242fe6b000190936a,13:25:29,03/04/2024
2234.0,,,ospan,symmetry,Vp1pzNox69c6G2WcpHnJjfX0REO2,symmetry-judgement-task,203,923819,0.0-46.0-6.0-1.0-1.0-14.0,,,,,,,,,,1.0,1.0,,,,5c6e7cc242fe6b000190936a,13:25:29,03/04/2024
,"<div style=""font-size: 10rem; color: #0000FF"">L</div>",,ospan,letter,Vp1pzNox69c6G2WcpHnJjfX0REO2,html-keyboard-response,204,924821,0.0-46.0-6.0-1.0-1.0-15.0,,,,,,,,,,,,,,,5c6e7cc242fe6b000190936a,13:25:29,03/04/2024
14898.0,"<div class = numbox><p style=""font-size: 2.4rem"">Please recall the letters you saw to the best of your ability. If you do not remember a particular letter, use the SKIP button.<br><b>(When you are ready to lock in your answer, press ENTER)</b></p><button id = button_1 class = ""square num-button"" onclick = ""recordClick(this)""><div class = content><div class = numbers>C</div></div></button><button id = button_2 class = ""square num-button"" onclick = ""recordClick(this)""><div class = content><div class = numbers>G</div></div></button><button id = button_3 class = ""square num-button"" onclick = ""recordClick(this)""><div class = content><div class = numbers>H</div></div></button><button id = button_4 class = ""square num-button"" onclick = ""recordClick(this)""><div class = content><div class = numbers>J</div></div></button><button id = button_5 class = ""square num-button"" onclick = ""recordClick(this)""><div class = content><div class = numbers>K</div></div></button><button id = button_6 class = ""square num-button"" onclick = ""recordClick(this)""><div class = content><div class = numbers>L</div></div></button><button id = button_7 class = ""square num-button"" onclick = ""recordClick(this)""><div class = content><div class = numbers>N</div></div></button><button id = button_8 class = ""square num-button"" onclick = ""recordClick(this)""><div class = content><div class = numbers>P</div></div></button><button id = button_9 class = ""square num-button"" onclick = ""recordClick(this)""><div class = content><div class = numbers>Q</div></div></button><button id = button_10 class = ""square num-button"" onclick = ""recordClick(this)""><div class = content><div class = numbers>R</div></div></button><button id = button_11 class = ""square num-button"" onclick = ""recordClick(this)""><div class = content><div class = numbers>S</div></div></button><button id = button_12 class = ""square num-button"" onclick = ""recordClick(this)""><div class = content><div class = numbers>Y</div></div></button><button class = clear_button id = ""ClearButton"" onclick = ""clearResponse()"">BACKSPACE</button><button class = blank_button id = ""BlankButton"" onclick = ""blankResponse()"">SKIP</button><p style=""font-size: 2.4rem""><u><b>Current Answer:</b></u></p><br><br><div id=echoed_txt style=""font-size: 5rem; color:blue;""><b></b></div></div>",enter,ospan,retrieval,Vp1pzNox69c6G2WcpHnJjfX0REO2,html-keyboard-response,205,940471,0.0-46.0-6.0-1.0-2.0,41,30,20,8.0,"[""Y"",""Q"",""C"",""K"",""S"",""H"",""N"",""L""]","[""Y"",""K"",""H"",""G"",""C"",""S"",""N"",""L""]",0.0,3.0,,,,,,,5c6e7cc242fe6b000190936a,13:25:29,03/04/2024
903.0,[''],0,ospan,feedback,Vp1pzNox69c6G2WcpHnJjfX0REO2,html-button-response,206,941878,0.0-46.0-6.0-1.0-3.0,,,,,,,,,,,,100.0,0.0,,5c6e7cc242fe6b000190936a,13:25:29,03/04/2024
8322.0,,{'Q0': 'No issues'},ospan,survey_ospan,Vp1pzNox69c6G2WcpHnJjfX0REO2,lmdlab-survey-text,207,950952,0.0-46.0-7.0,,,,,,,,,,,,,,Vp1pzNox69c6G2WcpHnJjfX0REO2,5c6e7cc242fe6b000190936a,13:25:29,03/04/2024
1190.0,<p><p style='font-size: 3rem'>Great work!<br><br>This completes the symmetry and memory task.</p><br><br><br>,0,ospan,finish,Vp1pzNox69c6G2WcpHnJjfX0REO2,html-button-response,208,952143,0.0-46.0-8.0,41,30,20,,,,,,,,,100.0,,,5c6e7cc242fe6b000190936a,13:25:29,03/04/2024
