rt,stimulus,response,exp_name,exp_stage,subjectID,trial_type,trial_index,time_elapsed,internal_node_id,ospan_shown,ospan_total,ospan_abs,length,resp_actual,resp_correct,full_correct,num_correct,feedback,accuracy,correct,math_acc,math_warning,databaseID,prolificID,start_time,date
2666.2999999970198,<div class = 'left_align' style='font-size: 3.25rem; line-height: 1.3;'><p class = 'center_align'><b>Welcome to the Symmetry and Memory Task</b><br><br><br><br></p>Press 'continue' to show the instructions.<br><br><br><br></div>,0,ospan,instruct,o5zJz36jhlfMEotb1sBcoHtckEm1,html-button-response,54,633073,0.0-46.0-0.0-0.0-0.0,,,,,,,,,,,,,,,6310b940e5a073466d04381f,13:28:32,03/04/2024
37896.10000000149,"<div class = 'left_align' style='font-size: 3.25rem; line-height: 1.3;'><p class = 'center_align'><b>Symmetry and Memory Task</b><br><br></p>In this task, you will try to memorize letters you see on the screen<br>while you also view black and white grid pictures.<br><br>In the next few minutes, you will have some practice to get you familiar<br>with how the task works.<br><br>It may be difficult sometimes, but please do not worry about making mistakes!<br><br>We will begin by practicing the letter part of the task.<br><br><br><br></div>",0,ospan,instruct,o5zJz36jhlfMEotb1sBcoHtckEm1,html-button-response,55,671222,0.0-46.0-0.0-0.0-1.0,,,,,,,,,,,,,,,6310b940e5a073466d04381f,13:28:32,03/04/2024
17609.599999997765,"<div class = 'left_align' style='font-size: 3.25rem; line-height: 1.3;'>For this practice part, letters will appear on the screen one at a time.<br><br>Try to remember each letter in the order presented.<br><br>After some letters have been shown, you will see a response screen. Your<br>goal is to report the letters you saw <b>in order</b>. If you do not remember<br>a particular letter, you will have the option to leave it blank.<br><br><br><br></div>",0,ospan,instruct,o5zJz36jhlfMEotb1sBcoHtckEm1,html-button-response,56,689084,0.0-46.0-0.0-0.0-2.0,,,,,,,,,,,,,,,6310b940e5a073466d04381f,13:28:32,03/04/2024
21118.199999999255,"<div class = 'left_align' style='font-size: 3.25rem; line-height: 1.3;'>Remember, it is very important to get the letters in the same<br>order as you see them.<br><br>When you are ready, you may begin the letter practice.</div><br><br><br><br>",0,ospan,instruct,o5zJz36jhlfMEotb1sBcoHtckEm1,html-button-response,57,710455,0.0-46.0-0.0-0.0-3.0,,,,,,,,,,,,,,,6310b940e5a073466d04381f,13:28:32,03/04/2024
,"<p style=""font-size:75px;"">...</p>",,ospan,iti,o5zJz36jhlfMEotb1sBcoHtckEm1,html-keyboard-response,58,711710,0.0-46.0-0.0-1.0-0.0,,,,,,,,,,,,,,,6310b940e5a073466d04381f,13:28:32,03/04/2024
,"<div style=""font-size: 10rem; color: #0000FF"">G</div>",,ospan,letter,o5zJz36jhlfMEotb1sBcoHtckEm1,html-keyboard-response,59,712713,0.0-46.0-0.0-1.0-1.0,,,,,,,,,,,,,,,6310b940e5a073466d04381f,13:28:32,03/04/2024
,"<div style=""font-size: 10rem; color: #0000FF"">C</div>",,ospan,letter,o5zJz36jhlfMEotb1sBcoHtckEm1,html-keyboard-response,60,714467,0.0-46.0-0.0-1.0-2.0,,,,,,,,,,,,,,,6310b940e5a073466d04381f,13:28:32,03/04/2024
10139.300000000745,"<div class = numbox><p style=""font-size: 2.4rem"">Please recall the letters you saw to the best of your ability. If you do not remember a particular letter, use the SKIP button.<br><b>(When you are ready to lock in your answer, press ENTER)</b></p><button id = button_1 class = ""square num-button"" onclick = ""recordClick(this)""><div class = content><div class = numbers>C</div></div></button><button id = button_2 class = ""square num-button"" onclick = ""recordClick(this)""><div class = content><div class = numbers>G</div></div></button><button id = button_3 class = ""square num-button"" onclick = ""recordClick(this)""><div class = content><div class = numbers>H</div></div></button><button id = button_4 class = ""square num-button"" onclick = ""recordClick(this)""><div class = content><div class = numbers>J</div></div></button><button id = button_5 class = ""square num-button"" onclick = ""recordClick(this)""><div class = content><div class = numbers>K</div></div></button><button id = button_6 class = ""square num-button"" onclick = ""recordClick(this)""><div class = content><div class = numbers>L</div></div></button><button id = button_7 class = ""square num-button"" onclick = ""recordClick(this)""><div class = content><div class = numbers>N</div></div></button><button id = button_8 class = ""square num-button"" onclick = ""recordClick(this)""><div class = content><div class = numbers>P</div></div></button><button id = button_9 class = ""square num-button"" onclick = ""recordClick(this)""><div class = content><div class = numbers>Q</div></div></button><button id = button_10 class = ""square num-button"" onclick = ""recordClick(this)""><div class = content><div class = numbers>R</div></div></button><button id = button_11 class = ""square num-button"" onclick = ""recordClick(this)""><div class = content><div class = numbers>S</div></div></button><button id = button_12 class = ""square num-button"" onclick = ""recordClick(this)""><div class = content><div class = numbers>Y</div></div></button><button class = clear_button id = ""ClearButton"" onclick = ""clearResponse()"">BACKSPACE</button><button class = blank_button id = ""BlankButton"" onclick = ""blankResponse()"">SKIP</button><p style=""font-size: 2.4rem""><u><b>Current Answer:</b></u></p><br><br><div id=echoed_txt style=""font-size: 5rem; color:blue;""><b></b></div></div>",enter,ospan,retrieval,o5zJz36jhlfMEotb1sBcoHtckEm1,html-keyboard-response,61,725360,0.0-46.0-0.0-1.0-3.0,NA,NA,NA,2.0,"[""G"",""C""]","[""G"",""C""]",1.0,2.0,"['<font color=""green"">G</font>', '<font color=""green"">C</font>']",,,,,,6310b940e5a073466d04381f,13:28:32,03/04/2024
2251.10000000149,"['<p style=""font-size:44px"">Letters:<br><br><br><font color=""green"">G</font> <font color=""green"">C</font></p><br><br>']",0,ospan,practice_feedback,o5zJz36jhlfMEotb1sBcoHtckEm1,html-button-response,62,728115,0.0-46.0-0.0-1.0-4.0,,,,,,,,,,,,,,,6310b940e5a073466d04381f,13:28:32,03/04/2024
,"<p style=""font-size:75px;"">...</p>",,ospan,iti,o5zJz36jhlfMEotb1sBcoHtckEm1,html-keyboard-response,63,729118,0.0-46.0-0.0-2.0-0.0,,,,,,,,,,,,,,,6310b940e5a073466d04381f,13:28:32,03/04/2024
,"<div style=""font-size: 10rem; color: #0000FF"">N</div>",,ospan,letter,o5zJz36jhlfMEotb1sBcoHtckEm1,html-keyboard-response,64,730121,0.0-46.0-0.0-2.0-1.0,,,,,,,,,,,,,,,6310b940e5a073466d04381f,13:28:32,03/04/2024
,"<div style=""font-size: 10rem; color: #0000FF"">P</div>",,ospan,letter,o5zJz36jhlfMEotb1sBcoHtckEm1,html-keyboard-response,65,731876,0.0-46.0-0.0-2.0-2.0,,,,,,,,,,,,,,,6310b940e5a073466d04381f,13:28:32,03/04/2024
,"<div style=""font-size: 10rem; color: #0000FF"">J</div>",,ospan,letter,o5zJz36jhlfMEotb1sBcoHtckEm1,html-keyboard-response,66,733630,0.0-46.0-0.0-2.0-3.0,,,,,,,,,,,,,,,6310b940e5a073466d04381f,13:28:32,03/04/2024
4205.300000000745,"<div class = numbox><p style=""font-size: 2.4rem"">Please recall the letters you saw to the best of your ability. If you do not remember a particular letter, use the SKIP button.<br><b>(When you are ready to lock in your answer, press ENTER)</b></p><button id = button_1 class = ""square num-button"" onclick = ""recordClick(this)""><div class = content><div class = numbers>C</div></div></button><button id = button_2 class = ""square num-button"" onclick = ""recordClick(this)""><div class = content><div class = numbers>G</div></div></button><button id = button_3 class = ""square num-button"" onclick = ""recordClick(this)""><div class = content><div class = numbers>H</div></div></button><button id = button_4 class = ""square num-button"" onclick = ""recordClick(this)""><div class = content><div class = numbers>J</div></div></button><button id = button_5 class = ""square num-button"" onclick = ""recordClick(this)""><div class = content><div class = numbers>K</div></div></button><button id = button_6 class = ""square num-button"" onclick = ""recordClick(this)""><div class = content><div class = numbers>L</div></div></button><button id = button_7 class = ""square num-button"" onclick = ""recordClick(this)""><div class = content><div class = numbers>N</div></div></button><button id = button_8 class = ""square num-button"" onclick = ""recordClick(this)""><div class = content><div class = numbers>P</div></div></button><button id = button_9 class = ""square num-button"" onclick = ""recordClick(this)""><div class = content><div class = numbers>Q</div></div></button><button id = button_10 class = ""square num-button"" onclick = ""recordClick(this)""><div class = content><div class = numbers>R</div></div></button><button id = button_11 class = ""square num-button"" onclick = ""recordClick(this)""><div class = content><div class = numbers>S</div></div></button><button id = button_12 class = ""square num-button"" onclick = ""recordClick(this)""><div class = content><div class = numbers>Y</div></div></button><button class = clear_button id = ""ClearButton"" onclick = ""clearResponse()"">BACKSPACE</button><button class = blank_button id = ""BlankButton"" onclick = ""blankResponse()"">SKIP</button><p style=""font-size: 2.4rem""><u><b>Current Answer:</b></u></p><br><br><div id=echoed_txt style=""font-size: 5rem; color:blue;""><b></b></div></div>",enter,ospan,retrieval,o5zJz36jhlfMEotb1sBcoHtckEm1,html-keyboard-response,67,738588,0.0-46.0-0.0-2.0-4.0,NA,NA,NA,3.0,"[""N"",""P"",""J""]","[""N"",""P"",""J""]",1.0,3.0,"['<font color=""green"">N</font>', '<font color=""green"">P</font>', '<font color=""green"">J</font>']",,,,,,6310b940e5a073466d04381f,13:28:32,03/04/2024
1714.800000000745,"['<p style=""font-size:44px"">Letters:<br><br><br><font color=""green"">N</font> <font color=""green"">P</font> <font color=""green"">J</font></p><br><br>']",0,ospan,practice_feedback,o5zJz36jhlfMEotb1sBcoHtckEm1,html-button-response,68,740806,0.0-46.0-0.0-2.0-5.0,,,,,,,,,,,,,,,6310b940e5a073466d04381f,13:28:32,03/04/2024
33903.400000002235,"<div class = 'left_align' style='font-size: 3.25rem; line-height: 1.3;'>Now you will practice doing the <b>symmetry judgment part</b> of the experiment.<br><br>A black and white grid picture will appear on the screen and you have to judge if it is <br>symmetrical or asymetrical.<br><br>A picture is 'mirror' symmetrical if its left half is identical to the right half when flipped.<br>Here are examples of a symmetrical and an asymetrical picture:<br><br><center><img src='Stimuli/img/symm_instructions_extra.png' style='height:420px; width:900'></img></center><br>To judge symmetry, imagine you were to fold each picture down the middle, like a book –<br>would the left half match the right half when folded onto each other?<br><br></div><br>",0,ospan,instruct,o5zJz36jhlfMEotb1sBcoHtckEm1,html-button-response,69,774712,0.0-46.0-1.0-0.0-0.0,,,,,,,,,,,,,,,6310b940e5a073466d04381f,13:28:32,03/04/2024
3799.89999999851,"<div class = 'left_align' style='font-size: 3.25rem; line-height: 1.3;'>When you have viewed the picture and determined whether it is symmetrical or not,<br>you can <b>click the Yes or No button</b> below to answer.<br><br>If you take longer than 15 seconds, it will continue automatically<br>and record the answer as an error.</div><br>",0,ospan,instruct,o5zJz36jhlfMEotb1sBcoHtckEm1,html-button-response,70,778764,0.0-46.0-1.0-0.0-1.0,,,,,,,,,,,,,,,6310b940e5a073466d04381f,13:28:32,03/04/2024
3514.400000002235,"<div class = 'left_align' style='font-size: 3.25rem; line-height: 1.3;'>It is <b>very</b> important that you make the symmetry judgment correctly.<br><br>It is also important that you try and judge the picture as quickly as you can.<br><br>When you are ready, click on the button below to try some practice problems.</div><br><br><br><br>",0,ospan,instruct,o5zJz36jhlfMEotb1sBcoHtckEm1,html-button-response,71,782530,0.0-46.0-1.0-0.0-2.0,,,,,,,,,,,,,,,6310b940e5a073466d04381f,13:28:32,03/04/2024
7969.0,,,ospan,symmetry,o5zJz36jhlfMEotb1sBcoHtckEm1,symmetry-judgement-task,72,791301,0.0-46.0-1.0-1.0-0.0,,,,,,,,,,0.0,0.0,,,,6310b940e5a073466d04381f,13:28:32,03/04/2024
,"<p style=""color:red; font-size: 35px"">Incorrect</p>",,ospan,feedback,o5zJz36jhlfMEotb1sBcoHtckEm1,html-keyboard-response,73,792052,0.0-46.0-1.0-1.0-1.0,,,,,,,,,,,,,,,6310b940e5a073466d04381f,13:28:32,03/04/2024
2961.0,,,ospan,symmetry,o5zJz36jhlfMEotb1sBcoHtckEm1,symmetry-judgement-task,74,797733,0.0-46.0-1.0-1.0-2.0,,,,,,,,,,1.0,1.0,,,,6310b940e5a073466d04381f,13:28:32,03/04/2024
,"<p style=""color:green; font-size: 35px"">Correct</p>",,ospan,feedback,o5zJz36jhlfMEotb1sBcoHtckEm1,html-keyboard-response,75,798485,0.0-46.0-1.0-1.0-3.0,,,,,,,,,,,,,,,6310b940e5a073466d04381f,13:28:32,03/04/2024
3516.0,,,ospan,symmetry,o5zJz36jhlfMEotb1sBcoHtckEm1,symmetry-judgement-task,76,804729,0.0-46.0-1.0-1.0-4.0,,,,,,,,,,1.0,1.0,,,,6310b940e5a073466d04381f,13:28:32,03/04/2024
,"<p style=""color:green; font-size: 35px"">Correct</p>",,ospan,feedback,o5zJz36jhlfMEotb1sBcoHtckEm1,html-keyboard-response,77,805482,0.0-46.0-1.0-1.0-5.0,,,,,,,,,,,,,,,6310b940e5a073466d04381f,13:28:32,03/04/2024
5928.0,"<p style=""font-size: 3rem;"">You only responded correctly on 2 of 3 symmetry judgments.<br><br><b>In the main task, you must try harder to answer accurately.</b></p><br><br>",0,ospan,practice,o5zJz36jhlfMEotb1sBcoHtckEm1,html-button-response,78,813412,0.0-46.0-1.0-2.0,,,,,,,,,,,,,,,6310b940e5a073466d04381f,13:28:32,03/04/2024
3066.2000000029802,"<div class = 'left_align' style='font-size: 3.25rem; line-height: 1.3;'>Now you will practice doing both parts of the experiment at the same time.<br><br>In the next practice set, you will be given one grid picture to judge.<br>Then letter will appear on the screen. Try to remember the letter.<br><br>It is <b>very important</b> to make the symmetry judgment as quickly and accurately as possible.<br><br>Just as before, once you have make the symmetry judgment, you can click Yes or No.<br><b>Note that you will no longer see Correct or Incorrect feedback.</div><br><br><br><br>",0,ospan,instruct,o5zJz36jhlfMEotb1sBcoHtckEm1,html-button-response,79,816731,0.0-46.0-2.0-0.0-0.0,,,,,,,,,,,,,,,6310b940e5a073466d04381f,13:28:32,03/04/2024
2694.5,"<div class = 'left_align' style='font-size: 3.25rem; line-height: 1.3;'>After the letter goes away, another grid picture will appear, and then<br>another letter.<br><br>At the end of each set of letters and grids, you will recall the letters to the best<br>of your ability. Remember, try your best to get the letters in the correct order.<br><br>It is important to <b>quickly</b> and <b>accurately</b> make the symmetry judgments.</div><br><br><br><br>",0,ospan,instruct,o5zJz36jhlfMEotb1sBcoHtckEm1,html-button-response,80,819678,0.0-46.0-2.0-0.0-1.0,,,,,,,,,,,,,,,6310b940e5a073466d04381f,13:28:32,03/04/2024
1942.0,"<div class = 'left_align' style='font-size: 3.25rem; line-height: 1.3;'>On the feedback screen, if you are not doing well at the symmetry judgments,<br>you will also see a warning in the middle. This indicates your percent <br>correct for the grid pictures for the entire experiment.<br><br>It is <b>very</b> important for you to keep accuracy at least at 85%: <u>We can only use<br>data where the participant was at least 85% accurate on the judgments.</u> Therefore,<br> please try your best to perform well on the symmetry judgments, <b>at the same time</b><br>doing your best to recall as many letters as possible.<br><br>Click the button to try some practice problems.</div><br><br><br><br>",0,ospan,instruct,o5zJz36jhlfMEotb1sBcoHtckEm1,html-button-response,81,821874,0.0-46.0-2.0-0.0-2.0,,,,,,,,,,,,,,,6310b940e5a073466d04381f,13:28:32,03/04/2024
,"<p style=""font-size:75px;"">...</p>",,ospan,iti,o5zJz36jhlfMEotb1sBcoHtckEm1,html-keyboard-response,82,823128,0.0-46.0-2.0-1.0-0.0,,,,,,,,,,,,,,,6310b940e5a073466d04381f,13:28:32,03/04/2024
5447.0,,,ospan,symmetry,o5zJz36jhlfMEotb1sBcoHtckEm1,symmetry-judgement-task,83,829784,0.0-46.0-2.0-1.0-1.0-0.0,,,,,,,,,,1.0,1.0,,,,6310b940e5a073466d04381f,13:28:32,03/04/2024
,"<div style=""font-size: 10rem; color: #0000FF"">Q</div>",,ospan,letter,o5zJz36jhlfMEotb1sBcoHtckEm1,html-keyboard-response,84,830787,0.0-46.0-2.0-1.0-1.0-1.0,,,,,,,,,,,,,,,6310b940e5a073466d04381f,13:28:32,03/04/2024
3104.0,,,ospan,symmetry,o5zJz36jhlfMEotb1sBcoHtckEm1,symmetry-judgement-task,85,835839,0.0-46.0-2.0-1.0-1.0-2.0,,,,,,,,,,1.0,1.0,,,,6310b940e5a073466d04381f,13:28:32,03/04/2024
,"<div style=""font-size: 10rem; color: #0000FF"">S</div>",,ospan,letter,o5zJz36jhlfMEotb1sBcoHtckEm1,html-keyboard-response,86,836842,0.0-46.0-2.0-1.0-1.0-3.0,,,,,,,,,,,,,,,6310b940e5a073466d04381f,13:28:32,03/04/2024
1711.0,,,ospan,symmetry,o5zJz36jhlfMEotb1sBcoHtckEm1,symmetry-judgement-task,87,840524,0.0-46.0-2.0-1.0-1.0-4.0,,,,,,,,,,1.0,1.0,,,,6310b940e5a073466d04381f,13:28:32,03/04/2024
,"<div style=""font-size: 10rem; color: #0000FF"">G</div>",,ospan,letter,o5zJz36jhlfMEotb1sBcoHtckEm1,html-keyboard-response,88,841526,0.0-46.0-2.0-1.0-1.0-5.0,,,,,,,,,,,,,,,6310b940e5a073466d04381f,13:28:32,03/04/2024
5230.800000000745,"<div class = numbox><p style=""font-size: 2.4rem"">Please recall the letters you saw to the best of your ability. If you do not remember a particular letter, use the SKIP button.<br><b>(When you are ready to lock in your answer, press ENTER)</b></p><button id = button_1 class = ""square num-button"" onclick = ""recordClick(this)""><div class = content><div class = numbers>C</div></div></button><button id = button_2 class = ""square num-button"" onclick = ""recordClick(this)""><div class = content><div class = numbers>G</div></div></button><button id = button_3 class = ""square num-button"" onclick = ""recordClick(this)""><div class = content><div class = numbers>H</div></div></button><button id = button_4 class = ""square num-button"" onclick = ""recordClick(this)""><div class = content><div class = numbers>J</div></div></button><button id = button_5 class = ""square num-button"" onclick = ""recordClick(this)""><div class = content><div class = numbers>K</div></div></button><button id = button_6 class = ""square num-button"" onclick = ""recordClick(this)""><div class = content><div class = numbers>L</div></div></button><button id = button_7 class = ""square num-button"" onclick = ""recordClick(this)""><div class = content><div class = numbers>N</div></div></button><button id = button_8 class = ""square num-button"" onclick = ""recordClick(this)""><div class = content><div class = numbers>P</div></div></button><button id = button_9 class = ""square num-button"" onclick = ""recordClick(this)""><div class = content><div class = numbers>Q</div></div></button><button id = button_10 class = ""square num-button"" onclick = ""recordClick(this)""><div class = content><div class = numbers>R</div></div></button><button id = button_11 class = ""square num-button"" onclick = ""recordClick(this)""><div class = content><div class = numbers>S</div></div></button><button id = button_12 class = ""square num-button"" onclick = ""recordClick(this)""><div class = content><div class = numbers>Y</div></div></button><button class = clear_button id = ""ClearButton"" onclick = ""clearResponse()"">BACKSPACE</button><button class = blank_button id = ""BlankButton"" onclick = ""blankResponse()"">SKIP</button><p style=""font-size: 2.4rem""><u><b>Current Answer:</b></u></p><br><br><div id=echoed_txt style=""font-size: 5rem; color:blue;""><b></b></div></div>",enter,ospan,retrieval,o5zJz36jhlfMEotb1sBcoHtckEm1,html-keyboard-response,89,847510,0.0-46.0-2.0-1.0-2.0-0.0,NA,NA,NA,3.0,"[""Q"",""S"",""G""]","[""Q"",""S"",""G""]",1.0,3.0,"['<font color=""green"">Q</font>', '<font color=""green"">S</font>', '<font color=""green"">G</font>']",,,,,,6310b940e5a073466d04381f,13:28:32,03/04/2024
1697.300000000745,"['<p style=""font-size:44px"">Letters:<br><br><br><font color=""green"">Q</font> <font color=""green"">S</font> <font color=""green"">G</font></p><br><br><p style=""font-size:30px"">Symmetry:<br><br><font color=""green"">100%</font></p><br><br>']",0,ospan,practice_feedback,o5zJz36jhlfMEotb1sBcoHtckEm1,html-button-response,90,849710,0.0-46.0-2.0-1.0-2.0-1.0,,,,,,,,,,,,,,,6310b940e5a073466d04381f,13:28:32,03/04/2024
,"<p style=""font-size:75px;"">...</p>",,ospan,iti,o5zJz36jhlfMEotb1sBcoHtckEm1,html-keyboard-response,91,850713,0.0-46.0-2.0-2.0-0.0,,,,,,,,,,,,,,,6310b940e5a073466d04381f,13:28:32,03/04/2024
4104.0,,,ospan,symmetry,o5zJz36jhlfMEotb1sBcoHtckEm1,symmetry-judgement-task,92,856012,0.0-46.0-2.0-2.0-1.0-0.0,,,,,,,,,,1.0,1.0,,,,6310b940e5a073466d04381f,13:28:32,03/04/2024
,"<div style=""font-size: 10rem; color: #0000FF"">P</div>",,ospan,letter,o5zJz36jhlfMEotb1sBcoHtckEm1,html-keyboard-response,93,857013,0.0-46.0-2.0-2.0-1.0-1.0,,,,,,,,,,,,,,,6310b940e5a073466d04381f,13:28:32,03/04/2024
1706.0,,,ospan,symmetry,o5zJz36jhlfMEotb1sBcoHtckEm1,symmetry-judgement-task,94,860674,0.0-46.0-2.0-2.0-1.0-2.0,,,,,,,,,,1.0,1.0,,,,6310b940e5a073466d04381f,13:28:32,03/04/2024
,"<div style=""font-size: 10rem; color: #0000FF"">Q</div>",,ospan,letter,o5zJz36jhlfMEotb1sBcoHtckEm1,html-keyboard-response,95,861675,0.0-46.0-2.0-2.0-1.0-3.0,,,,,,,,,,,,,,,6310b940e5a073466d04381f,13:28:32,03/04/2024
2446.0,,,ospan,symmetry,o5zJz36jhlfMEotb1sBcoHtckEm1,symmetry-judgement-task,96,866068,0.0-46.0-2.0-2.0-1.0-4.0,,,,,,,,,,1.0,1.0,,,,6310b940e5a073466d04381f,13:28:32,03/04/2024
,"<div style=""font-size: 10rem; color: #0000FF"">S</div>",,ospan,letter,o5zJz36jhlfMEotb1sBcoHtckEm1,html-keyboard-response,97,867069,0.0-46.0-2.0-2.0-1.0-5.0,,,,,,,,,,,,,,,6310b940e5a073466d04381f,13:28:32,03/04/2024
3321.10000000149,"<div class = numbox><p style=""font-size: 2.4rem"">Please recall the letters you saw to the best of your ability. If you do not remember a particular letter, use the SKIP button.<br><b>(When you are ready to lock in your answer, press ENTER)</b></p><button id = button_1 class = ""square num-button"" onclick = ""recordClick(this)""><div class = content><div class = numbers>C</div></div></button><button id = button_2 class = ""square num-button"" onclick = ""recordClick(this)""><div class = content><div class = numbers>G</div></div></button><button id = button_3 class = ""square num-button"" onclick = ""recordClick(this)""><div class = content><div class = numbers>H</div></div></button><button id = button_4 class = ""square num-button"" onclick = ""recordClick(this)""><div class = content><div class = numbers>J</div></div></button><button id = button_5 class = ""square num-button"" onclick = ""recordClick(this)""><div class = content><div class = numbers>K</div></div></button><button id = button_6 class = ""square num-button"" onclick = ""recordClick(this)""><div class = content><div class = numbers>L</div></div></button><button id = button_7 class = ""square num-button"" onclick = ""recordClick(this)""><div class = content><div class = numbers>N</div></div></button><button id = button_8 class = ""square num-button"" onclick = ""recordClick(this)""><div class = content><div class = numbers>P</div></div></button><button id = button_9 class = ""square num-button"" onclick = ""recordClick(this)""><div class = content><div class = numbers>Q</div></div></button><button id = button_10 class = ""square num-button"" onclick = ""recordClick(this)""><div class = content><div class = numbers>R</div></div></button><button id = button_11 class = ""square num-button"" onclick = ""recordClick(this)""><div class = content><div class = numbers>S</div></div></button><button id = button_12 class = ""square num-button"" onclick = ""recordClick(this)""><div class = content><div class = numbers>Y</div></div></button><button class = clear_button id = ""ClearButton"" onclick = ""clearResponse()"">BACKSPACE</button><button class = blank_button id = ""BlankButton"" onclick = ""blankResponse()"">SKIP</button><p style=""font-size: 2.4rem""><u><b>Current Answer:</b></u></p><br><br><div id=echoed_txt style=""font-size: 5rem; color:blue;""><b></b></div></div>",enter,ospan,retrieval,o5zJz36jhlfMEotb1sBcoHtckEm1,html-keyboard-response,98,871143,0.0-46.0-2.0-2.0-2.0-0.0,NA,NA,NA,3.0,"[""P"",""Q"",""S""]","[""P"",""Q"",""S""]",1.0,3.0,"['<font color=""green"">P</font>', '<font color=""green"">Q</font>', '<font color=""green"">S</font>']",,,,,,6310b940e5a073466d04381f,13:28:32,03/04/2024
1689.5,"['<p style=""font-size:44px"">Letters:<br><br><br><font color=""green"">P</font> <font color=""green"">Q</font> <font color=""green"">S</font></p><br><br><p style=""font-size:30px"">Symmetry:<br><br><font color=""green"">100%</font></p><br><br>']",0,ospan,practice_feedback,o5zJz36jhlfMEotb1sBcoHtckEm1,html-button-response,99,873335,0.0-46.0-2.0-2.0-2.0-1.0,,,,,,,,,,,,,,,6310b940e5a073466d04381f,13:28:32,03/04/2024
9952.800000000745,"<div class = 'left_align' style='font-size: 3rem; line-height: 1.3;'><b>Great work! That is the end of practice.</b><br><br>The real trials will look just like the practice trials you just completed.<br><br><u>Here, you will not see feedback</u>. First, you will see an grid picture to judge,<br>then a letter to remember. When the recall screen appears, report the letters in the<br>order presented. If you forget a letter, remember to use the <b>blank</b> button to move to the<br>next letter. Some of the sets will have more symmetry grids and letters than others.<br><br>It is important that you do your best on both the symmetry judgments and the letter recall<br>parts of the experiment. For for the symmetry judgments, try to work as <b>quickly</b> and <br>as <b>accurately</b> as possible. Remember to keep your symmetry accuracy at 85% or above.<br><br><b>For the letters, do NOT use any external aid (e.g., writing on paper, electronic device).</b><br><br>It is <u>very important</u> to our experiment to have a <b>true</b> view of your real performance.<br><br>Do not worry if you miss some when it gets hard! This task is meant to be very challenging!<br><br>Click the button to begin.</div><br><br><br><br>",0,ospan,starting_real_here,o5zJz36jhlfMEotb1sBcoHtckEm1,html-button-response,100,883289,0.0-46.0-2.0-3.0,,,,,,,,,,,,,,,6310b940e5a073466d04381f,13:28:32,03/04/2024
,"<p style=""font-size:75px;"">...</p>",,ospan,iti,o5zJz36jhlfMEotb1sBcoHtckEm1,html-keyboard-response,101,884543,0.0-46.0-3.0-0.0-0.0,,,,,,,,,,,,,,,6310b940e5a073466d04381f,13:28:32,03/04/2024
2746.0,,,ospan,symmetry,o5zJz36jhlfMEotb1sBcoHtckEm1,symmetry-judgement-task,102,888497,0.0-46.0-3.0-0.0-1.0-0.0,,,,,,,,,,1.0,1.0,,,,6310b940e5a073466d04381f,13:28:32,03/04/2024
,"<div style=""font-size: 10rem; color: #0000FF"">K</div>",,ospan,letter,o5zJz36jhlfMEotb1sBcoHtckEm1,html-keyboard-response,103,889499,0.0-46.0-3.0-0.0-1.0-1.0,,,,,,,,,,,,,,,6310b940e5a073466d04381f,13:28:32,03/04/2024
2165.0,,,ospan,symmetry,o5zJz36jhlfMEotb1sBcoHtckEm1,symmetry-judgement-task,104,893612,0.0-46.0-3.0-0.0-1.0-2.0,,,,,,,,,,1.0,1.0,,,,6310b940e5a073466d04381f,13:28:32,03/04/2024
,"<div style=""font-size: 10rem; color: #0000FF"">N</div>",,ospan,letter,o5zJz36jhlfMEotb1sBcoHtckEm1,html-keyboard-response,105,894615,0.0-46.0-3.0-0.0-1.0-3.0,,,,,,,,,,,,,,,6310b940e5a073466d04381f,13:28:32,03/04/2024
2125.0,,,ospan,symmetry,o5zJz36jhlfMEotb1sBcoHtckEm1,symmetry-judgement-task,106,898688,0.0-46.0-3.0-0.0-1.0-4.0,,,,,,,,,,1.0,1.0,,,,6310b940e5a073466d04381f,13:28:32,03/04/2024
,"<div style=""font-size: 10rem; color: #0000FF"">Y</div>",,ospan,letter,o5zJz36jhlfMEotb1sBcoHtckEm1,html-keyboard-response,107,899690,0.0-46.0-3.0-0.0-1.0-5.0,,,,,,,,,,,,,,,6310b940e5a073466d04381f,13:28:32,03/04/2024
3789.400000002235,"<div class = numbox><p style=""font-size: 2.4rem"">Please recall the letters you saw to the best of your ability. If you do not remember a particular letter, use the SKIP button.<br><b>(When you are ready to lock in your answer, press ENTER)</b></p><button id = button_1 class = ""square num-button"" onclick = ""recordClick(this)""><div class = content><div class = numbers>C</div></div></button><button id = button_2 class = ""square num-button"" onclick = ""recordClick(this)""><div class = content><div class = numbers>G</div></div></button><button id = button_3 class = ""square num-button"" onclick = ""recordClick(this)""><div class = content><div class = numbers>H</div></div></button><button id = button_4 class = ""square num-button"" onclick = ""recordClick(this)""><div class = content><div class = numbers>J</div></div></button><button id = button_5 class = ""square num-button"" onclick = ""recordClick(this)""><div class = content><div class = numbers>K</div></div></button><button id = button_6 class = ""square num-button"" onclick = ""recordClick(this)""><div class = content><div class = numbers>L</div></div></button><button id = button_7 class = ""square num-button"" onclick = ""recordClick(this)""><div class = content><div class = numbers>N</div></div></button><button id = button_8 class = ""square num-button"" onclick = ""recordClick(this)""><div class = content><div class = numbers>P</div></div></button><button id = button_9 class = ""square num-button"" onclick = ""recordClick(this)""><div class = content><div class = numbers>Q</div></div></button><button id = button_10 class = ""square num-button"" onclick = ""recordClick(this)""><div class = content><div class = numbers>R</div></div></button><button id = button_11 class = ""square num-button"" onclick = ""recordClick(this)""><div class = content><div class = numbers>S</div></div></button><button id = button_12 class = ""square num-button"" onclick = ""recordClick(this)""><div class = content><div class = numbers>Y</div></div></button><button class = clear_button id = ""ClearButton"" onclick = ""clearResponse()"">BACKSPACE</button><button class = blank_button id = ""BlankButton"" onclick = ""blankResponse()"">SKIP</button><p style=""font-size: 2.4rem""><u><b>Current Answer:</b></u></p><br><br><div id=echoed_txt style=""font-size: 5rem; color:blue;""><b></b></div></div>",enter,ospan,retrieval,o5zJz36jhlfMEotb1sBcoHtckEm1,html-keyboard-response,108,904233,0.0-46.0-3.0-0.0-2.0,3,3,3,3.0,"[""K"",""N"",""Y""]","[""K"",""N"",""Y""]",1.0,3.0,,,,,,,6310b940e5a073466d04381f,13:28:32,03/04/2024
1855.0,[''],0,ospan,feedback,o5zJz36jhlfMEotb1sBcoHtckEm1,html-button-response,109,906591,0.0-46.0-3.0-0.0-3.0,,,,,,,,,,,,100.0,0.0,,6310b940e5a073466d04381f,13:28:32,03/04/2024
,"<p style=""font-size:75px;"">...</p>",,ospan,iti,o5zJz36jhlfMEotb1sBcoHtckEm1,html-keyboard-response,110,907594,0.0-46.0-4.0-0.0-0.0,,,,,,,,,,,,,,,6310b940e5a073466d04381f,13:28:32,03/04/2024
4881.0,,,ospan,symmetry,o5zJz36jhlfMEotb1sBcoHtckEm1,symmetry-judgement-task,111,913666,0.0-46.0-4.0-0.0-1.0-0.0,,,,,,,,,,1.0,1.0,,,,6310b940e5a073466d04381f,13:28:32,03/04/2024
,"<div style=""font-size: 10rem; color: #0000FF"">Y</div>",,ospan,letter,o5zJz36jhlfMEotb1sBcoHtckEm1,html-keyboard-response,112,914669,0.0-46.0-4.0-0.0-1.0-1.0,,,,,,,,,,,,,,,6310b940e5a073466d04381f,13:28:32,03/04/2024
2021.0,,,ospan,symmetry,o5zJz36jhlfMEotb1sBcoHtckEm1,symmetry-judgement-task,113,918632,0.0-46.0-4.0-0.0-1.0-2.0,,,,,,,,,,1.0,1.0,,,,6310b940e5a073466d04381f,13:28:32,03/04/2024
,"<div style=""font-size: 10rem; color: #0000FF"">P</div>",,ospan,letter,o5zJz36jhlfMEotb1sBcoHtckEm1,html-keyboard-response,114,919634,0.0-46.0-4.0-0.0-1.0-3.0,,,,,,,,,,,,,,,6310b940e5a073466d04381f,13:28:32,03/04/2024
1295.0,,,ospan,symmetry,o5zJz36jhlfMEotb1sBcoHtckEm1,symmetry-judgement-task,115,922895,0.0-46.0-4.0-0.0-1.0-4.0,,,,,,,,,,1.0,1.0,,,,6310b940e5a073466d04381f,13:28:32,03/04/2024
,"<div style=""font-size: 10rem; color: #0000FF"">H</div>",,ospan,letter,o5zJz36jhlfMEotb1sBcoHtckEm1,html-keyboard-response,116,923898,0.0-46.0-4.0-0.0-1.0-5.0,,,,,,,,,,,,,,,6310b940e5a073466d04381f,13:28:32,03/04/2024
2729.0,,,ospan,symmetry,o5zJz36jhlfMEotb1sBcoHtckEm1,symmetry-judgement-task,117,928572,0.0-46.0-4.0-0.0-1.0-6.0,,,,,,,,,,1.0,1.0,,,,6310b940e5a073466d04381f,13:28:32,03/04/2024
,"<div style=""font-size: 10rem; color: #0000FF"">R</div>",,ospan,letter,o5zJz36jhlfMEotb1sBcoHtckEm1,html-keyboard-response,118,929574,0.0-46.0-4.0-0.0-1.0-7.0,,,,,,,,,,,,,,,6310b940e5a073466d04381f,13:28:32,03/04/2024
4775.5,"<div class = numbox><p style=""font-size: 2.4rem"">Please recall the letters you saw to the best of your ability. If you do not remember a particular letter, use the SKIP button.<br><b>(When you are ready to lock in your answer, press ENTER)</b></p><button id = button_1 class = ""square num-button"" onclick = ""recordClick(this)""><div class = content><div class = numbers>C</div></div></button><button id = button_2 class = ""square num-button"" onclick = ""recordClick(this)""><div class = content><div class = numbers>G</div></div></button><button id = button_3 class = ""square num-button"" onclick = ""recordClick(this)""><div class = content><div class = numbers>H</div></div></button><button id = button_4 class = ""square num-button"" onclick = ""recordClick(this)""><div class = content><div class = numbers>J</div></div></button><button id = button_5 class = ""square num-button"" onclick = ""recordClick(this)""><div class = content><div class = numbers>K</div></div></button><button id = button_6 class = ""square num-button"" onclick = ""recordClick(this)""><div class = content><div class = numbers>L</div></div></button><button id = button_7 class = ""square num-button"" onclick = ""recordClick(this)""><div class = content><div class = numbers>N</div></div></button><button id = button_8 class = ""square num-button"" onclick = ""recordClick(this)""><div class = content><div class = numbers>P</div></div></button><button id = button_9 class = ""square num-button"" onclick = ""recordClick(this)""><div class = content><div class = numbers>Q</div></div></button><button id = button_10 class = ""square num-button"" onclick = ""recordClick(this)""><div class = content><div class = numbers>R</div></div></button><button id = button_11 class = ""square num-button"" onclick = ""recordClick(this)""><div class = content><div class = numbers>S</div></div></button><button id = button_12 class = ""square num-button"" onclick = ""recordClick(this)""><div class = content><div class = numbers>Y</div></div></button><button class = clear_button id = ""ClearButton"" onclick = ""clearResponse()"">BACKSPACE</button><button class = blank_button id = ""BlankButton"" onclick = ""blankResponse()"">SKIP</button><p style=""font-size: 2.4rem""><u><b>Current Answer:</b></u></p><br><br><div id=echoed_txt style=""font-size: 5rem; color:blue;""><b></b></div></div>",enter,ospan,retrieval,o5zJz36jhlfMEotb1sBcoHtckEm1,html-keyboard-response,119,935101,0.0-46.0-4.0-0.0-2.0,7,7,7,4.0,"[""Y"",""P"",""H"",""R""]","[""Y"",""P"",""H"",""R""]",1.0,4.0,,,,,,,6310b940e5a073466d04381f,13:28:32,03/04/2024
5095.900000002235,[''],0,ospan,feedback,o5zJz36jhlfMEotb1sBcoHtckEm1,html-button-response,120,940698,0.0-46.0-4.0-0.0-3.0,,,,,,,,,,,,100.0,0.0,,6310b940e5a073466d04381f,13:28:32,03/04/2024
,"<p style=""font-size:75px;"">...</p>",,ospan,iti,o5zJz36jhlfMEotb1sBcoHtckEm1,html-keyboard-response,121,941702,0.0-46.0-4.0-1.0-0.0,,,,,,,,,,,,,,,6310b940e5a073466d04381f,13:28:32,03/04/2024
3363.0,,,ospan,symmetry,o5zJz36jhlfMEotb1sBcoHtckEm1,symmetry-judgement-task,122,946108,0.0-46.0-4.0-1.0-1.0-0.0,,,,,,,,,,1.0,1.0,,,,6310b940e5a073466d04381f,13:28:32,03/04/2024
,"<div style=""font-size: 10rem; color: #0000FF"">G</div>",,ospan,letter,o5zJz36jhlfMEotb1sBcoHtckEm1,html-keyboard-response,123,947111,0.0-46.0-4.0-1.0-1.0-1.0,,,,,,,,,,,,,,,6310b940e5a073466d04381f,13:28:32,03/04/2024
2186.0,,,ospan,symmetry,o5zJz36jhlfMEotb1sBcoHtckEm1,symmetry-judgement-task,124,951251,0.0-46.0-4.0-1.0-1.0-2.0,,,,,,,,,,1.0,1.0,,,,6310b940e5a073466d04381f,13:28:32,03/04/2024
,"<div style=""font-size: 10rem; color: #0000FF"">H</div>",,ospan,letter,o5zJz36jhlfMEotb1sBcoHtckEm1,html-keyboard-response,125,952252,0.0-46.0-4.0-1.0-1.0-3.0,,,,,,,,,,,,,,,6310b940e5a073466d04381f,13:28:32,03/04/2024
3031.0,,,ospan,symmetry,o5zJz36jhlfMEotb1sBcoHtckEm1,symmetry-judgement-task,126,957252,0.0-46.0-4.0-1.0-1.0-4.0,,,,,,,,,,1.0,1.0,,,,6310b940e5a073466d04381f,13:28:32,03/04/2024
,"<div style=""font-size: 10rem; color: #0000FF"">P</div>",,ospan,letter,o5zJz36jhlfMEotb1sBcoHtckEm1,html-keyboard-response,127,958253,0.0-46.0-4.0-1.0-1.0-5.0,,,,,,,,,,,,,,,6310b940e5a073466d04381f,13:28:32,03/04/2024
2177.0,,,ospan,symmetry,o5zJz36jhlfMEotb1sBcoHtckEm1,symmetry-judgement-task,128,962401,0.0-46.0-4.0-1.0-1.0-6.0,,,,,,,,,,1.0,1.0,,,,6310b940e5a073466d04381f,13:28:32,03/04/2024
,"<div style=""font-size: 10rem; color: #0000FF"">Q</div>",,ospan,letter,o5zJz36jhlfMEotb1sBcoHtckEm1,html-keyboard-response,129,963403,0.0-46.0-4.0-1.0-1.0-7.0,,,,,,,,,,,,,,,6310b940e5a073466d04381f,13:28:32,03/04/2024
2308.0,,,ospan,symmetry,o5zJz36jhlfMEotb1sBcoHtckEm1,symmetry-judgement-task,130,967679,0.0-46.0-4.0-1.0-1.0-8.0,,,,,,,,,,1.0,1.0,,,,6310b940e5a073466d04381f,13:28:32,03/04/2024
,"<div style=""font-size: 10rem; color: #0000FF"">S</div>",,ospan,letter,o5zJz36jhlfMEotb1sBcoHtckEm1,html-keyboard-response,131,968681,0.0-46.0-4.0-1.0-1.0-9.0,,,,,,,,,,,,,,,6310b940e5a073466d04381f,13:28:32,03/04/2024
8708.0,"<div class = numbox><p style=""font-size: 2.4rem"">Please recall the letters you saw to the best of your ability. If you do not remember a particular letter, use the SKIP button.<br><b>(When you are ready to lock in your answer, press ENTER)</b></p><button id = button_1 class = ""square num-button"" onclick = ""recordClick(this)""><div class = content><div class = numbers>C</div></div></button><button id = button_2 class = ""square num-button"" onclick = ""recordClick(this)""><div class = content><div class = numbers>G</div></div></button><button id = button_3 class = ""square num-button"" onclick = ""recordClick(this)""><div class = content><div class = numbers>H</div></div></button><button id = button_4 class = ""square num-button"" onclick = ""recordClick(this)""><div class = content><div class = numbers>J</div></div></button><button id = button_5 class = ""square num-button"" onclick = ""recordClick(this)""><div class = content><div class = numbers>K</div></div></button><button id = button_6 class = ""square num-button"" onclick = ""recordClick(this)""><div class = content><div class = numbers>L</div></div></button><button id = button_7 class = ""square num-button"" onclick = ""recordClick(this)""><div class = content><div class = numbers>N</div></div></button><button id = button_8 class = ""square num-button"" onclick = ""recordClick(this)""><div class = content><div class = numbers>P</div></div></button><button id = button_9 class = ""square num-button"" onclick = ""recordClick(this)""><div class = content><div class = numbers>Q</div></div></button><button id = button_10 class = ""square num-button"" onclick = ""recordClick(this)""><div class = content><div class = numbers>R</div></div></button><button id = button_11 class = ""square num-button"" onclick = ""recordClick(this)""><div class = content><div class = numbers>S</div></div></button><button id = button_12 class = ""square num-button"" onclick = ""recordClick(this)""><div class = content><div class = numbers>Y</div></div></button><button class = clear_button id = ""ClearButton"" onclick = ""clearResponse()"">BACKSPACE</button><button class = blank_button id = ""BlankButton"" onclick = ""blankResponse()"">SKIP</button><p style=""font-size: 2.4rem""><u><b>Current Answer:</b></u></p><br><br><div id=echoed_txt style=""font-size: 5rem; color:blue;""><b></b></div></div>",enter,ospan,retrieval,o5zJz36jhlfMEotb1sBcoHtckEm1,html-keyboard-response,132,978140,0.0-46.0-4.0-1.0-2.0,12,12,12,5.0,"[""G"",""H"",""P"",""Q"",""S""]","[""G"",""H"",""P"",""Q"",""S""]",1.0,5.0,,,,,,,6310b940e5a073466d04381f,13:28:32,03/04/2024
1099.2999999970198,[''],0,ospan,feedback,o5zJz36jhlfMEotb1sBcoHtckEm1,html-button-response,133,979742,0.0-46.0-4.0-1.0-3.0,,,,,,,,,,,,100.0,0.0,,6310b940e5a073466d04381f,13:28:32,03/04/2024
,"<p style=""font-size:75px;"">...</p>",,ospan,iti,o5zJz36jhlfMEotb1sBcoHtckEm1,html-keyboard-response,134,980746,0.0-46.0-4.0-2.0-0.0,,,,,,,,,,,,,,,6310b940e5a073466d04381f,13:28:32,03/04/2024
1569.0,,,ospan,symmetry,o5zJz36jhlfMEotb1sBcoHtckEm1,symmetry-judgement-task,135,983348,0.0-46.0-4.0-2.0-1.0-0.0,,,,,,,,,,1.0,1.0,,,,6310b940e5a073466d04381f,13:28:32,03/04/2024
,"<div style=""font-size: 10rem; color: #0000FF"">R</div>",,ospan,letter,o5zJz36jhlfMEotb1sBcoHtckEm1,html-keyboard-response,136,984351,0.0-46.0-4.0-2.0-1.0-1.0,,,,,,,,,,,,,,,6310b940e5a073466d04381f,13:28:32,03/04/2024
2370.0,,,ospan,symmetry,o5zJz36jhlfMEotb1sBcoHtckEm1,symmetry-judgement-task,137,988681,0.0-46.0-4.0-2.0-1.0-2.0,,,,,,,,,,1.0,1.0,,,,6310b940e5a073466d04381f,13:28:32,03/04/2024
,"<div style=""font-size: 10rem; color: #0000FF"">H</div>",,ospan,letter,o5zJz36jhlfMEotb1sBcoHtckEm1,html-keyboard-response,138,989684,0.0-46.0-4.0-2.0-1.0-3.0,,,,,,,,,,,,,,,6310b940e5a073466d04381f,13:28:32,03/04/2024
1265.0,,,ospan,symmetry,o5zJz36jhlfMEotb1sBcoHtckEm1,symmetry-judgement-task,139,992911,0.0-46.0-4.0-2.0-1.0-4.0,,,,,,,,,,1.0,1.0,,,,6310b940e5a073466d04381f,13:28:32,03/04/2024
,"<div style=""font-size: 10rem; color: #0000FF"">N</div>",,ospan,letter,o5zJz36jhlfMEotb1sBcoHtckEm1,html-keyboard-response,140,993913,0.0-46.0-4.0-2.0-1.0-5.0,,,,,,,,,,,,,,,6310b940e5a073466d04381f,13:28:32,03/04/2024
4676.60000000149,"<div class = numbox><p style=""font-size: 2.4rem"">Please recall the letters you saw to the best of your ability. If you do not remember a particular letter, use the SKIP button.<br><b>(When you are ready to lock in your answer, press ENTER)</b></p><button id = button_1 class = ""square num-button"" onclick = ""recordClick(this)""><div class = content><div class = numbers>C</div></div></button><button id = button_2 class = ""square num-button"" onclick = ""recordClick(this)""><div class = content><div class = numbers>G</div></div></button><button id = button_3 class = ""square num-button"" onclick = ""recordClick(this)""><div class = content><div class = numbers>H</div></div></button><button id = button_4 class = ""square num-button"" onclick = ""recordClick(this)""><div class = content><div class = numbers>J</div></div></button><button id = button_5 class = ""square num-button"" onclick = ""recordClick(this)""><div class = content><div class = numbers>K</div></div></button><button id = button_6 class = ""square num-button"" onclick = ""recordClick(this)""><div class = content><div class = numbers>L</div></div></button><button id = button_7 class = ""square num-button"" onclick = ""recordClick(this)""><div class = content><div class = numbers>N</div></div></button><button id = button_8 class = ""square num-button"" onclick = ""recordClick(this)""><div class = content><div class = numbers>P</div></div></button><button id = button_9 class = ""square num-button"" onclick = ""recordClick(this)""><div class = content><div class = numbers>Q</div></div></button><button id = button_10 class = ""square num-button"" onclick = ""recordClick(this)""><div class = content><div class = numbers>R</div></div></button><button id = button_11 class = ""square num-button"" onclick = ""recordClick(this)""><div class = content><div class = numbers>S</div></div></button><button id = button_12 class = ""square num-button"" onclick = ""recordClick(this)""><div class = content><div class = numbers>Y</div></div></button><button class = clear_button id = ""ClearButton"" onclick = ""clearResponse()"">BACKSPACE</button><button class = blank_button id = ""BlankButton"" onclick = ""blankResponse()"">SKIP</button><p style=""font-size: 2.4rem""><u><b>Current Answer:</b></u></p><br><br><div id=echoed_txt style=""font-size: 5rem; color:blue;""><b></b></div></div>",enter,ospan,retrieval,o5zJz36jhlfMEotb1sBcoHtckEm1,html-keyboard-response,141,999342,0.0-46.0-4.0-2.0-2.0,15,15,15,3.0,"[""R"",""H"",""N""]","[""R"",""H"",""N""]",1.0,3.0,,,,,,,6310b940e5a073466d04381f,13:28:32,03/04/2024
1043.4000000022352,[''],0,ospan,feedback,o5zJz36jhlfMEotb1sBcoHtckEm1,html-button-response,142,1000888,0.0-46.0-4.0-2.0-3.0,,,,,,,,,,,,100.0,0.0,,6310b940e5a073466d04381f,13:28:32,03/04/2024
,"<p style=""font-size:75px;"">...</p>",,ospan,iti,o5zJz36jhlfMEotb1sBcoHtckEm1,html-keyboard-response,143,1001891,0.0-46.0-5.0-0.0-0.0,,,,,,,,,,,,,,,6310b940e5a073466d04381f,13:28:32,03/04/2024
1548.0,,,ospan,symmetry,o5zJz36jhlfMEotb1sBcoHtckEm1,symmetry-judgement-task,144,1004478,0.0-46.0-5.0-0.0-1.0-0.0,,,,,,,,,,1.0,1.0,,,,6310b940e5a073466d04381f,13:28:32,03/04/2024
,"<div style=""font-size: 10rem; color: #0000FF"">H</div>",,ospan,letter,o5zJz36jhlfMEotb1sBcoHtckEm1,html-keyboard-response,145,1005481,0.0-46.0-5.0-0.0-1.0-1.0,,,,,,,,,,,,,,,6310b940e5a073466d04381f,13:28:32,03/04/2024
1504.0,,,ospan,symmetry,o5zJz36jhlfMEotb1sBcoHtckEm1,symmetry-judgement-task,146,1008943,0.0-46.0-5.0-0.0-1.0-2.0,,,,,,,,,,1.0,1.0,,,,6310b940e5a073466d04381f,13:28:32,03/04/2024
,"<div style=""font-size: 10rem; color: #0000FF"">G</div>",,ospan,letter,o5zJz36jhlfMEotb1sBcoHtckEm1,html-keyboard-response,147,1009945,0.0-46.0-5.0-0.0-1.0-3.0,,,,,,,,,,,,,,,6310b940e5a073466d04381f,13:28:32,03/04/2024
1937.0,,,ospan,symmetry,o5zJz36jhlfMEotb1sBcoHtckEm1,symmetry-judgement-task,148,1013834,0.0-46.0-5.0-0.0-1.0-4.0,,,,,,,,,,1.0,1.0,,,,6310b940e5a073466d04381f,13:28:32,03/04/2024
,"<div style=""font-size: 10rem; color: #0000FF"">R</div>",,ospan,letter,o5zJz36jhlfMEotb1sBcoHtckEm1,html-keyboard-response,149,1014837,0.0-46.0-5.0-0.0-1.0-5.0,,,,,,,,,,,,,,,6310b940e5a073466d04381f,13:28:32,03/04/2024
3142.0,,,ospan,symmetry,o5zJz36jhlfMEotb1sBcoHtckEm1,symmetry-judgement-task,150,1019946,0.0-46.0-5.0-0.0-1.0-6.0,,,,,,,,,,1.0,1.0,,,,6310b940e5a073466d04381f,13:28:32,03/04/2024
,"<div style=""font-size: 10rem; color: #0000FF"">C</div>",,ospan,letter,o5zJz36jhlfMEotb1sBcoHtckEm1,html-keyboard-response,151,1020949,0.0-46.0-5.0-0.0-1.0-7.0,,,,,,,,,,,,,,,6310b940e5a073466d04381f,13:28:32,03/04/2024
1699.0,,,ospan,symmetry,o5zJz36jhlfMEotb1sBcoHtckEm1,symmetry-judgement-task,152,1024593,0.0-46.0-5.0-0.0-1.0-8.0,,,,,,,,,,1.0,1.0,,,,6310b940e5a073466d04381f,13:28:32,03/04/2024
,"<div style=""font-size: 10rem; color: #0000FF"">N</div>",,ospan,letter,o5zJz36jhlfMEotb1sBcoHtckEm1,html-keyboard-response,153,1025595,0.0-46.0-5.0-0.0-1.0-9.0,,,,,,,,,,,,,,,6310b940e5a073466d04381f,13:28:32,03/04/2024
1392.0,,,ospan,symmetry,o5zJz36jhlfMEotb1sBcoHtckEm1,symmetry-judgement-task,154,1028945,0.0-46.0-5.0-0.0-1.0-10.0,,,,,,,,,,1.0,1.0,,,,6310b940e5a073466d04381f,13:28:32,03/04/2024
,"<div style=""font-size: 10rem; color: #0000FF"">Q</div>",,ospan,letter,o5zJz36jhlfMEotb1sBcoHtckEm1,html-keyboard-response,155,1029947,0.0-46.0-5.0-0.0-1.0-11.0,,,,,,,,,,,,,,,6310b940e5a073466d04381f,13:28:32,03/04/2024
8393.699999999255,"<div class = numbox><p style=""font-size: 2.4rem"">Please recall the letters you saw to the best of your ability. If you do not remember a particular letter, use the SKIP button.<br><b>(When you are ready to lock in your answer, press ENTER)</b></p><button id = button_1 class = ""square num-button"" onclick = ""recordClick(this)""><div class = content><div class = numbers>C</div></div></button><button id = button_2 class = ""square num-button"" onclick = ""recordClick(this)""><div class = content><div class = numbers>G</div></div></button><button id = button_3 class = ""square num-button"" onclick = ""recordClick(this)""><div class = content><div class = numbers>H</div></div></button><button id = button_4 class = ""square num-button"" onclick = ""recordClick(this)""><div class = content><div class = numbers>J</div></div></button><button id = button_5 class = ""square num-button"" onclick = ""recordClick(this)""><div class = content><div class = numbers>K</div></div></button><button id = button_6 class = ""square num-button"" onclick = ""recordClick(this)""><div class = content><div class = numbers>L</div></div></button><button id = button_7 class = ""square num-button"" onclick = ""recordClick(this)""><div class = content><div class = numbers>N</div></div></button><button id = button_8 class = ""square num-button"" onclick = ""recordClick(this)""><div class = content><div class = numbers>P</div></div></button><button id = button_9 class = ""square num-button"" onclick = ""recordClick(this)""><div class = content><div class = numbers>Q</div></div></button><button id = button_10 class = ""square num-button"" onclick = ""recordClick(this)""><div class = content><div class = numbers>R</div></div></button><button id = button_11 class = ""square num-button"" onclick = ""recordClick(this)""><div class = content><div class = numbers>S</div></div></button><button id = button_12 class = ""square num-button"" onclick = ""recordClick(this)""><div class = content><div class = numbers>Y</div></div></button><button class = clear_button id = ""ClearButton"" onclick = ""clearResponse()"">BACKSPACE</button><button class = blank_button id = ""BlankButton"" onclick = ""blankResponse()"">SKIP</button><p style=""font-size: 2.4rem""><u><b>Current Answer:</b></u></p><br><br><div id=echoed_txt style=""font-size: 5rem; color:blue;""><b></b></div></div>",enter,ospan,retrieval,o5zJz36jhlfMEotb1sBcoHtckEm1,html-keyboard-response,156,1039093,0.0-46.0-5.0-0.0-2.0,21,21,21,6.0,"[""H"",""G"",""R"",""C"",""N"",""Q""]","[""H"",""G"",""R"",""C"",""N"",""Q""]",1.0,6.0,,,,,,,6310b940e5a073466d04381f,13:28:32,03/04/2024
1236.8999999985099,[''],0,ospan,feedback,o5zJz36jhlfMEotb1sBcoHtckEm1,html-button-response,157,1040832,0.0-46.0-5.0-0.0-3.0,,,,,,,,,,,,100.0,0.0,,6310b940e5a073466d04381f,13:28:32,03/04/2024
,"<p style=""font-size:75px;"">...</p>",,ospan,iti,o5zJz36jhlfMEotb1sBcoHtckEm1,html-keyboard-response,158,1041835,0.0-46.0-5.0-1.0-0.0,,,,,,,,,,,,,,,6310b940e5a073466d04381f,13:28:32,03/04/2024
1723.0,,,ospan,symmetry,o5zJz36jhlfMEotb1sBcoHtckEm1,symmetry-judgement-task,159,1044769,0.0-46.0-5.0-1.0-1.0-0.0,,,,,,,,,,1.0,1.0,,,,6310b940e5a073466d04381f,13:28:32,03/04/2024
,"<div style=""font-size: 10rem; color: #0000FF"">H</div>",,ospan,letter,o5zJz36jhlfMEotb1sBcoHtckEm1,html-keyboard-response,160,1045771,0.0-46.0-5.0-1.0-1.0-1.0,,,,,,,,,,,,,,,6310b940e5a073466d04381f,13:28:32,03/04/2024
3958.0,,,ospan,symmetry,o5zJz36jhlfMEotb1sBcoHtckEm1,symmetry-judgement-task,161,1051682,0.0-46.0-5.0-1.0-1.0-2.0,,,,,,,,,,1.0,1.0,,,,6310b940e5a073466d04381f,13:28:32,03/04/2024
,"<div style=""font-size: 10rem; color: #0000FF"">K</div>",,ospan,letter,o5zJz36jhlfMEotb1sBcoHtckEm1,html-keyboard-response,162,1052684,0.0-46.0-5.0-1.0-1.0-3.0,,,,,,,,,,,,,,,6310b940e5a073466d04381f,13:28:32,03/04/2024
2081.0,,,ospan,symmetry,o5zJz36jhlfMEotb1sBcoHtckEm1,symmetry-judgement-task,163,1056728,0.0-46.0-5.0-1.0-1.0-4.0,,,,,,,,,,1.0,1.0,,,,6310b940e5a073466d04381f,13:28:32,03/04/2024
,"<div style=""font-size: 10rem; color: #0000FF"">S</div>",,ospan,letter,o5zJz36jhlfMEotb1sBcoHtckEm1,html-keyboard-response,164,1057730,0.0-46.0-5.0-1.0-1.0-5.0,,,,,,,,,,,,,,,6310b940e5a073466d04381f,13:28:32,03/04/2024
1486.0,,,ospan,symmetry,o5zJz36jhlfMEotb1sBcoHtckEm1,symmetry-judgement-task,165,1061174,0.0-46.0-5.0-1.0-1.0-6.0,,,,,,,,,,1.0,1.0,,,,6310b940e5a073466d04381f,13:28:32,03/04/2024
,"<div style=""font-size: 10rem; color: #0000FF"">Q</div>",,ospan,letter,o5zJz36jhlfMEotb1sBcoHtckEm1,html-keyboard-response,166,1062177,0.0-46.0-5.0-1.0-1.0-7.0,,,,,,,,,,,,,,,6310b940e5a073466d04381f,13:28:32,03/04/2024
1844.0,,,ospan,symmetry,o5zJz36jhlfMEotb1sBcoHtckEm1,symmetry-judgement-task,167,1065986,0.0-46.0-5.0-1.0-1.0-8.0,,,,,,,,,,1.0,1.0,,,,6310b940e5a073466d04381f,13:28:32,03/04/2024
,"<div style=""font-size: 10rem; color: #0000FF"">L</div>",,ospan,letter,o5zJz36jhlfMEotb1sBcoHtckEm1,html-keyboard-response,168,1066989,0.0-46.0-5.0-1.0-1.0-9.0,,,,,,,,,,,,,,,6310b940e5a073466d04381f,13:28:32,03/04/2024
1530.0,,,ospan,symmetry,o5zJz36jhlfMEotb1sBcoHtckEm1,symmetry-judgement-task,169,1070483,0.0-46.0-5.0-1.0-1.0-10.0,,,,,,,,,,1.0,1.0,,,,6310b940e5a073466d04381f,13:28:32,03/04/2024
,"<div style=""font-size: 10rem; color: #0000FF"">R</div>",,ospan,letter,o5zJz36jhlfMEotb1sBcoHtckEm1,html-keyboard-response,170,1071485,0.0-46.0-5.0-1.0-1.0-11.0,,,,,,,,,,,,,,,6310b940e5a073466d04381f,13:28:32,03/04/2024
1532.0,,,ospan,symmetry,o5zJz36jhlfMEotb1sBcoHtckEm1,symmetry-judgement-task,171,1074981,0.0-46.0-5.0-1.0-1.0-12.0,,,,,,,,,,1.0,1.0,,,,6310b940e5a073466d04381f,13:28:32,03/04/2024
,"<div style=""font-size: 10rem; color: #0000FF"">J</div>",,ospan,letter,o5zJz36jhlfMEotb1sBcoHtckEm1,html-keyboard-response,172,1075983,0.0-46.0-5.0-1.0-1.0-13.0,,,,,,,,,,,,,,,6310b940e5a073466d04381f,13:28:32,03/04/2024
10419.800000000745,"<div class = numbox><p style=""font-size: 2.4rem"">Please recall the letters you saw to the best of your ability. If you do not remember a particular letter, use the SKIP button.<br><b>(When you are ready to lock in your answer, press ENTER)</b></p><button id = button_1 class = ""square num-button"" onclick = ""recordClick(this)""><div class = content><div class = numbers>C</div></div></button><button id = button_2 class = ""square num-button"" onclick = ""recordClick(this)""><div class = content><div class = numbers>G</div></div></button><button id = button_3 class = ""square num-button"" onclick = ""recordClick(this)""><div class = content><div class = numbers>H</div></div></button><button id = button_4 class = ""square num-button"" onclick = ""recordClick(this)""><div class = content><div class = numbers>J</div></div></button><button id = button_5 class = ""square num-button"" onclick = ""recordClick(this)""><div class = content><div class = numbers>K</div></div></button><button id = button_6 class = ""square num-button"" onclick = ""recordClick(this)""><div class = content><div class = numbers>L</div></div></button><button id = button_7 class = ""square num-button"" onclick = ""recordClick(this)""><div class = content><div class = numbers>N</div></div></button><button id = button_8 class = ""square num-button"" onclick = ""recordClick(this)""><div class = content><div class = numbers>P</div></div></button><button id = button_9 class = ""square num-button"" onclick = ""recordClick(this)""><div class = content><div class = numbers>Q</div></div></button><button id = button_10 class = ""square num-button"" onclick = ""recordClick(this)""><div class = content><div class = numbers>R</div></div></button><button id = button_11 class = ""square num-button"" onclick = ""recordClick(this)""><div class = content><div class = numbers>S</div></div></button><button id = button_12 class = ""square num-button"" onclick = ""recordClick(this)""><div class = content><div class = numbers>Y</div></div></button><button class = clear_button id = ""ClearButton"" onclick = ""clearResponse()"">BACKSPACE</button><button class = blank_button id = ""BlankButton"" onclick = ""blankResponse()"">SKIP</button><p style=""font-size: 2.4rem""><u><b>Current Answer:</b></u></p><br><br><div id=echoed_txt style=""font-size: 5rem; color:blue;""><b></b></div></div>",enter,ospan,retrieval,o5zJz36jhlfMEotb1sBcoHtckEm1,html-keyboard-response,173,1087156,0.0-46.0-5.0-1.0-2.0,28,25,21,7.0,"[""H"",""K"",""S"",""Q"",""R"",""J""]","[""H"",""K"",""S"",""Q"",""L"",""R"",""J""]",0.0,4.0,,,,,,,6310b940e5a073466d04381f,13:28:32,03/04/2024
1167.6000000014901,[''],0,ospan,feedback,o5zJz36jhlfMEotb1sBcoHtckEm1,html-button-response,174,1088826,0.0-46.0-5.0-1.0-3.0,,,,,,,,,,,,100.0,0.0,,6310b940e5a073466d04381f,13:28:32,03/04/2024
,"<p style=""font-size:75px;"">...</p>",,ospan,iti,o5zJz36jhlfMEotb1sBcoHtckEm1,html-keyboard-response,175,1089829,0.0-46.0-6.0-0.0-0.0,,,,,,,,,,,,,,,6310b940e5a073466d04381f,13:28:32,03/04/2024
1355.0,,,ospan,symmetry,o5zJz36jhlfMEotb1sBcoHtckEm1,symmetry-judgement-task,176,1092377,0.0-46.0-6.0-0.0-1.0-0.0,,,,,,,,,,1.0,1.0,,,,6310b940e5a073466d04381f,13:28:32,03/04/2024
,"<div style=""font-size: 10rem; color: #0000FF"">C</div>",,ospan,letter,o5zJz36jhlfMEotb1sBcoHtckEm1,html-keyboard-response,177,1093380,0.0-46.0-6.0-0.0-1.0-1.0,,,,,,,,,,,,,,,6310b940e5a073466d04381f,13:28:32,03/04/2024
1292.0,,,ospan,symmetry,o5zJz36jhlfMEotb1sBcoHtckEm1,symmetry-judgement-task,178,1096618,0.0-46.0-6.0-0.0-1.0-2.0,,,,,,,,,,1.0,1.0,,,,6310b940e5a073466d04381f,13:28:32,03/04/2024
,"<div style=""font-size: 10rem; color: #0000FF"">J</div>",,ospan,letter,o5zJz36jhlfMEotb1sBcoHtckEm1,html-keyboard-response,179,1097620,0.0-46.0-6.0-0.0-1.0-3.0,,,,,,,,,,,,,,,6310b940e5a073466d04381f,13:28:32,03/04/2024
1716.0,,,ospan,symmetry,o5zJz36jhlfMEotb1sBcoHtckEm1,symmetry-judgement-task,180,1101285,0.0-46.0-6.0-0.0-1.0-4.0,,,,,,,,,,1.0,1.0,,,,6310b940e5a073466d04381f,13:28:32,03/04/2024
,"<div style=""font-size: 10rem; color: #0000FF"">S</div>",,ospan,letter,o5zJz36jhlfMEotb1sBcoHtckEm1,html-keyboard-response,181,1102287,0.0-46.0-6.0-0.0-1.0-5.0,,,,,,,,,,,,,,,6310b940e5a073466d04381f,13:28:32,03/04/2024
1287.0,,,ospan,symmetry,o5zJz36jhlfMEotb1sBcoHtckEm1,symmetry-judgement-task,182,1105524,0.0-46.0-6.0-0.0-1.0-6.0,,,,,,,,,,1.0,1.0,,,,6310b940e5a073466d04381f,13:28:32,03/04/2024
,"<div style=""font-size: 10rem; color: #0000FF"">Q</div>",,ospan,letter,o5zJz36jhlfMEotb1sBcoHtckEm1,html-keyboard-response,183,1106527,0.0-46.0-6.0-0.0-1.0-7.0,,,,,,,,,,,,,,,6310b940e5a073466d04381f,13:28:32,03/04/2024
1303.0,,,ospan,symmetry,o5zJz36jhlfMEotb1sBcoHtckEm1,symmetry-judgement-task,184,1109794,0.0-46.0-6.0-0.0-1.0-8.0,,,,,,,,,,1.0,1.0,,,,6310b940e5a073466d04381f,13:28:32,03/04/2024
,"<div style=""font-size: 10rem; color: #0000FF"">Y</div>",,ospan,letter,o5zJz36jhlfMEotb1sBcoHtckEm1,html-keyboard-response,185,1110797,0.0-46.0-6.0-0.0-1.0-9.0,,,,,,,,,,,,,,,6310b940e5a073466d04381f,13:28:32,03/04/2024
6794.699999999255,"<div class = numbox><p style=""font-size: 2.4rem"">Please recall the letters you saw to the best of your ability. If you do not remember a particular letter, use the SKIP button.<br><b>(When you are ready to lock in your answer, press ENTER)</b></p><button id = button_1 class = ""square num-button"" onclick = ""recordClick(this)""><div class = content><div class = numbers>C</div></div></button><button id = button_2 class = ""square num-button"" onclick = ""recordClick(this)""><div class = content><div class = numbers>G</div></div></button><button id = button_3 class = ""square num-button"" onclick = ""recordClick(this)""><div class = content><div class = numbers>H</div></div></button><button id = button_4 class = ""square num-button"" onclick = ""recordClick(this)""><div class = content><div class = numbers>J</div></div></button><button id = button_5 class = ""square num-button"" onclick = ""recordClick(this)""><div class = content><div class = numbers>K</div></div></button><button id = button_6 class = ""square num-button"" onclick = ""recordClick(this)""><div class = content><div class = numbers>L</div></div></button><button id = button_7 class = ""square num-button"" onclick = ""recordClick(this)""><div class = content><div class = numbers>N</div></div></button><button id = button_8 class = ""square num-button"" onclick = ""recordClick(this)""><div class = content><div class = numbers>P</div></div></button><button id = button_9 class = ""square num-button"" onclick = ""recordClick(this)""><div class = content><div class = numbers>Q</div></div></button><button id = button_10 class = ""square num-button"" onclick = ""recordClick(this)""><div class = content><div class = numbers>R</div></div></button><button id = button_11 class = ""square num-button"" onclick = ""recordClick(this)""><div class = content><div class = numbers>S</div></div></button><button id = button_12 class = ""square num-button"" onclick = ""recordClick(this)""><div class = content><div class = numbers>Y</div></div></button><button class = clear_button id = ""ClearButton"" onclick = ""clearResponse()"">BACKSPACE</button><button class = blank_button id = ""BlankButton"" onclick = ""blankResponse()"">SKIP</button><p style=""font-size: 2.4rem""><u><b>Current Answer:</b></u></p><br><br><div id=echoed_txt style=""font-size: 5rem; color:blue;""><b></b></div></div>",enter,ospan,retrieval,o5zJz36jhlfMEotb1sBcoHtckEm1,html-keyboard-response,186,1118345,0.0-46.0-6.0-0.0-2.0,33,29,21,5.0,"[""C"",""G"",""S"",""Q"",""Y""]","[""C"",""J"",""S"",""Q"",""Y""]",0.0,4.0,,,,,,,6310b940e5a073466d04381f,13:28:32,03/04/2024
992.6999999992549,[''],0,ospan,feedback,o5zJz36jhlfMEotb1sBcoHtckEm1,html-button-response,187,1119840,0.0-46.0-6.0-0.0-3.0,,,,,,,,,,,,100.0,0.0,,6310b940e5a073466d04381f,13:28:32,03/04/2024
,"<p style=""font-size:75px;"">...</p>",,ospan,iti,o5zJz36jhlfMEotb1sBcoHtckEm1,html-keyboard-response,188,1120843,0.0-46.0-6.0-1.0-0.0,,,,,,,,,,,,,,,6310b940e5a073466d04381f,13:28:32,03/04/2024
2070.0,,,ospan,symmetry,o5zJz36jhlfMEotb1sBcoHtckEm1,symmetry-judgement-task,189,1124114,0.0-46.0-6.0-1.0-1.0-0.0,,,,,,,,,,1.0,1.0,,,,6310b940e5a073466d04381f,13:28:32,03/04/2024
,"<div style=""font-size: 10rem; color: #0000FF"">S</div>",,ospan,letter,o5zJz36jhlfMEotb1sBcoHtckEm1,html-keyboard-response,190,1125116,0.0-46.0-6.0-1.0-1.0-1.0,,,,,,,,,,,,,,,6310b940e5a073466d04381f,13:28:32,03/04/2024
1137.0,,,ospan,symmetry,o5zJz36jhlfMEotb1sBcoHtckEm1,symmetry-judgement-task,191,1128213,0.0-46.0-6.0-1.0-1.0-2.0,,,,,,,,,,1.0,1.0,,,,6310b940e5a073466d04381f,13:28:32,03/04/2024
,"<div style=""font-size: 10rem; color: #0000FF"">C</div>",,ospan,letter,o5zJz36jhlfMEotb1sBcoHtckEm1,html-keyboard-response,192,1129214,0.0-46.0-6.0-1.0-1.0-3.0,,,,,,,,,,,,,,,6310b940e5a073466d04381f,13:28:32,03/04/2024
1553.0,,,ospan,symmetry,o5zJz36jhlfMEotb1sBcoHtckEm1,symmetry-judgement-task,193,1132732,0.0-46.0-6.0-1.0-1.0-4.0,,,,,,,,,,1.0,1.0,,,,6310b940e5a073466d04381f,13:28:32,03/04/2024
,"<div style=""font-size: 10rem; color: #0000FF"">J</div>",,ospan,letter,o5zJz36jhlfMEotb1sBcoHtckEm1,html-keyboard-response,194,1133735,0.0-46.0-6.0-1.0-1.0-5.0,,,,,,,,,,,,,,,6310b940e5a073466d04381f,13:28:32,03/04/2024
1328.0,,,ospan,symmetry,o5zJz36jhlfMEotb1sBcoHtckEm1,symmetry-judgement-task,195,1137012,0.0-46.0-6.0-1.0-1.0-6.0,,,,,,,,,,1.0,1.0,,,,6310b940e5a073466d04381f,13:28:32,03/04/2024
,"<div style=""font-size: 10rem; color: #0000FF"">P</div>",,ospan,letter,o5zJz36jhlfMEotb1sBcoHtckEm1,html-keyboard-response,196,1138015,0.0-46.0-6.0-1.0-1.0-7.0,,,,,,,,,,,,,,,6310b940e5a073466d04381f,13:28:32,03/04/2024
1247.0,,,ospan,symmetry,o5zJz36jhlfMEotb1sBcoHtckEm1,symmetry-judgement-task,197,1141228,0.0-46.0-6.0-1.0-1.0-8.0,,,,,,,,,,1.0,1.0,,,,6310b940e5a073466d04381f,13:28:32,03/04/2024
,"<div style=""font-size: 10rem; color: #0000FF"">K</div>",,ospan,letter,o5zJz36jhlfMEotb1sBcoHtckEm1,html-keyboard-response,198,1142229,0.0-46.0-6.0-1.0-1.0-9.0,,,,,,,,,,,,,,,6310b940e5a073466d04381f,13:28:32,03/04/2024
1394.0,,,ospan,symmetry,o5zJz36jhlfMEotb1sBcoHtckEm1,symmetry-judgement-task,199,1145574,0.0-46.0-6.0-1.0-1.0-10.0,,,,,,,,,,1.0,1.0,,,,6310b940e5a073466d04381f,13:28:32,03/04/2024
,"<div style=""font-size: 10rem; color: #0000FF"">N</div>",,ospan,letter,o5zJz36jhlfMEotb1sBcoHtckEm1,html-keyboard-response,200,1146576,0.0-46.0-6.0-1.0-1.0-11.0,,,,,,,,,,,,,,,6310b940e5a073466d04381f,13:28:32,03/04/2024
2177.0,,,ospan,symmetry,o5zJz36jhlfMEotb1sBcoHtckEm1,symmetry-judgement-task,201,1150720,0.0-46.0-6.0-1.0-1.0-12.0,,,,,,,,,,1.0,1.0,,,,6310b940e5a073466d04381f,13:28:32,03/04/2024
,"<div style=""font-size: 10rem; color: #0000FF"">L</div>",,ospan,letter,o5zJz36jhlfMEotb1sBcoHtckEm1,html-keyboard-response,202,1151721,0.0-46.0-6.0-1.0-1.0-13.0,,,,,,,,,,,,,,,6310b940e5a073466d04381f,13:28:32,03/04/2024
1932.0,,,ospan,symmetry,o5zJz36jhlfMEotb1sBcoHtckEm1,symmetry-judgement-task,203,1155618,0.0-46.0-6.0-1.0-1.0-14.0,,,,,,,,,,1.0,1.0,,,,6310b940e5a073466d04381f,13:28:32,03/04/2024
,"<div style=""font-size: 10rem; color: #0000FF"">G</div>",,ospan,letter,o5zJz36jhlfMEotb1sBcoHtckEm1,html-keyboard-response,204,1156620,0.0-46.0-6.0-1.0-1.0-15.0,,,,,,,,,,,,,,,6310b940e5a073466d04381f,13:28:32,03/04/2024
13826.39999999851,"<div class = numbox><p style=""font-size: 2.4rem"">Please recall the letters you saw to the best of your ability. If you do not remember a particular letter, use the SKIP button.<br><b>(When you are ready to lock in your answer, press ENTER)</b></p><button id = button_1 class = ""square num-button"" onclick = ""recordClick(this)""><div class = content><div class = numbers>C</div></div></button><button id = button_2 class = ""square num-button"" onclick = ""recordClick(this)""><div class = content><div class = numbers>G</div></div></button><button id = button_3 class = ""square num-button"" onclick = ""recordClick(this)""><div class = content><div class = numbers>H</div></div></button><button id = button_4 class = ""square num-button"" onclick = ""recordClick(this)""><div class = content><div class = numbers>J</div></div></button><button id = button_5 class = ""square num-button"" onclick = ""recordClick(this)""><div class = content><div class = numbers>K</div></div></button><button id = button_6 class = ""square num-button"" onclick = ""recordClick(this)""><div class = content><div class = numbers>L</div></div></button><button id = button_7 class = ""square num-button"" onclick = ""recordClick(this)""><div class = content><div class = numbers>N</div></div></button><button id = button_8 class = ""square num-button"" onclick = ""recordClick(this)""><div class = content><div class = numbers>P</div></div></button><button id = button_9 class = ""square num-button"" onclick = ""recordClick(this)""><div class = content><div class = numbers>Q</div></div></button><button id = button_10 class = ""square num-button"" onclick = ""recordClick(this)""><div class = content><div class = numbers>R</div></div></button><button id = button_11 class = ""square num-button"" onclick = ""recordClick(this)""><div class = content><div class = numbers>S</div></div></button><button id = button_12 class = ""square num-button"" onclick = ""recordClick(this)""><div class = content><div class = numbers>Y</div></div></button><button class = clear_button id = ""ClearButton"" onclick = ""clearResponse()"">BACKSPACE</button><button class = blank_button id = ""BlankButton"" onclick = ""blankResponse()"">SKIP</button><p style=""font-size: 2.4rem""><u><b>Current Answer:</b></u></p><br><br><div id=echoed_txt style=""font-size: 5rem; color:blue;""><b></b></div></div>",enter,ospan,retrieval,o5zJz36jhlfMEotb1sBcoHtckEm1,html-keyboard-response,205,1171199,0.0-46.0-6.0-1.0-2.0,41,34,21,8.0,"[""S"",""C"",""J"",""P"",""K"",""L"",""N""]","[""S"",""C"",""J"",""P"",""K"",""N"",""L"",""G""]",0.0,5.0,,,,,,,6310b940e5a073466d04381f,13:28:32,03/04/2024
881.3000000007451,[''],0,ospan,feedback,o5zJz36jhlfMEotb1sBcoHtckEm1,html-button-response,206,1172582,0.0-46.0-6.0-1.0-3.0,,,,,,,,,,,,100.0,0.0,,6310b940e5a073466d04381f,13:28:32,03/04/2024
33218.400000002235,,"{'Q0': 'It was all clear and straight forward. I enjoyed this task, it really gets your brain working. It is like brain training.'}",ospan,survey_ospan,o5zJz36jhlfMEotb1sBcoHtckEm1,lmdlab-survey-text,207,1206554,0.0-46.0-7.0,,,,,,,,,,,,,,o5zJz36jhlfMEotb1sBcoHtckEm1,6310b940e5a073466d04381f,13:28:32,03/04/2024
2375.0,<p><p style='font-size: 3rem'>Great work!<br><br>This completes the symmetry and memory task.</p><br><br><br>,0,ospan,finish,o5zJz36jhlfMEotb1sBcoHtckEm1,html-button-response,208,1208933,0.0-46.0-8.0,41,34,21,,,,,,,,,100.0,,,6310b940e5a073466d04381f,13:28:32,03/04/2024
