rt,stimulus,response,exp_name,exp_stage,subjectID,trial_type,trial_index,time_elapsed,internal_node_id,ospan_shown,ospan_total,ospan_abs,length,resp_actual,resp_correct,full_correct,num_correct,feedback,accuracy,correct,math_acc,math_warning,databaseID,prolificID,start_time,date
4181.0,<div class = 'left_align' style='font-size: 3.25rem; line-height: 1.3;'><p class = 'center_align'><b>Welcome to the Symmetry and Memory Task</b><br><br><br><br></p>Press 'continue' to show the instructions.<br><br><br><br></div>,0,ospan,instruct,64y4VTgeoLX973gg2hotY9njGqo2,html-button-response,51,450693,0.0-43.0-0.0-0.0-0.0,,,,,,,,,,,,,,,65bbae0c9be9bb4d76ae2c18,11:44:42,08/03/2024
11901.0,"<div class = 'left_align' style='font-size: 3.25rem; line-height: 1.3;'><p class = 'center_align'><b>Symmetry and Memory Task</b><br><br></p>In this task, you will try to memorize letters you see on the screen<br>while you also view black and white grid pictures.<br><br>In the next few minutes, you will have some practice to get you familiar<br>with how the task works.<br><br>It may be difficult sometimes, but please do not worry about making mistakes!<br><br>We will begin by practicing the letter part of the task.<br><br><br><br></div>",0,ospan,instruct,64y4VTgeoLX973gg2hotY9njGqo2,html-button-response,52,462859,0.0-43.0-0.0-0.0-1.0,,,,,,,,,,,,,,,65bbae0c9be9bb4d76ae2c18,11:44:42,08/03/2024
10075.0,"<div class = 'left_align' style='font-size: 3.25rem; line-height: 1.3;'>For this practice part, letters will appear on the screen one at a time.<br><br>Try to remember each letter in the order presented.<br><br>After some letters have been shown, you will see a response screen. Your<br>goal is to report the letters you saw <b>in order</b>. If you do not remember<br>a particular letter, you will have the option to leave it blank.<br><br><br><br></div>",0,ospan,instruct,64y4VTgeoLX973gg2hotY9njGqo2,html-button-response,53,473194,0.0-43.0-0.0-0.0-2.0,,,,,,,,,,,,,,,65bbae0c9be9bb4d76ae2c18,11:44:42,08/03/2024
3334.0,"<div class = 'left_align' style='font-size: 3.25rem; line-height: 1.3;'>Remember, it is very important to get the letters in the same<br>order as you see them.<br><br>When you are ready, you may begin the letter practice.</div><br><br><br><br>",0,ospan,instruct,64y4VTgeoLX973gg2hotY9njGqo2,html-button-response,54,476795,0.0-43.0-0.0-0.0-3.0,,,,,,,,,,,,,,,65bbae0c9be9bb4d76ae2c18,11:44:42,08/03/2024
,"<p style=""font-size:75px;"">...</p>",,ospan,iti,64y4VTgeoLX973gg2hotY9njGqo2,html-keyboard-response,55,478094,0.0-43.0-0.0-1.0-0.0,,,,,,,,,,,,,,,65bbae0c9be9bb4d76ae2c18,11:44:42,08/03/2024
570.0,"<div style=""font-size: 10rem; color: #0000FF"">S</div>",s,ospan,letter,64y4VTgeoLX973gg2hotY9njGqo2,html-keyboard-response,56,478665,0.0-43.0-0.0-1.0-1.0,,,,,,,,,,,,,,,65bbae0c9be9bb4d76ae2c18,11:44:42,08/03/2024
,"<div style=""font-size: 10rem; color: #0000FF"">L</div>",,ospan,letter,64y4VTgeoLX973gg2hotY9njGqo2,html-keyboard-response,57,480431,0.0-43.0-0.0-1.0-2.0,,,,,,,,,,,,,,,65bbae0c9be9bb4d76ae2c18,11:44:42,08/03/2024
10443.0,"<div class = numbox><p style=""font-size: 2.4rem"">Please recall the letters you saw to the best of your ability. If you do not remember a particular letter, use the SKIP button.<br><b>(When you are ready to lock in your answer, press ENTER)</b></p><button id = button_1 class = ""square num-button"" onclick = ""recordClick(this)""><div class = content><div class = numbers>C</div></div></button><button id = button_2 class = ""square num-button"" onclick = ""recordClick(this)""><div class = content><div class = numbers>G</div></div></button><button id = button_3 class = ""square num-button"" onclick = ""recordClick(this)""><div class = content><div class = numbers>H</div></div></button><button id = button_4 class = ""square num-button"" onclick = ""recordClick(this)""><div class = content><div class = numbers>J</div></div></button><button id = button_5 class = ""square num-button"" onclick = ""recordClick(this)""><div class = content><div class = numbers>K</div></div></button><button id = button_6 class = ""square num-button"" onclick = ""recordClick(this)""><div class = content><div class = numbers>L</div></div></button><button id = button_7 class = ""square num-button"" onclick = ""recordClick(this)""><div class = content><div class = numbers>N</div></div></button><button id = button_8 class = ""square num-button"" onclick = ""recordClick(this)""><div class = content><div class = numbers>P</div></div></button><button id = button_9 class = ""square num-button"" onclick = ""recordClick(this)""><div class = content><div class = numbers>Q</div></div></button><button id = button_10 class = ""square num-button"" onclick = ""recordClick(this)""><div class = content><div class = numbers>R</div></div></button><button id = button_11 class = ""square num-button"" onclick = ""recordClick(this)""><div class = content><div class = numbers>S</div></div></button><button id = button_12 class = ""square num-button"" onclick = ""recordClick(this)""><div class = content><div class = numbers>Y</div></div></button><button class = clear_button id = ""ClearButton"" onclick = ""clearResponse()"">BACKSPACE</button><button class = blank_button id = ""BlankButton"" onclick = ""blankResponse()"">SKIP</button><p style=""font-size: 2.4rem""><u><b>Current Answer:</b></u></p><br><br><div id=echoed_txt style=""font-size: 5rem; color:blue;""><b></b></div></div>",enter,ospan,retrieval,64y4VTgeoLX973gg2hotY9njGqo2,html-keyboard-response,58,491639,0.0-43.0-0.0-1.0-3.0,NA,NA,NA,2.0,"[""S"",""L""]","[""S"",""L""]",1.0,2.0,"['<font color=""green"">S</font>', '<font color=""green"">L</font>']",,,,,,65bbae0c9be9bb4d76ae2c18,11:44:42,08/03/2024
100716.0,"['<p style=""font-size:44px"">Letters:<br><br><br><font color=""green"">S</font> <font color=""green"">L</font></p><br><br>']",0,ospan,practice_feedback,64y4VTgeoLX973gg2hotY9njGqo2,html-button-response,59,592867,0.0-43.0-0.0-1.0-4.0,,,,,,,,,,,,,,,65bbae0c9be9bb4d76ae2c18,11:44:42,08/03/2024
,"<p style=""font-size:75px;"">...</p>",,ospan,iti,64y4VTgeoLX973gg2hotY9njGqo2,html-keyboard-response,60,593882,0.0-43.0-0.0-2.0-0.0,,,,,,,,,,,,,,,65bbae0c9be9bb4d76ae2c18,11:44:42,08/03/2024
,"<div style=""font-size: 10rem; color: #0000FF"">R</div>",,ospan,letter,64y4VTgeoLX973gg2hotY9njGqo2,html-keyboard-response,61,594888,0.0-43.0-0.0-2.0-1.0,,,,,,,,,,,,,,,65bbae0c9be9bb4d76ae2c18,11:44:42,08/03/2024
,"<div style=""font-size: 10rem; color: #0000FF"">H</div>",,ospan,letter,64y4VTgeoLX973gg2hotY9njGqo2,html-keyboard-response,62,596666,0.0-43.0-0.0-2.0-2.0,,,,,,,,,,,,,,,65bbae0c9be9bb4d76ae2c18,11:44:42,08/03/2024
,"<div style=""font-size: 10rem; color: #0000FF"">S</div>",,ospan,letter,64y4VTgeoLX973gg2hotY9njGqo2,html-keyboard-response,63,598432,0.0-43.0-0.0-2.0-3.0,,,,,,,,,,,,,,,65bbae0c9be9bb4d76ae2c18,11:44:42,08/03/2024
4237.0,"<div class = numbox><p style=""font-size: 2.4rem"">Please recall the letters you saw to the best of your ability. If you do not remember a particular letter, use the SKIP button.<br><b>(When you are ready to lock in your answer, press ENTER)</b></p><button id = button_1 class = ""square num-button"" onclick = ""recordClick(this)""><div class = content><div class = numbers>C</div></div></button><button id = button_2 class = ""square num-button"" onclick = ""recordClick(this)""><div class = content><div class = numbers>G</div></div></button><button id = button_3 class = ""square num-button"" onclick = ""recordClick(this)""><div class = content><div class = numbers>H</div></div></button><button id = button_4 class = ""square num-button"" onclick = ""recordClick(this)""><div class = content><div class = numbers>J</div></div></button><button id = button_5 class = ""square num-button"" onclick = ""recordClick(this)""><div class = content><div class = numbers>K</div></div></button><button id = button_6 class = ""square num-button"" onclick = ""recordClick(this)""><div class = content><div class = numbers>L</div></div></button><button id = button_7 class = ""square num-button"" onclick = ""recordClick(this)""><div class = content><div class = numbers>N</div></div></button><button id = button_8 class = ""square num-button"" onclick = ""recordClick(this)""><div class = content><div class = numbers>P</div></div></button><button id = button_9 class = ""square num-button"" onclick = ""recordClick(this)""><div class = content><div class = numbers>Q</div></div></button><button id = button_10 class = ""square num-button"" onclick = ""recordClick(this)""><div class = content><div class = numbers>R</div></div></button><button id = button_11 class = ""square num-button"" onclick = ""recordClick(this)""><div class = content><div class = numbers>S</div></div></button><button id = button_12 class = ""square num-button"" onclick = ""recordClick(this)""><div class = content><div class = numbers>Y</div></div></button><button class = clear_button id = ""ClearButton"" onclick = ""clearResponse()"">BACKSPACE</button><button class = blank_button id = ""BlankButton"" onclick = ""blankResponse()"">SKIP</button><p style=""font-size: 2.4rem""><u><b>Current Answer:</b></u></p><br><br><div id=echoed_txt style=""font-size: 5rem; color:blue;""><b></b></div></div>",enter,ospan,retrieval,64y4VTgeoLX973gg2hotY9njGqo2,html-keyboard-response,64,603434,0.0-43.0-0.0-2.0-4.0,NA,NA,NA,3.0,"[""R"",""H"",""S""]","[""R"",""H"",""S""]",1.0,3.0,"['<font color=""green"">R</font>', '<font color=""green"">H</font>', '<font color=""green"">S</font>']",,,,,,65bbae0c9be9bb4d76ae2c18,11:44:42,08/03/2024
3600.0,"['<p style=""font-size:44px"">Letters:<br><br><br><font color=""green"">R</font> <font color=""green"">H</font> <font color=""green"">S</font></p><br><br>']",0,ospan,practice_feedback,64y4VTgeoLX973gg2hotY9njGqo2,html-button-response,65,607540,0.0-43.0-0.0-2.0-5.0,,,,,,,,,,,,,,,65bbae0c9be9bb4d76ae2c18,11:44:42,08/03/2024
60814.0,"<div class = 'left_align' style='font-size: 3.25rem; line-height: 1.3;'>Now you will practice doing the <b>symmetry judgment part</b> of the experiment.<br><br>A black and white grid picture will appear on the screen and you have to judge if it is <br>symmetrical or asymetrical.<br><br>A picture is 'mirror' symmetrical if its left half is identical to the right half when flipped.<br>Here are examples of a symmetrical and an asymetrical picture:<br><br><center><img src='Stimuli/img/symm_instructions_extra.png' style='height:420px; width:900'></img></center><br>To judge symmetry, imagine you were to fold each picture down the middle, like a book –<br>would the left half match the right half when folded onto each other?<br><br></div><br>",0,ospan,instruct,64y4VTgeoLX973gg2hotY9njGqo2,html-button-response,66,668357,0.0-43.0-1.0-0.0-0.0,,,,,,,,,,,,,,,65bbae0c9be9bb4d76ae2c18,11:44:42,08/03/2024
4288.0,"<div class = 'left_align' style='font-size: 3.25rem; line-height: 1.3;'>When you have viewed the picture and determined whether it is symmetrical or not,<br>you can <b>click the Yes or No button</b> below to answer.<br><br>If you take longer than 15 seconds, it will continue automatically<br>and record the answer as an error.</div><br>",0,ospan,instruct,64y4VTgeoLX973gg2hotY9njGqo2,html-button-response,67,672906,0.0-43.0-1.0-0.0-1.0,,,,,,,,,,,,,,,65bbae0c9be9bb4d76ae2c18,11:44:42,08/03/2024
2050.0,"<div class = 'left_align' style='font-size: 3.25rem; line-height: 1.3;'>It is <b>very</b> important that you make the symmetry judgment correctly.<br><br>It is also important that you try and judge the picture as quickly as you can.<br><br>When you are ready, click on the button below to try some practice problems.</div><br><br><br><br>",0,ospan,instruct,64y4VTgeoLX973gg2hotY9njGqo2,html-button-response,68,675215,0.0-43.0-1.0-0.0-2.0,,,,,,,,,,,,,,,65bbae0c9be9bb4d76ae2c18,11:44:42,08/03/2024
2373.0,,,ospan,symmetry,64y4VTgeoLX973gg2hotY9njGqo2,symmetry-judgement-task,69,678447,0.0-43.0-1.0-1.0-0.0,,,,,,,,,,1.0,1.0,,,,65bbae0c9be9bb4d76ae2c18,11:44:42,08/03/2024
,"<p style=""color:green; font-size: 35px"">Correct</p>",,ospan,feedback,64y4VTgeoLX973gg2hotY9njGqo2,html-keyboard-response,70,679210,0.0-43.0-1.0-1.0-1.0,,,,,,,,,,,,,,,65bbae0c9be9bb4d76ae2c18,11:44:42,08/03/2024
2252.0,,,ospan,symmetry,64y4VTgeoLX973gg2hotY9njGqo2,symmetry-judgement-task,71,684056,0.0-43.0-1.0-1.0-2.0,,,,,,,,,,1.0,1.0,,,,65bbae0c9be9bb4d76ae2c18,11:44:42,08/03/2024
,"<p style=""color:green; font-size: 35px"">Correct</p>",,ospan,feedback,64y4VTgeoLX973gg2hotY9njGqo2,html-keyboard-response,72,684819,0.0-43.0-1.0-1.0-3.0,,,,,,,,,,,,,,,65bbae0c9be9bb4d76ae2c18,11:44:42,08/03/2024
1975.0,,,ospan,symmetry,64y4VTgeoLX973gg2hotY9njGqo2,symmetry-judgement-task,73,689392,0.0-43.0-1.0-1.0-4.0,,,,,,,,,,1.0,1.0,,,,65bbae0c9be9bb4d76ae2c18,11:44:42,08/03/2024
,"<p style=""color:green; font-size: 35px"">Correct</p>",,ospan,feedback,64y4VTgeoLX973gg2hotY9njGqo2,html-keyboard-response,74,690154,0.0-43.0-1.0-1.0-5.0,,,,,,,,,,,,,,,65bbae0c9be9bb4d76ae2c18,11:44:42,08/03/2024
900.0,"<p style=""font-size: 3rem;"">You responded correctly on 3 of 3 symmetry judgments. Good job!</p><br><br>",0,ospan,practice,64y4VTgeoLX973gg2hotY9njGqo2,html-button-response,75,693056,0.0-43.0-1.0-2.0,,,,,,,,,,,,,,,65bbae0c9be9bb4d76ae2c18,11:44:42,08/03/2024
1972.0,"<div class = 'left_align' style='font-size: 3.25rem; line-height: 1.3;'>Now you will practice doing both parts of the experiment at the same time.<br><br>In the next practice set, you will be given one grid picture to judge.<br>Then letter will appear on the screen. Try to remember the letter.<br><br>It is <b>very important</b> to make the symmetry judgment as quickly and accurately as possible.<br><br>Just as before, once you have make the symmetry judgment, you can click Yes or No.<br><b>Note that you will no longer see Correct or Incorrect feedback.</div><br><br><br><br>",0,ospan,instruct,64y4VTgeoLX973gg2hotY9njGqo2,html-button-response,76,695291,0.0-43.0-2.0-0.0-0.0,,,,,,,,,,,,,,,65bbae0c9be9bb4d76ae2c18,11:44:42,08/03/2024
714.0,"<div class = 'left_align' style='font-size: 3.25rem; line-height: 1.3;'>After the letter goes away, another grid picture will appear, and then<br>another letter.<br><br>At the end of each set of letters and grids, you will recall the letters to the best<br>of your ability. Remember, try your best to get the letters in the correct order.<br><br>It is important to <b>quickly</b> and <b>accurately</b> make the symmetry judgments.</div><br><br><br><br>",0,ospan,instruct,64y4VTgeoLX973gg2hotY9njGqo2,html-button-response,77,696269,0.0-43.0-2.0-0.0-1.0,,,,,,,,,,,,,,,65bbae0c9be9bb4d76ae2c18,11:44:42,08/03/2024
655.0,"<div class = 'left_align' style='font-size: 3.25rem; line-height: 1.3;'>On the feedback screen, if you are not doing well at the symmetry judgments,<br>you will also see a warning in the middle. This indicates your percent <br>correct for the grid pictures for the entire experiment.<br><br>It is <b>very</b> important for you to keep accuracy at least at 85%: <u>We can only use<br>data where the participant was at least 85% accurate on the judgments.</u> Therefore,<br> please try your best to perform well on the symmetry judgments, <b>at the same time</b><br>doing your best to recall as many letters as possible.<br><br>Click the button to try some practice problems.</div><br><br><br><br>",0,ospan,instruct,64y4VTgeoLX973gg2hotY9njGqo2,html-button-response,78,697189,0.0-43.0-2.0-0.0-2.0,,,,,,,,,,,,,,,65bbae0c9be9bb4d76ae2c18,11:44:42,08/03/2024
,"<p style=""font-size:75px;"">...</p>",,ospan,iti,64y4VTgeoLX973gg2hotY9njGqo2,html-keyboard-response,79,698463,0.0-43.0-2.0-1.0-0.0,,,,,,,,,,,,,,,65bbae0c9be9bb4d76ae2c18,11:44:42,08/03/2024
1479.0,,,ospan,symmetry,64y4VTgeoLX973gg2hotY9njGqo2,symmetry-judgement-task,80,701022,0.0-43.0-2.0-1.0-1.0-0.0,,,,,,,,,,1.0,1.0,,,,65bbae0c9be9bb4d76ae2c18,11:44:42,08/03/2024
,"<div style=""font-size: 10rem; color: #0000FF"">S</div>",,ospan,letter,64y4VTgeoLX973gg2hotY9njGqo2,html-keyboard-response,81,702034,0.0-43.0-2.0-1.0-1.0-1.0,,,,,,,,,,,,,,,65bbae0c9be9bb4d76ae2c18,11:44:42,08/03/2024
2059.0,,,ospan,symmetry,64y4VTgeoLX973gg2hotY9njGqo2,symmetry-judgement-task,82,705948,0.0-43.0-2.0-1.0-1.0-2.0,,,,,,,,,,1.0,1.0,,,,65bbae0c9be9bb4d76ae2c18,11:44:42,08/03/2024
,"<div style=""font-size: 10rem; color: #0000FF"">R</div>",,ospan,letter,64y4VTgeoLX973gg2hotY9njGqo2,html-keyboard-response,83,706950,0.0-43.0-2.0-1.0-1.0-3.0,,,,,,,,,,,,,,,65bbae0c9be9bb4d76ae2c18,11:44:42,08/03/2024
1392.0,,,ospan,symmetry,64y4VTgeoLX973gg2hotY9njGqo2,symmetry-judgement-task,84,710187,0.0-43.0-2.0-1.0-1.0-4.0,,,,,,,,,,1.0,1.0,,,,65bbae0c9be9bb4d76ae2c18,11:44:42,08/03/2024
,"<div style=""font-size: 10rem; color: #0000FF"">P</div>",,ospan,letter,64y4VTgeoLX973gg2hotY9njGqo2,html-keyboard-response,85,711203,0.0-43.0-2.0-1.0-1.0-5.0,,,,,,,,,,,,,,,65bbae0c9be9bb4d76ae2c18,11:44:42,08/03/2024
3725.0,"<div class = numbox><p style=""font-size: 2.4rem"">Please recall the letters you saw to the best of your ability. If you do not remember a particular letter, use the SKIP button.<br><b>(When you are ready to lock in your answer, press ENTER)</b></p><button id = button_1 class = ""square num-button"" onclick = ""recordClick(this)""><div class = content><div class = numbers>C</div></div></button><button id = button_2 class = ""square num-button"" onclick = ""recordClick(this)""><div class = content><div class = numbers>G</div></div></button><button id = button_3 class = ""square num-button"" onclick = ""recordClick(this)""><div class = content><div class = numbers>H</div></div></button><button id = button_4 class = ""square num-button"" onclick = ""recordClick(this)""><div class = content><div class = numbers>J</div></div></button><button id = button_5 class = ""square num-button"" onclick = ""recordClick(this)""><div class = content><div class = numbers>K</div></div></button><button id = button_6 class = ""square num-button"" onclick = ""recordClick(this)""><div class = content><div class = numbers>L</div></div></button><button id = button_7 class = ""square num-button"" onclick = ""recordClick(this)""><div class = content><div class = numbers>N</div></div></button><button id = button_8 class = ""square num-button"" onclick = ""recordClick(this)""><div class = content><div class = numbers>P</div></div></button><button id = button_9 class = ""square num-button"" onclick = ""recordClick(this)""><div class = content><div class = numbers>Q</div></div></button><button id = button_10 class = ""square num-button"" onclick = ""recordClick(this)""><div class = content><div class = numbers>R</div></div></button><button id = button_11 class = ""square num-button"" onclick = ""recordClick(this)""><div class = content><div class = numbers>S</div></div></button><button id = button_12 class = ""square num-button"" onclick = ""recordClick(this)""><div class = content><div class = numbers>Y</div></div></button><button class = clear_button id = ""ClearButton"" onclick = ""clearResponse()"">BACKSPACE</button><button class = blank_button id = ""BlankButton"" onclick = ""blankResponse()"">SKIP</button><p style=""font-size: 2.4rem""><u><b>Current Answer:</b></u></p><br><br><div id=echoed_txt style=""font-size: 5rem; color:blue;""><b></b></div></div>",enter,ospan,retrieval,64y4VTgeoLX973gg2hotY9njGqo2,html-keyboard-response,86,715687,0.0-43.0-2.0-1.0-2.0-0.0,NA,NA,NA,3.0,"[""S"",""R"",""P""]","[""S"",""R"",""P""]",1.0,3.0,"['<font color=""green"">S</font>', '<font color=""green"">R</font>', '<font color=""green"">P</font>']",,,,,,65bbae0c9be9bb4d76ae2c18,11:44:42,08/03/2024
1189.0,"['<p style=""font-size:44px"">Letters:<br><br><br><font color=""green"">S</font> <font color=""green"">R</font> <font color=""green"">P</font></p><br><br><p style=""font-size:30px"">Symmetry:<br><br><font color=""green"">100%</font></p><br><br>']",0,ospan,practice_feedback,64y4VTgeoLX973gg2hotY9njGqo2,html-button-response,87,717392,0.0-43.0-2.0-1.0-2.0-1.0,,,,,,,,,,,,,,,65bbae0c9be9bb4d76ae2c18,11:44:42,08/03/2024
,"<p style=""font-size:75px;"">...</p>",,ospan,iti,64y4VTgeoLX973gg2hotY9njGqo2,html-keyboard-response,88,718403,0.0-43.0-2.0-2.0-0.0,,,,,,,,,,,,,,,65bbae0c9be9bb4d76ae2c18,11:44:42,08/03/2024
1148.0,,,ospan,symmetry,64y4VTgeoLX973gg2hotY9njGqo2,symmetry-judgement-task,89,720634,0.0-43.0-2.0-2.0-1.0-0.0,,,,,,,,,,1.0,1.0,,,,65bbae0c9be9bb4d76ae2c18,11:44:42,08/03/2024
,"<div style=""font-size: 10rem; color: #0000FF"">R</div>",,ospan,letter,64y4VTgeoLX973gg2hotY9njGqo2,html-keyboard-response,90,721644,0.0-43.0-2.0-2.0-1.0-1.0,,,,,,,,,,,,,,,65bbae0c9be9bb4d76ae2c18,11:44:42,08/03/2024
2156.0,,,ospan,symmetry,64y4VTgeoLX973gg2hotY9njGqo2,symmetry-judgement-task,91,725636,0.0-43.0-2.0-2.0-1.0-2.0,,,,,,,,,,1.0,1.0,,,,65bbae0c9be9bb4d76ae2c18,11:44:42,08/03/2024
,"<div style=""font-size: 10rem; color: #0000FF"">N</div>",,ospan,letter,64y4VTgeoLX973gg2hotY9njGqo2,html-keyboard-response,92,726640,0.0-43.0-2.0-2.0-1.0-3.0,,,,,,,,,,,,,,,65bbae0c9be9bb4d76ae2c18,11:44:42,08/03/2024
1384.0,,,ospan,symmetry,64y4VTgeoLX973gg2hotY9njGqo2,symmetry-judgement-task,93,729877,0.0-43.0-2.0-2.0-1.0-4.0,,,,,,,,,,1.0,1.0,,,,65bbae0c9be9bb4d76ae2c18,11:44:42,08/03/2024
,"<div style=""font-size: 10rem; color: #0000FF"">Y</div>",,ospan,letter,64y4VTgeoLX973gg2hotY9njGqo2,html-keyboard-response,94,730889,0.0-43.0-2.0-2.0-1.0-5.0,,,,,,,,,,,,,,,65bbae0c9be9bb4d76ae2c18,11:44:42,08/03/2024
3104.0,"<div class = numbox><p style=""font-size: 2.4rem"">Please recall the letters you saw to the best of your ability. If you do not remember a particular letter, use the SKIP button.<br><b>(When you are ready to lock in your answer, press ENTER)</b></p><button id = button_1 class = ""square num-button"" onclick = ""recordClick(this)""><div class = content><div class = numbers>C</div></div></button><button id = button_2 class = ""square num-button"" onclick = ""recordClick(this)""><div class = content><div class = numbers>G</div></div></button><button id = button_3 class = ""square num-button"" onclick = ""recordClick(this)""><div class = content><div class = numbers>H</div></div></button><button id = button_4 class = ""square num-button"" onclick = ""recordClick(this)""><div class = content><div class = numbers>J</div></div></button><button id = button_5 class = ""square num-button"" onclick = ""recordClick(this)""><div class = content><div class = numbers>K</div></div></button><button id = button_6 class = ""square num-button"" onclick = ""recordClick(this)""><div class = content><div class = numbers>L</div></div></button><button id = button_7 class = ""square num-button"" onclick = ""recordClick(this)""><div class = content><div class = numbers>N</div></div></button><button id = button_8 class = ""square num-button"" onclick = ""recordClick(this)""><div class = content><div class = numbers>P</div></div></button><button id = button_9 class = ""square num-button"" onclick = ""recordClick(this)""><div class = content><div class = numbers>Q</div></div></button><button id = button_10 class = ""square num-button"" onclick = ""recordClick(this)""><div class = content><div class = numbers>R</div></div></button><button id = button_11 class = ""square num-button"" onclick = ""recordClick(this)""><div class = content><div class = numbers>S</div></div></button><button id = button_12 class = ""square num-button"" onclick = ""recordClick(this)""><div class = content><div class = numbers>Y</div></div></button><button class = clear_button id = ""ClearButton"" onclick = ""clearResponse()"">BACKSPACE</button><button class = blank_button id = ""BlankButton"" onclick = ""blankResponse()"">SKIP</button><p style=""font-size: 2.4rem""><u><b>Current Answer:</b></u></p><br><br><div id=echoed_txt style=""font-size: 5rem; color:blue;""><b></b></div></div>",enter,ospan,retrieval,64y4VTgeoLX973gg2hotY9njGqo2,html-keyboard-response,95,734758,0.0-43.0-2.0-2.0-2.0-0.0,NA,NA,NA,3.0,"[""R"",""N"",""Y""]","[""R"",""N"",""Y""]",1.0,3.0,"['<font color=""green"">R</font>', '<font color=""green"">N</font>', '<font color=""green"">Y</font>']",,,,,,65bbae0c9be9bb4d76ae2c18,11:44:42,08/03/2024
765.0,"['<p style=""font-size:44px"">Letters:<br><br><br><font color=""green"">R</font> <font color=""green"">N</font> <font color=""green"">Y</font></p><br><br><p style=""font-size:30px"">Symmetry:<br><br><font color=""green"">100%</font></p><br><br>']",0,ospan,practice_feedback,64y4VTgeoLX973gg2hotY9njGqo2,html-button-response,96,736033,0.0-43.0-2.0-2.0-2.0-1.0,,,,,,,,,,,,,,,65bbae0c9be9bb4d76ae2c18,11:44:42,08/03/2024
7023.0,"<div class = 'left_align' style='font-size: 3rem; line-height: 1.3;'><b>Great work! That is the end of practice.</b><br><br>The real trials will look just like the practice trials you just completed.<br><br><u>Here, you will not see feedback</u>. First, you will see an grid picture to judge,<br>then a letter to remember. When the recall screen appears, report the letters in the<br>order presented. If you forget a letter, remember to use the <b>blank</b> button to move to the<br>next letter. Some of the sets will have more symmetry grids and letters than others.<br><br>It is important that you do your best on both the symmetry judgments and the letter recall<br>parts of the experiment. For for the symmetry judgments, try to work as <b>quickly</b> and <br>as <b>accurately</b> as possible. Remember to keep your symmetry accuracy at 85% or above.<br><br><b>For the letters, do NOT use any external aid (e.g., writing on paper, electronic device).</b><br><br>It is <u>very important</u> to our experiment to have a <b>true</b> view of your real performance.<br><br>Do not worry if you miss some when it gets hard! This task is meant to be very challenging!<br><br>Click the button to begin.</div><br><br><br><br>",0,ospan,starting_real_here,64y4VTgeoLX973gg2hotY9njGqo2,html-button-response,97,743057,0.0-43.0-2.0-3.0,,,,,,,,,,,,,,,65bbae0c9be9bb4d76ae2c18,11:44:42,08/03/2024
,"<p style=""font-size:75px;"">...</p>",,ospan,iti,64y4VTgeoLX973gg2hotY9njGqo2,html-keyboard-response,98,744333,0.0-43.0-3.0-0.0-0.0,,,,,,,,,,,,,,,65bbae0c9be9bb4d76ae2c18,11:44:42,08/03/2024
2149.0,,,ospan,symmetry,64y4VTgeoLX973gg2hotY9njGqo2,symmetry-judgement-task,99,747560,0.0-43.0-3.0-0.0-1.0-0.0,,,,,,,,,,1.0,1.0,,,,65bbae0c9be9bb4d76ae2c18,11:44:42,08/03/2024
,"<div style=""font-size: 10rem; color: #0000FF"">N</div>",,ospan,letter,64y4VTgeoLX973gg2hotY9njGqo2,html-keyboard-response,100,748575,0.0-43.0-3.0-0.0-1.0-1.0,,,,,,,,,,,,,,,65bbae0c9be9bb4d76ae2c18,11:44:42,08/03/2024
3282.0,,,ospan,symmetry,64y4VTgeoLX973gg2hotY9njGqo2,symmetry-judgement-task,101,753704,0.0-43.0-3.0-0.0-1.0-2.0,,,,,,,,,,1.0,1.0,,,,65bbae0c9be9bb4d76ae2c18,11:44:42,08/03/2024
,"<div style=""font-size: 10rem; color: #0000FF"">G</div>",,ospan,letter,64y4VTgeoLX973gg2hotY9njGqo2,html-keyboard-response,102,754714,0.0-43.0-3.0-0.0-1.0-3.0,,,,,,,,,,,,,,,65bbae0c9be9bb4d76ae2c18,11:44:42,08/03/2024
1692.0,,,ospan,symmetry,64y4VTgeoLX973gg2hotY9njGqo2,symmetry-judgement-task,103,758244,0.0-43.0-3.0-0.0-1.0-4.0,,,,,,,,,,1.0,1.0,,,,65bbae0c9be9bb4d76ae2c18,11:44:42,08/03/2024
,"<div style=""font-size: 10rem; color: #0000FF"">Q</div>",,ospan,letter,64y4VTgeoLX973gg2hotY9njGqo2,html-keyboard-response,104,759247,0.0-43.0-3.0-0.0-1.0-5.0,,,,,,,,,,,,,,,65bbae0c9be9bb4d76ae2c18,11:44:42,08/03/2024
3552.0,"<div class = numbox><p style=""font-size: 2.4rem"">Please recall the letters you saw to the best of your ability. If you do not remember a particular letter, use the SKIP button.<br><b>(When you are ready to lock in your answer, press ENTER)</b></p><button id = button_1 class = ""square num-button"" onclick = ""recordClick(this)""><div class = content><div class = numbers>C</div></div></button><button id = button_2 class = ""square num-button"" onclick = ""recordClick(this)""><div class = content><div class = numbers>G</div></div></button><button id = button_3 class = ""square num-button"" onclick = ""recordClick(this)""><div class = content><div class = numbers>H</div></div></button><button id = button_4 class = ""square num-button"" onclick = ""recordClick(this)""><div class = content><div class = numbers>J</div></div></button><button id = button_5 class = ""square num-button"" onclick = ""recordClick(this)""><div class = content><div class = numbers>K</div></div></button><button id = button_6 class = ""square num-button"" onclick = ""recordClick(this)""><div class = content><div class = numbers>L</div></div></button><button id = button_7 class = ""square num-button"" onclick = ""recordClick(this)""><div class = content><div class = numbers>N</div></div></button><button id = button_8 class = ""square num-button"" onclick = ""recordClick(this)""><div class = content><div class = numbers>P</div></div></button><button id = button_9 class = ""square num-button"" onclick = ""recordClick(this)""><div class = content><div class = numbers>Q</div></div></button><button id = button_10 class = ""square num-button"" onclick = ""recordClick(this)""><div class = content><div class = numbers>R</div></div></button><button id = button_11 class = ""square num-button"" onclick = ""recordClick(this)""><div class = content><div class = numbers>S</div></div></button><button id = button_12 class = ""square num-button"" onclick = ""recordClick(this)""><div class = content><div class = numbers>Y</div></div></button><button class = clear_button id = ""ClearButton"" onclick = ""clearResponse()"">BACKSPACE</button><button class = blank_button id = ""BlankButton"" onclick = ""blankResponse()"">SKIP</button><p style=""font-size: 2.4rem""><u><b>Current Answer:</b></u></p><br><br><div id=echoed_txt style=""font-size: 5rem; color:blue;""><b></b></div></div>",enter,ospan,retrieval,64y4VTgeoLX973gg2hotY9njGqo2,html-keyboard-response,105,763554,0.0-43.0-3.0-0.0-2.0,3,3,3,3.0,"[""N"",""G"",""Q""]","[""N"",""G"",""Q""]",1.0,3.0,,,,,,,65bbae0c9be9bb4d76ae2c18,11:44:42,08/03/2024
814.0,[''],0,ospan,feedback,64y4VTgeoLX973gg2hotY9njGqo2,html-button-response,106,764878,0.0-43.0-3.0-0.0-3.0,,,,,,,,,,,,100.0,0.0,,65bbae0c9be9bb4d76ae2c18,11:44:42,08/03/2024
,"<p style=""font-size:75px;"">...</p>",,ospan,iti,64y4VTgeoLX973gg2hotY9njGqo2,html-keyboard-response,107,765883,0.0-43.0-4.0-0.0-0.0,,,,,,,,,,,,,,,65bbae0c9be9bb4d76ae2c18,11:44:42,08/03/2024
2094.0,,,ospan,symmetry,64y4VTgeoLX973gg2hotY9njGqo2,symmetry-judgement-task,108,769069,0.0-43.0-4.0-0.0-1.0-0.0,,,,,,,,,,1.0,1.0,,,,65bbae0c9be9bb4d76ae2c18,11:44:42,08/03/2024
,"<div style=""font-size: 10rem; color: #0000FF"">S</div>",,ospan,letter,64y4VTgeoLX973gg2hotY9njGqo2,html-keyboard-response,109,770075,0.0-43.0-4.0-0.0-1.0-1.0,,,,,,,,,,,,,,,65bbae0c9be9bb4d76ae2c18,11:44:42,08/03/2024
1610.0,,,ospan,symmetry,64y4VTgeoLX973gg2hotY9njGqo2,symmetry-judgement-task,110,773535,0.0-43.0-4.0-0.0-1.0-2.0,,,,,,,,,,1.0,1.0,,,,65bbae0c9be9bb4d76ae2c18,11:44:42,08/03/2024
,"<div style=""font-size: 10rem; color: #0000FF"">P</div>",,ospan,letter,64y4VTgeoLX973gg2hotY9njGqo2,html-keyboard-response,111,774546,0.0-43.0-4.0-0.0-1.0-3.0,,,,,,,,,,,,,,,65bbae0c9be9bb4d76ae2c18,11:44:42,08/03/2024
1061.0,,,ospan,symmetry,64y4VTgeoLX973gg2hotY9njGqo2,symmetry-judgement-task,112,777449,0.0-43.0-4.0-0.0-1.0-4.0,,,,,,,,,,1.0,1.0,,,,65bbae0c9be9bb4d76ae2c18,11:44:42,08/03/2024
,"<div style=""font-size: 10rem; color: #0000FF"">L</div>",,ospan,letter,64y4VTgeoLX973gg2hotY9njGqo2,html-keyboard-response,113,778462,0.0-43.0-4.0-0.0-1.0-5.0,,,,,,,,,,,,,,,65bbae0c9be9bb4d76ae2c18,11:44:42,08/03/2024
1614.0,,,ospan,symmetry,64y4VTgeoLX973gg2hotY9njGqo2,symmetry-judgement-task,114,781915,0.0-43.0-4.0-0.0-1.0-6.0,,,,,,,,,,1.0,1.0,,,,65bbae0c9be9bb4d76ae2c18,11:44:42,08/03/2024
,"<div style=""font-size: 10rem; color: #0000FF"">C</div>",,ospan,letter,64y4VTgeoLX973gg2hotY9njGqo2,html-keyboard-response,115,782929,0.0-43.0-4.0-0.0-1.0-7.0,,,,,,,,,,,,,,,65bbae0c9be9bb4d76ae2c18,11:44:42,08/03/2024
4265.0,"<div class = numbox><p style=""font-size: 2.4rem"">Please recall the letters you saw to the best of your ability. If you do not remember a particular letter, use the SKIP button.<br><b>(When you are ready to lock in your answer, press ENTER)</b></p><button id = button_1 class = ""square num-button"" onclick = ""recordClick(this)""><div class = content><div class = numbers>C</div></div></button><button id = button_2 class = ""square num-button"" onclick = ""recordClick(this)""><div class = content><div class = numbers>G</div></div></button><button id = button_3 class = ""square num-button"" onclick = ""recordClick(this)""><div class = content><div class = numbers>H</div></div></button><button id = button_4 class = ""square num-button"" onclick = ""recordClick(this)""><div class = content><div class = numbers>J</div></div></button><button id = button_5 class = ""square num-button"" onclick = ""recordClick(this)""><div class = content><div class = numbers>K</div></div></button><button id = button_6 class = ""square num-button"" onclick = ""recordClick(this)""><div class = content><div class = numbers>L</div></div></button><button id = button_7 class = ""square num-button"" onclick = ""recordClick(this)""><div class = content><div class = numbers>N</div></div></button><button id = button_8 class = ""square num-button"" onclick = ""recordClick(this)""><div class = content><div class = numbers>P</div></div></button><button id = button_9 class = ""square num-button"" onclick = ""recordClick(this)""><div class = content><div class = numbers>Q</div></div></button><button id = button_10 class = ""square num-button"" onclick = ""recordClick(this)""><div class = content><div class = numbers>R</div></div></button><button id = button_11 class = ""square num-button"" onclick = ""recordClick(this)""><div class = content><div class = numbers>S</div></div></button><button id = button_12 class = ""square num-button"" onclick = ""recordClick(this)""><div class = content><div class = numbers>Y</div></div></button><button class = clear_button id = ""ClearButton"" onclick = ""clearResponse()"">BACKSPACE</button><button class = blank_button id = ""BlankButton"" onclick = ""blankResponse()"">SKIP</button><p style=""font-size: 2.4rem""><u><b>Current Answer:</b></u></p><br><br><div id=echoed_txt style=""font-size: 5rem; color:blue;""><b></b></div></div>",enter,ospan,retrieval,64y4VTgeoLX973gg2hotY9njGqo2,html-keyboard-response,116,787951,0.0-43.0-4.0-0.0-2.0,7,7,7,4.0,"[""S"",""P"",""L"",""C""]","[""S"",""P"",""L"",""C""]",1.0,4.0,,,,,,,65bbae0c9be9bb4d76ae2c18,11:44:42,08/03/2024
991.0,[''],0,ospan,feedback,64y4VTgeoLX973gg2hotY9njGqo2,html-button-response,117,789447,0.0-43.0-4.0-0.0-3.0,,,,,,,,,,,,100.0,0.0,,65bbae0c9be9bb4d76ae2c18,11:44:42,08/03/2024
,"<p style=""font-size:75px;"">...</p>",,ospan,iti,64y4VTgeoLX973gg2hotY9njGqo2,html-keyboard-response,118,790489,0.0-43.0-4.0-1.0-0.0,,,,,,,,,,,,,,,65bbae0c9be9bb4d76ae2c18,11:44:42,08/03/2024
2083.0,,,ospan,symmetry,64y4VTgeoLX973gg2hotY9njGqo2,symmetry-judgement-task,119,793657,0.0-43.0-4.0-1.0-1.0-0.0,,,,,,,,,,1.0,1.0,,,,65bbae0c9be9bb4d76ae2c18,11:44:42,08/03/2024
,"<div style=""font-size: 10rem; color: #0000FF"">L</div>",,ospan,letter,64y4VTgeoLX973gg2hotY9njGqo2,html-keyboard-response,120,794666,0.0-43.0-4.0-1.0-1.0-1.0,,,,,,,,,,,,,,,65bbae0c9be9bb4d76ae2c18,11:44:42,08/03/2024
1038.0,,,ospan,symmetry,64y4VTgeoLX973gg2hotY9njGqo2,symmetry-judgement-task,121,797557,0.0-43.0-4.0-1.0-1.0-2.0,,,,,,,,,,1.0,1.0,,,,65bbae0c9be9bb4d76ae2c18,11:44:42,08/03/2024
,"<div style=""font-size: 10rem; color: #0000FF"">G</div>",,ospan,letter,64y4VTgeoLX973gg2hotY9njGqo2,html-keyboard-response,122,798572,0.0-43.0-4.0-1.0-1.0-3.0,,,,,,,,,,,,,,,65bbae0c9be9bb4d76ae2c18,11:44:42,08/03/2024
1099.0,,,ospan,symmetry,64y4VTgeoLX973gg2hotY9njGqo2,symmetry-judgement-task,123,801528,0.0-43.0-4.0-1.0-1.0-4.0,,,,,,,,,,1.0,1.0,,,,65bbae0c9be9bb4d76ae2c18,11:44:42,08/03/2024
,"<div style=""font-size: 10rem; color: #0000FF"">Q</div>",,ospan,letter,64y4VTgeoLX973gg2hotY9njGqo2,html-keyboard-response,124,802540,0.0-43.0-4.0-1.0-1.0-5.0,,,,,,,,,,,,,,,65bbae0c9be9bb4d76ae2c18,11:44:42,08/03/2024
2031.0,,,ospan,symmetry,64y4VTgeoLX973gg2hotY9njGqo2,symmetry-judgement-task,125,806416,0.0-43.0-4.0-1.0-1.0-6.0,,,,,,,,,,1.0,1.0,,,,65bbae0c9be9bb4d76ae2c18,11:44:42,08/03/2024
,"<div style=""font-size: 10rem; color: #0000FF"">K</div>",,ospan,letter,64y4VTgeoLX973gg2hotY9njGqo2,html-keyboard-response,126,807429,0.0-43.0-4.0-1.0-1.0-7.0,,,,,,,,,,,,,,,65bbae0c9be9bb4d76ae2c18,11:44:42,08/03/2024
3397.0,,,ospan,symmetry,64y4VTgeoLX973gg2hotY9njGqo2,symmetry-judgement-task,127,812660,0.0-43.0-4.0-1.0-1.0-8.0,,,,,,,,,,1.0,1.0,,,,65bbae0c9be9bb4d76ae2c18,11:44:42,08/03/2024
,"<div style=""font-size: 10rem; color: #0000FF"">Y</div>",,ospan,letter,64y4VTgeoLX973gg2hotY9njGqo2,html-keyboard-response,128,813667,0.0-43.0-4.0-1.0-1.0-9.0,,,,,,,,,,,,,,,65bbae0c9be9bb4d76ae2c18,11:44:42,08/03/2024
5730.0,"<div class = numbox><p style=""font-size: 2.4rem"">Please recall the letters you saw to the best of your ability. If you do not remember a particular letter, use the SKIP button.<br><b>(When you are ready to lock in your answer, press ENTER)</b></p><button id = button_1 class = ""square num-button"" onclick = ""recordClick(this)""><div class = content><div class = numbers>C</div></div></button><button id = button_2 class = ""square num-button"" onclick = ""recordClick(this)""><div class = content><div class = numbers>G</div></div></button><button id = button_3 class = ""square num-button"" onclick = ""recordClick(this)""><div class = content><div class = numbers>H</div></div></button><button id = button_4 class = ""square num-button"" onclick = ""recordClick(this)""><div class = content><div class = numbers>J</div></div></button><button id = button_5 class = ""square num-button"" onclick = ""recordClick(this)""><div class = content><div class = numbers>K</div></div></button><button id = button_6 class = ""square num-button"" onclick = ""recordClick(this)""><div class = content><div class = numbers>L</div></div></button><button id = button_7 class = ""square num-button"" onclick = ""recordClick(this)""><div class = content><div class = numbers>N</div></div></button><button id = button_8 class = ""square num-button"" onclick = ""recordClick(this)""><div class = content><div class = numbers>P</div></div></button><button id = button_9 class = ""square num-button"" onclick = ""recordClick(this)""><div class = content><div class = numbers>Q</div></div></button><button id = button_10 class = ""square num-button"" onclick = ""recordClick(this)""><div class = content><div class = numbers>R</div></div></button><button id = button_11 class = ""square num-button"" onclick = ""recordClick(this)""><div class = content><div class = numbers>S</div></div></button><button id = button_12 class = ""square num-button"" onclick = ""recordClick(this)""><div class = content><div class = numbers>Y</div></div></button><button class = clear_button id = ""ClearButton"" onclick = ""clearResponse()"">BACKSPACE</button><button class = blank_button id = ""BlankButton"" onclick = ""blankResponse()"">SKIP</button><p style=""font-size: 2.4rem""><u><b>Current Answer:</b></u></p><br><br><div id=echoed_txt style=""font-size: 5rem; color:blue;""><b></b></div></div>",enter,ospan,retrieval,64y4VTgeoLX973gg2hotY9njGqo2,html-keyboard-response,129,820151,0.0-43.0-4.0-1.0-2.0,12,12,12,5.0,"[""L"",""G"",""Q"",""K"",""Y""]","[""L"",""G"",""Q"",""K"",""Y""]",1.0,5.0,,,,,,,65bbae0c9be9bb4d76ae2c18,11:44:42,08/03/2024
924.0,[''],0,ospan,feedback,64y4VTgeoLX973gg2hotY9njGqo2,html-button-response,130,821590,0.0-43.0-4.0-1.0-3.0,,,,,,,,,,,,100.0,0.0,,65bbae0c9be9bb4d76ae2c18,11:44:42,08/03/2024
,"<p style=""font-size:75px;"">...</p>",,ospan,iti,64y4VTgeoLX973gg2hotY9njGqo2,html-keyboard-response,131,822604,0.0-43.0-4.0-2.0-0.0,,,,,,,,,,,,,,,65bbae0c9be9bb4d76ae2c18,11:44:42,08/03/2024
1364.0,,,ospan,symmetry,64y4VTgeoLX973gg2hotY9njGqo2,symmetry-judgement-task,132,825056,0.0-43.0-4.0-2.0-1.0-0.0,,,,,,,,,,1.0,1.0,,,,65bbae0c9be9bb4d76ae2c18,11:44:42,08/03/2024
,"<div style=""font-size: 10rem; color: #0000FF"">S</div>",,ospan,letter,64y4VTgeoLX973gg2hotY9njGqo2,html-keyboard-response,133,826063,0.0-43.0-4.0-2.0-1.0-1.0,,,,,,,,,,,,,,,65bbae0c9be9bb4d76ae2c18,11:44:42,08/03/2024
2943.0,,,ospan,symmetry,64y4VTgeoLX973gg2hotY9njGqo2,symmetry-judgement-task,134,830869,0.0-43.0-4.0-2.0-1.0-2.0,,,,,,,,,,1.0,1.0,,,,65bbae0c9be9bb4d76ae2c18,11:44:42,08/03/2024
,"<div style=""font-size: 10rem; color: #0000FF"">J</div>",,ospan,letter,64y4VTgeoLX973gg2hotY9njGqo2,html-keyboard-response,135,831883,0.0-43.0-4.0-2.0-1.0-3.0,,,,,,,,,,,,,,,65bbae0c9be9bb4d76ae2c18,11:44:42,08/03/2024
3627.0,,,ospan,symmetry,64y4VTgeoLX973gg2hotY9njGqo2,symmetry-judgement-task,136,837353,0.0-43.0-4.0-2.0-1.0-4.0,,,,,,,,,,1.0,1.0,,,,65bbae0c9be9bb4d76ae2c18,11:44:42,08/03/2024
,"<div style=""font-size: 10rem; color: #0000FF"">C</div>",,ospan,letter,64y4VTgeoLX973gg2hotY9njGqo2,html-keyboard-response,137,838422,0.0-43.0-4.0-2.0-1.0-5.0,,,,,,,,,,,,,,,65bbae0c9be9bb4d76ae2c18,11:44:42,08/03/2024
4580.0,"<div class = numbox><p style=""font-size: 2.4rem"">Please recall the letters you saw to the best of your ability. If you do not remember a particular letter, use the SKIP button.<br><b>(When you are ready to lock in your answer, press ENTER)</b></p><button id = button_1 class = ""square num-button"" onclick = ""recordClick(this)""><div class = content><div class = numbers>C</div></div></button><button id = button_2 class = ""square num-button"" onclick = ""recordClick(this)""><div class = content><div class = numbers>G</div></div></button><button id = button_3 class = ""square num-button"" onclick = ""recordClick(this)""><div class = content><div class = numbers>H</div></div></button><button id = button_4 class = ""square num-button"" onclick = ""recordClick(this)""><div class = content><div class = numbers>J</div></div></button><button id = button_5 class = ""square num-button"" onclick = ""recordClick(this)""><div class = content><div class = numbers>K</div></div></button><button id = button_6 class = ""square num-button"" onclick = ""recordClick(this)""><div class = content><div class = numbers>L</div></div></button><button id = button_7 class = ""square num-button"" onclick = ""recordClick(this)""><div class = content><div class = numbers>N</div></div></button><button id = button_8 class = ""square num-button"" onclick = ""recordClick(this)""><div class = content><div class = numbers>P</div></div></button><button id = button_9 class = ""square num-button"" onclick = ""recordClick(this)""><div class = content><div class = numbers>Q</div></div></button><button id = button_10 class = ""square num-button"" onclick = ""recordClick(this)""><div class = content><div class = numbers>R</div></div></button><button id = button_11 class = ""square num-button"" onclick = ""recordClick(this)""><div class = content><div class = numbers>S</div></div></button><button id = button_12 class = ""square num-button"" onclick = ""recordClick(this)""><div class = content><div class = numbers>Y</div></div></button><button class = clear_button id = ""ClearButton"" onclick = ""clearResponse()"">BACKSPACE</button><button class = blank_button id = ""BlankButton"" onclick = ""blankResponse()"">SKIP</button><p style=""font-size: 2.4rem""><u><b>Current Answer:</b></u></p><br><br><div id=echoed_txt style=""font-size: 5rem; color:blue;""><b></b></div></div>",enter,ospan,retrieval,64y4VTgeoLX973gg2hotY9njGqo2,html-keyboard-response,138,843763,0.0-43.0-4.0-2.0-2.0,15,15,15,3.0,"[""S"",""J"",""C""]","[""S"",""J"",""C""]",1.0,3.0,,,,,,,65bbae0c9be9bb4d76ae2c18,11:44:42,08/03/2024
766.0,[''],0,ospan,feedback,64y4VTgeoLX973gg2hotY9njGqo2,html-button-response,139,845037,0.0-43.0-4.0-2.0-3.0,,,,,,,,,,,,100.0,0.0,,65bbae0c9be9bb4d76ae2c18,11:44:42,08/03/2024
,"<p style=""font-size:75px;"">...</p>",,ospan,iti,64y4VTgeoLX973gg2hotY9njGqo2,html-keyboard-response,140,846043,0.0-43.0-5.0-0.0-0.0,,,,,,,,,,,,,,,65bbae0c9be9bb4d76ae2c18,11:44:42,08/03/2024
2044.0,,,ospan,symmetry,64y4VTgeoLX973gg2hotY9njGqo2,symmetry-judgement-task,141,849172,0.0-43.0-5.0-0.0-1.0-0.0,,,,,,,,,,1.0,1.0,,,,65bbae0c9be9bb4d76ae2c18,11:44:42,08/03/2024
,"<div style=""font-size: 10rem; color: #0000FF"">L</div>",,ospan,letter,64y4VTgeoLX973gg2hotY9njGqo2,html-keyboard-response,142,850183,0.0-43.0-5.0-0.0-1.0-1.0,,,,,,,,,,,,,,,65bbae0c9be9bb4d76ae2c18,11:44:42,08/03/2024
1742.0,,,ospan,symmetry,64y4VTgeoLX973gg2hotY9njGqo2,symmetry-judgement-task,143,853771,0.0-43.0-5.0-0.0-1.0-2.0,,,,,,,,,,1.0,1.0,,,,65bbae0c9be9bb4d76ae2c18,11:44:42,08/03/2024
,"<div style=""font-size: 10rem; color: #0000FF"">S</div>",,ospan,letter,64y4VTgeoLX973gg2hotY9njGqo2,html-keyboard-response,144,854779,0.0-43.0-5.0-0.0-1.0-3.0,,,,,,,,,,,,,,,65bbae0c9be9bb4d76ae2c18,11:44:42,08/03/2024
1011.0,,,ospan,symmetry,64y4VTgeoLX973gg2hotY9njGqo2,symmetry-judgement-task,145,857643,0.0-43.0-5.0-0.0-1.0-4.0,,,,,,,,,,1.0,1.0,,,,65bbae0c9be9bb4d76ae2c18,11:44:42,08/03/2024
,"<div style=""font-size: 10rem; color: #0000FF"">Y</div>",,ospan,letter,64y4VTgeoLX973gg2hotY9njGqo2,html-keyboard-response,146,858653,0.0-43.0-5.0-0.0-1.0-5.0,,,,,,,,,,,,,,,65bbae0c9be9bb4d76ae2c18,11:44:42,08/03/2024
2159.0,,,ospan,symmetry,64y4VTgeoLX973gg2hotY9njGqo2,symmetry-judgement-task,147,862652,0.0-43.0-5.0-0.0-1.0-6.0,,,,,,,,,,0.0,0.0,,,,65bbae0c9be9bb4d76ae2c18,11:44:42,08/03/2024
,"<div style=""font-size: 10rem; color: #0000FF"">P</div>",,ospan,letter,64y4VTgeoLX973gg2hotY9njGqo2,html-keyboard-response,148,863661,0.0-43.0-5.0-0.0-1.0-7.0,,,,,,,,,,,,,,,65bbae0c9be9bb4d76ae2c18,11:44:42,08/03/2024
2924.0,,,ospan,symmetry,64y4VTgeoLX973gg2hotY9njGqo2,symmetry-judgement-task,149,868433,0.0-43.0-5.0-0.0-1.0-8.0,,,,,,,,,,1.0,1.0,,,,65bbae0c9be9bb4d76ae2c18,11:44:42,08/03/2024
,"<div style=""font-size: 10rem; color: #0000FF"">G</div>",,ospan,letter,64y4VTgeoLX973gg2hotY9njGqo2,html-keyboard-response,150,869448,0.0-43.0-5.0-0.0-1.0-9.0,,,,,,,,,,,,,,,65bbae0c9be9bb4d76ae2c18,11:44:42,08/03/2024
2878.0,,,ospan,symmetry,64y4VTgeoLX973gg2hotY9njGqo2,symmetry-judgement-task,151,874185,0.0-43.0-5.0-0.0-1.0-10.0,,,,,,,,,,1.0,1.0,,,,65bbae0c9be9bb4d76ae2c18,11:44:42,08/03/2024
,"<div style=""font-size: 10rem; color: #0000FF"">H</div>",,ospan,letter,64y4VTgeoLX973gg2hotY9njGqo2,html-keyboard-response,152,875192,0.0-43.0-5.0-0.0-1.0-11.0,,,,,,,,,,,,,,,65bbae0c9be9bb4d76ae2c18,11:44:42,08/03/2024
8816.0,"<div class = numbox><p style=""font-size: 2.4rem"">Please recall the letters you saw to the best of your ability. If you do not remember a particular letter, use the SKIP button.<br><b>(When you are ready to lock in your answer, press ENTER)</b></p><button id = button_1 class = ""square num-button"" onclick = ""recordClick(this)""><div class = content><div class = numbers>C</div></div></button><button id = button_2 class = ""square num-button"" onclick = ""recordClick(this)""><div class = content><div class = numbers>G</div></div></button><button id = button_3 class = ""square num-button"" onclick = ""recordClick(this)""><div class = content><div class = numbers>H</div></div></button><button id = button_4 class = ""square num-button"" onclick = ""recordClick(this)""><div class = content><div class = numbers>J</div></div></button><button id = button_5 class = ""square num-button"" onclick = ""recordClick(this)""><div class = content><div class = numbers>K</div></div></button><button id = button_6 class = ""square num-button"" onclick = ""recordClick(this)""><div class = content><div class = numbers>L</div></div></button><button id = button_7 class = ""square num-button"" onclick = ""recordClick(this)""><div class = content><div class = numbers>N</div></div></button><button id = button_8 class = ""square num-button"" onclick = ""recordClick(this)""><div class = content><div class = numbers>P</div></div></button><button id = button_9 class = ""square num-button"" onclick = ""recordClick(this)""><div class = content><div class = numbers>Q</div></div></button><button id = button_10 class = ""square num-button"" onclick = ""recordClick(this)""><div class = content><div class = numbers>R</div></div></button><button id = button_11 class = ""square num-button"" onclick = ""recordClick(this)""><div class = content><div class = numbers>S</div></div></button><button id = button_12 class = ""square num-button"" onclick = ""recordClick(this)""><div class = content><div class = numbers>Y</div></div></button><button class = clear_button id = ""ClearButton"" onclick = ""clearResponse()"">BACKSPACE</button><button class = blank_button id = ""BlankButton"" onclick = ""blankResponse()"">SKIP</button><p style=""font-size: 2.4rem""><u><b>Current Answer:</b></u></p><br><br><div id=echoed_txt style=""font-size: 5rem; color:blue;""><b></b></div></div>",enter,ospan,retrieval,64y4VTgeoLX973gg2hotY9njGqo2,html-keyboard-response,153,884769,0.0-43.0-5.0-0.0-2.0,21,21,21,6.0,"[""L"",""S"",""Y"",""P"",""G"",""H""]","[""L"",""S"",""Y"",""P"",""G"",""H""]",1.0,6.0,,,,,,,65bbae0c9be9bb4d76ae2c18,11:44:42,08/03/2024
21069.0,[''],0,ospan,feedback,64y4VTgeoLX973gg2hotY9njGqo2,html-button-response,154,906354,0.0-43.0-5.0-0.0-3.0,,,,,,,,,,,,95.0,0.0,,65bbae0c9be9bb4d76ae2c18,11:44:42,08/03/2024
,"<p style=""font-size:75px;"">...</p>",,ospan,iti,64y4VTgeoLX973gg2hotY9njGqo2,html-keyboard-response,155,907371,0.0-43.0-5.0-1.0-0.0,,,,,,,,,,,,,,,65bbae0c9be9bb4d76ae2c18,11:44:42,08/03/2024
1301.0,,,ospan,symmetry,64y4VTgeoLX973gg2hotY9njGqo2,symmetry-judgement-task,156,909763,0.0-43.0-5.0-1.0-1.0-0.0,,,,,,,,,,1.0,1.0,,,,65bbae0c9be9bb4d76ae2c18,11:44:42,08/03/2024
,"<div style=""font-size: 10rem; color: #0000FF"">K</div>",,ospan,letter,64y4VTgeoLX973gg2hotY9njGqo2,html-keyboard-response,157,910773,0.0-43.0-5.0-1.0-1.0-1.0,,,,,,,,,,,,,,,65bbae0c9be9bb4d76ae2c18,11:44:42,08/03/2024
1470.0,,,ospan,symmetry,64y4VTgeoLX973gg2hotY9njGqo2,symmetry-judgement-task,158,914095,0.0-43.0-5.0-1.0-1.0-2.0,,,,,,,,,,1.0,1.0,,,,65bbae0c9be9bb4d76ae2c18,11:44:42,08/03/2024
,"<div style=""font-size: 10rem; color: #0000FF"">P</div>",,ospan,letter,64y4VTgeoLX973gg2hotY9njGqo2,html-keyboard-response,159,915104,0.0-43.0-5.0-1.0-1.0-3.0,,,,,,,,,,,,,,,65bbae0c9be9bb4d76ae2c18,11:44:42,08/03/2024
1234.0,,,ospan,symmetry,64y4VTgeoLX973gg2hotY9njGqo2,symmetry-judgement-task,160,918185,0.0-43.0-5.0-1.0-1.0-4.0,,,,,,,,,,1.0,1.0,,,,65bbae0c9be9bb4d76ae2c18,11:44:42,08/03/2024
,"<div style=""font-size: 10rem; color: #0000FF"">R</div>",,ospan,letter,64y4VTgeoLX973gg2hotY9njGqo2,html-keyboard-response,161,919197,0.0-43.0-5.0-1.0-1.0-5.0,,,,,,,,,,,,,,,65bbae0c9be9bb4d76ae2c18,11:44:42,08/03/2024
990.0,,,ospan,symmetry,64y4VTgeoLX973gg2hotY9njGqo2,symmetry-judgement-task,162,922077,0.0-43.0-5.0-1.0-1.0-6.0,,,,,,,,,,1.0,1.0,,,,65bbae0c9be9bb4d76ae2c18,11:44:42,08/03/2024
,"<div style=""font-size: 10rem; color: #0000FF"">C</div>",,ospan,letter,64y4VTgeoLX973gg2hotY9njGqo2,html-keyboard-response,163,923090,0.0-43.0-5.0-1.0-1.0-7.0,,,,,,,,,,,,,,,65bbae0c9be9bb4d76ae2c18,11:44:42,08/03/2024
1123.0,,,ospan,symmetry,64y4VTgeoLX973gg2hotY9njGqo2,symmetry-judgement-task,164,926057,0.0-43.0-5.0-1.0-1.0-8.0,,,,,,,,,,1.0,1.0,,,,65bbae0c9be9bb4d76ae2c18,11:44:42,08/03/2024
,"<div style=""font-size: 10rem; color: #0000FF"">L</div>",,ospan,letter,64y4VTgeoLX973gg2hotY9njGqo2,html-keyboard-response,165,927063,0.0-43.0-5.0-1.0-1.0-9.0,,,,,,,,,,,,,,,65bbae0c9be9bb4d76ae2c18,11:44:42,08/03/2024
1836.0,,,ospan,symmetry,64y4VTgeoLX973gg2hotY9njGqo2,symmetry-judgement-task,166,930748,0.0-43.0-5.0-1.0-1.0-10.0,,,,,,,,,,1.0,1.0,,,,65bbae0c9be9bb4d76ae2c18,11:44:42,08/03/2024
,"<div style=""font-size: 10rem; color: #0000FF"">H</div>",,ospan,letter,64y4VTgeoLX973gg2hotY9njGqo2,html-keyboard-response,167,931760,0.0-43.0-5.0-1.0-1.0-11.0,,,,,,,,,,,,,,,65bbae0c9be9bb4d76ae2c18,11:44:42,08/03/2024
1058.0,,,ospan,symmetry,64y4VTgeoLX973gg2hotY9njGqo2,symmetry-judgement-task,168,934665,0.0-43.0-5.0-1.0-1.0-12.0,,,,,,,,,,1.0,1.0,,,,65bbae0c9be9bb4d76ae2c18,11:44:42,08/03/2024
,"<div style=""font-size: 10rem; color: #0000FF"">N</div>",,ospan,letter,64y4VTgeoLX973gg2hotY9njGqo2,html-keyboard-response,169,935679,0.0-43.0-5.0-1.0-1.0-13.0,,,,,,,,,,,,,,,65bbae0c9be9bb4d76ae2c18,11:44:42,08/03/2024
10484.0,"<div class = numbox><p style=""font-size: 2.4rem"">Please recall the letters you saw to the best of your ability. If you do not remember a particular letter, use the SKIP button.<br><b>(When you are ready to lock in your answer, press ENTER)</b></p><button id = button_1 class = ""square num-button"" onclick = ""recordClick(this)""><div class = content><div class = numbers>C</div></div></button><button id = button_2 class = ""square num-button"" onclick = ""recordClick(this)""><div class = content><div class = numbers>G</div></div></button><button id = button_3 class = ""square num-button"" onclick = ""recordClick(this)""><div class = content><div class = numbers>H</div></div></button><button id = button_4 class = ""square num-button"" onclick = ""recordClick(this)""><div class = content><div class = numbers>J</div></div></button><button id = button_5 class = ""square num-button"" onclick = ""recordClick(this)""><div class = content><div class = numbers>K</div></div></button><button id = button_6 class = ""square num-button"" onclick = ""recordClick(this)""><div class = content><div class = numbers>L</div></div></button><button id = button_7 class = ""square num-button"" onclick = ""recordClick(this)""><div class = content><div class = numbers>N</div></div></button><button id = button_8 class = ""square num-button"" onclick = ""recordClick(this)""><div class = content><div class = numbers>P</div></div></button><button id = button_9 class = ""square num-button"" onclick = ""recordClick(this)""><div class = content><div class = numbers>Q</div></div></button><button id = button_10 class = ""square num-button"" onclick = ""recordClick(this)""><div class = content><div class = numbers>R</div></div></button><button id = button_11 class = ""square num-button"" onclick = ""recordClick(this)""><div class = content><div class = numbers>S</div></div></button><button id = button_12 class = ""square num-button"" onclick = ""recordClick(this)""><div class = content><div class = numbers>Y</div></div></button><button class = clear_button id = ""ClearButton"" onclick = ""clearResponse()"">BACKSPACE</button><button class = blank_button id = ""BlankButton"" onclick = ""blankResponse()"">SKIP</button><p style=""font-size: 2.4rem""><u><b>Current Answer:</b></u></p><br><br><div id=echoed_txt style=""font-size: 5rem; color:blue;""><b></b></div></div>",enter,ospan,retrieval,64y4VTgeoLX973gg2hotY9njGqo2,html-keyboard-response,170,946926,0.0-43.0-5.0-1.0-2.0,28,26,21,7.0,"[""K"",""P"",""R"",""C"",""H"",""L"",""N""]","[""K"",""P"",""R"",""C"",""L"",""H"",""N""]",0.0,5.0,,,,,,,65bbae0c9be9bb4d76ae2c18,11:44:42,08/03/2024
573606.0,[''],0,ospan,feedback,64y4VTgeoLX973gg2hotY9njGqo2,html-button-response,171,1521045,0.0-43.0-5.0-1.0-3.0,,,,,,,,,,,,96.0,0.0,,65bbae0c9be9bb4d76ae2c18,11:44:42,08/03/2024
,"<p style=""font-size:75px;"">...</p>",,ospan,iti,64y4VTgeoLX973gg2hotY9njGqo2,html-keyboard-response,172,1522068,0.0-43.0-6.0-0.0-0.0,,,,,,,,,,,,,,,65bbae0c9be9bb4d76ae2c18,11:44:42,08/03/2024
2451.0,,,ospan,symmetry,64y4VTgeoLX973gg2hotY9njGqo2,symmetry-judgement-task,173,1525621,0.0-43.0-6.0-0.0-1.0-0.0,,,,,,,,,,1.0,1.0,,,,65bbae0c9be9bb4d76ae2c18,11:44:42,08/03/2024
,"<div style=""font-size: 10rem; color: #0000FF"">G</div>",,ospan,letter,64y4VTgeoLX973gg2hotY9njGqo2,html-keyboard-response,174,1526629,0.0-43.0-6.0-0.0-1.0-1.0,,,,,,,,,,,,,,,65bbae0c9be9bb4d76ae2c18,11:44:42,08/03/2024
2042.0,,,ospan,symmetry,64y4VTgeoLX973gg2hotY9njGqo2,symmetry-judgement-task,175,1530512,0.0-43.0-6.0-0.0-1.0-2.0,,,,,,,,,,1.0,1.0,,,,65bbae0c9be9bb4d76ae2c18,11:44:42,08/03/2024
,"<div style=""font-size: 10rem; color: #0000FF"">Q</div>",,ospan,letter,64y4VTgeoLX973gg2hotY9njGqo2,html-keyboard-response,176,1531516,0.0-43.0-6.0-0.0-1.0-3.0,,,,,,,,,,,,,,,65bbae0c9be9bb4d76ae2c18,11:44:42,08/03/2024
2505.0,,,ospan,symmetry,64y4VTgeoLX973gg2hotY9njGqo2,symmetry-judgement-task,177,1535871,0.0-43.0-6.0-0.0-1.0-4.0,,,,,,,,,,1.0,1.0,,,,65bbae0c9be9bb4d76ae2c18,11:44:42,08/03/2024
,"<div style=""font-size: 10rem; color: #0000FF"">L</div>",,ospan,letter,64y4VTgeoLX973gg2hotY9njGqo2,html-keyboard-response,178,1536884,0.0-43.0-6.0-0.0-1.0-5.0,,,,,,,,,,,,,,,65bbae0c9be9bb4d76ae2c18,11:44:42,08/03/2024
1917.0,,,ospan,symmetry,64y4VTgeoLX973gg2hotY9njGqo2,symmetry-judgement-task,179,1540711,0.0-43.0-6.0-0.0-1.0-6.0,,,,,,,,,,1.0,1.0,,,,65bbae0c9be9bb4d76ae2c18,11:44:42,08/03/2024
,"<div style=""font-size: 10rem; color: #0000FF"">S</div>",,ospan,letter,64y4VTgeoLX973gg2hotY9njGqo2,html-keyboard-response,180,1541714,0.0-43.0-6.0-0.0-1.0-7.0,,,,,,,,,,,,,,,65bbae0c9be9bb4d76ae2c18,11:44:42,08/03/2024
2190.0,,,ospan,symmetry,64y4VTgeoLX973gg2hotY9njGqo2,symmetry-judgement-task,181,1545756,0.0-43.0-6.0-0.0-1.0-8.0,,,,,,,,,,1.0,1.0,,,,65bbae0c9be9bb4d76ae2c18,11:44:42,08/03/2024
,"<div style=""font-size: 10rem; color: #0000FF"">Y</div>",,ospan,letter,64y4VTgeoLX973gg2hotY9njGqo2,html-keyboard-response,182,1546760,0.0-43.0-6.0-0.0-1.0-9.0,,,,,,,,,,,,,,,65bbae0c9be9bb4d76ae2c18,11:44:42,08/03/2024
5454.0,"<div class = numbox><p style=""font-size: 2.4rem"">Please recall the letters you saw to the best of your ability. If you do not remember a particular letter, use the SKIP button.<br><b>(When you are ready to lock in your answer, press ENTER)</b></p><button id = button_1 class = ""square num-button"" onclick = ""recordClick(this)""><div class = content><div class = numbers>C</div></div></button><button id = button_2 class = ""square num-button"" onclick = ""recordClick(this)""><div class = content><div class = numbers>G</div></div></button><button id = button_3 class = ""square num-button"" onclick = ""recordClick(this)""><div class = content><div class = numbers>H</div></div></button><button id = button_4 class = ""square num-button"" onclick = ""recordClick(this)""><div class = content><div class = numbers>J</div></div></button><button id = button_5 class = ""square num-button"" onclick = ""recordClick(this)""><div class = content><div class = numbers>K</div></div></button><button id = button_6 class = ""square num-button"" onclick = ""recordClick(this)""><div class = content><div class = numbers>L</div></div></button><button id = button_7 class = ""square num-button"" onclick = ""recordClick(this)""><div class = content><div class = numbers>N</div></div></button><button id = button_8 class = ""square num-button"" onclick = ""recordClick(this)""><div class = content><div class = numbers>P</div></div></button><button id = button_9 class = ""square num-button"" onclick = ""recordClick(this)""><div class = content><div class = numbers>Q</div></div></button><button id = button_10 class = ""square num-button"" onclick = ""recordClick(this)""><div class = content><div class = numbers>R</div></div></button><button id = button_11 class = ""square num-button"" onclick = ""recordClick(this)""><div class = content><div class = numbers>S</div></div></button><button id = button_12 class = ""square num-button"" onclick = ""recordClick(this)""><div class = content><div class = numbers>Y</div></div></button><button class = clear_button id = ""ClearButton"" onclick = ""clearResponse()"">BACKSPACE</button><button class = blank_button id = ""BlankButton"" onclick = ""blankResponse()"">SKIP</button><p style=""font-size: 2.4rem""><u><b>Current Answer:</b></u></p><br><br><div id=echoed_txt style=""font-size: 5rem; color:blue;""><b></b></div></div>",enter,ospan,retrieval,64y4VTgeoLX973gg2hotY9njGqo2,html-keyboard-response,183,1552979,0.0-43.0-6.0-0.0-2.0,33,31,26,5.0,"[""G"",""Q"",""L"",""S"",""Y""]","[""G"",""Q"",""L"",""S"",""Y""]",1.0,5.0,,,,,,,65bbae0c9be9bb4d76ae2c18,11:44:42,08/03/2024
757.0,[''],0,ospan,feedback,64y4VTgeoLX973gg2hotY9njGqo2,html-button-response,184,1554246,0.0-43.0-6.0-0.0-3.0,,,,,,,,,,,,97.0,0.0,,65bbae0c9be9bb4d76ae2c18,11:44:42,08/03/2024
,"<p style=""font-size:75px;"">...</p>",,ospan,iti,64y4VTgeoLX973gg2hotY9njGqo2,html-keyboard-response,185,1555252,0.0-43.0-6.0-1.0-0.0,,,,,,,,,,,,,,,65bbae0c9be9bb4d76ae2c18,11:44:42,08/03/2024
2018.0,,,ospan,symmetry,64y4VTgeoLX973gg2hotY9njGqo2,symmetry-judgement-task,186,1558354,0.0-43.0-6.0-1.0-1.0-0.0,,,,,,,,,,1.0,1.0,,,,65bbae0c9be9bb4d76ae2c18,11:44:42,08/03/2024
,"<div style=""font-size: 10rem; color: #0000FF"">C</div>",,ospan,letter,64y4VTgeoLX973gg2hotY9njGqo2,html-keyboard-response,187,1559363,0.0-43.0-6.0-1.0-1.0-1.0,,,,,,,,,,,,,,,65bbae0c9be9bb4d76ae2c18,11:44:42,08/03/2024
813.0,,,ospan,symmetry,64y4VTgeoLX973gg2hotY9njGqo2,symmetry-judgement-task,188,1562019,0.0-43.0-6.0-1.0-1.0-2.0,,,,,,,,,,1.0,1.0,,,,65bbae0c9be9bb4d76ae2c18,11:44:42,08/03/2024
,"<div style=""font-size: 10rem; color: #0000FF"">J</div>",,ospan,letter,64y4VTgeoLX973gg2hotY9njGqo2,html-keyboard-response,189,1563029,0.0-43.0-6.0-1.0-1.0-3.0,,,,,,,,,,,,,,,65bbae0c9be9bb4d76ae2c18,11:44:42,08/03/2024
1143.0,,,ospan,symmetry,64y4VTgeoLX973gg2hotY9njGqo2,symmetry-judgement-task,190,1566048,0.0-43.0-6.0-1.0-1.0-4.0,,,,,,,,,,1.0,1.0,,,,65bbae0c9be9bb4d76ae2c18,11:44:42,08/03/2024
,"<div style=""font-size: 10rem; color: #0000FF"">P</div>",,ospan,letter,64y4VTgeoLX973gg2hotY9njGqo2,html-keyboard-response,191,1567056,0.0-43.0-6.0-1.0-1.0-5.0,,,,,,,,,,,,,,,65bbae0c9be9bb4d76ae2c18,11:44:42,08/03/2024
1718.0,,,ospan,symmetry,64y4VTgeoLX973gg2hotY9njGqo2,symmetry-judgement-task,192,1570627,0.0-43.0-6.0-1.0-1.0-6.0,,,,,,,,,,1.0,1.0,,,,65bbae0c9be9bb4d76ae2c18,11:44:42,08/03/2024
,"<div style=""font-size: 10rem; color: #0000FF"">Y</div>",,ospan,letter,64y4VTgeoLX973gg2hotY9njGqo2,html-keyboard-response,193,1571638,0.0-43.0-6.0-1.0-1.0-7.0,,,,,,,,,,,,,,,65bbae0c9be9bb4d76ae2c18,11:44:42,08/03/2024
1172.0,,,ospan,symmetry,64y4VTgeoLX973gg2hotY9njGqo2,symmetry-judgement-task,194,1574637,0.0-43.0-6.0-1.0-1.0-8.0,,,,,,,,,,1.0,1.0,,,,65bbae0c9be9bb4d76ae2c18,11:44:42,08/03/2024
,"<div style=""font-size: 10rem; color: #0000FF"">Q</div>",,ospan,letter,64y4VTgeoLX973gg2hotY9njGqo2,html-keyboard-response,195,1575665,0.0-43.0-6.0-1.0-1.0-9.0,,,,,,,,,,,,,,,65bbae0c9be9bb4d76ae2c18,11:44:42,08/03/2024
1154.0,,,ospan,symmetry,64y4VTgeoLX973gg2hotY9njGqo2,symmetry-judgement-task,196,1578652,0.0-43.0-6.0-1.0-1.0-10.0,,,,,,,,,,1.0,1.0,,,,65bbae0c9be9bb4d76ae2c18,11:44:42,08/03/2024
,"<div style=""font-size: 10rem; color: #0000FF"">H</div>",,ospan,letter,64y4VTgeoLX973gg2hotY9njGqo2,html-keyboard-response,197,1579657,0.0-43.0-6.0-1.0-1.0-11.0,,,,,,,,,,,,,,,65bbae0c9be9bb4d76ae2c18,11:44:42,08/03/2024
1794.0,,,ospan,symmetry,64y4VTgeoLX973gg2hotY9njGqo2,symmetry-judgement-task,198,1583310,0.0-43.0-6.0-1.0-1.0-12.0,,,,,,,,,,0.0,0.0,,,,65bbae0c9be9bb4d76ae2c18,11:44:42,08/03/2024
,"<div style=""font-size: 10rem; color: #0000FF"">L</div>",,ospan,letter,64y4VTgeoLX973gg2hotY9njGqo2,html-keyboard-response,199,1584319,0.0-43.0-6.0-1.0-1.0-13.0,,,,,,,,,,,,,,,65bbae0c9be9bb4d76ae2c18,11:44:42,08/03/2024
3710.0,,,ospan,symmetry,64y4VTgeoLX973gg2hotY9njGqo2,symmetry-judgement-task,200,1589864,0.0-43.0-6.0-1.0-1.0-14.0,,,,,,,,,,0.0,0.0,,,,65bbae0c9be9bb4d76ae2c18,11:44:42,08/03/2024
,"<div style=""font-size: 10rem; color: #0000FF"">G</div>",,ospan,letter,64y4VTgeoLX973gg2hotY9njGqo2,html-keyboard-response,201,1590879,0.0-43.0-6.0-1.0-1.0-15.0,,,,,,,,,,,,,,,65bbae0c9be9bb4d76ae2c18,11:44:42,08/03/2024
14471.0,"<div class = numbox><p style=""font-size: 2.4rem"">Please recall the letters you saw to the best of your ability. If you do not remember a particular letter, use the SKIP button.<br><b>(When you are ready to lock in your answer, press ENTER)</b></p><button id = button_1 class = ""square num-button"" onclick = ""recordClick(this)""><div class = content><div class = numbers>C</div></div></button><button id = button_2 class = ""square num-button"" onclick = ""recordClick(this)""><div class = content><div class = numbers>G</div></div></button><button id = button_3 class = ""square num-button"" onclick = ""recordClick(this)""><div class = content><div class = numbers>H</div></div></button><button id = button_4 class = ""square num-button"" onclick = ""recordClick(this)""><div class = content><div class = numbers>J</div></div></button><button id = button_5 class = ""square num-button"" onclick = ""recordClick(this)""><div class = content><div class = numbers>K</div></div></button><button id = button_6 class = ""square num-button"" onclick = ""recordClick(this)""><div class = content><div class = numbers>L</div></div></button><button id = button_7 class = ""square num-button"" onclick = ""recordClick(this)""><div class = content><div class = numbers>N</div></div></button><button id = button_8 class = ""square num-button"" onclick = ""recordClick(this)""><div class = content><div class = numbers>P</div></div></button><button id = button_9 class = ""square num-button"" onclick = ""recordClick(this)""><div class = content><div class = numbers>Q</div></div></button><button id = button_10 class = ""square num-button"" onclick = ""recordClick(this)""><div class = content><div class = numbers>R</div></div></button><button id = button_11 class = ""square num-button"" onclick = ""recordClick(this)""><div class = content><div class = numbers>S</div></div></button><button id = button_12 class = ""square num-button"" onclick = ""recordClick(this)""><div class = content><div class = numbers>Y</div></div></button><button class = clear_button id = ""ClearButton"" onclick = ""clearResponse()"">BACKSPACE</button><button class = blank_button id = ""BlankButton"" onclick = ""blankResponse()"">SKIP</button><p style=""font-size: 2.4rem""><u><b>Current Answer:</b></u></p><br><br><div id=echoed_txt style=""font-size: 5rem; color:blue;""><b></b></div></div>",enter,ospan,retrieval,64y4VTgeoLX973gg2hotY9njGqo2,html-keyboard-response,202,1606115,0.0-43.0-6.0-1.0-2.0,41,35,26,8.0,"[""C"",""J"",""H"",""Y"",""Q"",""P""]","[""C"",""J"",""P"",""Y"",""Q"",""H"",""L"",""G""]",0.0,4.0,,,,,,,65bbae0c9be9bb4d76ae2c18,11:44:42,08/03/2024
2010.0,[''],0,ospan,feedback,64y4VTgeoLX973gg2hotY9njGqo2,html-button-response,203,1608630,0.0-43.0-6.0-1.0-3.0,,,,,,,,,,,,93.0,0.0,,65bbae0c9be9bb4d76ae2c18,11:44:42,08/03/2024
16204.0,,{'Q0': 'doing the memory game was fun'},ospan,survey_ospan,64y4VTgeoLX973gg2hotY9njGqo2,lmdlab-survey-text,204,1625644,0.0-43.0-7.0,,,,,,,,,,,,,,64y4VTgeoLX973gg2hotY9njGqo2,65bbae0c9be9bb4d76ae2c18,11:44:42,08/03/2024
991.0,<p><p style='font-size: 3rem'>Great work!<br><br>This completes the symmetry and memory task.</p><br><br><br>,0,ospan,finish,64y4VTgeoLX973gg2hotY9njGqo2,html-button-response,205,1626637,0.0-43.0-8.0,41,35,26,,,,,,,,,93.0,,,65bbae0c9be9bb4d76ae2c18,11:44:42,08/03/2024
