rt,stimulus,response,exp_name,exp_stage,subjectID,trial_type,trial_index,time_elapsed,internal_node_id,ospan_shown,ospan_total,ospan_abs,length,resp_actual,resp_correct,full_correct,num_correct,feedback,accuracy,correct,math_acc,math_warning,databaseID,prolificID,start_time,date
2514.9000000059605,<div class = 'left_align' style='font-size: 3.25rem; line-height: 1.3;'><p class = 'center_align'><b>Welcome to the Symmetry and Memory Task</b><br><br><br><br></p>Press 'continue' to show the instructions.<br><br><br><br></div>,0,ospan,instruct,PVgkr87qavNDh6oj2M7gQVrPz2r2,html-button-response,54,676176,0.0-46.0-0.0-0.0-0.0,,,,,,,,,,,,,,,5cdd2e2a8b39ba00191a227e,09:27:37,03/04/2024
13507.800000011921,"<div class = 'left_align' style='font-size: 3.25rem; line-height: 1.3;'><p class = 'center_align'><b>Symmetry and Memory Task</b><br><br></p>In this task, you will try to memorize letters you see on the screen<br>while you also view black and white grid pictures.<br><br>In the next few minutes, you will have some practice to get you familiar<br>with how the task works.<br><br>It may be difficult sometimes, but please do not worry about making mistakes!<br><br>We will begin by practicing the letter part of the task.<br><br><br><br></div>",0,ospan,instruct,PVgkr87qavNDh6oj2M7gQVrPz2r2,html-button-response,55,689937,0.0-46.0-0.0-0.0-1.0,,,,,,,,,,,,,,,5cdd2e2a8b39ba00191a227e,09:27:37,03/04/2024
29707.5,"<div class = 'left_align' style='font-size: 3.25rem; line-height: 1.3;'>For this practice part, letters will appear on the screen one at a time.<br><br>Try to remember each letter in the order presented.<br><br>After some letters have been shown, you will see a response screen. Your<br>goal is to report the letters you saw <b>in order</b>. If you do not remember<br>a particular letter, you will have the option to leave it blank.<br><br><br><br></div>",0,ospan,instruct,PVgkr87qavNDh6oj2M7gQVrPz2r2,html-button-response,56,719896,0.0-46.0-0.0-0.0-2.0,,,,,,,,,,,,,,,5cdd2e2a8b39ba00191a227e,09:27:37,03/04/2024
4716.5999999940395,"<div class = 'left_align' style='font-size: 3.25rem; line-height: 1.3;'>Remember, it is very important to get the letters in the same<br>order as you see them.<br><br>When you are ready, you may begin the letter practice.</div><br><br><br><br>",0,ospan,instruct,PVgkr87qavNDh6oj2M7gQVrPz2r2,html-button-response,57,724865,0.0-46.0-0.0-0.0-3.0,,,,,,,,,,,,,,,5cdd2e2a8b39ba00191a227e,09:27:37,03/04/2024
,"<p style=""font-size:75px;"">...</p>",,ospan,iti,PVgkr87qavNDh6oj2M7gQVrPz2r2,html-keyboard-response,58,726120,0.0-46.0-0.0-1.0-0.0,,,,,,,,,,,,,,,5cdd2e2a8b39ba00191a227e,09:27:37,03/04/2024
,"<div style=""font-size: 10rem; color: #0000FF"">P</div>",,ospan,letter,PVgkr87qavNDh6oj2M7gQVrPz2r2,html-keyboard-response,59,727136,0.0-46.0-0.0-1.0-1.0,,,,,,,,,,,,,,,5cdd2e2a8b39ba00191a227e,09:27:37,03/04/2024
,"<div style=""font-size: 10rem; color: #0000FF"">S</div>",,ospan,letter,PVgkr87qavNDh6oj2M7gQVrPz2r2,html-keyboard-response,60,728914,0.0-46.0-0.0-1.0-2.0,,,,,,,,,,,,,,,5cdd2e2a8b39ba00191a227e,09:27:37,03/04/2024
16022.700000017881,"<div class = numbox><p style=""font-size: 2.4rem"">Please recall the letters you saw to the best of your ability. If you do not remember a particular letter, use the SKIP button.<br><b>(When you are ready to lock in your answer, press ENTER)</b></p><button id = button_1 class = ""square num-button"" onclick = ""recordClick(this)""><div class = content><div class = numbers>C</div></div></button><button id = button_2 class = ""square num-button"" onclick = ""recordClick(this)""><div class = content><div class = numbers>G</div></div></button><button id = button_3 class = ""square num-button"" onclick = ""recordClick(this)""><div class = content><div class = numbers>H</div></div></button><button id = button_4 class = ""square num-button"" onclick = ""recordClick(this)""><div class = content><div class = numbers>J</div></div></button><button id = button_5 class = ""square num-button"" onclick = ""recordClick(this)""><div class = content><div class = numbers>K</div></div></button><button id = button_6 class = ""square num-button"" onclick = ""recordClick(this)""><div class = content><div class = numbers>L</div></div></button><button id = button_7 class = ""square num-button"" onclick = ""recordClick(this)""><div class = content><div class = numbers>N</div></div></button><button id = button_8 class = ""square num-button"" onclick = ""recordClick(this)""><div class = content><div class = numbers>P</div></div></button><button id = button_9 class = ""square num-button"" onclick = ""recordClick(this)""><div class = content><div class = numbers>Q</div></div></button><button id = button_10 class = ""square num-button"" onclick = ""recordClick(this)""><div class = content><div class = numbers>R</div></div></button><button id = button_11 class = ""square num-button"" onclick = ""recordClick(this)""><div class = content><div class = numbers>S</div></div></button><button id = button_12 class = ""square num-button"" onclick = ""recordClick(this)""><div class = content><div class = numbers>Y</div></div></button><button class = clear_button id = ""ClearButton"" onclick = ""clearResponse()"">BACKSPACE</button><button class = blank_button id = ""BlankButton"" onclick = ""blankResponse()"">SKIP</button><p style=""font-size: 2.4rem""><u><b>Current Answer:</b></u></p><br><br><div id=echoed_txt style=""font-size: 5rem; color:blue;""><b></b></div></div>",enter,ospan,retrieval,PVgkr87qavNDh6oj2M7gQVrPz2r2,html-keyboard-response,61,745700,0.0-46.0-0.0-1.0-3.0,NA,NA,NA,2.0,"[""P"",""S""]","[""P"",""S""]",1.0,2.0,"['<font color=""green"">P</font>', '<font color=""green"">S</font>']",,,,,,5cdd2e2a8b39ba00191a227e,09:27:37,03/04/2024
3058.300000011921,"['<p style=""font-size:44px"">Letters:<br><br><br><font color=""green"">P</font> <font color=""green"">S</font></p><br><br>']",0,ospan,practice_feedback,PVgkr87qavNDh6oj2M7gQVrPz2r2,html-button-response,62,749264,0.0-46.0-0.0-1.0-4.0,,,,,,,,,,,,,,,5cdd2e2a8b39ba00191a227e,09:27:37,03/04/2024
,"<p style=""font-size:75px;"">...</p>",,ospan,iti,PVgkr87qavNDh6oj2M7gQVrPz2r2,html-keyboard-response,63,750275,0.0-46.0-0.0-2.0-0.0,,,,,,,,,,,,,,,5cdd2e2a8b39ba00191a227e,09:27:37,03/04/2024
,"<div style=""font-size: 10rem; color: #0000FF"">H</div>",,ospan,letter,PVgkr87qavNDh6oj2M7gQVrPz2r2,html-keyboard-response,64,751284,0.0-46.0-0.0-2.0-1.0,,,,,,,,,,,,,,,5cdd2e2a8b39ba00191a227e,09:27:37,03/04/2024
,"<div style=""font-size: 10rem; color: #0000FF"">Q</div>",,ospan,letter,PVgkr87qavNDh6oj2M7gQVrPz2r2,html-keyboard-response,65,753061,0.0-46.0-0.0-2.0-2.0,,,,,,,,,,,,,,,5cdd2e2a8b39ba00191a227e,09:27:37,03/04/2024
,"<div style=""font-size: 10rem; color: #0000FF"">R</div>",,ospan,letter,PVgkr87qavNDh6oj2M7gQVrPz2r2,html-keyboard-response,66,754829,0.0-46.0-0.0-2.0-3.0,,,,,,,,,,,,,,,5cdd2e2a8b39ba00191a227e,09:27:37,03/04/2024
5277.0999999940395,"<div class = numbox><p style=""font-size: 2.4rem"">Please recall the letters you saw to the best of your ability. If you do not remember a particular letter, use the SKIP button.<br><b>(When you are ready to lock in your answer, press ENTER)</b></p><button id = button_1 class = ""square num-button"" onclick = ""recordClick(this)""><div class = content><div class = numbers>C</div></div></button><button id = button_2 class = ""square num-button"" onclick = ""recordClick(this)""><div class = content><div class = numbers>G</div></div></button><button id = button_3 class = ""square num-button"" onclick = ""recordClick(this)""><div class = content><div class = numbers>H</div></div></button><button id = button_4 class = ""square num-button"" onclick = ""recordClick(this)""><div class = content><div class = numbers>J</div></div></button><button id = button_5 class = ""square num-button"" onclick = ""recordClick(this)""><div class = content><div class = numbers>K</div></div></button><button id = button_6 class = ""square num-button"" onclick = ""recordClick(this)""><div class = content><div class = numbers>L</div></div></button><button id = button_7 class = ""square num-button"" onclick = ""recordClick(this)""><div class = content><div class = numbers>N</div></div></button><button id = button_8 class = ""square num-button"" onclick = ""recordClick(this)""><div class = content><div class = numbers>P</div></div></button><button id = button_9 class = ""square num-button"" onclick = ""recordClick(this)""><div class = content><div class = numbers>Q</div></div></button><button id = button_10 class = ""square num-button"" onclick = ""recordClick(this)""><div class = content><div class = numbers>R</div></div></button><button id = button_11 class = ""square num-button"" onclick = ""recordClick(this)""><div class = content><div class = numbers>S</div></div></button><button id = button_12 class = ""square num-button"" onclick = ""recordClick(this)""><div class = content><div class = numbers>Y</div></div></button><button class = clear_button id = ""ClearButton"" onclick = ""clearResponse()"">BACKSPACE</button><button class = blank_button id = ""BlankButton"" onclick = ""blankResponse()"">SKIP</button><p style=""font-size: 2.4rem""><u><b>Current Answer:</b></u></p><br><br><div id=echoed_txt style=""font-size: 5rem; color:blue;""><b></b></div></div>",enter,ospan,retrieval,PVgkr87qavNDh6oj2M7gQVrPz2r2,html-keyboard-response,67,760868,0.0-46.0-0.0-2.0-4.0,NA,NA,NA,3.0,"[""H"",""Q"",""R""]","[""H"",""Q"",""R""]",1.0,3.0,"['<font color=""green"">H</font>', '<font color=""green"">Q</font>', '<font color=""green"">R</font>']",,,,,,5cdd2e2a8b39ba00191a227e,09:27:37,03/04/2024
2215.699999988079,"['<p style=""font-size:44px"">Letters:<br><br><br><font color=""green"">H</font> <font color=""green"">Q</font> <font color=""green"">R</font></p><br><br>']",0,ospan,practice_feedback,PVgkr87qavNDh6oj2M7gQVrPz2r2,html-button-response,68,763585,0.0-46.0-0.0-2.0-5.0,,,,,,,,,,,,,,,5cdd2e2a8b39ba00191a227e,09:27:37,03/04/2024
27150.20000001788,"<div class = 'left_align' style='font-size: 3.25rem; line-height: 1.3;'>Now you will practice doing the <b>symmetry judgment part</b> of the experiment.<br><br>A black and white grid picture will appear on the screen and you have to judge if it is <br>symmetrical or asymetrical.<br><br>A picture is 'mirror' symmetrical if its left half is identical to the right half when flipped.<br>Here are examples of a symmetrical and an asymetrical picture:<br><br><center><img src='Stimuli/img/symm_instructions_extra.png' style='height:420px; width:900'></img></center><br>To judge symmetry, imagine you were to fold each picture down the middle, like a book –<br>would the left half match the right half when folded onto each other?<br><br></div><br>",0,ospan,instruct,PVgkr87qavNDh6oj2M7gQVrPz2r2,html-button-response,69,790737,0.0-46.0-1.0-0.0-0.0,,,,,,,,,,,,,,,5cdd2e2a8b39ba00191a227e,09:27:37,03/04/2024
7971.700000017881,"<div class = 'left_align' style='font-size: 3.25rem; line-height: 1.3;'>When you have viewed the picture and determined whether it is symmetrical or not,<br>you can <b>click the Yes or No button</b> below to answer.<br><br>If you take longer than 15 seconds, it will continue automatically<br>and record the answer as an error.</div><br>",0,ospan,instruct,PVgkr87qavNDh6oj2M7gQVrPz2r2,html-button-response,70,798961,0.0-46.0-1.0-0.0-1.0,,,,,,,,,,,,,,,5cdd2e2a8b39ba00191a227e,09:27:37,03/04/2024
10987.59999999404,"<div class = 'left_align' style='font-size: 3.25rem; line-height: 1.3;'>It is <b>very</b> important that you make the symmetry judgment correctly.<br><br>It is also important that you try and judge the picture as quickly as you can.<br><br>When you are ready, click on the button below to try some practice problems.</div><br><br><br><br>",0,ospan,instruct,PVgkr87qavNDh6oj2M7gQVrPz2r2,html-button-response,71,810200,0.0-46.0-1.0-0.0-2.0,,,,,,,,,,,,,,,5cdd2e2a8b39ba00191a227e,09:27:37,03/04/2024
1958.0,,,ospan,symmetry,PVgkr87qavNDh6oj2M7gQVrPz2r2,symmetry-judgement-task,72,812952,0.0-46.0-1.0-1.0-0.0,,,,,,,,,,1.0,1.0,,,,5cdd2e2a8b39ba00191a227e,09:27:37,03/04/2024
,"<p style=""color:green; font-size: 35px"">Correct</p>",,ospan,feedback,PVgkr87qavNDh6oj2M7gQVrPz2r2,html-keyboard-response,73,813718,0.0-46.0-1.0-1.0-1.0,,,,,,,,,,,,,,,5cdd2e2a8b39ba00191a227e,09:27:37,03/04/2024
1501.0,,,ospan,symmetry,PVgkr87qavNDh6oj2M7gQVrPz2r2,symmetry-judgement-task,74,817906,0.0-46.0-1.0-1.0-2.0,,,,,,,,,,1.0,1.0,,,,5cdd2e2a8b39ba00191a227e,09:27:37,03/04/2024
,"<p style=""color:green; font-size: 35px"">Correct</p>",,ospan,feedback,PVgkr87qavNDh6oj2M7gQVrPz2r2,html-keyboard-response,75,818662,0.0-46.0-1.0-1.0-3.0,,,,,,,,,,,,,,,5cdd2e2a8b39ba00191a227e,09:27:37,03/04/2024
1380.0,,,ospan,symmetry,PVgkr87qavNDh6oj2M7gQVrPz2r2,symmetry-judgement-task,76,822707,0.0-46.0-1.0-1.0-4.0,,,,,,,,,,1.0,1.0,,,,5cdd2e2a8b39ba00191a227e,09:27:37,03/04/2024
,"<p style=""color:green; font-size: 35px"">Correct</p>",,ospan,feedback,PVgkr87qavNDh6oj2M7gQVrPz2r2,html-keyboard-response,77,823461,0.0-46.0-1.0-1.0-5.0,,,,,,,,,,,,,,,5cdd2e2a8b39ba00191a227e,09:27:37,03/04/2024
1461.5999999940395,"<p style=""font-size: 3rem;"">You responded correctly on 3 of 3 symmetry judgments. Good job!</p><br><br>",0,ospan,practice,PVgkr87qavNDh6oj2M7gQVrPz2r2,html-button-response,78,826928,0.0-46.0-1.0-2.0,,,,,,,,,,,,,,,5cdd2e2a8b39ba00191a227e,09:27:37,03/04/2024
11837.09999999404,"<div class = 'left_align' style='font-size: 3.25rem; line-height: 1.3;'>Now you will practice doing both parts of the experiment at the same time.<br><br>In the next practice set, you will be given one grid picture to judge.<br>Then letter will appear on the screen. Try to remember the letter.<br><br>It is <b>very important</b> to make the symmetry judgment as quickly and accurately as possible.<br><br>Just as before, once you have make the symmetry judgment, you can click Yes or No.<br><b>Note that you will no longer see Correct or Incorrect feedback.</div><br><br><br><br>",0,ospan,instruct,PVgkr87qavNDh6oj2M7gQVrPz2r2,html-button-response,79,839024,0.0-46.0-2.0-0.0-0.0,,,,,,,,,,,,,,,5cdd2e2a8b39ba00191a227e,09:27:37,03/04/2024
7342.5999999940395,"<div class = 'left_align' style='font-size: 3.25rem; line-height: 1.3;'>After the letter goes away, another grid picture will appear, and then<br>another letter.<br><br>At the end of each set of letters and grids, you will recall the letters to the best<br>of your ability. Remember, try your best to get the letters in the correct order.<br><br>It is important to <b>quickly</b> and <b>accurately</b> make the symmetry judgments.</div><br><br><br><br>",0,ospan,instruct,PVgkr87qavNDh6oj2M7gQVrPz2r2,html-button-response,80,846632,0.0-46.0-2.0-0.0-1.0,,,,,,,,,,,,,,,5cdd2e2a8b39ba00191a227e,09:27:37,03/04/2024
19427.20000001788,"<div class = 'left_align' style='font-size: 3.25rem; line-height: 1.3;'>On the feedback screen, if you are not doing well at the symmetry judgments,<br>you will also see a warning in the middle. This indicates your percent <br>correct for the grid pictures for the entire experiment.<br><br>It is <b>very</b> important for you to keep accuracy at least at 85%: <u>We can only use<br>data where the participant was at least 85% accurate on the judgments.</u> Therefore,<br> please try your best to perform well on the symmetry judgments, <b>at the same time</b><br>doing your best to recall as many letters as possible.<br><br>Click the button to try some practice problems.</div><br><br><br><br>",0,ospan,instruct,PVgkr87qavNDh6oj2M7gQVrPz2r2,html-button-response,81,866312,0.0-46.0-2.0-0.0-2.0,,,,,,,,,,,,,,,5cdd2e2a8b39ba00191a227e,09:27:37,03/04/2024
,"<p style=""font-size:75px;"">...</p>",,ospan,iti,PVgkr87qavNDh6oj2M7gQVrPz2r2,html-keyboard-response,82,867566,0.0-46.0-2.0-1.0-0.0,,,,,,,,,,,,,,,5cdd2e2a8b39ba00191a227e,09:27:37,03/04/2024
1297.0,,,ospan,symmetry,PVgkr87qavNDh6oj2M7gQVrPz2r2,symmetry-judgement-task,83,870046,0.0-46.0-2.0-1.0-1.0-0.0,,,,,,,,,,1.0,1.0,,,,5cdd2e2a8b39ba00191a227e,09:27:37,03/04/2024
,"<div style=""font-size: 10rem; color: #0000FF"">P</div>",,ospan,letter,PVgkr87qavNDh6oj2M7gQVrPz2r2,html-keyboard-response,84,871048,0.0-46.0-2.0-1.0-1.0-1.0,,,,,,,,,,,,,,,5cdd2e2a8b39ba00191a227e,09:27:37,03/04/2024
1093.0,,,ospan,symmetry,PVgkr87qavNDh6oj2M7gQVrPz2r2,symmetry-judgement-task,85,874047,0.0-46.0-2.0-1.0-1.0-2.0,,,,,,,,,,1.0,1.0,,,,5cdd2e2a8b39ba00191a227e,09:27:37,03/04/2024
,"<div style=""font-size: 10rem; color: #0000FF"">H</div>",,ospan,letter,PVgkr87qavNDh6oj2M7gQVrPz2r2,html-keyboard-response,86,875060,0.0-46.0-2.0-1.0-1.0-3.0,,,,,,,,,,,,,,,5cdd2e2a8b39ba00191a227e,09:27:37,03/04/2024
1215.0,,,ospan,symmetry,PVgkr87qavNDh6oj2M7gQVrPz2r2,symmetry-judgement-task,87,878189,0.0-46.0-2.0-1.0-1.0-4.0,,,,,,,,,,1.0,1.0,,,,5cdd2e2a8b39ba00191a227e,09:27:37,03/04/2024
,"<div style=""font-size: 10rem; color: #0000FF"">G</div>",,ospan,letter,PVgkr87qavNDh6oj2M7gQVrPz2r2,html-keyboard-response,88,879204,0.0-46.0-2.0-1.0-1.0-5.0,,,,,,,,,,,,,,,5cdd2e2a8b39ba00191a227e,09:27:37,03/04/2024
4050.800000011921,"<div class = numbox><p style=""font-size: 2.4rem"">Please recall the letters you saw to the best of your ability. If you do not remember a particular letter, use the SKIP button.<br><b>(When you are ready to lock in your answer, press ENTER)</b></p><button id = button_1 class = ""square num-button"" onclick = ""recordClick(this)""><div class = content><div class = numbers>C</div></div></button><button id = button_2 class = ""square num-button"" onclick = ""recordClick(this)""><div class = content><div class = numbers>G</div></div></button><button id = button_3 class = ""square num-button"" onclick = ""recordClick(this)""><div class = content><div class = numbers>H</div></div></button><button id = button_4 class = ""square num-button"" onclick = ""recordClick(this)""><div class = content><div class = numbers>J</div></div></button><button id = button_5 class = ""square num-button"" onclick = ""recordClick(this)""><div class = content><div class = numbers>K</div></div></button><button id = button_6 class = ""square num-button"" onclick = ""recordClick(this)""><div class = content><div class = numbers>L</div></div></button><button id = button_7 class = ""square num-button"" onclick = ""recordClick(this)""><div class = content><div class = numbers>N</div></div></button><button id = button_8 class = ""square num-button"" onclick = ""recordClick(this)""><div class = content><div class = numbers>P</div></div></button><button id = button_9 class = ""square num-button"" onclick = ""recordClick(this)""><div class = content><div class = numbers>Q</div></div></button><button id = button_10 class = ""square num-button"" onclick = ""recordClick(this)""><div class = content><div class = numbers>R</div></div></button><button id = button_11 class = ""square num-button"" onclick = ""recordClick(this)""><div class = content><div class = numbers>S</div></div></button><button id = button_12 class = ""square num-button"" onclick = ""recordClick(this)""><div class = content><div class = numbers>Y</div></div></button><button class = clear_button id = ""ClearButton"" onclick = ""clearResponse()"">BACKSPACE</button><button class = blank_button id = ""BlankButton"" onclick = ""blankResponse()"">SKIP</button><p style=""font-size: 2.4rem""><u><b>Current Answer:</b></u></p><br><br><div id=echoed_txt style=""font-size: 5rem; color:blue;""><b></b></div></div>",enter,ospan,retrieval,PVgkr87qavNDh6oj2M7gQVrPz2r2,html-keyboard-response,89,884021,0.0-46.0-2.0-1.0-2.0-0.0,NA,NA,NA,3.0,"[""P"",""H"",""G""]","[""P"",""H"",""G""]",1.0,3.0,"['<font color=""green"">P</font>', '<font color=""green"">H</font>', '<font color=""green"">G</font>']",,,,,,5cdd2e2a8b39ba00191a227e,09:27:37,03/04/2024
2491.5999999940395,"['<p style=""font-size:44px"">Letters:<br><br><br><font color=""green"">P</font> <font color=""green"">H</font> <font color=""green"">G</font></p><br><br><p style=""font-size:30px"">Symmetry:<br><br><font color=""green"">100%</font></p><br><br>']",0,ospan,practice_feedback,PVgkr87qavNDh6oj2M7gQVrPz2r2,html-button-response,90,887016,0.0-46.0-2.0-1.0-2.0-1.0,,,,,,,,,,,,,,,5cdd2e2a8b39ba00191a227e,09:27:37,03/04/2024
,"<p style=""font-size:75px;"">...</p>",,ospan,iti,PVgkr87qavNDh6oj2M7gQVrPz2r2,html-keyboard-response,91,888019,0.0-46.0-2.0-2.0-0.0,,,,,,,,,,,,,,,5cdd2e2a8b39ba00191a227e,09:27:37,03/04/2024
1188.0,,,ospan,symmetry,PVgkr87qavNDh6oj2M7gQVrPz2r2,symmetry-judgement-task,92,890382,0.0-46.0-2.0-2.0-1.0-0.0,,,,,,,,,,1.0,1.0,,,,5cdd2e2a8b39ba00191a227e,09:27:37,03/04/2024
,"<div style=""font-size: 10rem; color: #0000FF"">H</div>",,ospan,letter,PVgkr87qavNDh6oj2M7gQVrPz2r2,html-keyboard-response,93,891398,0.0-46.0-2.0-2.0-1.0-1.0,,,,,,,,,,,,,,,5cdd2e2a8b39ba00191a227e,09:27:37,03/04/2024
1047.0,,,ospan,symmetry,PVgkr87qavNDh6oj2M7gQVrPz2r2,symmetry-judgement-task,94,894354,0.0-46.0-2.0-2.0-1.0-2.0,,,,,,,,,,1.0,1.0,,,,5cdd2e2a8b39ba00191a227e,09:27:37,03/04/2024
,"<div style=""font-size: 10rem; color: #0000FF"">J</div>",,ospan,letter,PVgkr87qavNDh6oj2M7gQVrPz2r2,html-keyboard-response,95,895356,0.0-46.0-2.0-2.0-1.0-3.0,,,,,,,,,,,,,,,5cdd2e2a8b39ba00191a227e,09:27:37,03/04/2024
1035.0,,,ospan,symmetry,PVgkr87qavNDh6oj2M7gQVrPz2r2,symmetry-judgement-task,96,898318,0.0-46.0-2.0-2.0-1.0-4.0,,,,,,,,,,1.0,1.0,,,,5cdd2e2a8b39ba00191a227e,09:27:37,03/04/2024
,"<div style=""font-size: 10rem; color: #0000FF"">C</div>",,ospan,letter,PVgkr87qavNDh6oj2M7gQVrPz2r2,html-keyboard-response,97,899334,0.0-46.0-2.0-2.0-1.0-5.0,,,,,,,,,,,,,,,5cdd2e2a8b39ba00191a227e,09:27:37,03/04/2024
4910.700000017881,"<div class = numbox><p style=""font-size: 2.4rem"">Please recall the letters you saw to the best of your ability. If you do not remember a particular letter, use the SKIP button.<br><b>(When you are ready to lock in your answer, press ENTER)</b></p><button id = button_1 class = ""square num-button"" onclick = ""recordClick(this)""><div class = content><div class = numbers>C</div></div></button><button id = button_2 class = ""square num-button"" onclick = ""recordClick(this)""><div class = content><div class = numbers>G</div></div></button><button id = button_3 class = ""square num-button"" onclick = ""recordClick(this)""><div class = content><div class = numbers>H</div></div></button><button id = button_4 class = ""square num-button"" onclick = ""recordClick(this)""><div class = content><div class = numbers>J</div></div></button><button id = button_5 class = ""square num-button"" onclick = ""recordClick(this)""><div class = content><div class = numbers>K</div></div></button><button id = button_6 class = ""square num-button"" onclick = ""recordClick(this)""><div class = content><div class = numbers>L</div></div></button><button id = button_7 class = ""square num-button"" onclick = ""recordClick(this)""><div class = content><div class = numbers>N</div></div></button><button id = button_8 class = ""square num-button"" onclick = ""recordClick(this)""><div class = content><div class = numbers>P</div></div></button><button id = button_9 class = ""square num-button"" onclick = ""recordClick(this)""><div class = content><div class = numbers>Q</div></div></button><button id = button_10 class = ""square num-button"" onclick = ""recordClick(this)""><div class = content><div class = numbers>R</div></div></button><button id = button_11 class = ""square num-button"" onclick = ""recordClick(this)""><div class = content><div class = numbers>S</div></div></button><button id = button_12 class = ""square num-button"" onclick = ""recordClick(this)""><div class = content><div class = numbers>Y</div></div></button><button class = clear_button id = ""ClearButton"" onclick = ""clearResponse()"">BACKSPACE</button><button class = blank_button id = ""BlankButton"" onclick = ""blankResponse()"">SKIP</button><p style=""font-size: 2.4rem""><u><b>Current Answer:</b></u></p><br><br><div id=echoed_txt style=""font-size: 5rem; color:blue;""><b></b></div></div>",enter,ospan,retrieval,PVgkr87qavNDh6oj2M7gQVrPz2r2,html-keyboard-response,98,905000,0.0-46.0-2.0-2.0-2.0-0.0,NA,NA,NA,3.0,"[""H"",""P"",""C""]","[""H"",""J"",""C""]",0.0,2.0,"['<font color=""green"">H</font>', '<font color=""red"">J</font>', '<font color=""green"">C</font>']",,,,,,5cdd2e2a8b39ba00191a227e,09:27:37,03/04/2024
2666.0999999940395,"['<p style=""font-size:44px"">Letters:<br><br><br><font color=""green"">H</font> <font color=""red"">J</font> <font color=""green"">C</font></p><br><br><p style=""font-size:30px"">Symmetry:<br><br><font color=""green"">100%</font></p><br><br>']",0,ospan,practice_feedback,PVgkr87qavNDh6oj2M7gQVrPz2r2,html-button-response,99,908176,0.0-46.0-2.0-2.0-2.0-1.0,,,,,,,,,,,,,,,5cdd2e2a8b39ba00191a227e,09:27:37,03/04/2024
16334.0,"<div class = 'left_align' style='font-size: 3rem; line-height: 1.3;'><b>Great work! That is the end of practice.</b><br><br>The real trials will look just like the practice trials you just completed.<br><br><u>Here, you will not see feedback</u>. First, you will see an grid picture to judge,<br>then a letter to remember. When the recall screen appears, report the letters in the<br>order presented. If you forget a letter, remember to use the <b>blank</b> button to move to the<br>next letter. Some of the sets will have more symmetry grids and letters than others.<br><br>It is important that you do your best on both the symmetry judgments and the letter recall<br>parts of the experiment. For for the symmetry judgments, try to work as <b>quickly</b> and <br>as <b>accurately</b> as possible. Remember to keep your symmetry accuracy at 85% or above.<br><br><b>For the letters, do NOT use any external aid (e.g., writing on paper, electronic device).</b><br><br>It is <u>very important</u> to our experiment to have a <b>true</b> view of your real performance.<br><br>Do not worry if you miss some when it gets hard! This task is meant to be very challenging!<br><br>Click the button to begin.</div><br><br><br><br>",0,ospan,starting_real_here,PVgkr87qavNDh6oj2M7gQVrPz2r2,html-button-response,100,924512,0.0-46.0-2.0-3.0,,,,,,,,,,,,,,,5cdd2e2a8b39ba00191a227e,09:27:37,03/04/2024
,"<p style=""font-size:75px;"">...</p>",,ospan,iti,PVgkr87qavNDh6oj2M7gQVrPz2r2,html-keyboard-response,101,925765,0.0-46.0-3.0-0.0-0.0,,,,,,,,,,,,,,,5cdd2e2a8b39ba00191a227e,09:27:37,03/04/2024
2069.0,,,ospan,symmetry,PVgkr87qavNDh6oj2M7gQVrPz2r2,symmetry-judgement-task,102,928909,0.0-46.0-3.0-0.0-1.0-0.0,,,,,,,,,,1.0,1.0,,,,5cdd2e2a8b39ba00191a227e,09:27:37,03/04/2024
,"<div style=""font-size: 10rem; color: #0000FF"">H</div>",,ospan,letter,PVgkr87qavNDh6oj2M7gQVrPz2r2,html-keyboard-response,103,929915,0.0-46.0-3.0-0.0-1.0-1.0,,,,,,,,,,,,,,,5cdd2e2a8b39ba00191a227e,09:27:37,03/04/2024
882.0,,,ospan,symmetry,PVgkr87qavNDh6oj2M7gQVrPz2r2,symmetry-judgement-task,104,932703,0.0-46.0-3.0-0.0-1.0-2.0,,,,,,,,,,1.0,1.0,,,,5cdd2e2a8b39ba00191a227e,09:27:37,03/04/2024
,"<div style=""font-size: 10rem; color: #0000FF"">J</div>",,ospan,letter,PVgkr87qavNDh6oj2M7gQVrPz2r2,html-keyboard-response,105,933719,0.0-46.0-3.0-0.0-1.0-3.0,,,,,,,,,,,,,,,5cdd2e2a8b39ba00191a227e,09:27:37,03/04/2024
864.0,,,ospan,symmetry,PVgkr87qavNDh6oj2M7gQVrPz2r2,symmetry-judgement-task,106,936490,0.0-46.0-3.0-0.0-1.0-4.0,,,,,,,,,,1.0,1.0,,,,5cdd2e2a8b39ba00191a227e,09:27:37,03/04/2024
,"<div style=""font-size: 10rem; color: #0000FF"">C</div>",,ospan,letter,PVgkr87qavNDh6oj2M7gQVrPz2r2,html-keyboard-response,107,937491,0.0-46.0-3.0-0.0-1.0-5.0,,,,,,,,,,,,,,,5cdd2e2a8b39ba00191a227e,09:27:37,03/04/2024
3667.399999976158,"<div class = numbox><p style=""font-size: 2.4rem"">Please recall the letters you saw to the best of your ability. If you do not remember a particular letter, use the SKIP button.<br><b>(When you are ready to lock in your answer, press ENTER)</b></p><button id = button_1 class = ""square num-button"" onclick = ""recordClick(this)""><div class = content><div class = numbers>C</div></div></button><button id = button_2 class = ""square num-button"" onclick = ""recordClick(this)""><div class = content><div class = numbers>G</div></div></button><button id = button_3 class = ""square num-button"" onclick = ""recordClick(this)""><div class = content><div class = numbers>H</div></div></button><button id = button_4 class = ""square num-button"" onclick = ""recordClick(this)""><div class = content><div class = numbers>J</div></div></button><button id = button_5 class = ""square num-button"" onclick = ""recordClick(this)""><div class = content><div class = numbers>K</div></div></button><button id = button_6 class = ""square num-button"" onclick = ""recordClick(this)""><div class = content><div class = numbers>L</div></div></button><button id = button_7 class = ""square num-button"" onclick = ""recordClick(this)""><div class = content><div class = numbers>N</div></div></button><button id = button_8 class = ""square num-button"" onclick = ""recordClick(this)""><div class = content><div class = numbers>P</div></div></button><button id = button_9 class = ""square num-button"" onclick = ""recordClick(this)""><div class = content><div class = numbers>Q</div></div></button><button id = button_10 class = ""square num-button"" onclick = ""recordClick(this)""><div class = content><div class = numbers>R</div></div></button><button id = button_11 class = ""square num-button"" onclick = ""recordClick(this)""><div class = content><div class = numbers>S</div></div></button><button id = button_12 class = ""square num-button"" onclick = ""recordClick(this)""><div class = content><div class = numbers>Y</div></div></button><button class = clear_button id = ""ClearButton"" onclick = ""clearResponse()"">BACKSPACE</button><button class = blank_button id = ""BlankButton"" onclick = ""blankResponse()"">SKIP</button><p style=""font-size: 2.4rem""><u><b>Current Answer:</b></u></p><br><br><div id=echoed_txt style=""font-size: 5rem; color:blue;""><b></b></div></div>",enter,ospan,retrieval,PVgkr87qavNDh6oj2M7gQVrPz2r2,html-keyboard-response,108,941918,0.0-46.0-3.0-0.0-2.0,3,3,3,3.0,"[""H"",""J"",""C""]","[""H"",""J"",""C""]",1.0,3.0,,,,,,,5cdd2e2a8b39ba00191a227e,09:27:37,03/04/2024
1231.5,[''],0,ospan,feedback,PVgkr87qavNDh6oj2M7gQVrPz2r2,html-button-response,109,943656,0.0-46.0-3.0-0.0-3.0,,,,,,,,,,,,100.0,0.0,,5cdd2e2a8b39ba00191a227e,09:27:37,03/04/2024
,"<p style=""font-size:75px;"">...</p>",,ospan,iti,PVgkr87qavNDh6oj2M7gQVrPz2r2,html-keyboard-response,110,944661,0.0-46.0-4.0-0.0-0.0,,,,,,,,,,,,,,,5cdd2e2a8b39ba00191a227e,09:27:37,03/04/2024
1370.0,,,ospan,symmetry,PVgkr87qavNDh6oj2M7gQVrPz2r2,symmetry-judgement-task,111,947084,0.0-46.0-4.0-0.0-1.0-0.0,,,,,,,,,,1.0,1.0,,,,5cdd2e2a8b39ba00191a227e,09:27:37,03/04/2024
,"<div style=""font-size: 10rem; color: #0000FF"">L</div>",,ospan,letter,PVgkr87qavNDh6oj2M7gQVrPz2r2,html-keyboard-response,112,948100,0.0-46.0-4.0-0.0-1.0-1.0,,,,,,,,,,,,,,,5cdd2e2a8b39ba00191a227e,09:27:37,03/04/2024
1180.0,,,ospan,symmetry,PVgkr87qavNDh6oj2M7gQVrPz2r2,symmetry-judgement-task,113,951185,0.0-46.0-4.0-0.0-1.0-2.0,,,,,,,,,,1.0,1.0,,,,5cdd2e2a8b39ba00191a227e,09:27:37,03/04/2024
,"<div style=""font-size: 10rem; color: #0000FF"">R</div>",,ospan,letter,PVgkr87qavNDh6oj2M7gQVrPz2r2,html-keyboard-response,114,952188,0.0-46.0-4.0-0.0-1.0-3.0,,,,,,,,,,,,,,,5cdd2e2a8b39ba00191a227e,09:27:37,03/04/2024
1193.0,,,ospan,symmetry,PVgkr87qavNDh6oj2M7gQVrPz2r2,symmetry-judgement-task,115,955283,0.0-46.0-4.0-0.0-1.0-4.0,,,,,,,,,,1.0,1.0,,,,5cdd2e2a8b39ba00191a227e,09:27:37,03/04/2024
,"<div style=""font-size: 10rem; color: #0000FF"">P</div>",,ospan,letter,PVgkr87qavNDh6oj2M7gQVrPz2r2,html-keyboard-response,116,956300,0.0-46.0-4.0-0.0-1.0-5.0,,,,,,,,,,,,,,,5cdd2e2a8b39ba00191a227e,09:27:37,03/04/2024
2281.0,,,ospan,symmetry,PVgkr87qavNDh6oj2M7gQVrPz2r2,symmetry-judgement-task,117,960497,0.0-46.0-4.0-0.0-1.0-6.0,,,,,,,,,,1.0,1.0,,,,5cdd2e2a8b39ba00191a227e,09:27:37,03/04/2024
,"<div style=""font-size: 10rem; color: #0000FF"">H</div>",,ospan,letter,PVgkr87qavNDh6oj2M7gQVrPz2r2,html-keyboard-response,118,961499,0.0-46.0-4.0-0.0-1.0-7.0,,,,,,,,,,,,,,,5cdd2e2a8b39ba00191a227e,09:27:37,03/04/2024
6289.699999988079,"<div class = numbox><p style=""font-size: 2.4rem"">Please recall the letters you saw to the best of your ability. If you do not remember a particular letter, use the SKIP button.<br><b>(When you are ready to lock in your answer, press ENTER)</b></p><button id = button_1 class = ""square num-button"" onclick = ""recordClick(this)""><div class = content><div class = numbers>C</div></div></button><button id = button_2 class = ""square num-button"" onclick = ""recordClick(this)""><div class = content><div class = numbers>G</div></div></button><button id = button_3 class = ""square num-button"" onclick = ""recordClick(this)""><div class = content><div class = numbers>H</div></div></button><button id = button_4 class = ""square num-button"" onclick = ""recordClick(this)""><div class = content><div class = numbers>J</div></div></button><button id = button_5 class = ""square num-button"" onclick = ""recordClick(this)""><div class = content><div class = numbers>K</div></div></button><button id = button_6 class = ""square num-button"" onclick = ""recordClick(this)""><div class = content><div class = numbers>L</div></div></button><button id = button_7 class = ""square num-button"" onclick = ""recordClick(this)""><div class = content><div class = numbers>N</div></div></button><button id = button_8 class = ""square num-button"" onclick = ""recordClick(this)""><div class = content><div class = numbers>P</div></div></button><button id = button_9 class = ""square num-button"" onclick = ""recordClick(this)""><div class = content><div class = numbers>Q</div></div></button><button id = button_10 class = ""square num-button"" onclick = ""recordClick(this)""><div class = content><div class = numbers>R</div></div></button><button id = button_11 class = ""square num-button"" onclick = ""recordClick(this)""><div class = content><div class = numbers>S</div></div></button><button id = button_12 class = ""square num-button"" onclick = ""recordClick(this)""><div class = content><div class = numbers>Y</div></div></button><button class = clear_button id = ""ClearButton"" onclick = ""clearResponse()"">BACKSPACE</button><button class = blank_button id = ""BlankButton"" onclick = ""blankResponse()"">SKIP</button><p style=""font-size: 2.4rem""><u><b>Current Answer:</b></u></p><br><br><div id=echoed_txt style=""font-size: 5rem; color:blue;""><b></b></div></div>",enter,ospan,retrieval,PVgkr87qavNDh6oj2M7gQVrPz2r2,html-keyboard-response,119,968541,0.0-46.0-4.0-0.0-2.0,7,7,7,4.0,"[""L"",""R"",""P"",""H""]","[""L"",""R"",""P"",""H""]",1.0,4.0,,,,,,,5cdd2e2a8b39ba00191a227e,09:27:37,03/04/2024
942.5,[''],0,ospan,feedback,PVgkr87qavNDh6oj2M7gQVrPz2r2,html-button-response,120,969992,0.0-46.0-4.0-0.0-3.0,,,,,,,,,,,,100.0,0.0,,5cdd2e2a8b39ba00191a227e,09:27:37,03/04/2024
,"<p style=""font-size:75px;"">...</p>",,ospan,iti,PVgkr87qavNDh6oj2M7gQVrPz2r2,html-keyboard-response,121,970999,0.0-46.0-4.0-1.0-0.0,,,,,,,,,,,,,,,5cdd2e2a8b39ba00191a227e,09:27:37,03/04/2024
1218.0,,,ospan,symmetry,PVgkr87qavNDh6oj2M7gQVrPz2r2,symmetry-judgement-task,122,973412,0.0-46.0-4.0-1.0-1.0-0.0,,,,,,,,,,1.0,1.0,,,,5cdd2e2a8b39ba00191a227e,09:27:37,03/04/2024
,"<div style=""font-size: 10rem; color: #0000FF"">G</div>",,ospan,letter,PVgkr87qavNDh6oj2M7gQVrPz2r2,html-keyboard-response,123,974414,0.0-46.0-4.0-1.0-1.0-1.0,,,,,,,,,,,,,,,5cdd2e2a8b39ba00191a227e,09:27:37,03/04/2024
1243.0,,,ospan,symmetry,PVgkr87qavNDh6oj2M7gQVrPz2r2,symmetry-judgement-task,124,977574,0.0-46.0-4.0-1.0-1.0-2.0,,,,,,,,,,1.0,1.0,,,,5cdd2e2a8b39ba00191a227e,09:27:37,03/04/2024
,"<div style=""font-size: 10rem; color: #0000FF"">H</div>",,ospan,letter,PVgkr87qavNDh6oj2M7gQVrPz2r2,html-keyboard-response,125,978576,0.0-46.0-4.0-1.0-1.0-3.0,,,,,,,,,,,,,,,5cdd2e2a8b39ba00191a227e,09:27:37,03/04/2024
1049.0,,,ospan,symmetry,PVgkr87qavNDh6oj2M7gQVrPz2r2,symmetry-judgement-task,126,981540,0.0-46.0-4.0-1.0-1.0-4.0,,,,,,,,,,1.0,1.0,,,,5cdd2e2a8b39ba00191a227e,09:27:37,03/04/2024
,"<div style=""font-size: 10rem; color: #0000FF"">N</div>",,ospan,letter,PVgkr87qavNDh6oj2M7gQVrPz2r2,html-keyboard-response,127,982553,0.0-46.0-4.0-1.0-1.0-5.0,,,,,,,,,,,,,,,5cdd2e2a8b39ba00191a227e,09:27:37,03/04/2024
1084.0,,,ospan,symmetry,PVgkr87qavNDh6oj2M7gQVrPz2r2,symmetry-judgement-task,128,985567,0.0-46.0-4.0-1.0-1.0-6.0,,,,,,,,,,1.0,1.0,,,,5cdd2e2a8b39ba00191a227e,09:27:37,03/04/2024
,"<div style=""font-size: 10rem; color: #0000FF"">K</div>",,ospan,letter,PVgkr87qavNDh6oj2M7gQVrPz2r2,html-keyboard-response,129,986569,0.0-46.0-4.0-1.0-1.0-7.0,,,,,,,,,,,,,,,5cdd2e2a8b39ba00191a227e,09:27:37,03/04/2024
1299.0,,,ospan,symmetry,PVgkr87qavNDh6oj2M7gQVrPz2r2,symmetry-judgement-task,130,989788,0.0-46.0-4.0-1.0-1.0-8.0,,,,,,,,,,1.0,1.0,,,,5cdd2e2a8b39ba00191a227e,09:27:37,03/04/2024
,"<div style=""font-size: 10rem; color: #0000FF"">Y</div>",,ospan,letter,PVgkr87qavNDh6oj2M7gQVrPz2r2,html-keyboard-response,131,990790,0.0-46.0-4.0-1.0-1.0-9.0,,,,,,,,,,,,,,,5cdd2e2a8b39ba00191a227e,09:27:37,03/04/2024
6057.5,"<div class = numbox><p style=""font-size: 2.4rem"">Please recall the letters you saw to the best of your ability. If you do not remember a particular letter, use the SKIP button.<br><b>(When you are ready to lock in your answer, press ENTER)</b></p><button id = button_1 class = ""square num-button"" onclick = ""recordClick(this)""><div class = content><div class = numbers>C</div></div></button><button id = button_2 class = ""square num-button"" onclick = ""recordClick(this)""><div class = content><div class = numbers>G</div></div></button><button id = button_3 class = ""square num-button"" onclick = ""recordClick(this)""><div class = content><div class = numbers>H</div></div></button><button id = button_4 class = ""square num-button"" onclick = ""recordClick(this)""><div class = content><div class = numbers>J</div></div></button><button id = button_5 class = ""square num-button"" onclick = ""recordClick(this)""><div class = content><div class = numbers>K</div></div></button><button id = button_6 class = ""square num-button"" onclick = ""recordClick(this)""><div class = content><div class = numbers>L</div></div></button><button id = button_7 class = ""square num-button"" onclick = ""recordClick(this)""><div class = content><div class = numbers>N</div></div></button><button id = button_8 class = ""square num-button"" onclick = ""recordClick(this)""><div class = content><div class = numbers>P</div></div></button><button id = button_9 class = ""square num-button"" onclick = ""recordClick(this)""><div class = content><div class = numbers>Q</div></div></button><button id = button_10 class = ""square num-button"" onclick = ""recordClick(this)""><div class = content><div class = numbers>R</div></div></button><button id = button_11 class = ""square num-button"" onclick = ""recordClick(this)""><div class = content><div class = numbers>S</div></div></button><button id = button_12 class = ""square num-button"" onclick = ""recordClick(this)""><div class = content><div class = numbers>Y</div></div></button><button class = clear_button id = ""ClearButton"" onclick = ""clearResponse()"">BACKSPACE</button><button class = blank_button id = ""BlankButton"" onclick = ""blankResponse()"">SKIP</button><p style=""font-size: 2.4rem""><u><b>Current Answer:</b></u></p><br><br><div id=echoed_txt style=""font-size: 5rem; color:blue;""><b></b></div></div>",enter,ospan,retrieval,PVgkr87qavNDh6oj2M7gQVrPz2r2,html-keyboard-response,132,997613,0.0-46.0-4.0-1.0-2.0,12,12,12,5.0,"[""G"",""H"",""N"",""K"",""Y""]","[""G"",""H"",""N"",""K"",""Y""]",1.0,5.0,,,,,,,5cdd2e2a8b39ba00191a227e,09:27:37,03/04/2024
1004.5999999940395,[''],0,ospan,feedback,PVgkr87qavNDh6oj2M7gQVrPz2r2,html-button-response,133,999120,0.0-46.0-4.0-1.0-3.0,,,,,,,,,,,,100.0,0.0,,5cdd2e2a8b39ba00191a227e,09:27:37,03/04/2024
,"<p style=""font-size:75px;"">...</p>",,ospan,iti,PVgkr87qavNDh6oj2M7gQVrPz2r2,html-keyboard-response,134,1000137,0.0-46.0-4.0-2.0-0.0,,,,,,,,,,,,,,,5cdd2e2a8b39ba00191a227e,09:27:37,03/04/2024
1045.0,,,ospan,symmetry,PVgkr87qavNDh6oj2M7gQVrPz2r2,symmetry-judgement-task,135,1002331,0.0-46.0-4.0-2.0-1.0-0.0,,,,,,,,,,1.0,1.0,,,,5cdd2e2a8b39ba00191a227e,09:27:37,03/04/2024
,"<div style=""font-size: 10rem; color: #0000FF"">L</div>",,ospan,letter,PVgkr87qavNDh6oj2M7gQVrPz2r2,html-keyboard-response,136,1003334,0.0-46.0-4.0-2.0-1.0-1.0,,,,,,,,,,,,,,,5cdd2e2a8b39ba00191a227e,09:27:37,03/04/2024
953.0,,,ospan,symmetry,PVgkr87qavNDh6oj2M7gQVrPz2r2,symmetry-judgement-task,137,1006223,0.0-46.0-4.0-2.0-1.0-2.0,,,,,,,,,,1.0,1.0,,,,5cdd2e2a8b39ba00191a227e,09:27:37,03/04/2024
,"<div style=""font-size: 10rem; color: #0000FF"">Q</div>",,ospan,letter,PVgkr87qavNDh6oj2M7gQVrPz2r2,html-keyboard-response,138,1007237,0.0-46.0-4.0-2.0-1.0-3.0,,,,,,,,,,,,,,,5cdd2e2a8b39ba00191a227e,09:27:37,03/04/2024
886.0,,,ospan,symmetry,PVgkr87qavNDh6oj2M7gQVrPz2r2,symmetry-judgement-task,139,1010034,0.0-46.0-4.0-2.0-1.0-4.0,,,,,,,,,,1.0,1.0,,,,5cdd2e2a8b39ba00191a227e,09:27:37,03/04/2024
,"<div style=""font-size: 10rem; color: #0000FF"">R</div>",,ospan,letter,PVgkr87qavNDh6oj2M7gQVrPz2r2,html-keyboard-response,140,1011050,0.0-46.0-4.0-2.0-1.0-5.0,,,,,,,,,,,,,,,5cdd2e2a8b39ba00191a227e,09:27:37,03/04/2024
4168.0,"<div class = numbox><p style=""font-size: 2.4rem"">Please recall the letters you saw to the best of your ability. If you do not remember a particular letter, use the SKIP button.<br><b>(When you are ready to lock in your answer, press ENTER)</b></p><button id = button_1 class = ""square num-button"" onclick = ""recordClick(this)""><div class = content><div class = numbers>C</div></div></button><button id = button_2 class = ""square num-button"" onclick = ""recordClick(this)""><div class = content><div class = numbers>G</div></div></button><button id = button_3 class = ""square num-button"" onclick = ""recordClick(this)""><div class = content><div class = numbers>H</div></div></button><button id = button_4 class = ""square num-button"" onclick = ""recordClick(this)""><div class = content><div class = numbers>J</div></div></button><button id = button_5 class = ""square num-button"" onclick = ""recordClick(this)""><div class = content><div class = numbers>K</div></div></button><button id = button_6 class = ""square num-button"" onclick = ""recordClick(this)""><div class = content><div class = numbers>L</div></div></button><button id = button_7 class = ""square num-button"" onclick = ""recordClick(this)""><div class = content><div class = numbers>N</div></div></button><button id = button_8 class = ""square num-button"" onclick = ""recordClick(this)""><div class = content><div class = numbers>P</div></div></button><button id = button_9 class = ""square num-button"" onclick = ""recordClick(this)""><div class = content><div class = numbers>Q</div></div></button><button id = button_10 class = ""square num-button"" onclick = ""recordClick(this)""><div class = content><div class = numbers>R</div></div></button><button id = button_11 class = ""square num-button"" onclick = ""recordClick(this)""><div class = content><div class = numbers>S</div></div></button><button id = button_12 class = ""square num-button"" onclick = ""recordClick(this)""><div class = content><div class = numbers>Y</div></div></button><button class = clear_button id = ""ClearButton"" onclick = ""clearResponse()"">BACKSPACE</button><button class = blank_button id = ""BlankButton"" onclick = ""blankResponse()"">SKIP</button><p style=""font-size: 2.4rem""><u><b>Current Answer:</b></u></p><br><br><div id=echoed_txt style=""font-size: 5rem; color:blue;""><b></b></div></div>",enter,ospan,retrieval,PVgkr87qavNDh6oj2M7gQVrPz2r2,html-keyboard-response,141,1015970,0.0-46.0-4.0-2.0-2.0,15,15,15,3.0,"[""L"",""Q"",""R""]","[""L"",""Q"",""R""]",1.0,3.0,,,,,,,5cdd2e2a8b39ba00191a227e,09:27:37,03/04/2024
1071.199999988079,[''],0,ospan,feedback,PVgkr87qavNDh6oj2M7gQVrPz2r2,html-button-response,142,1017559,0.0-46.0-4.0-2.0-3.0,,,,,,,,,,,,100.0,0.0,,5cdd2e2a8b39ba00191a227e,09:27:37,03/04/2024
,"<p style=""font-size:75px;"">...</p>",,ospan,iti,PVgkr87qavNDh6oj2M7gQVrPz2r2,html-keyboard-response,143,1018567,0.0-46.0-5.0-0.0-0.0,,,,,,,,,,,,,,,5cdd2e2a8b39ba00191a227e,09:27:37,03/04/2024
1691.0,,,ospan,symmetry,PVgkr87qavNDh6oj2M7gQVrPz2r2,symmetry-judgement-task,144,1021299,0.0-46.0-5.0-0.0-1.0-0.0,,,,,,,,,,1.0,1.0,,,,5cdd2e2a8b39ba00191a227e,09:27:37,03/04/2024
,"<div style=""font-size: 10rem; color: #0000FF"">S</div>",,ospan,letter,PVgkr87qavNDh6oj2M7gQVrPz2r2,html-keyboard-response,145,1022313,0.0-46.0-5.0-0.0-1.0-1.0,,,,,,,,,,,,,,,5cdd2e2a8b39ba00191a227e,09:27:37,03/04/2024
1192.0,,,ospan,symmetry,PVgkr87qavNDh6oj2M7gQVrPz2r2,symmetry-judgement-task,146,1025405,0.0-46.0-5.0-0.0-1.0-2.0,,,,,,,,,,1.0,1.0,,,,5cdd2e2a8b39ba00191a227e,09:27:37,03/04/2024
,"<div style=""font-size: 10rem; color: #0000FF"">H</div>",,ospan,letter,PVgkr87qavNDh6oj2M7gQVrPz2r2,html-keyboard-response,147,1026418,0.0-46.0-5.0-0.0-1.0-3.0,,,,,,,,,,,,,,,5cdd2e2a8b39ba00191a227e,09:27:37,03/04/2024
1454.0,,,ospan,symmetry,PVgkr87qavNDh6oj2M7gQVrPz2r2,symmetry-judgement-task,148,1029780,0.0-46.0-5.0-0.0-1.0-4.0,,,,,,,,,,1.0,1.0,,,,5cdd2e2a8b39ba00191a227e,09:27:37,03/04/2024
,"<div style=""font-size: 10rem; color: #0000FF"">J</div>",,ospan,letter,PVgkr87qavNDh6oj2M7gQVrPz2r2,html-keyboard-response,149,1030782,0.0-46.0-5.0-0.0-1.0-5.0,,,,,,,,,,,,,,,5cdd2e2a8b39ba00191a227e,09:27:37,03/04/2024
1205.0,,,ospan,symmetry,PVgkr87qavNDh6oj2M7gQVrPz2r2,symmetry-judgement-task,150,1033894,0.0-46.0-5.0-0.0-1.0-6.0,,,,,,,,,,1.0,1.0,,,,5cdd2e2a8b39ba00191a227e,09:27:37,03/04/2024
,"<div style=""font-size: 10rem; color: #0000FF"">L</div>",,ospan,letter,PVgkr87qavNDh6oj2M7gQVrPz2r2,html-keyboard-response,151,1034898,0.0-46.0-5.0-0.0-1.0-7.0,,,,,,,,,,,,,,,5cdd2e2a8b39ba00191a227e,09:27:37,03/04/2024
1064.0,,,ospan,symmetry,PVgkr87qavNDh6oj2M7gQVrPz2r2,symmetry-judgement-task,152,1037883,0.0-46.0-5.0-0.0-1.0-8.0,,,,,,,,,,1.0,1.0,,,,5cdd2e2a8b39ba00191a227e,09:27:37,03/04/2024
,"<div style=""font-size: 10rem; color: #0000FF"">N</div>",,ospan,letter,PVgkr87qavNDh6oj2M7gQVrPz2r2,html-keyboard-response,153,1038888,0.0-46.0-5.0-0.0-1.0-9.0,,,,,,,,,,,,,,,5cdd2e2a8b39ba00191a227e,09:27:37,03/04/2024
1157.0,,,ospan,symmetry,PVgkr87qavNDh6oj2M7gQVrPz2r2,symmetry-judgement-task,154,1041971,0.0-46.0-5.0-0.0-1.0-10.0,,,,,,,,,,1.0,1.0,,,,5cdd2e2a8b39ba00191a227e,09:27:37,03/04/2024
,"<div style=""font-size: 10rem; color: #0000FF"">G</div>",,ospan,letter,PVgkr87qavNDh6oj2M7gQVrPz2r2,html-keyboard-response,155,1042986,0.0-46.0-5.0-0.0-1.0-11.0,,,,,,,,,,,,,,,5cdd2e2a8b39ba00191a227e,09:27:37,03/04/2024
7631.9000000059605,"<div class = numbox><p style=""font-size: 2.4rem"">Please recall the letters you saw to the best of your ability. If you do not remember a particular letter, use the SKIP button.<br><b>(When you are ready to lock in your answer, press ENTER)</b></p><button id = button_1 class = ""square num-button"" onclick = ""recordClick(this)""><div class = content><div class = numbers>C</div></div></button><button id = button_2 class = ""square num-button"" onclick = ""recordClick(this)""><div class = content><div class = numbers>G</div></div></button><button id = button_3 class = ""square num-button"" onclick = ""recordClick(this)""><div class = content><div class = numbers>H</div></div></button><button id = button_4 class = ""square num-button"" onclick = ""recordClick(this)""><div class = content><div class = numbers>J</div></div></button><button id = button_5 class = ""square num-button"" onclick = ""recordClick(this)""><div class = content><div class = numbers>K</div></div></button><button id = button_6 class = ""square num-button"" onclick = ""recordClick(this)""><div class = content><div class = numbers>L</div></div></button><button id = button_7 class = ""square num-button"" onclick = ""recordClick(this)""><div class = content><div class = numbers>N</div></div></button><button id = button_8 class = ""square num-button"" onclick = ""recordClick(this)""><div class = content><div class = numbers>P</div></div></button><button id = button_9 class = ""square num-button"" onclick = ""recordClick(this)""><div class = content><div class = numbers>Q</div></div></button><button id = button_10 class = ""square num-button"" onclick = ""recordClick(this)""><div class = content><div class = numbers>R</div></div></button><button id = button_11 class = ""square num-button"" onclick = ""recordClick(this)""><div class = content><div class = numbers>S</div></div></button><button id = button_12 class = ""square num-button"" onclick = ""recordClick(this)""><div class = content><div class = numbers>Y</div></div></button><button class = clear_button id = ""ClearButton"" onclick = ""clearResponse()"">BACKSPACE</button><button class = blank_button id = ""BlankButton"" onclick = ""blankResponse()"">SKIP</button><p style=""font-size: 2.4rem""><u><b>Current Answer:</b></u></p><br><br><div id=echoed_txt style=""font-size: 5rem; color:blue;""><b></b></div></div>",enter,ospan,retrieval,PVgkr87qavNDh6oj2M7gQVrPz2r2,html-keyboard-response,156,1051378,0.0-46.0-5.0-0.0-2.0,21,18,15,6.0,"[""S"",""K"",""J"",""G"",""N""]","[""S"",""H"",""J"",""L"",""N"",""G""]",0.0,3.0,,,,,,,5cdd2e2a8b39ba00191a227e,09:27:37,03/04/2024
1106.699999988079,[''],0,ospan,feedback,PVgkr87qavNDh6oj2M7gQVrPz2r2,html-button-response,157,1052992,0.0-46.0-5.0-0.0-3.0,,,,,,,,,,,,100.0,0.0,,5cdd2e2a8b39ba00191a227e,09:27:37,03/04/2024
,"<p style=""font-size:75px;"">...</p>",,ospan,iti,PVgkr87qavNDh6oj2M7gQVrPz2r2,html-keyboard-response,158,1054008,0.0-46.0-5.0-1.0-0.0,,,,,,,,,,,,,,,5cdd2e2a8b39ba00191a227e,09:27:37,03/04/2024
1216.0,,,ospan,symmetry,PVgkr87qavNDh6oj2M7gQVrPz2r2,symmetry-judgement-task,159,1056399,0.0-46.0-5.0-1.0-1.0-0.0,,,,,,,,,,1.0,1.0,,,,5cdd2e2a8b39ba00191a227e,09:27:37,03/04/2024
,"<div style=""font-size: 10rem; color: #0000FF"">K</div>",,ospan,letter,PVgkr87qavNDh6oj2M7gQVrPz2r2,html-keyboard-response,160,1057413,0.0-46.0-5.0-1.0-1.0-1.0,,,,,,,,,,,,,,,5cdd2e2a8b39ba00191a227e,09:27:37,03/04/2024
1034.0,,,ospan,symmetry,PVgkr87qavNDh6oj2M7gQVrPz2r2,symmetry-judgement-task,161,1060352,0.0-46.0-5.0-1.0-1.0-2.0,,,,,,,,,,1.0,1.0,,,,5cdd2e2a8b39ba00191a227e,09:27:37,03/04/2024
,"<div style=""font-size: 10rem; color: #0000FF"">H</div>",,ospan,letter,PVgkr87qavNDh6oj2M7gQVrPz2r2,html-keyboard-response,162,1061368,0.0-46.0-5.0-1.0-1.0-3.0,,,,,,,,,,,,,,,5cdd2e2a8b39ba00191a227e,09:27:37,03/04/2024
950.0,,,ospan,symmetry,PVgkr87qavNDh6oj2M7gQVrPz2r2,symmetry-judgement-task,163,1064209,0.0-46.0-5.0-1.0-1.0-4.0,,,,,,,,,,1.0,1.0,,,,5cdd2e2a8b39ba00191a227e,09:27:37,03/04/2024
,"<div style=""font-size: 10rem; color: #0000FF"">N</div>",,ospan,letter,PVgkr87qavNDh6oj2M7gQVrPz2r2,html-keyboard-response,164,1065220,0.0-46.0-5.0-1.0-1.0-5.0,,,,,,,,,,,,,,,5cdd2e2a8b39ba00191a227e,09:27:37,03/04/2024
1108.0,,,ospan,symmetry,PVgkr87qavNDh6oj2M7gQVrPz2r2,symmetry-judgement-task,165,1068245,0.0-46.0-5.0-1.0-1.0-6.0,,,,,,,,,,1.0,1.0,,,,5cdd2e2a8b39ba00191a227e,09:27:37,03/04/2024
,"<div style=""font-size: 10rem; color: #0000FF"">J</div>",,ospan,letter,PVgkr87qavNDh6oj2M7gQVrPz2r2,html-keyboard-response,166,1069256,0.0-46.0-5.0-1.0-1.0-7.0,,,,,,,,,,,,,,,5cdd2e2a8b39ba00191a227e,09:27:37,03/04/2024
1057.0,,,ospan,symmetry,PVgkr87qavNDh6oj2M7gQVrPz2r2,symmetry-judgement-task,167,1072214,0.0-46.0-5.0-1.0-1.0-8.0,,,,,,,,,,1.0,1.0,,,,5cdd2e2a8b39ba00191a227e,09:27:37,03/04/2024
,"<div style=""font-size: 10rem; color: #0000FF"">P</div>",,ospan,letter,PVgkr87qavNDh6oj2M7gQVrPz2r2,html-keyboard-response,168,1073228,0.0-46.0-5.0-1.0-1.0-9.0,,,,,,,,,,,,,,,5cdd2e2a8b39ba00191a227e,09:27:37,03/04/2024
1182.0,,,ospan,symmetry,PVgkr87qavNDh6oj2M7gQVrPz2r2,symmetry-judgement-task,169,1076333,0.0-46.0-5.0-1.0-1.0-10.0,,,,,,,,,,1.0,1.0,,,,5cdd2e2a8b39ba00191a227e,09:27:37,03/04/2024
,"<div style=""font-size: 10rem; color: #0000FF"">S</div>",,ospan,letter,PVgkr87qavNDh6oj2M7gQVrPz2r2,html-keyboard-response,170,1077349,0.0-46.0-5.0-1.0-1.0-11.0,,,,,,,,,,,,,,,5cdd2e2a8b39ba00191a227e,09:27:37,03/04/2024
1069.0,,,ospan,symmetry,PVgkr87qavNDh6oj2M7gQVrPz2r2,symmetry-judgement-task,171,1080327,0.0-46.0-5.0-1.0-1.0-12.0,,,,,,,,,,1.0,1.0,,,,5cdd2e2a8b39ba00191a227e,09:27:37,03/04/2024
,"<div style=""font-size: 10rem; color: #0000FF"">G</div>",,ospan,letter,PVgkr87qavNDh6oj2M7gQVrPz2r2,html-keyboard-response,172,1081331,0.0-46.0-5.0-1.0-1.0-13.0,,,,,,,,,,,,,,,5cdd2e2a8b39ba00191a227e,09:27:37,03/04/2024
6267.700000017881,"<div class = numbox><p style=""font-size: 2.4rem"">Please recall the letters you saw to the best of your ability. If you do not remember a particular letter, use the SKIP button.<br><b>(When you are ready to lock in your answer, press ENTER)</b></p><button id = button_1 class = ""square num-button"" onclick = ""recordClick(this)""><div class = content><div class = numbers>C</div></div></button><button id = button_2 class = ""square num-button"" onclick = ""recordClick(this)""><div class = content><div class = numbers>G</div></div></button><button id = button_3 class = ""square num-button"" onclick = ""recordClick(this)""><div class = content><div class = numbers>H</div></div></button><button id = button_4 class = ""square num-button"" onclick = ""recordClick(this)""><div class = content><div class = numbers>J</div></div></button><button id = button_5 class = ""square num-button"" onclick = ""recordClick(this)""><div class = content><div class = numbers>K</div></div></button><button id = button_6 class = ""square num-button"" onclick = ""recordClick(this)""><div class = content><div class = numbers>L</div></div></button><button id = button_7 class = ""square num-button"" onclick = ""recordClick(this)""><div class = content><div class = numbers>N</div></div></button><button id = button_8 class = ""square num-button"" onclick = ""recordClick(this)""><div class = content><div class = numbers>P</div></div></button><button id = button_9 class = ""square num-button"" onclick = ""recordClick(this)""><div class = content><div class = numbers>Q</div></div></button><button id = button_10 class = ""square num-button"" onclick = ""recordClick(this)""><div class = content><div class = numbers>R</div></div></button><button id = button_11 class = ""square num-button"" onclick = ""recordClick(this)""><div class = content><div class = numbers>S</div></div></button><button id = button_12 class = ""square num-button"" onclick = ""recordClick(this)""><div class = content><div class = numbers>Y</div></div></button><button class = clear_button id = ""ClearButton"" onclick = ""clearResponse()"">BACKSPACE</button><button class = blank_button id = ""BlankButton"" onclick = ""blankResponse()"">SKIP</button><p style=""font-size: 2.4rem""><u><b>Current Answer:</b></u></p><br><br><div id=echoed_txt style=""font-size: 5rem; color:blue;""><b></b></div></div>",enter,ospan,retrieval,PVgkr87qavNDh6oj2M7gQVrPz2r2,html-keyboard-response,173,1088350,0.0-46.0-5.0-1.0-2.0,28,21,15,7.0,"[""K"",""H"",""N"",""P"",""S"",""G""]","[""K"",""H"",""N"",""J"",""P"",""S"",""G""]",0.0,3.0,,,,,,,5cdd2e2a8b39ba00191a227e,09:27:37,03/04/2024
1189.1000000238419,[''],0,ospan,feedback,PVgkr87qavNDh6oj2M7gQVrPz2r2,html-button-response,174,1090048,0.0-46.0-5.0-1.0-3.0,,,,,,,,,,,,100.0,0.0,,5cdd2e2a8b39ba00191a227e,09:27:37,03/04/2024
,"<p style=""font-size:75px;"">...</p>",,ospan,iti,PVgkr87qavNDh6oj2M7gQVrPz2r2,html-keyboard-response,175,1091053,0.0-46.0-6.0-0.0-0.0,,,,,,,,,,,,,,,5cdd2e2a8b39ba00191a227e,09:27:37,03/04/2024
1287.0,,,ospan,symmetry,PVgkr87qavNDh6oj2M7gQVrPz2r2,symmetry-judgement-task,176,1093492,0.0-46.0-6.0-0.0-1.0-0.0,,,,,,,,,,1.0,1.0,,,,5cdd2e2a8b39ba00191a227e,09:27:37,03/04/2024
,"<div style=""font-size: 10rem; color: #0000FF"">K</div>",,ospan,letter,PVgkr87qavNDh6oj2M7gQVrPz2r2,html-keyboard-response,177,1094505,0.0-46.0-6.0-0.0-1.0-1.0,,,,,,,,,,,,,,,5cdd2e2a8b39ba00191a227e,09:27:37,03/04/2024
1099.0,,,ospan,symmetry,PVgkr87qavNDh6oj2M7gQVrPz2r2,symmetry-judgement-task,178,1097535,0.0-46.0-6.0-0.0-1.0-2.0,,,,,,,,,,1.0,1.0,,,,5cdd2e2a8b39ba00191a227e,09:27:37,03/04/2024
,"<div style=""font-size: 10rem; color: #0000FF"">N</div>",,ospan,letter,PVgkr87qavNDh6oj2M7gQVrPz2r2,html-keyboard-response,179,1098542,0.0-46.0-6.0-0.0-1.0-3.0,,,,,,,,,,,,,,,5cdd2e2a8b39ba00191a227e,09:27:37,03/04/2024
1015.0,,,ospan,symmetry,PVgkr87qavNDh6oj2M7gQVrPz2r2,symmetry-judgement-task,180,1101457,0.0-46.0-6.0-0.0-1.0-4.0,,,,,,,,,,1.0,1.0,,,,5cdd2e2a8b39ba00191a227e,09:27:37,03/04/2024
,"<div style=""font-size: 10rem; color: #0000FF"">C</div>",,ospan,letter,PVgkr87qavNDh6oj2M7gQVrPz2r2,html-keyboard-response,181,1102460,0.0-46.0-6.0-0.0-1.0-5.0,,,,,,,,,,,,,,,5cdd2e2a8b39ba00191a227e,09:27:37,03/04/2024
1081.0,,,ospan,symmetry,PVgkr87qavNDh6oj2M7gQVrPz2r2,symmetry-judgement-task,182,1105460,0.0-46.0-6.0-0.0-1.0-6.0,,,,,,,,,,1.0,1.0,,,,5cdd2e2a8b39ba00191a227e,09:27:37,03/04/2024
,"<div style=""font-size: 10rem; color: #0000FF"">J</div>",,ospan,letter,PVgkr87qavNDh6oj2M7gQVrPz2r2,html-keyboard-response,183,1106476,0.0-46.0-6.0-0.0-1.0-7.0,,,,,,,,,,,,,,,5cdd2e2a8b39ba00191a227e,09:27:37,03/04/2024
1062.0,,,ospan,symmetry,PVgkr87qavNDh6oj2M7gQVrPz2r2,symmetry-judgement-task,184,1109430,0.0-46.0-6.0-0.0-1.0-8.0,,,,,,,,,,1.0,1.0,,,,5cdd2e2a8b39ba00191a227e,09:27:37,03/04/2024
,"<div style=""font-size: 10rem; color: #0000FF"">H</div>",,ospan,letter,PVgkr87qavNDh6oj2M7gQVrPz2r2,html-keyboard-response,185,1110444,0.0-46.0-6.0-0.0-1.0-9.0,,,,,,,,,,,,,,,5cdd2e2a8b39ba00191a227e,09:27:37,03/04/2024
6318.700000017881,"<div class = numbox><p style=""font-size: 2.4rem"">Please recall the letters you saw to the best of your ability. If you do not remember a particular letter, use the SKIP button.<br><b>(When you are ready to lock in your answer, press ENTER)</b></p><button id = button_1 class = ""square num-button"" onclick = ""recordClick(this)""><div class = content><div class = numbers>C</div></div></button><button id = button_2 class = ""square num-button"" onclick = ""recordClick(this)""><div class = content><div class = numbers>G</div></div></button><button id = button_3 class = ""square num-button"" onclick = ""recordClick(this)""><div class = content><div class = numbers>H</div></div></button><button id = button_4 class = ""square num-button"" onclick = ""recordClick(this)""><div class = content><div class = numbers>J</div></div></button><button id = button_5 class = ""square num-button"" onclick = ""recordClick(this)""><div class = content><div class = numbers>K</div></div></button><button id = button_6 class = ""square num-button"" onclick = ""recordClick(this)""><div class = content><div class = numbers>L</div></div></button><button id = button_7 class = ""square num-button"" onclick = ""recordClick(this)""><div class = content><div class = numbers>N</div></div></button><button id = button_8 class = ""square num-button"" onclick = ""recordClick(this)""><div class = content><div class = numbers>P</div></div></button><button id = button_9 class = ""square num-button"" onclick = ""recordClick(this)""><div class = content><div class = numbers>Q</div></div></button><button id = button_10 class = ""square num-button"" onclick = ""recordClick(this)""><div class = content><div class = numbers>R</div></div></button><button id = button_11 class = ""square num-button"" onclick = ""recordClick(this)""><div class = content><div class = numbers>S</div></div></button><button id = button_12 class = ""square num-button"" onclick = ""recordClick(this)""><div class = content><div class = numbers>Y</div></div></button><button class = clear_button id = ""ClearButton"" onclick = ""clearResponse()"">BACKSPACE</button><button class = blank_button id = ""BlankButton"" onclick = ""blankResponse()"">SKIP</button><p style=""font-size: 2.4rem""><u><b>Current Answer:</b></u></p><br><br><div id=echoed_txt style=""font-size: 5rem; color:blue;""><b></b></div></div>",enter,ospan,retrieval,PVgkr87qavNDh6oj2M7gQVrPz2r2,html-keyboard-response,186,1117530,0.0-46.0-6.0-0.0-2.0,33,23,15,5.0,"[""K"",""H"",""C"",""N"",""J""]","[""K"",""N"",""C"",""J"",""H""]",0.0,2.0,,,,,,,5cdd2e2a8b39ba00191a227e,09:27:37,03/04/2024
946.5999999940395,[''],0,ospan,feedback,PVgkr87qavNDh6oj2M7gQVrPz2r2,html-button-response,187,1118984,0.0-46.0-6.0-0.0-3.0,,,,,,,,,,,,100.0,0.0,,5cdd2e2a8b39ba00191a227e,09:27:37,03/04/2024
,"<p style=""font-size:75px;"">...</p>",,ospan,iti,PVgkr87qavNDh6oj2M7gQVrPz2r2,html-keyboard-response,188,1119989,0.0-46.0-6.0-1.0-0.0,,,,,,,,,,,,,,,5cdd2e2a8b39ba00191a227e,09:27:37,03/04/2024
1539.0,,,ospan,symmetry,PVgkr87qavNDh6oj2M7gQVrPz2r2,symmetry-judgement-task,189,1122693,0.0-46.0-6.0-1.0-1.0-0.0,,,,,,,,,,1.0,1.0,,,,5cdd2e2a8b39ba00191a227e,09:27:37,03/04/2024
,"<div style=""font-size: 10rem; color: #0000FF"">S</div>",,ospan,letter,PVgkr87qavNDh6oj2M7gQVrPz2r2,html-keyboard-response,190,1123697,0.0-46.0-6.0-1.0-1.0-1.0,,,,,,,,,,,,,,,5cdd2e2a8b39ba00191a227e,09:27:37,03/04/2024
1041.0,,,ospan,symmetry,PVgkr87qavNDh6oj2M7gQVrPz2r2,symmetry-judgement-task,191,1126637,0.0-46.0-6.0-1.0-1.0-2.0,,,,,,,,,,1.0,1.0,,,,5cdd2e2a8b39ba00191a227e,09:27:37,03/04/2024
,"<div style=""font-size: 10rem; color: #0000FF"">K</div>",,ospan,letter,PVgkr87qavNDh6oj2M7gQVrPz2r2,html-keyboard-response,192,1127638,0.0-46.0-6.0-1.0-1.0-3.0,,,,,,,,,,,,,,,5cdd2e2a8b39ba00191a227e,09:27:37,03/04/2024
906.0,,,ospan,symmetry,PVgkr87qavNDh6oj2M7gQVrPz2r2,symmetry-judgement-task,193,1130444,0.0-46.0-6.0-1.0-1.0-4.0,,,,,,,,,,1.0,1.0,,,,5cdd2e2a8b39ba00191a227e,09:27:37,03/04/2024
,"<div style=""font-size: 10rem; color: #0000FF"">R</div>",,ospan,letter,PVgkr87qavNDh6oj2M7gQVrPz2r2,html-keyboard-response,194,1131456,0.0-46.0-6.0-1.0-1.0-5.0,,,,,,,,,,,,,,,5cdd2e2a8b39ba00191a227e,09:27:37,03/04/2024
984.0,,,ospan,symmetry,PVgkr87qavNDh6oj2M7gQVrPz2r2,symmetry-judgement-task,195,1134355,0.0-46.0-6.0-1.0-1.0-6.0,,,,,,,,,,1.0,1.0,,,,5cdd2e2a8b39ba00191a227e,09:27:37,03/04/2024
,"<div style=""font-size: 10rem; color: #0000FF"">C</div>",,ospan,letter,PVgkr87qavNDh6oj2M7gQVrPz2r2,html-keyboard-response,196,1135369,0.0-46.0-6.0-1.0-1.0-7.0,,,,,,,,,,,,,,,5cdd2e2a8b39ba00191a227e,09:27:37,03/04/2024
1276.0,,,ospan,symmetry,PVgkr87qavNDh6oj2M7gQVrPz2r2,symmetry-judgement-task,197,1138582,0.0-46.0-6.0-1.0-1.0-8.0,,,,,,,,,,0.0,0.0,,,,5cdd2e2a8b39ba00191a227e,09:27:37,03/04/2024
,"<div style=""font-size: 10rem; color: #0000FF"">J</div>",,ospan,letter,PVgkr87qavNDh6oj2M7gQVrPz2r2,html-keyboard-response,198,1139585,0.0-46.0-6.0-1.0-1.0-9.0,,,,,,,,,,,,,,,5cdd2e2a8b39ba00191a227e,09:27:37,03/04/2024
1411.0,,,ospan,symmetry,PVgkr87qavNDh6oj2M7gQVrPz2r2,symmetry-judgement-task,199,1142905,0.0-46.0-6.0-1.0-1.0-10.0,,,,,,,,,,1.0,1.0,,,,5cdd2e2a8b39ba00191a227e,09:27:37,03/04/2024
,"<div style=""font-size: 10rem; color: #0000FF"">L</div>",,ospan,letter,PVgkr87qavNDh6oj2M7gQVrPz2r2,html-keyboard-response,200,1143918,0.0-46.0-6.0-1.0-1.0-11.0,,,,,,,,,,,,,,,5cdd2e2a8b39ba00191a227e,09:27:37,03/04/2024
1161.0,,,ospan,symmetry,PVgkr87qavNDh6oj2M7gQVrPz2r2,symmetry-judgement-task,201,1146981,0.0-46.0-6.0-1.0-1.0-12.0,,,,,,,,,,1.0,1.0,,,,5cdd2e2a8b39ba00191a227e,09:27:37,03/04/2024
,"<div style=""font-size: 10rem; color: #0000FF"">Q</div>",,ospan,letter,PVgkr87qavNDh6oj2M7gQVrPz2r2,html-keyboard-response,202,1147987,0.0-46.0-6.0-1.0-1.0-13.0,,,,,,,,,,,,,,,5cdd2e2a8b39ba00191a227e,09:27:37,03/04/2024
962.0,,,ospan,symmetry,PVgkr87qavNDh6oj2M7gQVrPz2r2,symmetry-judgement-task,203,1150868,0.0-46.0-6.0-1.0-1.0-14.0,,,,,,,,,,1.0,1.0,,,,5cdd2e2a8b39ba00191a227e,09:27:37,03/04/2024
,"<div style=""font-size: 10rem; color: #0000FF"">Y</div>",,ospan,letter,PVgkr87qavNDh6oj2M7gQVrPz2r2,html-keyboard-response,204,1151873,0.0-46.0-6.0-1.0-1.0-15.0,,,,,,,,,,,,,,,5cdd2e2a8b39ba00191a227e,09:27:37,03/04/2024
6860.799999982119,"<div class = numbox><p style=""font-size: 2.4rem"">Please recall the letters you saw to the best of your ability. If you do not remember a particular letter, use the SKIP button.<br><b>(When you are ready to lock in your answer, press ENTER)</b></p><button id = button_1 class = ""square num-button"" onclick = ""recordClick(this)""><div class = content><div class = numbers>C</div></div></button><button id = button_2 class = ""square num-button"" onclick = ""recordClick(this)""><div class = content><div class = numbers>G</div></div></button><button id = button_3 class = ""square num-button"" onclick = ""recordClick(this)""><div class = content><div class = numbers>H</div></div></button><button id = button_4 class = ""square num-button"" onclick = ""recordClick(this)""><div class = content><div class = numbers>J</div></div></button><button id = button_5 class = ""square num-button"" onclick = ""recordClick(this)""><div class = content><div class = numbers>K</div></div></button><button id = button_6 class = ""square num-button"" onclick = ""recordClick(this)""><div class = content><div class = numbers>L</div></div></button><button id = button_7 class = ""square num-button"" onclick = ""recordClick(this)""><div class = content><div class = numbers>N</div></div></button><button id = button_8 class = ""square num-button"" onclick = ""recordClick(this)""><div class = content><div class = numbers>P</div></div></button><button id = button_9 class = ""square num-button"" onclick = ""recordClick(this)""><div class = content><div class = numbers>Q</div></div></button><button id = button_10 class = ""square num-button"" onclick = ""recordClick(this)""><div class = content><div class = numbers>R</div></div></button><button id = button_11 class = ""square num-button"" onclick = ""recordClick(this)""><div class = content><div class = numbers>S</div></div></button><button id = button_12 class = ""square num-button"" onclick = ""recordClick(this)""><div class = content><div class = numbers>Y</div></div></button><button class = clear_button id = ""ClearButton"" onclick = ""clearResponse()"">BACKSPACE</button><button class = blank_button id = ""BlankButton"" onclick = ""blankResponse()"">SKIP</button><p style=""font-size: 2.4rem""><u><b>Current Answer:</b></u></p><br><br><div id=echoed_txt style=""font-size: 5rem; color:blue;""><b></b></div></div>",enter,ospan,retrieval,PVgkr87qavNDh6oj2M7gQVrPz2r2,html-keyboard-response,205,1159498,0.0-46.0-6.0-1.0-2.0,41,27,15,8.0,"[""S"",""K"",""R"",""C"",""Y""]","[""S"",""K"",""R"",""C"",""J"",""L"",""Q"",""Y""]",0.0,4.0,,,,,,,5cdd2e2a8b39ba00191a227e,09:27:37,03/04/2024
934.5999999940395,[''],0,ospan,feedback,PVgkr87qavNDh6oj2M7gQVrPz2r2,html-button-response,206,1160944,0.0-46.0-6.0-1.0-3.0,,,,,,,,,,,,98.0,0.0,,5cdd2e2a8b39ba00191a227e,09:27:37,03/04/2024
55796.70000001788,,"{'Q0': 'A tricky task! Overall, I did enjoy the experiment. It is probably a tad too difficult, however, I still think it was a fun task.'}",ospan,survey_ospan,PVgkr87qavNDh6oj2M7gQVrPz2r2,lmdlab-survey-text,207,1217495,0.0-46.0-7.0,,,,,,,,,,,,,,PVgkr87qavNDh6oj2M7gQVrPz2r2,5cdd2e2a8b39ba00191a227e,09:27:37,03/04/2024
1343.5999999940395,<p><p style='font-size: 3rem'>Great work!<br><br>This completes the symmetry and memory task.</p><br><br><br>,0,ospan,finish,PVgkr87qavNDh6oj2M7gQVrPz2r2,html-button-response,208,1218840,0.0-46.0-8.0,41,27,15,,,,,,,,,98.0,,,5cdd2e2a8b39ba00191a227e,09:27:37,03/04/2024
