rt,stimulus,response,exp_name,exp_stage,subjectID,trial_type,trial_index,time_elapsed,internal_node_id,ospan_shown,ospan_total,ospan_abs,length,resp_actual,resp_correct,full_correct,num_correct,feedback,accuracy,correct,math_acc,math_warning,databaseID,prolificID,start_time,date
1986.0,<div class = 'left_align' style='font-size: 3.25rem; line-height: 1.3;'><p class = 'center_align'><b>Welcome to the Symmetry and Memory Task</b><br><br><br><br></p>Press 'continue' to show the instructions.<br><br><br><br></div>,0,ospan,instruct,jb1rVboOmNhiqMnta28LUCkTkub2,html-button-response,54,524120,0.0-46.0-0.0-0.0-0.0,,,,,,,,,,,,,,,63ea497523794756c703094c,11:57:49,03/04/2024
11489.0,"<div class = 'left_align' style='font-size: 3.25rem; line-height: 1.3;'><p class = 'center_align'><b>Symmetry and Memory Task</b><br><br></p>In this task, you will try to memorize letters you see on the screen<br>while you also view black and white grid pictures.<br><br>In the next few minutes, you will have some practice to get you familiar<br>with how the task works.<br><br>It may be difficult sometimes, but please do not worry about making mistakes!<br><br>We will begin by practicing the letter part of the task.<br><br><br><br></div>",0,ospan,instruct,jb1rVboOmNhiqMnta28LUCkTkub2,html-button-response,55,535871,0.0-46.0-0.0-0.0-1.0,,,,,,,,,,,,,,,63ea497523794756c703094c,11:57:49,03/04/2024
14900.999999999884,"<div class = 'left_align' style='font-size: 3.25rem; line-height: 1.3;'>For this practice part, letters will appear on the screen one at a time.<br><br>Try to remember each letter in the order presented.<br><br>After some letters have been shown, you will see a response screen. Your<br>goal is to report the letters you saw <b>in order</b>. If you do not remember<br>a particular letter, you will have the option to leave it blank.<br><br><br><br></div>",0,ospan,instruct,jb1rVboOmNhiqMnta28LUCkTkub2,html-button-response,56,551024,0.0-46.0-0.0-0.0-2.0,,,,,,,,,,,,,,,63ea497523794756c703094c,11:57:49,03/04/2024
4342.999999999884,"<div class = 'left_align' style='font-size: 3.25rem; line-height: 1.3;'>Remember, it is very important to get the letters in the same<br>order as you see them.<br><br>When you are ready, you may begin the letter practice.</div><br><br><br><br>",0,ospan,instruct,jb1rVboOmNhiqMnta28LUCkTkub2,html-button-response,57,555620,0.0-46.0-0.0-0.0-3.0,,,,,,,,,,,,,,,63ea497523794756c703094c,11:57:49,03/04/2024
,"<p style=""font-size:75px;"">...</p>",,ospan,iti,jb1rVboOmNhiqMnta28LUCkTkub2,html-keyboard-response,58,556881,0.0-46.0-0.0-1.0-0.0,,,,,,,,,,,,,,,63ea497523794756c703094c,11:57:49,03/04/2024
,"<div style=""font-size: 10rem; color: #0000FF"">Q</div>",,ospan,letter,jb1rVboOmNhiqMnta28LUCkTkub2,html-keyboard-response,59,557883,0.0-46.0-0.0-1.0-1.0,,,,,,,,,,,,,,,63ea497523794756c703094c,11:57:49,03/04/2024
,"<div style=""font-size: 10rem; color: #0000FF"">J</div>",,ospan,letter,jb1rVboOmNhiqMnta28LUCkTkub2,html-keyboard-response,60,559637,0.0-46.0-0.0-1.0-2.0,,,,,,,,,,,,,,,63ea497523794756c703094c,11:57:49,03/04/2024
7853.0,"<div class = numbox><p style=""font-size: 2.4rem"">Please recall the letters you saw to the best of your ability. If you do not remember a particular letter, use the SKIP button.<br><b>(When you are ready to lock in your answer, press ENTER)</b></p><button id = button_1 class = ""square num-button"" onclick = ""recordClick(this)""><div class = content><div class = numbers>C</div></div></button><button id = button_2 class = ""square num-button"" onclick = ""recordClick(this)""><div class = content><div class = numbers>G</div></div></button><button id = button_3 class = ""square num-button"" onclick = ""recordClick(this)""><div class = content><div class = numbers>H</div></div></button><button id = button_4 class = ""square num-button"" onclick = ""recordClick(this)""><div class = content><div class = numbers>J</div></div></button><button id = button_5 class = ""square num-button"" onclick = ""recordClick(this)""><div class = content><div class = numbers>K</div></div></button><button id = button_6 class = ""square num-button"" onclick = ""recordClick(this)""><div class = content><div class = numbers>L</div></div></button><button id = button_7 class = ""square num-button"" onclick = ""recordClick(this)""><div class = content><div class = numbers>N</div></div></button><button id = button_8 class = ""square num-button"" onclick = ""recordClick(this)""><div class = content><div class = numbers>P</div></div></button><button id = button_9 class = ""square num-button"" onclick = ""recordClick(this)""><div class = content><div class = numbers>Q</div></div></button><button id = button_10 class = ""square num-button"" onclick = ""recordClick(this)""><div class = content><div class = numbers>R</div></div></button><button id = button_11 class = ""square num-button"" onclick = ""recordClick(this)""><div class = content><div class = numbers>S</div></div></button><button id = button_12 class = ""square num-button"" onclick = ""recordClick(this)""><div class = content><div class = numbers>Y</div></div></button><button class = clear_button id = ""ClearButton"" onclick = ""clearResponse()"">BACKSPACE</button><button class = blank_button id = ""BlankButton"" onclick = ""blankResponse()"">SKIP</button><p style=""font-size: 2.4rem""><u><b>Current Answer:</b></u></p><br><br><div id=echoed_txt style=""font-size: 5rem; color:blue;""><b></b></div></div>",enter,ospan,retrieval,jb1rVboOmNhiqMnta28LUCkTkub2,html-keyboard-response,61,568251,0.0-46.0-0.0-1.0-3.0,NA,NA,NA,2.0,"[""Q"",""J""]","[""Q"",""J""]",1.0,2.0,"['<font color=""green"">Q</font>', '<font color=""green"">J</font>']",,,,,,63ea497523794756c703094c,11:57:49,03/04/2024
1625.0,"['<p style=""font-size:44px"">Letters:<br><br><br><font color=""green"">Q</font> <font color=""green"">J</font></p><br><br>']",0,ospan,practice_feedback,jb1rVboOmNhiqMnta28LUCkTkub2,html-button-response,62,570387,0.0-46.0-0.0-1.0-4.0,,,,,,,,,,,,,,,63ea497523794756c703094c,11:57:49,03/04/2024
,"<p style=""font-size:75px;"">...</p>",,ospan,iti,jb1rVboOmNhiqMnta28LUCkTkub2,html-keyboard-response,63,571390,0.0-46.0-0.0-2.0-0.0,,,,,,,,,,,,,,,63ea497523794756c703094c,11:57:49,03/04/2024
,"<div style=""font-size: 10rem; color: #0000FF"">N</div>",,ospan,letter,jb1rVboOmNhiqMnta28LUCkTkub2,html-keyboard-response,64,572393,0.0-46.0-0.0-2.0-1.0,,,,,,,,,,,,,,,63ea497523794756c703094c,11:57:49,03/04/2024
,"<div style=""font-size: 10rem; color: #0000FF"">R</div>",,ospan,letter,jb1rVboOmNhiqMnta28LUCkTkub2,html-keyboard-response,65,574146,0.0-46.0-0.0-2.0-2.0,,,,,,,,,,,,,,,63ea497523794756c703094c,11:57:49,03/04/2024
,"<div style=""font-size: 10rem; color: #0000FF"">Q</div>",,ospan,letter,jb1rVboOmNhiqMnta28LUCkTkub2,html-keyboard-response,66,575899,0.0-46.0-0.0-2.0-3.0,,,,,,,,,,,,,,,63ea497523794756c703094c,11:57:49,03/04/2024
4623.999999999884,"<div class = numbox><p style=""font-size: 2.4rem"">Please recall the letters you saw to the best of your ability. If you do not remember a particular letter, use the SKIP button.<br><b>(When you are ready to lock in your answer, press ENTER)</b></p><button id = button_1 class = ""square num-button"" onclick = ""recordClick(this)""><div class = content><div class = numbers>C</div></div></button><button id = button_2 class = ""square num-button"" onclick = ""recordClick(this)""><div class = content><div class = numbers>G</div></div></button><button id = button_3 class = ""square num-button"" onclick = ""recordClick(this)""><div class = content><div class = numbers>H</div></div></button><button id = button_4 class = ""square num-button"" onclick = ""recordClick(this)""><div class = content><div class = numbers>J</div></div></button><button id = button_5 class = ""square num-button"" onclick = ""recordClick(this)""><div class = content><div class = numbers>K</div></div></button><button id = button_6 class = ""square num-button"" onclick = ""recordClick(this)""><div class = content><div class = numbers>L</div></div></button><button id = button_7 class = ""square num-button"" onclick = ""recordClick(this)""><div class = content><div class = numbers>N</div></div></button><button id = button_8 class = ""square num-button"" onclick = ""recordClick(this)""><div class = content><div class = numbers>P</div></div></button><button id = button_9 class = ""square num-button"" onclick = ""recordClick(this)""><div class = content><div class = numbers>Q</div></div></button><button id = button_10 class = ""square num-button"" onclick = ""recordClick(this)""><div class = content><div class = numbers>R</div></div></button><button id = button_11 class = ""square num-button"" onclick = ""recordClick(this)""><div class = content><div class = numbers>S</div></div></button><button id = button_12 class = ""square num-button"" onclick = ""recordClick(this)""><div class = content><div class = numbers>Y</div></div></button><button class = clear_button id = ""ClearButton"" onclick = ""clearResponse()"">BACKSPACE</button><button class = blank_button id = ""BlankButton"" onclick = ""blankResponse()"">SKIP</button><p style=""font-size: 2.4rem""><u><b>Current Answer:</b></u></p><br><br><div id=echoed_txt style=""font-size: 5rem; color:blue;""><b></b></div></div>",enter,ospan,retrieval,jb1rVboOmNhiqMnta28LUCkTkub2,html-keyboard-response,67,581277,0.0-46.0-0.0-2.0-4.0,NA,NA,NA,3.0,"[""N"",""R"",""Q""]","[""N"",""R"",""Q""]",1.0,3.0,"['<font color=""green"">N</font>', '<font color=""green"">R</font>', '<font color=""green"">Q</font>']",,,,,,63ea497523794756c703094c,11:57:49,03/04/2024
1881.0,"['<p style=""font-size:44px"">Letters:<br><br><br><font color=""green"">N</font> <font color=""green"">R</font> <font color=""green"">Q</font></p><br><br>']",0,ospan,practice_feedback,jb1rVboOmNhiqMnta28LUCkTkub2,html-button-response,68,583660,0.0-46.0-0.0-2.0-5.0,,,,,,,,,,,,,,,63ea497523794756c703094c,11:57:49,03/04/2024
30640.0,"<div class = 'left_align' style='font-size: 3.25rem; line-height: 1.3;'>Now you will practice doing the <b>symmetry judgment part</b> of the experiment.<br><br>A black and white grid picture will appear on the screen and you have to judge if it is <br>symmetrical or asymetrical.<br><br>A picture is 'mirror' symmetrical if its left half is identical to the right half when flipped.<br>Here are examples of a symmetrical and an asymetrical picture:<br><br><center><img src='Stimuli/img/symm_instructions_extra.png' style='height:420px; width:900'></img></center><br>To judge symmetry, imagine you were to fold each picture down the middle, like a book –<br>would the left half match the right half when folded onto each other?<br><br></div><br>",0,ospan,instruct,jb1rVboOmNhiqMnta28LUCkTkub2,html-button-response,69,614302,0.0-46.0-1.0-0.0-0.0,,,,,,,,,,,,,,,63ea497523794756c703094c,11:57:49,03/04/2024
10136.0,"<div class = 'left_align' style='font-size: 3.25rem; line-height: 1.3;'>When you have viewed the picture and determined whether it is symmetrical or not,<br>you can <b>click the Yes or No button</b> below to answer.<br><br>If you take longer than 15 seconds, it will continue automatically<br>and record the answer as an error.</div><br>",0,ospan,instruct,jb1rVboOmNhiqMnta28LUCkTkub2,html-button-response,70,624691,0.0-46.0-1.0-0.0-1.0,,,,,,,,,,,,,,,63ea497523794756c703094c,11:57:49,03/04/2024
4640.0,"<div class = 'left_align' style='font-size: 3.25rem; line-height: 1.3;'>It is <b>very</b> important that you make the symmetry judgment correctly.<br><br>It is also important that you try and judge the picture as quickly as you can.<br><br>When you are ready, click on the button below to try some practice problems.</div><br><br><br><br>",0,ospan,instruct,jb1rVboOmNhiqMnta28LUCkTkub2,html-button-response,71,629582,0.0-46.0-1.0-0.0-2.0,,,,,,,,,,,,,,,63ea497523794756c703094c,11:57:49,03/04/2024
4822.0,,,ospan,symmetry,jb1rVboOmNhiqMnta28LUCkTkub2,symmetry-judgement-task,72,635292,0.0-46.0-1.0-1.0-0.0,,,,,,,,,,1.0,1.0,,,,63ea497523794756c703094c,11:57:49,03/04/2024
,"<p style=""color:green; font-size: 35px"">Correct</p>",,ospan,feedback,jb1rVboOmNhiqMnta28LUCkTkub2,html-keyboard-response,73,636045,0.0-46.0-1.0-1.0-1.0,,,,,,,,,,,,,,,63ea497523794756c703094c,11:57:49,03/04/2024
2903.0,,,ospan,symmetry,jb1rVboOmNhiqMnta28LUCkTkub2,symmetry-judgement-task,74,641604,0.0-46.0-1.0-1.0-2.0,,,,,,,,,,1.0,1.0,,,,63ea497523794756c703094c,11:57:49,03/04/2024
,"<p style=""color:green; font-size: 35px"">Correct</p>",,ospan,feedback,jb1rVboOmNhiqMnta28LUCkTkub2,html-keyboard-response,75,642356,0.0-46.0-1.0-1.0-3.0,,,,,,,,,,,,,,,63ea497523794756c703094c,11:57:49,03/04/2024
1627.0,,,ospan,symmetry,jb1rVboOmNhiqMnta28LUCkTkub2,symmetry-judgement-task,76,646618,0.0-46.0-1.0-1.0-4.0,,,,,,,,,,1.0,1.0,,,,63ea497523794756c703094c,11:57:49,03/04/2024
,"<p style=""color:green; font-size: 35px"">Correct</p>",,ospan,feedback,jb1rVboOmNhiqMnta28LUCkTkub2,html-keyboard-response,77,647370,0.0-46.0-1.0-1.0-5.0,,,,,,,,,,,,,,,63ea497523794756c703094c,11:57:49,03/04/2024
1533.9999999998836,"<p style=""font-size: 3rem;"">You responded correctly on 3 of 3 symmetry judgments. Good job!</p><br><br>",0,ospan,practice,jb1rVboOmNhiqMnta28LUCkTkub2,html-button-response,78,650907,0.0-46.0-1.0-2.0,,,,,,,,,,,,,,,63ea497523794756c703094c,11:57:49,03/04/2024
11617.0,"<div class = 'left_align' style='font-size: 3.25rem; line-height: 1.3;'>Now you will practice doing both parts of the experiment at the same time.<br><br>In the next practice set, you will be given one grid picture to judge.<br>Then letter will appear on the screen. Try to remember the letter.<br><br>It is <b>very important</b> to make the symmetry judgment as quickly and accurately as possible.<br><br>Just as before, once you have make the symmetry judgment, you can click Yes or No.<br><b>Note that you will no longer see Correct or Incorrect feedback.</div><br><br><br><br>",0,ospan,instruct,jb1rVboOmNhiqMnta28LUCkTkub2,html-button-response,79,662777,0.0-46.0-2.0-0.0-0.0,,,,,,,,,,,,,,,63ea497523794756c703094c,11:57:49,03/04/2024
10748.0,"<div class = 'left_align' style='font-size: 3.25rem; line-height: 1.3;'>After the letter goes away, another grid picture will appear, and then<br>another letter.<br><br>At the end of each set of letters and grids, you will recall the letters to the best<br>of your ability. Remember, try your best to get the letters in the correct order.<br><br>It is important to <b>quickly</b> and <b>accurately</b> make the symmetry judgments.</div><br><br><br><br>",0,ospan,instruct,jb1rVboOmNhiqMnta28LUCkTkub2,html-button-response,80,673777,0.0-46.0-2.0-0.0-1.0,,,,,,,,,,,,,,,63ea497523794756c703094c,11:57:49,03/04/2024
168941.0,"<div class = 'left_align' style='font-size: 3.25rem; line-height: 1.3;'>On the feedback screen, if you are not doing well at the symmetry judgments,<br>you will also see a warning in the middle. This indicates your percent <br>correct for the grid pictures for the entire experiment.<br><br>It is <b>very</b> important for you to keep accuracy at least at 85%: <u>We can only use<br>data where the participant was at least 85% accurate on the judgments.</u> Therefore,<br> please try your best to perform well on the symmetry judgments, <b>at the same time</b><br>doing your best to recall as many letters as possible.<br><br>Click the button to try some practice problems.</div><br><br><br><br>",0,ospan,instruct,jb1rVboOmNhiqMnta28LUCkTkub2,html-button-response,81,842973,0.0-46.0-2.0-0.0-2.0,,,,,,,,,,,,,,,63ea497523794756c703094c,11:57:49,03/04/2024
,"<p style=""font-size:75px;"">...</p>",,ospan,iti,jb1rVboOmNhiqMnta28LUCkTkub2,html-keyboard-response,82,844227,0.0-46.0-2.0-1.0-0.0,,,,,,,,,,,,,,,63ea497523794756c703094c,11:57:49,03/04/2024
1501.0,,,ospan,symmetry,jb1rVboOmNhiqMnta28LUCkTkub2,symmetry-judgement-task,83,846863,0.0-46.0-2.0-1.0-1.0-0.0,,,,,,,,,,1.0,1.0,,,,63ea497523794756c703094c,11:57:49,03/04/2024
,"<div style=""font-size: 10rem; color: #0000FF"">G</div>",,ospan,letter,jb1rVboOmNhiqMnta28LUCkTkub2,html-keyboard-response,84,847866,0.0-46.0-2.0-1.0-1.0-1.0,,,,,,,,,,,,,,,63ea497523794756c703094c,11:57:49,03/04/2024
1414.0,,,ospan,symmetry,jb1rVboOmNhiqMnta28LUCkTkub2,symmetry-judgement-task,85,851165,0.0-46.0-2.0-1.0-1.0-2.0,,,,,,,,,,1.0,1.0,,,,63ea497523794756c703094c,11:57:49,03/04/2024
,"<div style=""font-size: 10rem; color: #0000FF"">C</div>",,ospan,letter,jb1rVboOmNhiqMnta28LUCkTkub2,html-keyboard-response,86,852167,0.0-46.0-2.0-1.0-1.0-3.0,,,,,,,,,,,,,,,63ea497523794756c703094c,11:57:49,03/04/2024
1677.0,,,ospan,symmetry,jb1rVboOmNhiqMnta28LUCkTkub2,symmetry-judgement-task,87,855729,0.0-46.0-2.0-1.0-1.0-4.0,,,,,,,,,,1.0,1.0,,,,63ea497523794756c703094c,11:57:49,03/04/2024
,"<div style=""font-size: 10rem; color: #0000FF"">K</div>",,ospan,letter,jb1rVboOmNhiqMnta28LUCkTkub2,html-keyboard-response,88,856731,0.0-46.0-2.0-1.0-1.0-5.0,,,,,,,,,,,,,,,63ea497523794756c703094c,11:57:49,03/04/2024
5230.0,"<div class = numbox><p style=""font-size: 2.4rem"">Please recall the letters you saw to the best of your ability. If you do not remember a particular letter, use the SKIP button.<br><b>(When you are ready to lock in your answer, press ENTER)</b></p><button id = button_1 class = ""square num-button"" onclick = ""recordClick(this)""><div class = content><div class = numbers>C</div></div></button><button id = button_2 class = ""square num-button"" onclick = ""recordClick(this)""><div class = content><div class = numbers>G</div></div></button><button id = button_3 class = ""square num-button"" onclick = ""recordClick(this)""><div class = content><div class = numbers>H</div></div></button><button id = button_4 class = ""square num-button"" onclick = ""recordClick(this)""><div class = content><div class = numbers>J</div></div></button><button id = button_5 class = ""square num-button"" onclick = ""recordClick(this)""><div class = content><div class = numbers>K</div></div></button><button id = button_6 class = ""square num-button"" onclick = ""recordClick(this)""><div class = content><div class = numbers>L</div></div></button><button id = button_7 class = ""square num-button"" onclick = ""recordClick(this)""><div class = content><div class = numbers>N</div></div></button><button id = button_8 class = ""square num-button"" onclick = ""recordClick(this)""><div class = content><div class = numbers>P</div></div></button><button id = button_9 class = ""square num-button"" onclick = ""recordClick(this)""><div class = content><div class = numbers>Q</div></div></button><button id = button_10 class = ""square num-button"" onclick = ""recordClick(this)""><div class = content><div class = numbers>R</div></div></button><button id = button_11 class = ""square num-button"" onclick = ""recordClick(this)""><div class = content><div class = numbers>S</div></div></button><button id = button_12 class = ""square num-button"" onclick = ""recordClick(this)""><div class = content><div class = numbers>Y</div></div></button><button class = clear_button id = ""ClearButton"" onclick = ""clearResponse()"">BACKSPACE</button><button class = blank_button id = ""BlankButton"" onclick = ""blankResponse()"">SKIP</button><p style=""font-size: 2.4rem""><u><b>Current Answer:</b></u></p><br><br><div id=echoed_txt style=""font-size: 5rem; color:blue;""><b></b></div></div>",enter,ospan,retrieval,jb1rVboOmNhiqMnta28LUCkTkub2,html-keyboard-response,89,862714,0.0-46.0-2.0-1.0-2.0-0.0,NA,NA,NA,3.0,"[""G"",""C"",""K""]","[""G"",""C"",""K""]",1.0,3.0,"['<font color=""green"">G</font>', '<font color=""green"">C</font>', '<font color=""green"">K</font>']",,,,,,63ea497523794756c703094c,11:57:49,03/04/2024
2197.0,"['<p style=""font-size:44px"">Letters:<br><br><br><font color=""green"">G</font> <font color=""green"">C</font> <font color=""green"">K</font></p><br><br><p style=""font-size:30px"">Symmetry:<br><br><font color=""green"">100%</font></p><br><br>']",0,ospan,practice_feedback,jb1rVboOmNhiqMnta28LUCkTkub2,html-button-response,90,865413,0.0-46.0-2.0-1.0-2.0-1.0,,,,,,,,,,,,,,,63ea497523794756c703094c,11:57:49,03/04/2024
,"<p style=""font-size:75px;"">...</p>",,ospan,iti,jb1rVboOmNhiqMnta28LUCkTkub2,html-keyboard-response,91,866418,0.0-46.0-2.0-2.0-0.0,,,,,,,,,,,,,,,63ea497523794756c703094c,11:57:49,03/04/2024
1439.0,,,ospan,symmetry,jb1rVboOmNhiqMnta28LUCkTkub2,symmetry-judgement-task,92,869003,0.0-46.0-2.0-2.0-1.0-0.0,,,,,,,,,,1.0,1.0,,,,63ea497523794756c703094c,11:57:49,03/04/2024
,"<div style=""font-size: 10rem; color: #0000FF"">K</div>",,ospan,letter,jb1rVboOmNhiqMnta28LUCkTkub2,html-keyboard-response,93,870006,0.0-46.0-2.0-2.0-1.0-1.0,,,,,,,,,,,,,,,63ea497523794756c703094c,11:57:49,03/04/2024
1477.0,,,ospan,symmetry,jb1rVboOmNhiqMnta28LUCkTkub2,symmetry-judgement-task,94,873372,0.0-46.0-2.0-2.0-1.0-2.0,,,,,,,,,,1.0,1.0,,,,63ea497523794756c703094c,11:57:49,03/04/2024
,"<div style=""font-size: 10rem; color: #0000FF"">G</div>",,ospan,letter,jb1rVboOmNhiqMnta28LUCkTkub2,html-keyboard-response,95,874374,0.0-46.0-2.0-2.0-1.0-3.0,,,,,,,,,,,,,,,63ea497523794756c703094c,11:57:49,03/04/2024
1470.0,,,ospan,symmetry,jb1rVboOmNhiqMnta28LUCkTkub2,symmetry-judgement-task,96,877743,0.0-46.0-2.0-2.0-1.0-4.0,,,,,,,,,,1.0,1.0,,,,63ea497523794756c703094c,11:57:49,03/04/2024
,"<div style=""font-size: 10rem; color: #0000FF"">N</div>",,ospan,letter,jb1rVboOmNhiqMnta28LUCkTkub2,html-keyboard-response,97,878745,0.0-46.0-2.0-2.0-1.0-5.0,,,,,,,,,,,,,,,63ea497523794756c703094c,11:57:49,03/04/2024
3592.0,"<div class = numbox><p style=""font-size: 2.4rem"">Please recall the letters you saw to the best of your ability. If you do not remember a particular letter, use the SKIP button.<br><b>(When you are ready to lock in your answer, press ENTER)</b></p><button id = button_1 class = ""square num-button"" onclick = ""recordClick(this)""><div class = content><div class = numbers>C</div></div></button><button id = button_2 class = ""square num-button"" onclick = ""recordClick(this)""><div class = content><div class = numbers>G</div></div></button><button id = button_3 class = ""square num-button"" onclick = ""recordClick(this)""><div class = content><div class = numbers>H</div></div></button><button id = button_4 class = ""square num-button"" onclick = ""recordClick(this)""><div class = content><div class = numbers>J</div></div></button><button id = button_5 class = ""square num-button"" onclick = ""recordClick(this)""><div class = content><div class = numbers>K</div></div></button><button id = button_6 class = ""square num-button"" onclick = ""recordClick(this)""><div class = content><div class = numbers>L</div></div></button><button id = button_7 class = ""square num-button"" onclick = ""recordClick(this)""><div class = content><div class = numbers>N</div></div></button><button id = button_8 class = ""square num-button"" onclick = ""recordClick(this)""><div class = content><div class = numbers>P</div></div></button><button id = button_9 class = ""square num-button"" onclick = ""recordClick(this)""><div class = content><div class = numbers>Q</div></div></button><button id = button_10 class = ""square num-button"" onclick = ""recordClick(this)""><div class = content><div class = numbers>R</div></div></button><button id = button_11 class = ""square num-button"" onclick = ""recordClick(this)""><div class = content><div class = numbers>S</div></div></button><button id = button_12 class = ""square num-button"" onclick = ""recordClick(this)""><div class = content><div class = numbers>Y</div></div></button><button class = clear_button id = ""ClearButton"" onclick = ""clearResponse()"">BACKSPACE</button><button class = blank_button id = ""BlankButton"" onclick = ""blankResponse()"">SKIP</button><p style=""font-size: 2.4rem""><u><b>Current Answer:</b></u></p><br><br><div id=echoed_txt style=""font-size: 5rem; color:blue;""><b></b></div></div>",enter,ospan,retrieval,jb1rVboOmNhiqMnta28LUCkTkub2,html-keyboard-response,98,883090,0.0-46.0-2.0-2.0-2.0-0.0,NA,NA,NA,3.0,"[""K"",""G"",""N""]","[""K"",""G"",""N""]",1.0,3.0,"['<font color=""green"">K</font>', '<font color=""green"">G</font>', '<font color=""green"">N</font>']",,,,,,63ea497523794756c703094c,11:57:49,03/04/2024
1687.0,"['<p style=""font-size:44px"">Letters:<br><br><br><font color=""green"">K</font> <font color=""green"">G</font> <font color=""green"">N</font></p><br><br><p style=""font-size:30px"">Symmetry:<br><br><font color=""green"">100%</font></p><br><br>']",0,ospan,practice_feedback,jb1rVboOmNhiqMnta28LUCkTkub2,html-button-response,99,885280,0.0-46.0-2.0-2.0-2.0-1.0,,,,,,,,,,,,,,,63ea497523794756c703094c,11:57:49,03/04/2024
23049.0,"<div class = 'left_align' style='font-size: 3rem; line-height: 1.3;'><b>Great work! That is the end of practice.</b><br><br>The real trials will look just like the practice trials you just completed.<br><br><u>Here, you will not see feedback</u>. First, you will see an grid picture to judge,<br>then a letter to remember. When the recall screen appears, report the letters in the<br>order presented. If you forget a letter, remember to use the <b>blank</b> button to move to the<br>next letter. Some of the sets will have more symmetry grids and letters than others.<br><br>It is important that you do your best on both the symmetry judgments and the letter recall<br>parts of the experiment. For for the symmetry judgments, try to work as <b>quickly</b> and <br>as <b>accurately</b> as possible. Remember to keep your symmetry accuracy at 85% or above.<br><br><b>For the letters, do NOT use any external aid (e.g., writing on paper, electronic device).</b><br><br>It is <u>very important</u> to our experiment to have a <b>true</b> view of your real performance.<br><br>Do not worry if you miss some when it gets hard! This task is meant to be very challenging!<br><br>Click the button to begin.</div><br><br><br><br>",0,ospan,starting_real_here,jb1rVboOmNhiqMnta28LUCkTkub2,html-button-response,100,908331,0.0-46.0-2.0-3.0,,,,,,,,,,,,,,,63ea497523794756c703094c,11:57:49,03/04/2024
,"<p style=""font-size:75px;"">...</p>",,ospan,iti,jb1rVboOmNhiqMnta28LUCkTkub2,html-keyboard-response,101,909586,0.0-46.0-3.0-0.0-0.0,,,,,,,,,,,,,,,63ea497523794756c703094c,11:57:49,03/04/2024
1573.0,,,ospan,symmetry,jb1rVboOmNhiqMnta28LUCkTkub2,symmetry-judgement-task,102,912309,0.0-46.0-3.0-0.0-1.0-0.0,,,,,,,,,,1.0,1.0,,,,63ea497523794756c703094c,11:57:49,03/04/2024
,"<div style=""font-size: 10rem; color: #0000FF"">R</div>",,ospan,letter,jb1rVboOmNhiqMnta28LUCkTkub2,html-keyboard-response,103,913312,0.0-46.0-3.0-0.0-1.0-1.0,,,,,,,,,,,,,,,63ea497523794756c703094c,11:57:49,03/04/2024
1413.0,,,ospan,symmetry,jb1rVboOmNhiqMnta28LUCkTkub2,symmetry-judgement-task,104,916615,0.0-46.0-3.0-0.0-1.0-2.0,,,,,,,,,,1.0,1.0,,,,63ea497523794756c703094c,11:57:49,03/04/2024
,"<div style=""font-size: 10rem; color: #0000FF"">G</div>",,ospan,letter,jb1rVboOmNhiqMnta28LUCkTkub2,html-keyboard-response,105,917618,0.0-46.0-3.0-0.0-1.0-3.0,,,,,,,,,,,,,,,63ea497523794756c703094c,11:57:49,03/04/2024
1345.0,,,ospan,symmetry,jb1rVboOmNhiqMnta28LUCkTkub2,symmetry-judgement-task,106,920849,0.0-46.0-3.0-0.0-1.0-4.0,,,,,,,,,,0.0,0.0,,,,63ea497523794756c703094c,11:57:49,03/04/2024
,"<div style=""font-size: 10rem; color: #0000FF"">Q</div>",,ospan,letter,jb1rVboOmNhiqMnta28LUCkTkub2,html-keyboard-response,107,921851,0.0-46.0-3.0-0.0-1.0-5.0,,,,,,,,,,,,,,,63ea497523794756c703094c,11:57:49,03/04/2024
5222.0,"<div class = numbox><p style=""font-size: 2.4rem"">Please recall the letters you saw to the best of your ability. If you do not remember a particular letter, use the SKIP button.<br><b>(When you are ready to lock in your answer, press ENTER)</b></p><button id = button_1 class = ""square num-button"" onclick = ""recordClick(this)""><div class = content><div class = numbers>C</div></div></button><button id = button_2 class = ""square num-button"" onclick = ""recordClick(this)""><div class = content><div class = numbers>G</div></div></button><button id = button_3 class = ""square num-button"" onclick = ""recordClick(this)""><div class = content><div class = numbers>H</div></div></button><button id = button_4 class = ""square num-button"" onclick = ""recordClick(this)""><div class = content><div class = numbers>J</div></div></button><button id = button_5 class = ""square num-button"" onclick = ""recordClick(this)""><div class = content><div class = numbers>K</div></div></button><button id = button_6 class = ""square num-button"" onclick = ""recordClick(this)""><div class = content><div class = numbers>L</div></div></button><button id = button_7 class = ""square num-button"" onclick = ""recordClick(this)""><div class = content><div class = numbers>N</div></div></button><button id = button_8 class = ""square num-button"" onclick = ""recordClick(this)""><div class = content><div class = numbers>P</div></div></button><button id = button_9 class = ""square num-button"" onclick = ""recordClick(this)""><div class = content><div class = numbers>Q</div></div></button><button id = button_10 class = ""square num-button"" onclick = ""recordClick(this)""><div class = content><div class = numbers>R</div></div></button><button id = button_11 class = ""square num-button"" onclick = ""recordClick(this)""><div class = content><div class = numbers>S</div></div></button><button id = button_12 class = ""square num-button"" onclick = ""recordClick(this)""><div class = content><div class = numbers>Y</div></div></button><button class = clear_button id = ""ClearButton"" onclick = ""clearResponse()"">BACKSPACE</button><button class = blank_button id = ""BlankButton"" onclick = ""blankResponse()"">SKIP</button><p style=""font-size: 2.4rem""><u><b>Current Answer:</b></u></p><br><br><div id=echoed_txt style=""font-size: 5rem; color:blue;""><b></b></div></div>",enter,ospan,retrieval,jb1rVboOmNhiqMnta28LUCkTkub2,html-keyboard-response,108,927826,0.0-46.0-3.0-0.0-2.0,3,3,3,3.0,"[""R"",""G"",""Q""]","[""R"",""G"",""Q""]",1.0,3.0,,,,,,,63ea497523794756c703094c,11:57:49,03/04/2024
2127.0,"['<p style=""font-size: 3.75rem"">Low symmetry accuracy!<br><br><br><font color=""red"">67%</font><br><br></p>']",0,ospan,feedback,jb1rVboOmNhiqMnta28LUCkTkub2,html-button-response,109,930456,0.0-46.0-3.0-0.0-3.0,,,,,,,,,,,,67.0,1.0,,63ea497523794756c703094c,11:57:49,03/04/2024
,"<p style=""font-size:75px;"">...</p>",,ospan,iti,jb1rVboOmNhiqMnta28LUCkTkub2,html-keyboard-response,110,931460,0.0-46.0-4.0-0.0-0.0,,,,,,,,,,,,,,,63ea497523794756c703094c,11:57:49,03/04/2024
1532.0,,,ospan,symmetry,jb1rVboOmNhiqMnta28LUCkTkub2,symmetry-judgement-task,111,934145,0.0-46.0-4.0-0.0-1.0-0.0,,,,,,,,,,1.0,1.0,,,,63ea497523794756c703094c,11:57:49,03/04/2024
,"<div style=""font-size: 10rem; color: #0000FF"">L</div>",,ospan,letter,jb1rVboOmNhiqMnta28LUCkTkub2,html-keyboard-response,112,935147,0.0-46.0-4.0-0.0-1.0-1.0,,,,,,,,,,,,,,,63ea497523794756c703094c,11:57:49,03/04/2024
1521.0,,,ospan,symmetry,jb1rVboOmNhiqMnta28LUCkTkub2,symmetry-judgement-task,113,938554,0.0-46.0-4.0-0.0-1.0-2.0,,,,,,,,,,1.0,1.0,,,,63ea497523794756c703094c,11:57:49,03/04/2024
,"<div style=""font-size: 10rem; color: #0000FF"">G</div>",,ospan,letter,jb1rVboOmNhiqMnta28LUCkTkub2,html-keyboard-response,114,939555,0.0-46.0-4.0-0.0-1.0-3.0,,,,,,,,,,,,,,,63ea497523794756c703094c,11:57:49,03/04/2024
1927.0,,,ospan,symmetry,jb1rVboOmNhiqMnta28LUCkTkub2,symmetry-judgement-task,115,943379,0.0-46.0-4.0-0.0-1.0-4.0,,,,,,,,,,1.0,1.0,,,,63ea497523794756c703094c,11:57:49,03/04/2024
,"<div style=""font-size: 10rem; color: #0000FF"">J</div>",,ospan,letter,jb1rVboOmNhiqMnta28LUCkTkub2,html-keyboard-response,116,944382,0.0-46.0-4.0-0.0-1.0-5.0,,,,,,,,,,,,,,,63ea497523794756c703094c,11:57:49,03/04/2024
1450.0,,,ospan,symmetry,jb1rVboOmNhiqMnta28LUCkTkub2,symmetry-judgement-task,117,947726,0.0-46.0-4.0-0.0-1.0-6.0,,,,,,,,,,1.0,1.0,,,,63ea497523794756c703094c,11:57:49,03/04/2024
,"<div style=""font-size: 10rem; color: #0000FF"">N</div>",,ospan,letter,jb1rVboOmNhiqMnta28LUCkTkub2,html-keyboard-response,118,948727,0.0-46.0-4.0-0.0-1.0-7.0,,,,,,,,,,,,,,,63ea497523794756c703094c,11:57:49,03/04/2024
5512.0,"<div class = numbox><p style=""font-size: 2.4rem"">Please recall the letters you saw to the best of your ability. If you do not remember a particular letter, use the SKIP button.<br><b>(When you are ready to lock in your answer, press ENTER)</b></p><button id = button_1 class = ""square num-button"" onclick = ""recordClick(this)""><div class = content><div class = numbers>C</div></div></button><button id = button_2 class = ""square num-button"" onclick = ""recordClick(this)""><div class = content><div class = numbers>G</div></div></button><button id = button_3 class = ""square num-button"" onclick = ""recordClick(this)""><div class = content><div class = numbers>H</div></div></button><button id = button_4 class = ""square num-button"" onclick = ""recordClick(this)""><div class = content><div class = numbers>J</div></div></button><button id = button_5 class = ""square num-button"" onclick = ""recordClick(this)""><div class = content><div class = numbers>K</div></div></button><button id = button_6 class = ""square num-button"" onclick = ""recordClick(this)""><div class = content><div class = numbers>L</div></div></button><button id = button_7 class = ""square num-button"" onclick = ""recordClick(this)""><div class = content><div class = numbers>N</div></div></button><button id = button_8 class = ""square num-button"" onclick = ""recordClick(this)""><div class = content><div class = numbers>P</div></div></button><button id = button_9 class = ""square num-button"" onclick = ""recordClick(this)""><div class = content><div class = numbers>Q</div></div></button><button id = button_10 class = ""square num-button"" onclick = ""recordClick(this)""><div class = content><div class = numbers>R</div></div></button><button id = button_11 class = ""square num-button"" onclick = ""recordClick(this)""><div class = content><div class = numbers>S</div></div></button><button id = button_12 class = ""square num-button"" onclick = ""recordClick(this)""><div class = content><div class = numbers>Y</div></div></button><button class = clear_button id = ""ClearButton"" onclick = ""clearResponse()"">BACKSPACE</button><button class = blank_button id = ""BlankButton"" onclick = ""blankResponse()"">SKIP</button><p style=""font-size: 2.4rem""><u><b>Current Answer:</b></u></p><br><br><div id=echoed_txt style=""font-size: 5rem; color:blue;""><b></b></div></div>",enter,ospan,retrieval,jb1rVboOmNhiqMnta28LUCkTkub2,html-keyboard-response,119,954992,0.0-46.0-4.0-0.0-2.0,7,7,7,4.0,"[""L"",""G"",""J"",""N""]","[""L"",""G"",""J"",""N""]",1.0,4.0,,,,,,,63ea497523794756c703094c,11:57:49,03/04/2024
1675.0000000001164,[''],0,ospan,feedback,jb1rVboOmNhiqMnta28LUCkTkub2,html-button-response,120,957168,0.0-46.0-4.0-0.0-3.0,,,,,,,,,,,,86.0,0.0,,63ea497523794756c703094c,11:57:49,03/04/2024
,"<p style=""font-size:75px;"">...</p>",,ospan,iti,jb1rVboOmNhiqMnta28LUCkTkub2,html-keyboard-response,121,958172,0.0-46.0-4.0-1.0-0.0,,,,,,,,,,,,,,,63ea497523794756c703094c,11:57:49,03/04/2024
1313.0,,,ospan,symmetry,jb1rVboOmNhiqMnta28LUCkTkub2,symmetry-judgement-task,122,960621,0.0-46.0-4.0-1.0-1.0-0.0,,,,,,,,,,1.0,1.0,,,,63ea497523794756c703094c,11:57:49,03/04/2024
,"<div style=""font-size: 10rem; color: #0000FF"">Q</div>",,ospan,letter,jb1rVboOmNhiqMnta28LUCkTkub2,html-keyboard-response,123,961623,0.0-46.0-4.0-1.0-1.0-1.0,,,,,,,,,,,,,,,63ea497523794756c703094c,11:57:49,03/04/2024
1431.0,,,ospan,symmetry,jb1rVboOmNhiqMnta28LUCkTkub2,symmetry-judgement-task,124,964940,0.0-46.0-4.0-1.0-1.0-2.0,,,,,,,,,,1.0,1.0,,,,63ea497523794756c703094c,11:57:49,03/04/2024
,"<div style=""font-size: 10rem; color: #0000FF"">L</div>",,ospan,letter,jb1rVboOmNhiqMnta28LUCkTkub2,html-keyboard-response,125,965943,0.0-46.0-4.0-1.0-1.0-3.0,,,,,,,,,,,,,,,63ea497523794756c703094c,11:57:49,03/04/2024
1623.0,,,ospan,symmetry,jb1rVboOmNhiqMnta28LUCkTkub2,symmetry-judgement-task,126,969452,0.0-46.0-4.0-1.0-1.0-4.0,,,,,,,,,,1.0,1.0,,,,63ea497523794756c703094c,11:57:49,03/04/2024
,"<div style=""font-size: 10rem; color: #0000FF"">G</div>",,ospan,letter,jb1rVboOmNhiqMnta28LUCkTkub2,html-keyboard-response,127,970455,0.0-46.0-4.0-1.0-1.0-5.0,,,,,,,,,,,,,,,63ea497523794756c703094c,11:57:49,03/04/2024
1273.0,,,ospan,symmetry,jb1rVboOmNhiqMnta28LUCkTkub2,symmetry-judgement-task,128,973612,0.0-46.0-4.0-1.0-1.0-6.0,,,,,,,,,,1.0,1.0,,,,63ea497523794756c703094c,11:57:49,03/04/2024
,"<div style=""font-size: 10rem; color: #0000FF"">N</div>",,ospan,letter,jb1rVboOmNhiqMnta28LUCkTkub2,html-keyboard-response,129,974613,0.0-46.0-4.0-1.0-1.0-7.0,,,,,,,,,,,,,,,63ea497523794756c703094c,11:57:49,03/04/2024
1659.0,,,ospan,symmetry,jb1rVboOmNhiqMnta28LUCkTkub2,symmetry-judgement-task,130,978164,0.0-46.0-4.0-1.0-1.0-8.0,,,,,,,,,,1.0,1.0,,,,63ea497523794756c703094c,11:57:49,03/04/2024
,"<div style=""font-size: 10rem; color: #0000FF"">R</div>",,ospan,letter,jb1rVboOmNhiqMnta28LUCkTkub2,html-keyboard-response,131,979166,0.0-46.0-4.0-1.0-1.0-9.0,,,,,,,,,,,,,,,63ea497523794756c703094c,11:57:49,03/04/2024
5342.0,"<div class = numbox><p style=""font-size: 2.4rem"">Please recall the letters you saw to the best of your ability. If you do not remember a particular letter, use the SKIP button.<br><b>(When you are ready to lock in your answer, press ENTER)</b></p><button id = button_1 class = ""square num-button"" onclick = ""recordClick(this)""><div class = content><div class = numbers>C</div></div></button><button id = button_2 class = ""square num-button"" onclick = ""recordClick(this)""><div class = content><div class = numbers>G</div></div></button><button id = button_3 class = ""square num-button"" onclick = ""recordClick(this)""><div class = content><div class = numbers>H</div></div></button><button id = button_4 class = ""square num-button"" onclick = ""recordClick(this)""><div class = content><div class = numbers>J</div></div></button><button id = button_5 class = ""square num-button"" onclick = ""recordClick(this)""><div class = content><div class = numbers>K</div></div></button><button id = button_6 class = ""square num-button"" onclick = ""recordClick(this)""><div class = content><div class = numbers>L</div></div></button><button id = button_7 class = ""square num-button"" onclick = ""recordClick(this)""><div class = content><div class = numbers>N</div></div></button><button id = button_8 class = ""square num-button"" onclick = ""recordClick(this)""><div class = content><div class = numbers>P</div></div></button><button id = button_9 class = ""square num-button"" onclick = ""recordClick(this)""><div class = content><div class = numbers>Q</div></div></button><button id = button_10 class = ""square num-button"" onclick = ""recordClick(this)""><div class = content><div class = numbers>R</div></div></button><button id = button_11 class = ""square num-button"" onclick = ""recordClick(this)""><div class = content><div class = numbers>S</div></div></button><button id = button_12 class = ""square num-button"" onclick = ""recordClick(this)""><div class = content><div class = numbers>Y</div></div></button><button class = clear_button id = ""ClearButton"" onclick = ""clearResponse()"">BACKSPACE</button><button class = blank_button id = ""BlankButton"" onclick = ""blankResponse()"">SKIP</button><p style=""font-size: 2.4rem""><u><b>Current Answer:</b></u></p><br><br><div id=echoed_txt style=""font-size: 5rem; color:blue;""><b></b></div></div>",enter,ospan,retrieval,jb1rVboOmNhiqMnta28LUCkTkub2,html-keyboard-response,132,985261,0.0-46.0-4.0-1.0-2.0,12,12,12,5.0,"[""Q"",""L"",""G"",""N"",""R""]","[""Q"",""L"",""G"",""N"",""R""]",1.0,5.0,,,,,,,63ea497523794756c703094c,11:57:49,03/04/2024
1434.9999999998836,[''],0,ospan,feedback,jb1rVboOmNhiqMnta28LUCkTkub2,html-button-response,133,987198,0.0-46.0-4.0-1.0-3.0,,,,,,,,,,,,92.0,0.0,,63ea497523794756c703094c,11:57:49,03/04/2024
,"<p style=""font-size:75px;"">...</p>",,ospan,iti,jb1rVboOmNhiqMnta28LUCkTkub2,html-keyboard-response,134,988203,0.0-46.0-4.0-2.0-0.0,,,,,,,,,,,,,,,63ea497523794756c703094c,11:57:49,03/04/2024
1461.0,,,ospan,symmetry,jb1rVboOmNhiqMnta28LUCkTkub2,symmetry-judgement-task,135,990828,0.0-46.0-4.0-2.0-1.0-0.0,,,,,,,,,,1.0,1.0,,,,63ea497523794756c703094c,11:57:49,03/04/2024
,"<div style=""font-size: 10rem; color: #0000FF"">K</div>",,ospan,letter,jb1rVboOmNhiqMnta28LUCkTkub2,html-keyboard-response,136,991831,0.0-46.0-4.0-2.0-1.0-1.0,,,,,,,,,,,,,,,63ea497523794756c703094c,11:57:49,03/04/2024
1430.0,,,ospan,symmetry,jb1rVboOmNhiqMnta28LUCkTkub2,symmetry-judgement-task,137,995146,0.0-46.0-4.0-2.0-1.0-2.0,,,,,,,,,,1.0,1.0,,,,63ea497523794756c703094c,11:57:49,03/04/2024
,"<div style=""font-size: 10rem; color: #0000FF"">S</div>",,ospan,letter,jb1rVboOmNhiqMnta28LUCkTkub2,html-keyboard-response,138,996148,0.0-46.0-4.0-2.0-1.0-3.0,,,,,,,,,,,,,,,63ea497523794756c703094c,11:57:49,03/04/2024
1597.0,,,ospan,symmetry,jb1rVboOmNhiqMnta28LUCkTkub2,symmetry-judgement-task,139,999643,0.0-46.0-4.0-2.0-1.0-4.0,,,,,,,,,,1.0,1.0,,,,63ea497523794756c703094c,11:57:49,03/04/2024
,"<div style=""font-size: 10rem; color: #0000FF"">P</div>",,ospan,letter,jb1rVboOmNhiqMnta28LUCkTkub2,html-keyboard-response,140,1000645,0.0-46.0-4.0-2.0-1.0-5.0,,,,,,,,,,,,,,,63ea497523794756c703094c,11:57:49,03/04/2024
3364.0,"<div class = numbox><p style=""font-size: 2.4rem"">Please recall the letters you saw to the best of your ability. If you do not remember a particular letter, use the SKIP button.<br><b>(When you are ready to lock in your answer, press ENTER)</b></p><button id = button_1 class = ""square num-button"" onclick = ""recordClick(this)""><div class = content><div class = numbers>C</div></div></button><button id = button_2 class = ""square num-button"" onclick = ""recordClick(this)""><div class = content><div class = numbers>G</div></div></button><button id = button_3 class = ""square num-button"" onclick = ""recordClick(this)""><div class = content><div class = numbers>H</div></div></button><button id = button_4 class = ""square num-button"" onclick = ""recordClick(this)""><div class = content><div class = numbers>J</div></div></button><button id = button_5 class = ""square num-button"" onclick = ""recordClick(this)""><div class = content><div class = numbers>K</div></div></button><button id = button_6 class = ""square num-button"" onclick = ""recordClick(this)""><div class = content><div class = numbers>L</div></div></button><button id = button_7 class = ""square num-button"" onclick = ""recordClick(this)""><div class = content><div class = numbers>N</div></div></button><button id = button_8 class = ""square num-button"" onclick = ""recordClick(this)""><div class = content><div class = numbers>P</div></div></button><button id = button_9 class = ""square num-button"" onclick = ""recordClick(this)""><div class = content><div class = numbers>Q</div></div></button><button id = button_10 class = ""square num-button"" onclick = ""recordClick(this)""><div class = content><div class = numbers>R</div></div></button><button id = button_11 class = ""square num-button"" onclick = ""recordClick(this)""><div class = content><div class = numbers>S</div></div></button><button id = button_12 class = ""square num-button"" onclick = ""recordClick(this)""><div class = content><div class = numbers>Y</div></div></button><button class = clear_button id = ""ClearButton"" onclick = ""clearResponse()"">BACKSPACE</button><button class = blank_button id = ""BlankButton"" onclick = ""blankResponse()"">SKIP</button><p style=""font-size: 2.4rem""><u><b>Current Answer:</b></u></p><br><br><div id=echoed_txt style=""font-size: 5rem; color:blue;""><b></b></div></div>",enter,ospan,retrieval,jb1rVboOmNhiqMnta28LUCkTkub2,html-keyboard-response,141,1004762,0.0-46.0-4.0-2.0-2.0,15,15,15,3.0,"[""K"",""S"",""P""]","[""K"",""S"",""P""]",1.0,3.0,,,,,,,63ea497523794756c703094c,11:57:49,03/04/2024
1776.0,[''],0,ospan,feedback,jb1rVboOmNhiqMnta28LUCkTkub2,html-button-response,142,1007041,0.0-46.0-4.0-2.0-3.0,,,,,,,,,,,,93.0,0.0,,63ea497523794756c703094c,11:57:49,03/04/2024
,"<p style=""font-size:75px;"">...</p>",,ospan,iti,jb1rVboOmNhiqMnta28LUCkTkub2,html-keyboard-response,143,1008046,0.0-46.0-5.0-0.0-0.0,,,,,,,,,,,,,,,63ea497523794756c703094c,11:57:49,03/04/2024
1153.0,,,ospan,symmetry,jb1rVboOmNhiqMnta28LUCkTkub2,symmetry-judgement-task,144,1010342,0.0-46.0-5.0-0.0-1.0-0.0,,,,,,,,,,1.0,1.0,,,,63ea497523794756c703094c,11:57:49,03/04/2024
,"<div style=""font-size: 10rem; color: #0000FF"">K</div>",,ospan,letter,jb1rVboOmNhiqMnta28LUCkTkub2,html-keyboard-response,145,1011344,0.0-46.0-5.0-0.0-1.0-1.0,,,,,,,,,,,,,,,63ea497523794756c703094c,11:57:49,03/04/2024
1284.0,,,ospan,symmetry,jb1rVboOmNhiqMnta28LUCkTkub2,symmetry-judgement-task,146,1014524,0.0-46.0-5.0-0.0-1.0-2.0,,,,,,,,,,1.0,1.0,,,,63ea497523794756c703094c,11:57:49,03/04/2024
,"<div style=""font-size: 10rem; color: #0000FF"">S</div>",,ospan,letter,jb1rVboOmNhiqMnta28LUCkTkub2,html-keyboard-response,147,1015527,0.0-46.0-5.0-0.0-1.0-3.0,,,,,,,,,,,,,,,63ea497523794756c703094c,11:57:49,03/04/2024
1277.0,,,ospan,symmetry,jb1rVboOmNhiqMnta28LUCkTkub2,symmetry-judgement-task,148,1018699,0.0-46.0-5.0-0.0-1.0-4.0,,,,,,,,,,1.0,1.0,,,,63ea497523794756c703094c,11:57:49,03/04/2024
,"<div style=""font-size: 10rem; color: #0000FF"">H</div>",,ospan,letter,jb1rVboOmNhiqMnta28LUCkTkub2,html-keyboard-response,149,1019701,0.0-46.0-5.0-0.0-1.0-5.0,,,,,,,,,,,,,,,63ea497523794756c703094c,11:57:49,03/04/2024
1374.0,,,ospan,symmetry,jb1rVboOmNhiqMnta28LUCkTkub2,symmetry-judgement-task,150,1022960,0.0-46.0-5.0-0.0-1.0-6.0,,,,,,,,,,1.0,1.0,,,,63ea497523794756c703094c,11:57:49,03/04/2024
,"<div style=""font-size: 10rem; color: #0000FF"">R</div>",,ospan,letter,jb1rVboOmNhiqMnta28LUCkTkub2,html-keyboard-response,151,1023963,0.0-46.0-5.0-0.0-1.0-7.0,,,,,,,,,,,,,,,63ea497523794756c703094c,11:57:49,03/04/2024
1377.0,,,ospan,symmetry,jb1rVboOmNhiqMnta28LUCkTkub2,symmetry-judgement-task,152,1027224,0.0-46.0-5.0-0.0-1.0-8.0,,,,,,,,,,1.0,1.0,,,,63ea497523794756c703094c,11:57:49,03/04/2024
,"<div style=""font-size: 10rem; color: #0000FF"">L</div>",,ospan,letter,jb1rVboOmNhiqMnta28LUCkTkub2,html-keyboard-response,153,1028226,0.0-46.0-5.0-0.0-1.0-9.0,,,,,,,,,,,,,,,63ea497523794756c703094c,11:57:49,03/04/2024
1326.0,,,ospan,symmetry,jb1rVboOmNhiqMnta28LUCkTkub2,symmetry-judgement-task,154,1031449,0.0-46.0-5.0-0.0-1.0-10.0,,,,,,,,,,1.0,1.0,,,,63ea497523794756c703094c,11:57:49,03/04/2024
,"<div style=""font-size: 10rem; color: #0000FF"">N</div>",,ospan,letter,jb1rVboOmNhiqMnta28LUCkTkub2,html-keyboard-response,155,1032452,0.0-46.0-5.0-0.0-1.0-11.0,,,,,,,,,,,,,,,63ea497523794756c703094c,11:57:49,03/04/2024
6036.0,"<div class = numbox><p style=""font-size: 2.4rem"">Please recall the letters you saw to the best of your ability. If you do not remember a particular letter, use the SKIP button.<br><b>(When you are ready to lock in your answer, press ENTER)</b></p><button id = button_1 class = ""square num-button"" onclick = ""recordClick(this)""><div class = content><div class = numbers>C</div></div></button><button id = button_2 class = ""square num-button"" onclick = ""recordClick(this)""><div class = content><div class = numbers>G</div></div></button><button id = button_3 class = ""square num-button"" onclick = ""recordClick(this)""><div class = content><div class = numbers>H</div></div></button><button id = button_4 class = ""square num-button"" onclick = ""recordClick(this)""><div class = content><div class = numbers>J</div></div></button><button id = button_5 class = ""square num-button"" onclick = ""recordClick(this)""><div class = content><div class = numbers>K</div></div></button><button id = button_6 class = ""square num-button"" onclick = ""recordClick(this)""><div class = content><div class = numbers>L</div></div></button><button id = button_7 class = ""square num-button"" onclick = ""recordClick(this)""><div class = content><div class = numbers>N</div></div></button><button id = button_8 class = ""square num-button"" onclick = ""recordClick(this)""><div class = content><div class = numbers>P</div></div></button><button id = button_9 class = ""square num-button"" onclick = ""recordClick(this)""><div class = content><div class = numbers>Q</div></div></button><button id = button_10 class = ""square num-button"" onclick = ""recordClick(this)""><div class = content><div class = numbers>R</div></div></button><button id = button_11 class = ""square num-button"" onclick = ""recordClick(this)""><div class = content><div class = numbers>S</div></div></button><button id = button_12 class = ""square num-button"" onclick = ""recordClick(this)""><div class = content><div class = numbers>Y</div></div></button><button class = clear_button id = ""ClearButton"" onclick = ""clearResponse()"">BACKSPACE</button><button class = blank_button id = ""BlankButton"" onclick = ""blankResponse()"">SKIP</button><p style=""font-size: 2.4rem""><u><b>Current Answer:</b></u></p><br><br><div id=echoed_txt style=""font-size: 5rem; color:blue;""><b></b></div></div>",enter,ospan,retrieval,jb1rVboOmNhiqMnta28LUCkTkub2,html-keyboard-response,156,1039241,0.0-46.0-5.0-0.0-2.0,21,19,15,6.0,"[""K"",""S"",""H"",""R"",""N""]","[""K"",""S"",""H"",""R"",""L"",""N""]",0.0,4.0,,,,,,,63ea497523794756c703094c,11:57:49,03/04/2024
1072.0000000002328,[''],0,ospan,feedback,jb1rVboOmNhiqMnta28LUCkTkub2,html-button-response,157,1040816,0.0-46.0-5.0-0.0-3.0,,,,,,,,,,,,95.0,0.0,,63ea497523794756c703094c,11:57:49,03/04/2024
,"<p style=""font-size:75px;"">...</p>",,ospan,iti,jb1rVboOmNhiqMnta28LUCkTkub2,html-keyboard-response,158,1041820,0.0-46.0-5.0-1.0-0.0,,,,,,,,,,,,,,,63ea497523794756c703094c,11:57:49,03/04/2024
1196.0,,,ospan,symmetry,jb1rVboOmNhiqMnta28LUCkTkub2,symmetry-judgement-task,159,1044151,0.0-46.0-5.0-1.0-1.0-0.0,,,,,,,,,,1.0,1.0,,,,63ea497523794756c703094c,11:57:49,03/04/2024
,"<div style=""font-size: 10rem; color: #0000FF"">Y</div>",,ospan,letter,jb1rVboOmNhiqMnta28LUCkTkub2,html-keyboard-response,160,1045153,0.0-46.0-5.0-1.0-1.0-1.0,,,,,,,,,,,,,,,63ea497523794756c703094c,11:57:49,03/04/2024
1195.0,,,ospan,symmetry,jb1rVboOmNhiqMnta28LUCkTkub2,symmetry-judgement-task,161,1048240,0.0-46.0-5.0-1.0-1.0-2.0,,,,,,,,,,1.0,1.0,,,,63ea497523794756c703094c,11:57:49,03/04/2024
,"<div style=""font-size: 10rem; color: #0000FF"">K</div>",,ospan,letter,jb1rVboOmNhiqMnta28LUCkTkub2,html-keyboard-response,162,1049242,0.0-46.0-5.0-1.0-1.0-3.0,,,,,,,,,,,,,,,63ea497523794756c703094c,11:57:49,03/04/2024
1375.0,,,ospan,symmetry,jb1rVboOmNhiqMnta28LUCkTkub2,symmetry-judgement-task,163,1052510,0.0-46.0-5.0-1.0-1.0-4.0,,,,,,,,,,1.0,1.0,,,,63ea497523794756c703094c,11:57:49,03/04/2024
,"<div style=""font-size: 10rem; color: #0000FF"">S</div>",,ospan,letter,jb1rVboOmNhiqMnta28LUCkTkub2,html-keyboard-response,164,1053513,0.0-46.0-5.0-1.0-1.0-5.0,,,,,,,,,,,,,,,63ea497523794756c703094c,11:57:49,03/04/2024
1130.0,,,ospan,symmetry,jb1rVboOmNhiqMnta28LUCkTkub2,symmetry-judgement-task,165,1056534,0.0-46.0-5.0-1.0-1.0-6.0,,,,,,,,,,1.0,1.0,,,,63ea497523794756c703094c,11:57:49,03/04/2024
,"<div style=""font-size: 10rem; color: #0000FF"">C</div>",,ospan,letter,jb1rVboOmNhiqMnta28LUCkTkub2,html-keyboard-response,166,1057536,0.0-46.0-5.0-1.0-1.0-7.0,,,,,,,,,,,,,,,63ea497523794756c703094c,11:57:49,03/04/2024
1237.0,,,ospan,symmetry,jb1rVboOmNhiqMnta28LUCkTkub2,symmetry-judgement-task,167,1060657,0.0-46.0-5.0-1.0-1.0-8.0,,,,,,,,,,1.0,1.0,,,,63ea497523794756c703094c,11:57:49,03/04/2024
,"<div style=""font-size: 10rem; color: #0000FF"">Q</div>",,ospan,letter,jb1rVboOmNhiqMnta28LUCkTkub2,html-keyboard-response,168,1061658,0.0-46.0-5.0-1.0-1.0-9.0,,,,,,,,,,,,,,,63ea497523794756c703094c,11:57:49,03/04/2024
1294.0,,,ospan,symmetry,jb1rVboOmNhiqMnta28LUCkTkub2,symmetry-judgement-task,169,1064838,0.0-46.0-5.0-1.0-1.0-10.0,,,,,,,,,,1.0,1.0,,,,63ea497523794756c703094c,11:57:49,03/04/2024
,"<div style=""font-size: 10rem; color: #0000FF"">J</div>",,ospan,letter,jb1rVboOmNhiqMnta28LUCkTkub2,html-keyboard-response,170,1065840,0.0-46.0-5.0-1.0-1.0-11.0,,,,,,,,,,,,,,,63ea497523794756c703094c,11:57:49,03/04/2024
1419.0,,,ospan,symmetry,jb1rVboOmNhiqMnta28LUCkTkub2,symmetry-judgement-task,171,1069148,0.0-46.0-5.0-1.0-1.0-12.0,,,,,,,,,,1.0,1.0,,,,63ea497523794756c703094c,11:57:49,03/04/2024
,"<div style=""font-size: 10rem; color: #0000FF"">P</div>",,ospan,letter,jb1rVboOmNhiqMnta28LUCkTkub2,html-keyboard-response,172,1070149,0.0-46.0-5.0-1.0-1.0-13.0,,,,,,,,,,,,,,,63ea497523794756c703094c,11:57:49,03/04/2024
9223.000000000233,"<div class = numbox><p style=""font-size: 2.4rem"">Please recall the letters you saw to the best of your ability. If you do not remember a particular letter, use the SKIP button.<br><b>(When you are ready to lock in your answer, press ENTER)</b></p><button id = button_1 class = ""square num-button"" onclick = ""recordClick(this)""><div class = content><div class = numbers>C</div></div></button><button id = button_2 class = ""square num-button"" onclick = ""recordClick(this)""><div class = content><div class = numbers>G</div></div></button><button id = button_3 class = ""square num-button"" onclick = ""recordClick(this)""><div class = content><div class = numbers>H</div></div></button><button id = button_4 class = ""square num-button"" onclick = ""recordClick(this)""><div class = content><div class = numbers>J</div></div></button><button id = button_5 class = ""square num-button"" onclick = ""recordClick(this)""><div class = content><div class = numbers>K</div></div></button><button id = button_6 class = ""square num-button"" onclick = ""recordClick(this)""><div class = content><div class = numbers>L</div></div></button><button id = button_7 class = ""square num-button"" onclick = ""recordClick(this)""><div class = content><div class = numbers>N</div></div></button><button id = button_8 class = ""square num-button"" onclick = ""recordClick(this)""><div class = content><div class = numbers>P</div></div></button><button id = button_9 class = ""square num-button"" onclick = ""recordClick(this)""><div class = content><div class = numbers>Q</div></div></button><button id = button_10 class = ""square num-button"" onclick = ""recordClick(this)""><div class = content><div class = numbers>R</div></div></button><button id = button_11 class = ""square num-button"" onclick = ""recordClick(this)""><div class = content><div class = numbers>S</div></div></button><button id = button_12 class = ""square num-button"" onclick = ""recordClick(this)""><div class = content><div class = numbers>Y</div></div></button><button class = clear_button id = ""ClearButton"" onclick = ""clearResponse()"">BACKSPACE</button><button class = blank_button id = ""BlankButton"" onclick = ""blankResponse()"">SKIP</button><p style=""font-size: 2.4rem""><u><b>Current Answer:</b></u></p><br><br><div id=echoed_txt style=""font-size: 5rem; color:blue;""><b></b></div></div>",enter,ospan,retrieval,jb1rVboOmNhiqMnta28LUCkTkub2,html-keyboard-response,173,1080126,0.0-46.0-5.0-1.0-2.0,28,20,15,7.0,"[""Y"",""S"",""K"",""Q"",""P""]","[""Y"",""K"",""S"",""C"",""Q"",""J"",""P""]",0.0,1.0,,,,,,,63ea497523794756c703094c,11:57:49,03/04/2024
3697.0,[''],0,ospan,feedback,jb1rVboOmNhiqMnta28LUCkTkub2,html-button-response,174,1084325,0.0-46.0-5.0-1.0-3.0,,,,,,,,,,,,96.0,0.0,,63ea497523794756c703094c,11:57:49,03/04/2024
,"<p style=""font-size:75px;"">...</p>",,ospan,iti,jb1rVboOmNhiqMnta28LUCkTkub2,html-keyboard-response,175,1085330,0.0-46.0-6.0-0.0-0.0,,,,,,,,,,,,,,,63ea497523794756c703094c,11:57:49,03/04/2024
1226.0,,,ospan,symmetry,jb1rVboOmNhiqMnta28LUCkTkub2,symmetry-judgement-task,176,1087704,0.0-46.0-6.0-0.0-1.0-0.0,,,,,,,,,,1.0,1.0,,,,63ea497523794756c703094c,11:57:49,03/04/2024
,"<div style=""font-size: 10rem; color: #0000FF"">R</div>",,ospan,letter,jb1rVboOmNhiqMnta28LUCkTkub2,html-keyboard-response,177,1088707,0.0-46.0-6.0-0.0-1.0-1.0,,,,,,,,,,,,,,,63ea497523794756c703094c,11:57:49,03/04/2024
1127.0,,,ospan,symmetry,jb1rVboOmNhiqMnta28LUCkTkub2,symmetry-judgement-task,178,1091720,0.0-46.0-6.0-0.0-1.0-2.0,,,,,,,,,,1.0,1.0,,,,63ea497523794756c703094c,11:57:49,03/04/2024
,"<div style=""font-size: 10rem; color: #0000FF"">N</div>",,ospan,letter,jb1rVboOmNhiqMnta28LUCkTkub2,html-keyboard-response,179,1092722,0.0-46.0-6.0-0.0-1.0-3.0,,,,,,,,,,,,,,,63ea497523794756c703094c,11:57:49,03/04/2024
1217.0,,,ospan,symmetry,jb1rVboOmNhiqMnta28LUCkTkub2,symmetry-judgement-task,180,1095823,0.0-46.0-6.0-0.0-1.0-4.0,,,,,,,,,,1.0,1.0,,,,63ea497523794756c703094c,11:57:49,03/04/2024
,"<div style=""font-size: 10rem; color: #0000FF"">G</div>",,ospan,letter,jb1rVboOmNhiqMnta28LUCkTkub2,html-keyboard-response,181,1096826,0.0-46.0-6.0-0.0-1.0-5.0,,,,,,,,,,,,,,,63ea497523794756c703094c,11:57:49,03/04/2024
1322.0,,,ospan,symmetry,jb1rVboOmNhiqMnta28LUCkTkub2,symmetry-judgement-task,182,1100039,0.0-46.0-6.0-0.0-1.0-6.0,,,,,,,,,,1.0,1.0,,,,63ea497523794756c703094c,11:57:49,03/04/2024
,"<div style=""font-size: 10rem; color: #0000FF"">L</div>",,ospan,letter,jb1rVboOmNhiqMnta28LUCkTkub2,html-keyboard-response,183,1101042,0.0-46.0-6.0-0.0-1.0-7.0,,,,,,,,,,,,,,,63ea497523794756c703094c,11:57:49,03/04/2024
1064.0,,,ospan,symmetry,jb1rVboOmNhiqMnta28LUCkTkub2,symmetry-judgement-task,184,1103991,0.0-46.0-6.0-0.0-1.0-8.0,,,,,,,,,,1.0,1.0,,,,63ea497523794756c703094c,11:57:49,03/04/2024
,"<div style=""font-size: 10rem; color: #0000FF"">J</div>",,ospan,letter,jb1rVboOmNhiqMnta28LUCkTkub2,html-keyboard-response,185,1104993,0.0-46.0-6.0-0.0-1.0-9.0,,,,,,,,,,,,,,,63ea497523794756c703094c,11:57:49,03/04/2024
5626.0,"<div class = numbox><p style=""font-size: 2.4rem"">Please recall the letters you saw to the best of your ability. If you do not remember a particular letter, use the SKIP button.<br><b>(When you are ready to lock in your answer, press ENTER)</b></p><button id = button_1 class = ""square num-button"" onclick = ""recordClick(this)""><div class = content><div class = numbers>C</div></div></button><button id = button_2 class = ""square num-button"" onclick = ""recordClick(this)""><div class = content><div class = numbers>G</div></div></button><button id = button_3 class = ""square num-button"" onclick = ""recordClick(this)""><div class = content><div class = numbers>H</div></div></button><button id = button_4 class = ""square num-button"" onclick = ""recordClick(this)""><div class = content><div class = numbers>J</div></div></button><button id = button_5 class = ""square num-button"" onclick = ""recordClick(this)""><div class = content><div class = numbers>K</div></div></button><button id = button_6 class = ""square num-button"" onclick = ""recordClick(this)""><div class = content><div class = numbers>L</div></div></button><button id = button_7 class = ""square num-button"" onclick = ""recordClick(this)""><div class = content><div class = numbers>N</div></div></button><button id = button_8 class = ""square num-button"" onclick = ""recordClick(this)""><div class = content><div class = numbers>P</div></div></button><button id = button_9 class = ""square num-button"" onclick = ""recordClick(this)""><div class = content><div class = numbers>Q</div></div></button><button id = button_10 class = ""square num-button"" onclick = ""recordClick(this)""><div class = content><div class = numbers>R</div></div></button><button id = button_11 class = ""square num-button"" onclick = ""recordClick(this)""><div class = content><div class = numbers>S</div></div></button><button id = button_12 class = ""square num-button"" onclick = ""recordClick(this)""><div class = content><div class = numbers>Y</div></div></button><button class = clear_button id = ""ClearButton"" onclick = ""clearResponse()"">BACKSPACE</button><button class = blank_button id = ""BlankButton"" onclick = ""blankResponse()"">SKIP</button><p style=""font-size: 2.4rem""><u><b>Current Answer:</b></u></p><br><br><div id=echoed_txt style=""font-size: 5rem; color:blue;""><b></b></div></div>",enter,ospan,retrieval,jb1rVboOmNhiqMnta28LUCkTkub2,html-keyboard-response,186,1111371,0.0-46.0-6.0-0.0-2.0,33,25,20,5.0,"[""R"",""N"",""G"",""L"",""J""]","[""R"",""N"",""G"",""L"",""J""]",1.0,5.0,,,,,,,63ea497523794756c703094c,11:57:49,03/04/2024
1094.0,[''],0,ospan,feedback,jb1rVboOmNhiqMnta28LUCkTkub2,html-button-response,187,1112969,0.0-46.0-6.0-0.0-3.0,,,,,,,,,,,,97.0,0.0,,63ea497523794756c703094c,11:57:49,03/04/2024
,"<p style=""font-size:75px;"">...</p>",,ospan,iti,jb1rVboOmNhiqMnta28LUCkTkub2,html-keyboard-response,188,1113973,0.0-46.0-6.0-1.0-0.0,,,,,,,,,,,,,,,63ea497523794756c703094c,11:57:49,03/04/2024
1560.0,,,ospan,symmetry,jb1rVboOmNhiqMnta28LUCkTkub2,symmetry-judgement-task,189,1116710,0.0-46.0-6.0-1.0-1.0-0.0,,,,,,,,,,1.0,1.0,,,,63ea497523794756c703094c,11:57:49,03/04/2024
,"<div style=""font-size: 10rem; color: #0000FF"">H</div>",,ospan,letter,jb1rVboOmNhiqMnta28LUCkTkub2,html-keyboard-response,190,1117712,0.0-46.0-6.0-1.0-1.0-1.0,,,,,,,,,,,,,,,63ea497523794756c703094c,11:57:49,03/04/2024
1332.0,,,ospan,symmetry,jb1rVboOmNhiqMnta28LUCkTkub2,symmetry-judgement-task,191,1120943,0.0-46.0-6.0-1.0-1.0-2.0,,,,,,,,,,1.0,1.0,,,,63ea497523794756c703094c,11:57:49,03/04/2024
,"<div style=""font-size: 10rem; color: #0000FF"">G</div>",,ospan,letter,jb1rVboOmNhiqMnta28LUCkTkub2,html-keyboard-response,192,1121945,0.0-46.0-6.0-1.0-1.0-3.0,,,,,,,,,,,,,,,63ea497523794756c703094c,11:57:49,03/04/2024
1324.0,,,ospan,symmetry,jb1rVboOmNhiqMnta28LUCkTkub2,symmetry-judgement-task,193,1125166,0.0-46.0-6.0-1.0-1.0-4.0,,,,,,,,,,1.0,1.0,,,,63ea497523794756c703094c,11:57:49,03/04/2024
,"<div style=""font-size: 10rem; color: #0000FF"">Y</div>",,ospan,letter,jb1rVboOmNhiqMnta28LUCkTkub2,html-keyboard-response,194,1126168,0.0-46.0-6.0-1.0-1.0-5.0,,,,,,,,,,,,,,,63ea497523794756c703094c,11:57:49,03/04/2024
1987.0,,,ospan,symmetry,jb1rVboOmNhiqMnta28LUCkTkub2,symmetry-judgement-task,195,1130047,0.0-46.0-6.0-1.0-1.0-6.0,,,,,,,,,,1.0,1.0,,,,63ea497523794756c703094c,11:57:49,03/04/2024
,"<div style=""font-size: 10rem; color: #0000FF"">N</div>",,ospan,letter,jb1rVboOmNhiqMnta28LUCkTkub2,html-keyboard-response,196,1131049,0.0-46.0-6.0-1.0-1.0-7.0,,,,,,,,,,,,,,,63ea497523794756c703094c,11:57:49,03/04/2024
1146.0,,,ospan,symmetry,jb1rVboOmNhiqMnta28LUCkTkub2,symmetry-judgement-task,197,1134091,0.0-46.0-6.0-1.0-1.0-8.0,,,,,,,,,,1.0,1.0,,,,63ea497523794756c703094c,11:57:49,03/04/2024
,"<div style=""font-size: 10rem; color: #0000FF"">C</div>",,ospan,letter,jb1rVboOmNhiqMnta28LUCkTkub2,html-keyboard-response,198,1135094,0.0-46.0-6.0-1.0-1.0-9.0,,,,,,,,,,,,,,,63ea497523794756c703094c,11:57:49,03/04/2024
1212.0,,,ospan,symmetry,jb1rVboOmNhiqMnta28LUCkTkub2,symmetry-judgement-task,199,1138200,0.0-46.0-6.0-1.0-1.0-10.0,,,,,,,,,,1.0,1.0,,,,63ea497523794756c703094c,11:57:49,03/04/2024
,"<div style=""font-size: 10rem; color: #0000FF"">S</div>",,ospan,letter,jb1rVboOmNhiqMnta28LUCkTkub2,html-keyboard-response,200,1139203,0.0-46.0-6.0-1.0-1.0-11.0,,,,,,,,,,,,,,,63ea497523794756c703094c,11:57:49,03/04/2024
1150.0,,,ospan,symmetry,jb1rVboOmNhiqMnta28LUCkTkub2,symmetry-judgement-task,201,1142242,0.0-46.0-6.0-1.0-1.0-12.0,,,,,,,,,,1.0,1.0,,,,63ea497523794756c703094c,11:57:49,03/04/2024
,"<div style=""font-size: 10rem; color: #0000FF"">R</div>",,ospan,letter,jb1rVboOmNhiqMnta28LUCkTkub2,html-keyboard-response,202,1143244,0.0-46.0-6.0-1.0-1.0-13.0,,,,,,,,,,,,,,,63ea497523794756c703094c,11:57:49,03/04/2024
1806.0,,,ospan,symmetry,jb1rVboOmNhiqMnta28LUCkTkub2,symmetry-judgement-task,203,1146945,0.0-46.0-6.0-1.0-1.0-14.0,,,,,,,,,,1.0,1.0,,,,63ea497523794756c703094c,11:57:49,03/04/2024
,"<div style=""font-size: 10rem; color: #0000FF"">P</div>",,ospan,letter,jb1rVboOmNhiqMnta28LUCkTkub2,html-keyboard-response,204,1147946,0.0-46.0-6.0-1.0-1.0-15.0,,,,,,,,,,,,,,,63ea497523794756c703094c,11:57:49,03/04/2024
19754.0,"<div class = numbox><p style=""font-size: 2.4rem"">Please recall the letters you saw to the best of your ability. If you do not remember a particular letter, use the SKIP button.<br><b>(When you are ready to lock in your answer, press ENTER)</b></p><button id = button_1 class = ""square num-button"" onclick = ""recordClick(this)""><div class = content><div class = numbers>C</div></div></button><button id = button_2 class = ""square num-button"" onclick = ""recordClick(this)""><div class = content><div class = numbers>G</div></div></button><button id = button_3 class = ""square num-button"" onclick = ""recordClick(this)""><div class = content><div class = numbers>H</div></div></button><button id = button_4 class = ""square num-button"" onclick = ""recordClick(this)""><div class = content><div class = numbers>J</div></div></button><button id = button_5 class = ""square num-button"" onclick = ""recordClick(this)""><div class = content><div class = numbers>K</div></div></button><button id = button_6 class = ""square num-button"" onclick = ""recordClick(this)""><div class = content><div class = numbers>L</div></div></button><button id = button_7 class = ""square num-button"" onclick = ""recordClick(this)""><div class = content><div class = numbers>N</div></div></button><button id = button_8 class = ""square num-button"" onclick = ""recordClick(this)""><div class = content><div class = numbers>P</div></div></button><button id = button_9 class = ""square num-button"" onclick = ""recordClick(this)""><div class = content><div class = numbers>Q</div></div></button><button id = button_10 class = ""square num-button"" onclick = ""recordClick(this)""><div class = content><div class = numbers>R</div></div></button><button id = button_11 class = ""square num-button"" onclick = ""recordClick(this)""><div class = content><div class = numbers>S</div></div></button><button id = button_12 class = ""square num-button"" onclick = ""recordClick(this)""><div class = content><div class = numbers>Y</div></div></button><button class = clear_button id = ""ClearButton"" onclick = ""clearResponse()"">BACKSPACE</button><button class = blank_button id = ""BlankButton"" onclick = ""blankResponse()"">SKIP</button><p style=""font-size: 2.4rem""><u><b>Current Answer:</b></u></p><br><br><div id=echoed_txt style=""font-size: 5rem; color:blue;""><b></b></div></div>",enter,ospan,retrieval,jb1rVboOmNhiqMnta28LUCkTkub2,html-keyboard-response,205,1168455,0.0-46.0-6.0-1.0-2.0,41,28,20,8.0,"[""H"",""G"",""R"",""C"",""Y"",""S"",""P"",""N""]","[""H"",""G"",""Y"",""N"",""C"",""S"",""R"",""P""]",0.0,3.0,,,,,,,63ea497523794756c703094c,11:57:49,03/04/2024
4626.0,[''],0,ospan,feedback,jb1rVboOmNhiqMnta28LUCkTkub2,html-button-response,206,1173584,0.0-46.0-6.0-1.0-3.0,,,,,,,,,,,,98.0,0.0,,63ea497523794756c703094c,11:57:49,03/04/2024
36211.0,,{'Q0': 'it was all clear.  It would be helpful to know how many letters we need to remember at end.'},ospan,survey_ospan,jb1rVboOmNhiqMnta28LUCkTkub2,lmdlab-survey-text,207,1210552,0.0-46.0-7.0,,,,,,,,,,,,,,jb1rVboOmNhiqMnta28LUCkTkub2,63ea497523794756c703094c,11:57:49,03/04/2024
1234.0,<p><p style='font-size: 3rem'>Great work!<br><br>This completes the symmetry and memory task.</p><br><br><br>,0,ospan,finish,jb1rVboOmNhiqMnta28LUCkTkub2,html-button-response,208,1211789,0.0-46.0-8.0,41,28,20,,,,,,,,,98.0,,,63ea497523794756c703094c,11:57:49,03/04/2024
