rt,stimulus,response,exp_name,exp_stage,subjectID,trial_type,trial_index,time_elapsed,internal_node_id,ospan_shown,ospan_total,ospan_abs,length,resp_actual,resp_correct,full_correct,num_correct,feedback,accuracy,correct,math_acc,math_warning,databaseID,prolificID,start_time,date
2392.0,<div class = 'left_align' style='font-size: 3.25rem; line-height: 1.3;'><p class = 'center_align'><b>Welcome to the Symmetry and Memory Task</b><br><br><br><br></p>Press 'continue' to show the instructions.<br><br><br><br></div>,0,ospan,instruct,TBItH5KtR1dNSHj3jd1fht3TKvH3,html-button-response,54,371974,0.0-46.0-0.0-0.0-0.0,,,,,,,,,,,,,,,563e35190980220011572d9a,09:26:08,03/04/2024
1814.0,"<div class = 'left_align' style='font-size: 3.25rem; line-height: 1.3;'><p class = 'center_align'><b>Symmetry and Memory Task</b><br><br></p>In this task, you will try to memorize letters you see on the screen<br>while you also view black and white grid pictures.<br><br>In the next few minutes, you will have some practice to get you familiar<br>with how the task works.<br><br>It may be difficult sometimes, but please do not worry about making mistakes!<br><br>We will begin by practicing the letter part of the task.<br><br><br><br></div>",0,ospan,instruct,TBItH5KtR1dNSHj3jd1fht3TKvH3,html-button-response,55,374042,0.0-46.0-0.0-0.0-1.0,,,,,,,,,,,,,,,563e35190980220011572d9a,09:26:08,03/04/2024
3796.0,"<div class = 'left_align' style='font-size: 3.25rem; line-height: 1.3;'>For this practice part, letters will appear on the screen one at a time.<br><br>Try to remember each letter in the order presented.<br><br>After some letters have been shown, you will see a response screen. Your<br>goal is to report the letters you saw <b>in order</b>. If you do not remember<br>a particular letter, you will have the option to leave it blank.<br><br><br><br></div>",0,ospan,instruct,TBItH5KtR1dNSHj3jd1fht3TKvH3,html-button-response,56,378091,0.0-46.0-0.0-0.0-2.0,,,,,,,,,,,,,,,563e35190980220011572d9a,09:26:08,03/04/2024
2929.999999999942,"<div class = 'left_align' style='font-size: 3.25rem; line-height: 1.3;'>Remember, it is very important to get the letters in the same<br>order as you see them.<br><br>When you are ready, you may begin the letter practice.</div><br><br><br><br>",0,ospan,instruct,TBItH5KtR1dNSHj3jd1fht3TKvH3,html-button-response,57,381275,0.0-46.0-0.0-0.0-3.0,,,,,,,,,,,,,,,563e35190980220011572d9a,09:26:08,03/04/2024
,"<p style=""font-size:75px;"">...</p>",,ospan,iti,TBItH5KtR1dNSHj3jd1fht3TKvH3,html-keyboard-response,58,382530,0.0-46.0-0.0-1.0-0.0,,,,,,,,,,,,,,,563e35190980220011572d9a,09:26:08,03/04/2024
,"<div style=""font-size: 10rem; color: #0000FF"">K</div>",,ospan,letter,TBItH5KtR1dNSHj3jd1fht3TKvH3,html-keyboard-response,59,383534,0.0-46.0-0.0-1.0-1.0,,,,,,,,,,,,,,,563e35190980220011572d9a,09:26:08,03/04/2024
,"<div style=""font-size: 10rem; color: #0000FF"">N</div>",,ospan,letter,TBItH5KtR1dNSHj3jd1fht3TKvH3,html-keyboard-response,60,385289,0.0-46.0-0.0-1.0-2.0,,,,,,,,,,,,,,,563e35190980220011572d9a,09:26:08,03/04/2024
7229.0,"<div class = numbox><p style=""font-size: 2.4rem"">Please recall the letters you saw to the best of your ability. If you do not remember a particular letter, use the SKIP button.<br><b>(When you are ready to lock in your answer, press ENTER)</b></p><button id = button_1 class = ""square num-button"" onclick = ""recordClick(this)""><div class = content><div class = numbers>C</div></div></button><button id = button_2 class = ""square num-button"" onclick = ""recordClick(this)""><div class = content><div class = numbers>G</div></div></button><button id = button_3 class = ""square num-button"" onclick = ""recordClick(this)""><div class = content><div class = numbers>H</div></div></button><button id = button_4 class = ""square num-button"" onclick = ""recordClick(this)""><div class = content><div class = numbers>J</div></div></button><button id = button_5 class = ""square num-button"" onclick = ""recordClick(this)""><div class = content><div class = numbers>K</div></div></button><button id = button_6 class = ""square num-button"" onclick = ""recordClick(this)""><div class = content><div class = numbers>L</div></div></button><button id = button_7 class = ""square num-button"" onclick = ""recordClick(this)""><div class = content><div class = numbers>N</div></div></button><button id = button_8 class = ""square num-button"" onclick = ""recordClick(this)""><div class = content><div class = numbers>P</div></div></button><button id = button_9 class = ""square num-button"" onclick = ""recordClick(this)""><div class = content><div class = numbers>Q</div></div></button><button id = button_10 class = ""square num-button"" onclick = ""recordClick(this)""><div class = content><div class = numbers>R</div></div></button><button id = button_11 class = ""square num-button"" onclick = ""recordClick(this)""><div class = content><div class = numbers>S</div></div></button><button id = button_12 class = ""square num-button"" onclick = ""recordClick(this)""><div class = content><div class = numbers>Y</div></div></button><button class = clear_button id = ""ClearButton"" onclick = ""clearResponse()"">BACKSPACE</button><button class = blank_button id = ""BlankButton"" onclick = ""blankResponse()"">SKIP</button><p style=""font-size: 2.4rem""><u><b>Current Answer:</b></u></p><br><br><div id=echoed_txt style=""font-size: 5rem; color:blue;""><b></b></div></div>",enter,ospan,retrieval,TBItH5KtR1dNSHj3jd1fht3TKvH3,html-keyboard-response,61,393271,0.0-46.0-0.0-1.0-3.0,NA,NA,NA,2.0,"[""K"",""N""]","[""K"",""N""]",1.0,2.0,"['<font color=""green"">K</font>', '<font color=""green"">N</font>']",,,,,,563e35190980220011572d9a,09:26:08,03/04/2024
1682.0,"['<p style=""font-size:44px"">Letters:<br><br><br><font color=""green"">K</font> <font color=""green"">N</font></p><br><br>']",0,ospan,practice_feedback,TBItH5KtR1dNSHj3jd1fht3TKvH3,html-button-response,62,395458,0.0-46.0-0.0-1.0-4.0,,,,,,,,,,,,,,,563e35190980220011572d9a,09:26:08,03/04/2024
,"<p style=""font-size:75px;"">...</p>",,ospan,iti,TBItH5KtR1dNSHj3jd1fht3TKvH3,html-keyboard-response,63,396464,0.0-46.0-0.0-2.0-0.0,,,,,,,,,,,,,,,563e35190980220011572d9a,09:26:08,03/04/2024
,"<div style=""font-size: 10rem; color: #0000FF"">Y</div>",,ospan,letter,TBItH5KtR1dNSHj3jd1fht3TKvH3,html-keyboard-response,64,397467,0.0-46.0-0.0-2.0-1.0,,,,,,,,,,,,,,,563e35190980220011572d9a,09:26:08,03/04/2024
,"<div style=""font-size: 10rem; color: #0000FF"">K</div>",,ospan,letter,TBItH5KtR1dNSHj3jd1fht3TKvH3,html-keyboard-response,65,399221,0.0-46.0-0.0-2.0-2.0,,,,,,,,,,,,,,,563e35190980220011572d9a,09:26:08,03/04/2024
,"<div style=""font-size: 10rem; color: #0000FF"">S</div>",,ospan,letter,TBItH5KtR1dNSHj3jd1fht3TKvH3,html-keyboard-response,66,400974,0.0-46.0-0.0-2.0-3.0,,,,,,,,,,,,,,,563e35190980220011572d9a,09:26:08,03/04/2024
4051.000000000058,"<div class = numbox><p style=""font-size: 2.4rem"">Please recall the letters you saw to the best of your ability. If you do not remember a particular letter, use the SKIP button.<br><b>(When you are ready to lock in your answer, press ENTER)</b></p><button id = button_1 class = ""square num-button"" onclick = ""recordClick(this)""><div class = content><div class = numbers>C</div></div></button><button id = button_2 class = ""square num-button"" onclick = ""recordClick(this)""><div class = content><div class = numbers>G</div></div></button><button id = button_3 class = ""square num-button"" onclick = ""recordClick(this)""><div class = content><div class = numbers>H</div></div></button><button id = button_4 class = ""square num-button"" onclick = ""recordClick(this)""><div class = content><div class = numbers>J</div></div></button><button id = button_5 class = ""square num-button"" onclick = ""recordClick(this)""><div class = content><div class = numbers>K</div></div></button><button id = button_6 class = ""square num-button"" onclick = ""recordClick(this)""><div class = content><div class = numbers>L</div></div></button><button id = button_7 class = ""square num-button"" onclick = ""recordClick(this)""><div class = content><div class = numbers>N</div></div></button><button id = button_8 class = ""square num-button"" onclick = ""recordClick(this)""><div class = content><div class = numbers>P</div></div></button><button id = button_9 class = ""square num-button"" onclick = ""recordClick(this)""><div class = content><div class = numbers>Q</div></div></button><button id = button_10 class = ""square num-button"" onclick = ""recordClick(this)""><div class = content><div class = numbers>R</div></div></button><button id = button_11 class = ""square num-button"" onclick = ""recordClick(this)""><div class = content><div class = numbers>S</div></div></button><button id = button_12 class = ""square num-button"" onclick = ""recordClick(this)""><div class = content><div class = numbers>Y</div></div></button><button class = clear_button id = ""ClearButton"" onclick = ""clearResponse()"">BACKSPACE</button><button class = blank_button id = ""BlankButton"" onclick = ""blankResponse()"">SKIP</button><p style=""font-size: 2.4rem""><u><b>Current Answer:</b></u></p><br><br><div id=echoed_txt style=""font-size: 5rem; color:blue;""><b></b></div></div>",enter,ospan,retrieval,TBItH5KtR1dNSHj3jd1fht3TKvH3,html-keyboard-response,67,405779,0.0-46.0-0.0-2.0-4.0,NA,NA,NA,3.0,"[""Y"",""K"",""S""]","[""Y"",""K"",""S""]",1.0,3.0,"['<font color=""green"">Y</font>', '<font color=""green"">K</font>', '<font color=""green"">S</font>']",,,,,,563e35190980220011572d9a,09:26:08,03/04/2024
1307.0,"['<p style=""font-size:44px"">Letters:<br><br><br><font color=""green"">Y</font> <font color=""green"">K</font> <font color=""green"">S</font></p><br><br>']",0,ospan,practice_feedback,TBItH5KtR1dNSHj3jd1fht3TKvH3,html-button-response,68,407590,0.0-46.0-0.0-2.0-5.0,,,,,,,,,,,,,,,563e35190980220011572d9a,09:26:08,03/04/2024
7531.0,"<div class = 'left_align' style='font-size: 3.25rem; line-height: 1.3;'>Now you will practice doing the <b>symmetry judgment part</b> of the experiment.<br><br>A black and white grid picture will appear on the screen and you have to judge if it is <br>symmetrical or asymetrical.<br><br>A picture is 'mirror' symmetrical if its left half is identical to the right half when flipped.<br>Here are examples of a symmetrical and an asymetrical picture:<br><br><center><img src='Stimuli/img/symm_instructions_extra.png' style='height:420px; width:900'></img></center><br>To judge symmetry, imagine you were to fold each picture down the middle, like a book –<br>would the left half match the right half when folded onto each other?<br><br></div><br>",0,ospan,instruct,TBItH5KtR1dNSHj3jd1fht3TKvH3,html-button-response,69,415125,0.0-46.0-1.0-0.0-0.0,,,,,,,,,,,,,,,563e35190980220011572d9a,09:26:08,03/04/2024
3829.0,"<div class = 'left_align' style='font-size: 3.25rem; line-height: 1.3;'>When you have viewed the picture and determined whether it is symmetrical or not,<br>you can <b>click the Yes or No button</b> below to answer.<br><br>If you take longer than 15 seconds, it will continue automatically<br>and record the answer as an error.</div><br>",0,ospan,instruct,TBItH5KtR1dNSHj3jd1fht3TKvH3,html-button-response,70,419207,0.0-46.0-1.0-0.0-1.0,,,,,,,,,,,,,,,563e35190980220011572d9a,09:26:08,03/04/2024
1063.0000000000582,"<div class = 'left_align' style='font-size: 3.25rem; line-height: 1.3;'>It is <b>very</b> important that you make the symmetry judgment correctly.<br><br>It is also important that you try and judge the picture as quickly as you can.<br><br>When you are ready, click on the button below to try some practice problems.</div><br><br><br><br>",0,ospan,instruct,TBItH5KtR1dNSHj3jd1fht3TKvH3,html-button-response,71,420523,0.0-46.0-1.0-0.0-2.0,,,,,,,,,,,,,,,563e35190980220011572d9a,09:26:08,03/04/2024
2137.0,,,ospan,symmetry,TBItH5KtR1dNSHj3jd1fht3TKvH3,symmetry-judgement-task,72,423479,0.0-46.0-1.0-1.0-0.0,,,,,,,,,,1.0,1.0,,,,563e35190980220011572d9a,09:26:08,03/04/2024
,"<p style=""color:green; font-size: 35px"">Correct</p>",,ospan,feedback,TBItH5KtR1dNSHj3jd1fht3TKvH3,html-keyboard-response,73,424232,0.0-46.0-1.0-1.0-1.0,,,,,,,,,,,,,,,563e35190980220011572d9a,09:26:08,03/04/2024
2523.0,,,ospan,symmetry,TBItH5KtR1dNSHj3jd1fht3TKvH3,symmetry-judgement-task,74,429326,0.0-46.0-1.0-1.0-2.0,,,,,,,,,,1.0,1.0,,,,563e35190980220011572d9a,09:26:08,03/04/2024
,"<p style=""color:green; font-size: 35px"">Correct</p>",,ospan,feedback,TBItH5KtR1dNSHj3jd1fht3TKvH3,html-keyboard-response,75,430080,0.0-46.0-1.0-1.0-3.0,,,,,,,,,,,,,,,563e35190980220011572d9a,09:26:08,03/04/2024
972.0,,,ospan,symmetry,TBItH5KtR1dNSHj3jd1fht3TKvH3,symmetry-judgement-task,76,433625,0.0-46.0-1.0-1.0-4.0,,,,,,,,,,1.0,1.0,,,,563e35190980220011572d9a,09:26:08,03/04/2024
,"<p style=""color:green; font-size: 35px"">Correct</p>",,ospan,feedback,TBItH5KtR1dNSHj3jd1fht3TKvH3,html-keyboard-response,77,434377,0.0-46.0-1.0-1.0-5.0,,,,,,,,,,,,,,,563e35190980220011572d9a,09:26:08,03/04/2024
1141.0,"<p style=""font-size: 3rem;"">You responded correctly on 3 of 3 symmetry judgments. Good job!</p><br><br>",0,ospan,practice,TBItH5KtR1dNSHj3jd1fht3TKvH3,html-button-response,78,437524,0.0-46.0-1.0-2.0,,,,,,,,,,,,,,,563e35190980220011572d9a,09:26:08,03/04/2024
1013.0000000000582,"<div class = 'left_align' style='font-size: 3.25rem; line-height: 1.3;'>Now you will practice doing both parts of the experiment at the same time.<br><br>In the next practice set, you will be given one grid picture to judge.<br>Then letter will appear on the screen. Try to remember the letter.<br><br>It is <b>very important</b> to make the symmetry judgment as quickly and accurately as possible.<br><br>Just as before, once you have make the symmetry judgment, you can click Yes or No.<br><b>Note that you will no longer see Correct or Incorrect feedback.</div><br><br><br><br>",0,ospan,instruct,TBItH5KtR1dNSHj3jd1fht3TKvH3,html-button-response,79,438790,0.0-46.0-2.0-0.0-0.0,,,,,,,,,,,,,,,563e35190980220011572d9a,09:26:08,03/04/2024
932.0000000000582,"<div class = 'left_align' style='font-size: 3.25rem; line-height: 1.3;'>After the letter goes away, another grid picture will appear, and then<br>another letter.<br><br>At the end of each set of letters and grids, you will recall the letters to the best<br>of your ability. Remember, try your best to get the letters in the correct order.<br><br>It is important to <b>quickly</b> and <b>accurately</b> make the symmetry judgments.</div><br><br><br><br>",0,ospan,instruct,TBItH5KtR1dNSHj3jd1fht3TKvH3,html-button-response,80,439975,0.0-46.0-2.0-0.0-1.0,,,,,,,,,,,,,,,563e35190980220011572d9a,09:26:08,03/04/2024
1711.0,"<div class = 'left_align' style='font-size: 3.25rem; line-height: 1.3;'>On the feedback screen, if you are not doing well at the symmetry judgments,<br>you will also see a warning in the middle. This indicates your percent <br>correct for the grid pictures for the entire experiment.<br><br>It is <b>very</b> important for you to keep accuracy at least at 85%: <u>We can only use<br>data where the participant was at least 85% accurate on the judgments.</u> Therefore,<br> please try your best to perform well on the symmetry judgments, <b>at the same time</b><br>doing your best to recall as many letters as possible.<br><br>Click the button to try some practice problems.</div><br><br><br><br>",0,ospan,instruct,TBItH5KtR1dNSHj3jd1fht3TKvH3,html-button-response,81,441940,0.0-46.0-2.0-0.0-2.0,,,,,,,,,,,,,,,563e35190980220011572d9a,09:26:08,03/04/2024
,"<p style=""font-size:75px;"">...</p>",,ospan,iti,TBItH5KtR1dNSHj3jd1fht3TKvH3,html-keyboard-response,82,443193,0.0-46.0-2.0-1.0-0.0,,,,,,,,,,,,,,,563e35190980220011572d9a,09:26:08,03/04/2024
1495.0,,,ospan,symmetry,TBItH5KtR1dNSHj3jd1fht3TKvH3,symmetry-judgement-task,83,445758,0.0-46.0-2.0-1.0-1.0-0.0,,,,,,,,,,1.0,1.0,,,,563e35190980220011572d9a,09:26:08,03/04/2024
,"<div style=""font-size: 10rem; color: #0000FF"">H</div>",,ospan,letter,TBItH5KtR1dNSHj3jd1fht3TKvH3,html-keyboard-response,84,446761,0.0-46.0-2.0-1.0-1.0-1.0,,,,,,,,,,,,,,,563e35190980220011572d9a,09:26:08,03/04/2024
1593.0,,,ospan,symmetry,TBItH5KtR1dNSHj3jd1fht3TKvH3,symmetry-judgement-task,85,450177,0.0-46.0-2.0-1.0-1.0-2.0,,,,,,,,,,1.0,1.0,,,,563e35190980220011572d9a,09:26:08,03/04/2024
,"<div style=""font-size: 10rem; color: #0000FF"">G</div>",,ospan,letter,TBItH5KtR1dNSHj3jd1fht3TKvH3,html-keyboard-response,86,451180,0.0-46.0-2.0-1.0-1.0-3.0,,,,,,,,,,,,,,,563e35190980220011572d9a,09:26:08,03/04/2024
1424.0,,,ospan,symmetry,TBItH5KtR1dNSHj3jd1fht3TKvH3,symmetry-judgement-task,87,454426,0.0-46.0-2.0-1.0-1.0-4.0,,,,,,,,,,1.0,1.0,,,,563e35190980220011572d9a,09:26:08,03/04/2024
,"<div style=""font-size: 10rem; color: #0000FF"">Y</div>",,ospan,letter,TBItH5KtR1dNSHj3jd1fht3TKvH3,html-keyboard-response,88,455430,0.0-46.0-2.0-1.0-1.0-5.0,,,,,,,,,,,,,,,563e35190980220011572d9a,09:26:08,03/04/2024
5151.0,"<div class = numbox><p style=""font-size: 2.4rem"">Please recall the letters you saw to the best of your ability. If you do not remember a particular letter, use the SKIP button.<br><b>(When you are ready to lock in your answer, press ENTER)</b></p><button id = button_1 class = ""square num-button"" onclick = ""recordClick(this)""><div class = content><div class = numbers>C</div></div></button><button id = button_2 class = ""square num-button"" onclick = ""recordClick(this)""><div class = content><div class = numbers>G</div></div></button><button id = button_3 class = ""square num-button"" onclick = ""recordClick(this)""><div class = content><div class = numbers>H</div></div></button><button id = button_4 class = ""square num-button"" onclick = ""recordClick(this)""><div class = content><div class = numbers>J</div></div></button><button id = button_5 class = ""square num-button"" onclick = ""recordClick(this)""><div class = content><div class = numbers>K</div></div></button><button id = button_6 class = ""square num-button"" onclick = ""recordClick(this)""><div class = content><div class = numbers>L</div></div></button><button id = button_7 class = ""square num-button"" onclick = ""recordClick(this)""><div class = content><div class = numbers>N</div></div></button><button id = button_8 class = ""square num-button"" onclick = ""recordClick(this)""><div class = content><div class = numbers>P</div></div></button><button id = button_9 class = ""square num-button"" onclick = ""recordClick(this)""><div class = content><div class = numbers>Q</div></div></button><button id = button_10 class = ""square num-button"" onclick = ""recordClick(this)""><div class = content><div class = numbers>R</div></div></button><button id = button_11 class = ""square num-button"" onclick = ""recordClick(this)""><div class = content><div class = numbers>S</div></div></button><button id = button_12 class = ""square num-button"" onclick = ""recordClick(this)""><div class = content><div class = numbers>Y</div></div></button><button class = clear_button id = ""ClearButton"" onclick = ""clearResponse()"">BACKSPACE</button><button class = blank_button id = ""BlankButton"" onclick = ""blankResponse()"">SKIP</button><p style=""font-size: 2.4rem""><u><b>Current Answer:</b></u></p><br><br><div id=echoed_txt style=""font-size: 5rem; color:blue;""><b></b></div></div>",enter,ospan,retrieval,TBItH5KtR1dNSHj3jd1fht3TKvH3,html-keyboard-response,89,461334,0.0-46.0-2.0-1.0-2.0-0.0,NA,NA,NA,3.0,"[""H"",""G"",""Y""]","[""H"",""G"",""Y""]",1.0,3.0,"['<font color=""green"">H</font>', '<font color=""green"">G</font>', '<font color=""green"">Y</font>']",,,,,,563e35190980220011572d9a,09:26:08,03/04/2024
786.0,"['<p style=""font-size:44px"">Letters:<br><br><br><font color=""green"">H</font> <font color=""green"">G</font> <font color=""green"">Y</font></p><br><br><p style=""font-size:30px"">Symmetry:<br><br><font color=""green"">100%</font></p><br><br>']",0,ospan,practice_feedback,TBItH5KtR1dNSHj3jd1fht3TKvH3,html-button-response,90,462624,0.0-46.0-2.0-1.0-2.0-1.0,,,,,,,,,,,,,,,563e35190980220011572d9a,09:26:08,03/04/2024
,"<p style=""font-size:75px;"">...</p>",,ospan,iti,TBItH5KtR1dNSHj3jd1fht3TKvH3,html-keyboard-response,91,463629,0.0-46.0-2.0-2.0-0.0,,,,,,,,,,,,,,,563e35190980220011572d9a,09:26:08,03/04/2024
1843.0,,,ospan,symmetry,TBItH5KtR1dNSHj3jd1fht3TKvH3,symmetry-judgement-task,92,466544,0.0-46.0-2.0-2.0-1.0-0.0,,,,,,,,,,1.0,1.0,,,,563e35190980220011572d9a,09:26:08,03/04/2024
,"<div style=""font-size: 10rem; color: #0000FF"">Y</div>",,ospan,letter,TBItH5KtR1dNSHj3jd1fht3TKvH3,html-keyboard-response,93,467551,0.0-46.0-2.0-2.0-1.0-1.0,,,,,,,,,,,,,,,563e35190980220011572d9a,09:26:08,03/04/2024
1585.0,,,ospan,symmetry,TBItH5KtR1dNSHj3jd1fht3TKvH3,symmetry-judgement-task,94,470958,0.0-46.0-2.0-2.0-1.0-2.0,,,,,,,,,,1.0,1.0,,,,563e35190980220011572d9a,09:26:08,03/04/2024
,"<div style=""font-size: 10rem; color: #0000FF"">K</div>",,ospan,letter,TBItH5KtR1dNSHj3jd1fht3TKvH3,html-keyboard-response,95,471961,0.0-46.0-2.0-2.0-1.0-3.0,,,,,,,,,,,,,,,563e35190980220011572d9a,09:26:08,03/04/2024
2028.0,,,ospan,symmetry,TBItH5KtR1dNSHj3jd1fht3TKvH3,symmetry-judgement-task,96,475809,0.0-46.0-2.0-2.0-1.0-4.0,,,,,,,,,,1.0,1.0,,,,563e35190980220011572d9a,09:26:08,03/04/2024
,"<div style=""font-size: 10rem; color: #0000FF"">C</div>",,ospan,letter,TBItH5KtR1dNSHj3jd1fht3TKvH3,html-keyboard-response,97,476812,0.0-46.0-2.0-2.0-1.0-5.0,,,,,,,,,,,,,,,563e35190980220011572d9a,09:26:08,03/04/2024
2953.0,"<div class = numbox><p style=""font-size: 2.4rem"">Please recall the letters you saw to the best of your ability. If you do not remember a particular letter, use the SKIP button.<br><b>(When you are ready to lock in your answer, press ENTER)</b></p><button id = button_1 class = ""square num-button"" onclick = ""recordClick(this)""><div class = content><div class = numbers>C</div></div></button><button id = button_2 class = ""square num-button"" onclick = ""recordClick(this)""><div class = content><div class = numbers>G</div></div></button><button id = button_3 class = ""square num-button"" onclick = ""recordClick(this)""><div class = content><div class = numbers>H</div></div></button><button id = button_4 class = ""square num-button"" onclick = ""recordClick(this)""><div class = content><div class = numbers>J</div></div></button><button id = button_5 class = ""square num-button"" onclick = ""recordClick(this)""><div class = content><div class = numbers>K</div></div></button><button id = button_6 class = ""square num-button"" onclick = ""recordClick(this)""><div class = content><div class = numbers>L</div></div></button><button id = button_7 class = ""square num-button"" onclick = ""recordClick(this)""><div class = content><div class = numbers>N</div></div></button><button id = button_8 class = ""square num-button"" onclick = ""recordClick(this)""><div class = content><div class = numbers>P</div></div></button><button id = button_9 class = ""square num-button"" onclick = ""recordClick(this)""><div class = content><div class = numbers>Q</div></div></button><button id = button_10 class = ""square num-button"" onclick = ""recordClick(this)""><div class = content><div class = numbers>R</div></div></button><button id = button_11 class = ""square num-button"" onclick = ""recordClick(this)""><div class = content><div class = numbers>S</div></div></button><button id = button_12 class = ""square num-button"" onclick = ""recordClick(this)""><div class = content><div class = numbers>Y</div></div></button><button class = clear_button id = ""ClearButton"" onclick = ""clearResponse()"">BACKSPACE</button><button class = blank_button id = ""BlankButton"" onclick = ""blankResponse()"">SKIP</button><p style=""font-size: 2.4rem""><u><b>Current Answer:</b></u></p><br><br><div id=echoed_txt style=""font-size: 5rem; color:blue;""><b></b></div></div>",enter,ospan,retrieval,TBItH5KtR1dNSHj3jd1fht3TKvH3,html-keyboard-response,98,480518,0.0-46.0-2.0-2.0-2.0-0.0,NA,NA,NA,3.0,"[""Y"",""K"",""C""]","[""Y"",""K"",""C""]",1.0,3.0,"['<font color=""green"">Y</font>', '<font color=""green"">K</font>', '<font color=""green"">C</font>']",,,,,,563e35190980220011572d9a,09:26:08,03/04/2024
802.0000000001164,"['<p style=""font-size:44px"">Letters:<br><br><br><font color=""green"">Y</font> <font color=""green"">K</font> <font color=""green"">C</font></p><br><br><p style=""font-size:30px"">Symmetry:<br><br><font color=""green"">100%</font></p><br><br>']",0,ospan,practice_feedback,TBItH5KtR1dNSHj3jd1fht3TKvH3,html-button-response,99,481824,0.0-46.0-2.0-2.0-2.0-1.0,,,,,,,,,,,,,,,563e35190980220011572d9a,09:26:08,03/04/2024
2247.0000000001164,"<div class = 'left_align' style='font-size: 3rem; line-height: 1.3;'><b>Great work! That is the end of practice.</b><br><br>The real trials will look just like the practice trials you just completed.<br><br><u>Here, you will not see feedback</u>. First, you will see an grid picture to judge,<br>then a letter to remember. When the recall screen appears, report the letters in the<br>order presented. If you forget a letter, remember to use the <b>blank</b> button to move to the<br>next letter. Some of the sets will have more symmetry grids and letters than others.<br><br>It is important that you do your best on both the symmetry judgments and the letter recall<br>parts of the experiment. For for the symmetry judgments, try to work as <b>quickly</b> and <br>as <b>accurately</b> as possible. Remember to keep your symmetry accuracy at 85% or above.<br><br><b>For the letters, do NOT use any external aid (e.g., writing on paper, electronic device).</b><br><br>It is <u>very important</u> to our experiment to have a <b>true</b> view of your real performance.<br><br>Do not worry if you miss some when it gets hard! This task is meant to be very challenging!<br><br>Click the button to begin.</div><br><br><br><br>",0,ospan,starting_real_here,TBItH5KtR1dNSHj3jd1fht3TKvH3,html-button-response,100,484073,0.0-46.0-2.0-3.0,,,,,,,,,,,,,,,563e35190980220011572d9a,09:26:08,03/04/2024
,"<p style=""font-size:75px;"">...</p>",,ospan,iti,TBItH5KtR1dNSHj3jd1fht3TKvH3,html-keyboard-response,101,485328,0.0-46.0-3.0-0.0-0.0,,,,,,,,,,,,,,,563e35190980220011572d9a,09:26:08,03/04/2024
1364.0,,,ospan,symmetry,TBItH5KtR1dNSHj3jd1fht3TKvH3,symmetry-judgement-task,102,487758,0.0-46.0-3.0-0.0-1.0-0.0,,,,,,,,,,1.0,1.0,,,,563e35190980220011572d9a,09:26:08,03/04/2024
,"<div style=""font-size: 10rem; color: #0000FF"">R</div>",,ospan,letter,TBItH5KtR1dNSHj3jd1fht3TKvH3,html-keyboard-response,103,488761,0.0-46.0-3.0-0.0-1.0-1.0,,,,,,,,,,,,,,,563e35190980220011572d9a,09:26:08,03/04/2024
1941.0,,,ospan,symmetry,TBItH5KtR1dNSHj3jd1fht3TKvH3,symmetry-judgement-task,104,492526,0.0-46.0-3.0-0.0-1.0-2.0,,,,,,,,,,1.0,1.0,,,,563e35190980220011572d9a,09:26:08,03/04/2024
,"<div style=""font-size: 10rem; color: #0000FF"">Y</div>",,ospan,letter,TBItH5KtR1dNSHj3jd1fht3TKvH3,html-keyboard-response,105,493528,0.0-46.0-3.0-0.0-1.0-3.0,,,,,,,,,,,,,,,563e35190980220011572d9a,09:26:08,03/04/2024
1163.0,,,ospan,symmetry,TBItH5KtR1dNSHj3jd1fht3TKvH3,symmetry-judgement-task,106,496511,0.0-46.0-3.0-0.0-1.0-4.0,,,,,,,,,,1.0,1.0,,,,563e35190980220011572d9a,09:26:08,03/04/2024
,"<div style=""font-size: 10rem; color: #0000FF"">P</div>",,ospan,letter,TBItH5KtR1dNSHj3jd1fht3TKvH3,html-keyboard-response,107,497514,0.0-46.0-3.0-0.0-1.0-5.0,,,,,,,,,,,,,,,563e35190980220011572d9a,09:26:08,03/04/2024
3466.0,"<div class = numbox><p style=""font-size: 2.4rem"">Please recall the letters you saw to the best of your ability. If you do not remember a particular letter, use the SKIP button.<br><b>(When you are ready to lock in your answer, press ENTER)</b></p><button id = button_1 class = ""square num-button"" onclick = ""recordClick(this)""><div class = content><div class = numbers>C</div></div></button><button id = button_2 class = ""square num-button"" onclick = ""recordClick(this)""><div class = content><div class = numbers>G</div></div></button><button id = button_3 class = ""square num-button"" onclick = ""recordClick(this)""><div class = content><div class = numbers>H</div></div></button><button id = button_4 class = ""square num-button"" onclick = ""recordClick(this)""><div class = content><div class = numbers>J</div></div></button><button id = button_5 class = ""square num-button"" onclick = ""recordClick(this)""><div class = content><div class = numbers>K</div></div></button><button id = button_6 class = ""square num-button"" onclick = ""recordClick(this)""><div class = content><div class = numbers>L</div></div></button><button id = button_7 class = ""square num-button"" onclick = ""recordClick(this)""><div class = content><div class = numbers>N</div></div></button><button id = button_8 class = ""square num-button"" onclick = ""recordClick(this)""><div class = content><div class = numbers>P</div></div></button><button id = button_9 class = ""square num-button"" onclick = ""recordClick(this)""><div class = content><div class = numbers>Q</div></div></button><button id = button_10 class = ""square num-button"" onclick = ""recordClick(this)""><div class = content><div class = numbers>R</div></div></button><button id = button_11 class = ""square num-button"" onclick = ""recordClick(this)""><div class = content><div class = numbers>S</div></div></button><button id = button_12 class = ""square num-button"" onclick = ""recordClick(this)""><div class = content><div class = numbers>Y</div></div></button><button class = clear_button id = ""ClearButton"" onclick = ""clearResponse()"">BACKSPACE</button><button class = blank_button id = ""BlankButton"" onclick = ""blankResponse()"">SKIP</button><p style=""font-size: 2.4rem""><u><b>Current Answer:</b></u></p><br><br><div id=echoed_txt style=""font-size: 5rem; color:blue;""><b></b></div></div>",enter,ospan,retrieval,TBItH5KtR1dNSHj3jd1fht3TKvH3,html-keyboard-response,108,501734,0.0-46.0-3.0-0.0-2.0,3,3,3,3.0,"[""R"",""Y"",""P""]","[""R"",""Y"",""P""]",1.0,3.0,,,,,,,563e35190980220011572d9a,09:26:08,03/04/2024
1236.0,[''],0,ospan,feedback,TBItH5KtR1dNSHj3jd1fht3TKvH3,html-button-response,109,503474,0.0-46.0-3.0-0.0-3.0,,,,,,,,,,,,100.0,0.0,,563e35190980220011572d9a,09:26:08,03/04/2024
,"<p style=""font-size:75px;"">...</p>",,ospan,iti,TBItH5KtR1dNSHj3jd1fht3TKvH3,html-keyboard-response,110,504480,0.0-46.0-4.0-0.0-0.0,,,,,,,,,,,,,,,563e35190980220011572d9a,09:26:08,03/04/2024
1543.0,,,ospan,symmetry,TBItH5KtR1dNSHj3jd1fht3TKvH3,symmetry-judgement-task,111,507091,0.0-46.0-4.0-0.0-1.0-0.0,,,,,,,,,,1.0,1.0,,,,563e35190980220011572d9a,09:26:08,03/04/2024
,"<div style=""font-size: 10rem; color: #0000FF"">P</div>",,ospan,letter,TBItH5KtR1dNSHj3jd1fht3TKvH3,html-keyboard-response,112,508094,0.0-46.0-4.0-0.0-1.0-1.0,,,,,,,,,,,,,,,563e35190980220011572d9a,09:26:08,03/04/2024
1076.0,,,ospan,symmetry,TBItH5KtR1dNSHj3jd1fht3TKvH3,symmetry-judgement-task,113,510991,0.0-46.0-4.0-0.0-1.0-2.0,,,,,,,,,,1.0,1.0,,,,563e35190980220011572d9a,09:26:08,03/04/2024
,"<div style=""font-size: 10rem; color: #0000FF"">R</div>",,ospan,letter,TBItH5KtR1dNSHj3jd1fht3TKvH3,html-keyboard-response,114,511994,0.0-46.0-4.0-0.0-1.0-3.0,,,,,,,,,,,,,,,563e35190980220011572d9a,09:26:08,03/04/2024
2077.0,,,ospan,symmetry,TBItH5KtR1dNSHj3jd1fht3TKvH3,symmetry-judgement-task,115,515892,0.0-46.0-4.0-0.0-1.0-4.0,,,,,,,,,,1.0,1.0,,,,563e35190980220011572d9a,09:26:08,03/04/2024
,"<div style=""font-size: 10rem; color: #0000FF"">N</div>",,ospan,letter,TBItH5KtR1dNSHj3jd1fht3TKvH3,html-keyboard-response,116,516894,0.0-46.0-4.0-0.0-1.0-5.0,,,,,,,,,,,,,,,563e35190980220011572d9a,09:26:08,03/04/2024
1413.0,,,ospan,symmetry,TBItH5KtR1dNSHj3jd1fht3TKvH3,symmetry-judgement-task,117,520126,0.0-46.0-4.0-0.0-1.0-6.0,,,,,,,,,,1.0,1.0,,,,563e35190980220011572d9a,09:26:08,03/04/2024
,"<div style=""font-size: 10rem; color: #0000FF"">S</div>",,ospan,letter,TBItH5KtR1dNSHj3jd1fht3TKvH3,html-keyboard-response,118,521128,0.0-46.0-4.0-0.0-1.0-7.0,,,,,,,,,,,,,,,563e35190980220011572d9a,09:26:08,03/04/2024
4022.0,"<div class = numbox><p style=""font-size: 2.4rem"">Please recall the letters you saw to the best of your ability. If you do not remember a particular letter, use the SKIP button.<br><b>(When you are ready to lock in your answer, press ENTER)</b></p><button id = button_1 class = ""square num-button"" onclick = ""recordClick(this)""><div class = content><div class = numbers>C</div></div></button><button id = button_2 class = ""square num-button"" onclick = ""recordClick(this)""><div class = content><div class = numbers>G</div></div></button><button id = button_3 class = ""square num-button"" onclick = ""recordClick(this)""><div class = content><div class = numbers>H</div></div></button><button id = button_4 class = ""square num-button"" onclick = ""recordClick(this)""><div class = content><div class = numbers>J</div></div></button><button id = button_5 class = ""square num-button"" onclick = ""recordClick(this)""><div class = content><div class = numbers>K</div></div></button><button id = button_6 class = ""square num-button"" onclick = ""recordClick(this)""><div class = content><div class = numbers>L</div></div></button><button id = button_7 class = ""square num-button"" onclick = ""recordClick(this)""><div class = content><div class = numbers>N</div></div></button><button id = button_8 class = ""square num-button"" onclick = ""recordClick(this)""><div class = content><div class = numbers>P</div></div></button><button id = button_9 class = ""square num-button"" onclick = ""recordClick(this)""><div class = content><div class = numbers>Q</div></div></button><button id = button_10 class = ""square num-button"" onclick = ""recordClick(this)""><div class = content><div class = numbers>R</div></div></button><button id = button_11 class = ""square num-button"" onclick = ""recordClick(this)""><div class = content><div class = numbers>S</div></div></button><button id = button_12 class = ""square num-button"" onclick = ""recordClick(this)""><div class = content><div class = numbers>Y</div></div></button><button class = clear_button id = ""ClearButton"" onclick = ""clearResponse()"">BACKSPACE</button><button class = blank_button id = ""BlankButton"" onclick = ""blankResponse()"">SKIP</button><p style=""font-size: 2.4rem""><u><b>Current Answer:</b></u></p><br><br><div id=echoed_txt style=""font-size: 5rem; color:blue;""><b></b></div></div>",enter,ospan,retrieval,TBItH5KtR1dNSHj3jd1fht3TKvH3,html-keyboard-response,119,525903,0.0-46.0-4.0-0.0-2.0,7,7,7,4.0,"[""P"",""R"",""N"",""S""]","[""P"",""R"",""N"",""S""]",1.0,4.0,,,,,,,563e35190980220011572d9a,09:26:08,03/04/2024
1001.0,[''],0,ospan,feedback,TBItH5KtR1dNSHj3jd1fht3TKvH3,html-button-response,120,527407,0.0-46.0-4.0-0.0-3.0,,,,,,,,,,,,100.0,0.0,,563e35190980220011572d9a,09:26:08,03/04/2024
,"<p style=""font-size:75px;"">...</p>",,ospan,iti,TBItH5KtR1dNSHj3jd1fht3TKvH3,html-keyboard-response,121,528411,0.0-46.0-4.0-1.0-0.0,,,,,,,,,,,,,,,563e35190980220011572d9a,09:26:08,03/04/2024
1146.0,,,ospan,symmetry,TBItH5KtR1dNSHj3jd1fht3TKvH3,symmetry-judgement-task,122,530625,0.0-46.0-4.0-1.0-1.0-0.0,,,,,,,,,,1.0,1.0,,,,563e35190980220011572d9a,09:26:08,03/04/2024
,"<div style=""font-size: 10rem; color: #0000FF"">J</div>",,ospan,letter,TBItH5KtR1dNSHj3jd1fht3TKvH3,html-keyboard-response,123,531628,0.0-46.0-4.0-1.0-1.0-1.0,,,,,,,,,,,,,,,563e35190980220011572d9a,09:26:08,03/04/2024
1013.0,,,ospan,symmetry,TBItH5KtR1dNSHj3jd1fht3TKvH3,symmetry-judgement-task,124,534458,0.0-46.0-4.0-1.0-1.0-2.0,,,,,,,,,,1.0,1.0,,,,563e35190980220011572d9a,09:26:08,03/04/2024
,"<div style=""font-size: 10rem; color: #0000FF"">G</div>",,ospan,letter,TBItH5KtR1dNSHj3jd1fht3TKvH3,html-keyboard-response,125,535460,0.0-46.0-4.0-1.0-1.0-3.0,,,,,,,,,,,,,,,563e35190980220011572d9a,09:26:08,03/04/2024
1260.0,,,ospan,symmetry,TBItH5KtR1dNSHj3jd1fht3TKvH3,symmetry-judgement-task,126,538541,0.0-46.0-4.0-1.0-1.0-4.0,,,,,,,,,,1.0,1.0,,,,563e35190980220011572d9a,09:26:08,03/04/2024
,"<div style=""font-size: 10rem; color: #0000FF"">Q</div>",,ospan,letter,TBItH5KtR1dNSHj3jd1fht3TKvH3,html-keyboard-response,127,539544,0.0-46.0-4.0-1.0-1.0-5.0,,,,,,,,,,,,,,,563e35190980220011572d9a,09:26:08,03/04/2024
1179.0,,,ospan,symmetry,TBItH5KtR1dNSHj3jd1fht3TKvH3,symmetry-judgement-task,128,542542,0.0-46.0-4.0-1.0-1.0-6.0,,,,,,,,,,1.0,1.0,,,,563e35190980220011572d9a,09:26:08,03/04/2024
,"<div style=""font-size: 10rem; color: #0000FF"">P</div>",,ospan,letter,TBItH5KtR1dNSHj3jd1fht3TKvH3,html-keyboard-response,129,543545,0.0-46.0-4.0-1.0-1.0-7.0,,,,,,,,,,,,,,,563e35190980220011572d9a,09:26:08,03/04/2024
1240.0,,,ospan,symmetry,TBItH5KtR1dNSHj3jd1fht3TKvH3,symmetry-judgement-task,130,546609,0.0-46.0-4.0-1.0-1.0-8.0,,,,,,,,,,1.0,1.0,,,,563e35190980220011572d9a,09:26:08,03/04/2024
,"<div style=""font-size: 10rem; color: #0000FF"">C</div>",,ospan,letter,TBItH5KtR1dNSHj3jd1fht3TKvH3,html-keyboard-response,131,547612,0.0-46.0-4.0-1.0-1.0-9.0,,,,,,,,,,,,,,,563e35190980220011572d9a,09:26:08,03/04/2024
8159.0,"<div class = numbox><p style=""font-size: 2.4rem"">Please recall the letters you saw to the best of your ability. If you do not remember a particular letter, use the SKIP button.<br><b>(When you are ready to lock in your answer, press ENTER)</b></p><button id = button_1 class = ""square num-button"" onclick = ""recordClick(this)""><div class = content><div class = numbers>C</div></div></button><button id = button_2 class = ""square num-button"" onclick = ""recordClick(this)""><div class = content><div class = numbers>G</div></div></button><button id = button_3 class = ""square num-button"" onclick = ""recordClick(this)""><div class = content><div class = numbers>H</div></div></button><button id = button_4 class = ""square num-button"" onclick = ""recordClick(this)""><div class = content><div class = numbers>J</div></div></button><button id = button_5 class = ""square num-button"" onclick = ""recordClick(this)""><div class = content><div class = numbers>K</div></div></button><button id = button_6 class = ""square num-button"" onclick = ""recordClick(this)""><div class = content><div class = numbers>L</div></div></button><button id = button_7 class = ""square num-button"" onclick = ""recordClick(this)""><div class = content><div class = numbers>N</div></div></button><button id = button_8 class = ""square num-button"" onclick = ""recordClick(this)""><div class = content><div class = numbers>P</div></div></button><button id = button_9 class = ""square num-button"" onclick = ""recordClick(this)""><div class = content><div class = numbers>Q</div></div></button><button id = button_10 class = ""square num-button"" onclick = ""recordClick(this)""><div class = content><div class = numbers>R</div></div></button><button id = button_11 class = ""square num-button"" onclick = ""recordClick(this)""><div class = content><div class = numbers>S</div></div></button><button id = button_12 class = ""square num-button"" onclick = ""recordClick(this)""><div class = content><div class = numbers>Y</div></div></button><button class = clear_button id = ""ClearButton"" onclick = ""clearResponse()"">BACKSPACE</button><button class = blank_button id = ""BlankButton"" onclick = ""blankResponse()"">SKIP</button><p style=""font-size: 2.4rem""><u><b>Current Answer:</b></u></p><br><br><div id=echoed_txt style=""font-size: 5rem; color:blue;""><b></b></div></div>",enter,ospan,retrieval,TBItH5KtR1dNSHj3jd1fht3TKvH3,html-keyboard-response,132,556524,0.0-46.0-4.0-1.0-2.0,12,10,7,5.0,"[""J"",""G"",""P"",""Q"",""C""]","[""J"",""G"",""Q"",""P"",""C""]",0.0,3.0,,,,,,,563e35190980220011572d9a,09:26:08,03/04/2024
997.0,[''],0,ospan,feedback,TBItH5KtR1dNSHj3jd1fht3TKvH3,html-button-response,133,558024,0.0-46.0-4.0-1.0-3.0,,,,,,,,,,,,100.0,0.0,,563e35190980220011572d9a,09:26:08,03/04/2024
,"<p style=""font-size:75px;"">...</p>",,ospan,iti,TBItH5KtR1dNSHj3jd1fht3TKvH3,html-keyboard-response,134,559029,0.0-46.0-4.0-2.0-0.0,,,,,,,,,,,,,,,563e35190980220011572d9a,09:26:08,03/04/2024
1129.0,,,ospan,symmetry,TBItH5KtR1dNSHj3jd1fht3TKvH3,symmetry-judgement-task,135,561225,0.0-46.0-4.0-2.0-1.0-0.0,,,,,,,,,,1.0,1.0,,,,563e35190980220011572d9a,09:26:08,03/04/2024
,"<div style=""font-size: 10rem; color: #0000FF"">J</div>",,ospan,letter,TBItH5KtR1dNSHj3jd1fht3TKvH3,html-keyboard-response,136,562227,0.0-46.0-4.0-2.0-1.0-1.0,,,,,,,,,,,,,,,563e35190980220011572d9a,09:26:08,03/04/2024
946.0,,,ospan,symmetry,TBItH5KtR1dNSHj3jd1fht3TKvH3,symmetry-judgement-task,137,564993,0.0-46.0-4.0-2.0-1.0-2.0,,,,,,,,,,1.0,1.0,,,,563e35190980220011572d9a,09:26:08,03/04/2024
,"<div style=""font-size: 10rem; color: #0000FF"">P</div>",,ospan,letter,TBItH5KtR1dNSHj3jd1fht3TKvH3,html-keyboard-response,138,565995,0.0-46.0-4.0-2.0-1.0-3.0,,,,,,,,,,,,,,,563e35190980220011572d9a,09:26:08,03/04/2024
1446.0,,,ospan,symmetry,TBItH5KtR1dNSHj3jd1fht3TKvH3,symmetry-judgement-task,139,569259,0.0-46.0-4.0-2.0-1.0-4.0,,,,,,,,,,1.0,1.0,,,,563e35190980220011572d9a,09:26:08,03/04/2024
,"<div style=""font-size: 10rem; color: #0000FF"">R</div>",,ospan,letter,TBItH5KtR1dNSHj3jd1fht3TKvH3,html-keyboard-response,140,570261,0.0-46.0-4.0-2.0-1.0-5.0,,,,,,,,,,,,,,,563e35190980220011572d9a,09:26:08,03/04/2024
3988.0,"<div class = numbox><p style=""font-size: 2.4rem"">Please recall the letters you saw to the best of your ability. If you do not remember a particular letter, use the SKIP button.<br><b>(When you are ready to lock in your answer, press ENTER)</b></p><button id = button_1 class = ""square num-button"" onclick = ""recordClick(this)""><div class = content><div class = numbers>C</div></div></button><button id = button_2 class = ""square num-button"" onclick = ""recordClick(this)""><div class = content><div class = numbers>G</div></div></button><button id = button_3 class = ""square num-button"" onclick = ""recordClick(this)""><div class = content><div class = numbers>H</div></div></button><button id = button_4 class = ""square num-button"" onclick = ""recordClick(this)""><div class = content><div class = numbers>J</div></div></button><button id = button_5 class = ""square num-button"" onclick = ""recordClick(this)""><div class = content><div class = numbers>K</div></div></button><button id = button_6 class = ""square num-button"" onclick = ""recordClick(this)""><div class = content><div class = numbers>L</div></div></button><button id = button_7 class = ""square num-button"" onclick = ""recordClick(this)""><div class = content><div class = numbers>N</div></div></button><button id = button_8 class = ""square num-button"" onclick = ""recordClick(this)""><div class = content><div class = numbers>P</div></div></button><button id = button_9 class = ""square num-button"" onclick = ""recordClick(this)""><div class = content><div class = numbers>Q</div></div></button><button id = button_10 class = ""square num-button"" onclick = ""recordClick(this)""><div class = content><div class = numbers>R</div></div></button><button id = button_11 class = ""square num-button"" onclick = ""recordClick(this)""><div class = content><div class = numbers>S</div></div></button><button id = button_12 class = ""square num-button"" onclick = ""recordClick(this)""><div class = content><div class = numbers>Y</div></div></button><button class = clear_button id = ""ClearButton"" onclick = ""clearResponse()"">BACKSPACE</button><button class = blank_button id = ""BlankButton"" onclick = ""blankResponse()"">SKIP</button><p style=""font-size: 2.4rem""><u><b>Current Answer:</b></u></p><br><br><div id=echoed_txt style=""font-size: 5rem; color:blue;""><b></b></div></div>",enter,ospan,retrieval,TBItH5KtR1dNSHj3jd1fht3TKvH3,html-keyboard-response,141,575002,0.0-46.0-4.0-2.0-2.0,15,13,10,3.0,"[""J"",""P"",""R""]","[""J"",""P"",""R""]",1.0,3.0,,,,,,,563e35190980220011572d9a,09:26:08,03/04/2024
820.0,[''],0,ospan,feedback,TBItH5KtR1dNSHj3jd1fht3TKvH3,html-button-response,142,576324,0.0-46.0-4.0-2.0-3.0,,,,,,,,,,,,100.0,0.0,,563e35190980220011572d9a,09:26:08,03/04/2024
,"<p style=""font-size:75px;"">...</p>",,ospan,iti,TBItH5KtR1dNSHj3jd1fht3TKvH3,html-keyboard-response,143,577328,0.0-46.0-5.0-0.0-0.0,,,,,,,,,,,,,,,563e35190980220011572d9a,09:26:08,03/04/2024
1077.0,,,ospan,symmetry,TBItH5KtR1dNSHj3jd1fht3TKvH3,symmetry-judgement-task,144,579475,0.0-46.0-5.0-0.0-1.0-0.0,,,,,,,,,,1.0,1.0,,,,563e35190980220011572d9a,09:26:08,03/04/2024
,"<div style=""font-size: 10rem; color: #0000FF"">Q</div>",,ospan,letter,TBItH5KtR1dNSHj3jd1fht3TKvH3,html-keyboard-response,145,580478,0.0-46.0-5.0-0.0-1.0-1.0,,,,,,,,,,,,,,,563e35190980220011572d9a,09:26:08,03/04/2024
960.0,,,ospan,symmetry,TBItH5KtR1dNSHj3jd1fht3TKvH3,symmetry-judgement-task,146,583259,0.0-46.0-5.0-0.0-1.0-2.0,,,,,,,,,,1.0,1.0,,,,563e35190980220011572d9a,09:26:08,03/04/2024
,"<div style=""font-size: 10rem; color: #0000FF"">K</div>",,ospan,letter,TBItH5KtR1dNSHj3jd1fht3TKvH3,html-keyboard-response,147,584261,0.0-46.0-5.0-0.0-1.0-3.0,,,,,,,,,,,,,,,563e35190980220011572d9a,09:26:08,03/04/2024
1010.0,,,ospan,symmetry,TBItH5KtR1dNSHj3jd1fht3TKvH3,symmetry-judgement-task,148,587092,0.0-46.0-5.0-0.0-1.0-4.0,,,,,,,,,,1.0,1.0,,,,563e35190980220011572d9a,09:26:08,03/04/2024
,"<div style=""font-size: 10rem; color: #0000FF"">Y</div>",,ospan,letter,TBItH5KtR1dNSHj3jd1fht3TKvH3,html-keyboard-response,149,588094,0.0-46.0-5.0-0.0-1.0-5.0,,,,,,,,,,,,,,,563e35190980220011572d9a,09:26:08,03/04/2024
1279.0,,,ospan,symmetry,TBItH5KtR1dNSHj3jd1fht3TKvH3,symmetry-judgement-task,150,591193,0.0-46.0-5.0-0.0-1.0-6.0,,,,,,,,,,1.0,1.0,,,,563e35190980220011572d9a,09:26:08,03/04/2024
,"<div style=""font-size: 10rem; color: #0000FF"">N</div>",,ospan,letter,TBItH5KtR1dNSHj3jd1fht3TKvH3,html-keyboard-response,151,592196,0.0-46.0-5.0-0.0-1.0-7.0,,,,,,,,,,,,,,,563e35190980220011572d9a,09:26:08,03/04/2024
1211.0,,,ospan,symmetry,TBItH5KtR1dNSHj3jd1fht3TKvH3,symmetry-judgement-task,152,595225,0.0-46.0-5.0-0.0-1.0-8.0,,,,,,,,,,1.0,1.0,,,,563e35190980220011572d9a,09:26:08,03/04/2024
,"<div style=""font-size: 10rem; color: #0000FF"">S</div>",,ospan,letter,TBItH5KtR1dNSHj3jd1fht3TKvH3,html-keyboard-response,153,596227,0.0-46.0-5.0-0.0-1.0-9.0,,,,,,,,,,,,,,,563e35190980220011572d9a,09:26:08,03/04/2024
1047.0,,,ospan,symmetry,TBItH5KtR1dNSHj3jd1fht3TKvH3,symmetry-judgement-task,154,599092,0.0-46.0-5.0-0.0-1.0-10.0,,,,,,,,,,1.0,1.0,,,,563e35190980220011572d9a,09:26:08,03/04/2024
,"<div style=""font-size: 10rem; color: #0000FF"">H</div>",,ospan,letter,TBItH5KtR1dNSHj3jd1fht3TKvH3,html-keyboard-response,155,600094,0.0-46.0-5.0-0.0-1.0-11.0,,,,,,,,,,,,,,,563e35190980220011572d9a,09:26:08,03/04/2024
8206.0,"<div class = numbox><p style=""font-size: 2.4rem"">Please recall the letters you saw to the best of your ability. If you do not remember a particular letter, use the SKIP button.<br><b>(When you are ready to lock in your answer, press ENTER)</b></p><button id = button_1 class = ""square num-button"" onclick = ""recordClick(this)""><div class = content><div class = numbers>C</div></div></button><button id = button_2 class = ""square num-button"" onclick = ""recordClick(this)""><div class = content><div class = numbers>G</div></div></button><button id = button_3 class = ""square num-button"" onclick = ""recordClick(this)""><div class = content><div class = numbers>H</div></div></button><button id = button_4 class = ""square num-button"" onclick = ""recordClick(this)""><div class = content><div class = numbers>J</div></div></button><button id = button_5 class = ""square num-button"" onclick = ""recordClick(this)""><div class = content><div class = numbers>K</div></div></button><button id = button_6 class = ""square num-button"" onclick = ""recordClick(this)""><div class = content><div class = numbers>L</div></div></button><button id = button_7 class = ""square num-button"" onclick = ""recordClick(this)""><div class = content><div class = numbers>N</div></div></button><button id = button_8 class = ""square num-button"" onclick = ""recordClick(this)""><div class = content><div class = numbers>P</div></div></button><button id = button_9 class = ""square num-button"" onclick = ""recordClick(this)""><div class = content><div class = numbers>Q</div></div></button><button id = button_10 class = ""square num-button"" onclick = ""recordClick(this)""><div class = content><div class = numbers>R</div></div></button><button id = button_11 class = ""square num-button"" onclick = ""recordClick(this)""><div class = content><div class = numbers>S</div></div></button><button id = button_12 class = ""square num-button"" onclick = ""recordClick(this)""><div class = content><div class = numbers>Y</div></div></button><button class = clear_button id = ""ClearButton"" onclick = ""clearResponse()"">BACKSPACE</button><button class = blank_button id = ""BlankButton"" onclick = ""blankResponse()"">SKIP</button><p style=""font-size: 2.4rem""><u><b>Current Answer:</b></u></p><br><br><div id=echoed_txt style=""font-size: 5rem; color:blue;""><b></b></div></div>",enter,ospan,retrieval,TBItH5KtR1dNSHj3jd1fht3TKvH3,html-keyboard-response,156,609054,0.0-46.0-5.0-0.0-2.0,21,18,10,6.0,"[""Q"",""K"",""Y"",""N"",""S"",""P""]","[""Q"",""K"",""Y"",""N"",""S"",""H""]",0.0,5.0,,,,,,,563e35190980220011572d9a,09:26:08,03/04/2024
716.0,[''],0,ospan,feedback,TBItH5KtR1dNSHj3jd1fht3TKvH3,html-button-response,157,610275,0.0-46.0-5.0-0.0-3.0,,,,,,,,,,,,100.0,0.0,,563e35190980220011572d9a,09:26:08,03/04/2024
,"<p style=""font-size:75px;"">...</p>",,ospan,iti,TBItH5KtR1dNSHj3jd1fht3TKvH3,html-keyboard-response,158,611280,0.0-46.0-5.0-1.0-0.0,,,,,,,,,,,,,,,563e35190980220011572d9a,09:26:08,03/04/2024
973.0,,,ospan,symmetry,TBItH5KtR1dNSHj3jd1fht3TKvH3,symmetry-judgement-task,159,613325,0.0-46.0-5.0-1.0-1.0-0.0,,,,,,,,,,1.0,1.0,,,,563e35190980220011572d9a,09:26:08,03/04/2024
,"<div style=""font-size: 10rem; color: #0000FF"">Y</div>",,ospan,letter,TBItH5KtR1dNSHj3jd1fht3TKvH3,html-keyboard-response,160,614328,0.0-46.0-5.0-1.0-1.0-1.0,,,,,,,,,,,,,,,563e35190980220011572d9a,09:26:08,03/04/2024
928.0,,,ospan,symmetry,TBItH5KtR1dNSHj3jd1fht3TKvH3,symmetry-judgement-task,161,617075,0.0-46.0-5.0-1.0-1.0-2.0,,,,,,,,,,1.0,1.0,,,,563e35190980220011572d9a,09:26:08,03/04/2024
,"<div style=""font-size: 10rem; color: #0000FF"">N</div>",,ospan,letter,TBItH5KtR1dNSHj3jd1fht3TKvH3,html-keyboard-response,162,618078,0.0-46.0-5.0-1.0-1.0-3.0,,,,,,,,,,,,,,,563e35190980220011572d9a,09:26:08,03/04/2024
944.0,,,ospan,symmetry,TBItH5KtR1dNSHj3jd1fht3TKvH3,symmetry-judgement-task,163,620842,0.0-46.0-5.0-1.0-1.0-4.0,,,,,,,,,,1.0,1.0,,,,563e35190980220011572d9a,09:26:08,03/04/2024
,"<div style=""font-size: 10rem; color: #0000FF"">P</div>",,ospan,letter,TBItH5KtR1dNSHj3jd1fht3TKvH3,html-keyboard-response,164,621845,0.0-46.0-5.0-1.0-1.0-5.0,,,,,,,,,,,,,,,563e35190980220011572d9a,09:26:08,03/04/2024
978.0,,,ospan,symmetry,TBItH5KtR1dNSHj3jd1fht3TKvH3,symmetry-judgement-task,165,624644,0.0-46.0-5.0-1.0-1.0-6.0,,,,,,,,,,1.0,1.0,,,,563e35190980220011572d9a,09:26:08,03/04/2024
,"<div style=""font-size: 10rem; color: #0000FF"">Q</div>",,ospan,letter,TBItH5KtR1dNSHj3jd1fht3TKvH3,html-keyboard-response,166,625647,0.0-46.0-5.0-1.0-1.0-7.0,,,,,,,,,,,,,,,563e35190980220011572d9a,09:26:08,03/04/2024
1261.0,,,ospan,symmetry,TBItH5KtR1dNSHj3jd1fht3TKvH3,symmetry-judgement-task,167,628727,0.0-46.0-5.0-1.0-1.0-8.0,,,,,,,,,,1.0,1.0,,,,563e35190980220011572d9a,09:26:08,03/04/2024
,"<div style=""font-size: 10rem; color: #0000FF"">H</div>",,ospan,letter,TBItH5KtR1dNSHj3jd1fht3TKvH3,html-keyboard-response,168,629730,0.0-46.0-5.0-1.0-1.0-9.0,,,,,,,,,,,,,,,563e35190980220011572d9a,09:26:08,03/04/2024
1106.0,,,ospan,symmetry,TBItH5KtR1dNSHj3jd1fht3TKvH3,symmetry-judgement-task,169,632658,0.0-46.0-5.0-1.0-1.0-10.0,,,,,,,,,,1.0,1.0,,,,563e35190980220011572d9a,09:26:08,03/04/2024
,"<div style=""font-size: 10rem; color: #0000FF"">J</div>",,ospan,letter,TBItH5KtR1dNSHj3jd1fht3TKvH3,html-keyboard-response,170,633660,0.0-46.0-5.0-1.0-1.0-11.0,,,,,,,,,,,,,,,563e35190980220011572d9a,09:26:08,03/04/2024
1261.0,,,ospan,symmetry,TBItH5KtR1dNSHj3jd1fht3TKvH3,symmetry-judgement-task,171,636742,0.0-46.0-5.0-1.0-1.0-12.0,,,,,,,,,,1.0,1.0,,,,563e35190980220011572d9a,09:26:08,03/04/2024
,"<div style=""font-size: 10rem; color: #0000FF"">C</div>",,ospan,letter,TBItH5KtR1dNSHj3jd1fht3TKvH3,html-keyboard-response,172,637746,0.0-46.0-5.0-1.0-1.0-13.0,,,,,,,,,,,,,,,563e35190980220011572d9a,09:26:08,03/04/2024
9083.0,"<div class = numbox><p style=""font-size: 2.4rem"">Please recall the letters you saw to the best of your ability. If you do not remember a particular letter, use the SKIP button.<br><b>(When you are ready to lock in your answer, press ENTER)</b></p><button id = button_1 class = ""square num-button"" onclick = ""recordClick(this)""><div class = content><div class = numbers>C</div></div></button><button id = button_2 class = ""square num-button"" onclick = ""recordClick(this)""><div class = content><div class = numbers>G</div></div></button><button id = button_3 class = ""square num-button"" onclick = ""recordClick(this)""><div class = content><div class = numbers>H</div></div></button><button id = button_4 class = ""square num-button"" onclick = ""recordClick(this)""><div class = content><div class = numbers>J</div></div></button><button id = button_5 class = ""square num-button"" onclick = ""recordClick(this)""><div class = content><div class = numbers>K</div></div></button><button id = button_6 class = ""square num-button"" onclick = ""recordClick(this)""><div class = content><div class = numbers>L</div></div></button><button id = button_7 class = ""square num-button"" onclick = ""recordClick(this)""><div class = content><div class = numbers>N</div></div></button><button id = button_8 class = ""square num-button"" onclick = ""recordClick(this)""><div class = content><div class = numbers>P</div></div></button><button id = button_9 class = ""square num-button"" onclick = ""recordClick(this)""><div class = content><div class = numbers>Q</div></div></button><button id = button_10 class = ""square num-button"" onclick = ""recordClick(this)""><div class = content><div class = numbers>R</div></div></button><button id = button_11 class = ""square num-button"" onclick = ""recordClick(this)""><div class = content><div class = numbers>S</div></div></button><button id = button_12 class = ""square num-button"" onclick = ""recordClick(this)""><div class = content><div class = numbers>Y</div></div></button><button class = clear_button id = ""ClearButton"" onclick = ""clearResponse()"">BACKSPACE</button><button class = blank_button id = ""BlankButton"" onclick = ""blankResponse()"">SKIP</button><p style=""font-size: 2.4rem""><u><b>Current Answer:</b></u></p><br><br><div id=echoed_txt style=""font-size: 5rem; color:blue;""><b></b></div></div>",enter,ospan,retrieval,TBItH5KtR1dNSHj3jd1fht3TKvH3,html-keyboard-response,173,647584,0.0-46.0-5.0-1.0-2.0,28,23,10,7.0,"[""Y"",""N"",""P"",""Q"",""H"",""S"",""J""]","[""Y"",""N"",""P"",""Q"",""H"",""J"",""C""]",0.0,5.0,,,,,,,563e35190980220011572d9a,09:26:08,03/04/2024
1487.0,[''],0,ospan,feedback,TBItH5KtR1dNSHj3jd1fht3TKvH3,html-button-response,174,649575,0.0-46.0-5.0-1.0-3.0,,,,,,,,,,,,100.0,0.0,,563e35190980220011572d9a,09:26:08,03/04/2024
,"<p style=""font-size:75px;"">...</p>",,ospan,iti,TBItH5KtR1dNSHj3jd1fht3TKvH3,html-keyboard-response,175,650580,0.0-46.0-6.0-0.0-0.0,,,,,,,,,,,,,,,563e35190980220011572d9a,09:26:08,03/04/2024
4258.0,,,ospan,symmetry,TBItH5KtR1dNSHj3jd1fht3TKvH3,symmetry-judgement-task,176,655908,0.0-46.0-6.0-0.0-1.0-0.0,,,,,,,,,,1.0,1.0,,,,563e35190980220011572d9a,09:26:08,03/04/2024
,"<div style=""font-size: 10rem; color: #0000FF"">Q</div>",,ospan,letter,TBItH5KtR1dNSHj3jd1fht3TKvH3,html-keyboard-response,177,656911,0.0-46.0-6.0-0.0-1.0-1.0,,,,,,,,,,,,,,,563e35190980220011572d9a,09:26:08,03/04/2024
1731.0,,,ospan,symmetry,TBItH5KtR1dNSHj3jd1fht3TKvH3,symmetry-judgement-task,178,660459,0.0-46.0-6.0-0.0-1.0-2.0,,,,,,,,,,1.0,1.0,,,,563e35190980220011572d9a,09:26:08,03/04/2024
,"<div style=""font-size: 10rem; color: #0000FF"">L</div>",,ospan,letter,TBItH5KtR1dNSHj3jd1fht3TKvH3,html-keyboard-response,179,661462,0.0-46.0-6.0-0.0-1.0-3.0,,,,,,,,,,,,,,,563e35190980220011572d9a,09:26:08,03/04/2024
874.0,,,ospan,symmetry,TBItH5KtR1dNSHj3jd1fht3TKvH3,symmetry-judgement-task,180,664159,0.0-46.0-6.0-0.0-1.0-4.0,,,,,,,,,,1.0,1.0,,,,563e35190980220011572d9a,09:26:08,03/04/2024
,"<div style=""font-size: 10rem; color: #0000FF"">Y</div>",,ospan,letter,TBItH5KtR1dNSHj3jd1fht3TKvH3,html-keyboard-response,181,665162,0.0-46.0-6.0-0.0-1.0-5.0,,,,,,,,,,,,,,,563e35190980220011572d9a,09:26:08,03/04/2024
1028.0,,,ospan,symmetry,TBItH5KtR1dNSHj3jd1fht3TKvH3,symmetry-judgement-task,182,668009,0.0-46.0-6.0-0.0-1.0-6.0,,,,,,,,,,1.0,1.0,,,,563e35190980220011572d9a,09:26:08,03/04/2024
,"<div style=""font-size: 10rem; color: #0000FF"">C</div>",,ospan,letter,TBItH5KtR1dNSHj3jd1fht3TKvH3,html-keyboard-response,183,669012,0.0-46.0-6.0-0.0-1.0-7.0,,,,,,,,,,,,,,,563e35190980220011572d9a,09:26:08,03/04/2024
959.0,,,ospan,symmetry,TBItH5KtR1dNSHj3jd1fht3TKvH3,symmetry-judgement-task,184,671792,0.0-46.0-6.0-0.0-1.0-8.0,,,,,,,,,,1.0,1.0,,,,563e35190980220011572d9a,09:26:08,03/04/2024
,"<div style=""font-size: 10rem; color: #0000FF"">K</div>",,ospan,letter,TBItH5KtR1dNSHj3jd1fht3TKvH3,html-keyboard-response,185,672795,0.0-46.0-6.0-0.0-1.0-9.0,,,,,,,,,,,,,,,563e35190980220011572d9a,09:26:08,03/04/2024
6315.0,"<div class = numbox><p style=""font-size: 2.4rem"">Please recall the letters you saw to the best of your ability. If you do not remember a particular letter, use the SKIP button.<br><b>(When you are ready to lock in your answer, press ENTER)</b></p><button id = button_1 class = ""square num-button"" onclick = ""recordClick(this)""><div class = content><div class = numbers>C</div></div></button><button id = button_2 class = ""square num-button"" onclick = ""recordClick(this)""><div class = content><div class = numbers>G</div></div></button><button id = button_3 class = ""square num-button"" onclick = ""recordClick(this)""><div class = content><div class = numbers>H</div></div></button><button id = button_4 class = ""square num-button"" onclick = ""recordClick(this)""><div class = content><div class = numbers>J</div></div></button><button id = button_5 class = ""square num-button"" onclick = ""recordClick(this)""><div class = content><div class = numbers>K</div></div></button><button id = button_6 class = ""square num-button"" onclick = ""recordClick(this)""><div class = content><div class = numbers>L</div></div></button><button id = button_7 class = ""square num-button"" onclick = ""recordClick(this)""><div class = content><div class = numbers>N</div></div></button><button id = button_8 class = ""square num-button"" onclick = ""recordClick(this)""><div class = content><div class = numbers>P</div></div></button><button id = button_9 class = ""square num-button"" onclick = ""recordClick(this)""><div class = content><div class = numbers>Q</div></div></button><button id = button_10 class = ""square num-button"" onclick = ""recordClick(this)""><div class = content><div class = numbers>R</div></div></button><button id = button_11 class = ""square num-button"" onclick = ""recordClick(this)""><div class = content><div class = numbers>S</div></div></button><button id = button_12 class = ""square num-button"" onclick = ""recordClick(this)""><div class = content><div class = numbers>Y</div></div></button><button class = clear_button id = ""ClearButton"" onclick = ""clearResponse()"">BACKSPACE</button><button class = blank_button id = ""BlankButton"" onclick = ""blankResponse()"">SKIP</button><p style=""font-size: 2.4rem""><u><b>Current Answer:</b></u></p><br><br><div id=echoed_txt style=""font-size: 5rem; color:blue;""><b></b></div></div>",enter,ospan,retrieval,TBItH5KtR1dNSHj3jd1fht3TKvH3,html-keyboard-response,186,679864,0.0-46.0-6.0-0.0-2.0,33,28,15,5.0,"[""Q"",""L"",""Y"",""C"",""K""]","[""Q"",""L"",""Y"",""C"",""K""]",1.0,5.0,,,,,,,563e35190980220011572d9a,09:26:08,03/04/2024
972.9999999998836,[''],0,ospan,feedback,TBItH5KtR1dNSHj3jd1fht3TKvH3,html-button-response,187,681341,0.0-46.0-6.0-0.0-3.0,,,,,,,,,,,,100.0,0.0,,563e35190980220011572d9a,09:26:08,03/04/2024
,"<p style=""font-size:75px;"">...</p>",,ospan,iti,TBItH5KtR1dNSHj3jd1fht3TKvH3,html-keyboard-response,188,682347,0.0-46.0-6.0-1.0-0.0,,,,,,,,,,,,,,,563e35190980220011572d9a,09:26:08,03/04/2024
1094.0,,,ospan,symmetry,TBItH5KtR1dNSHj3jd1fht3TKvH3,symmetry-judgement-task,189,684509,0.0-46.0-6.0-1.0-1.0-0.0,,,,,,,,,,1.0,1.0,,,,563e35190980220011572d9a,09:26:08,03/04/2024
,"<div style=""font-size: 10rem; color: #0000FF"">G</div>",,ospan,letter,TBItH5KtR1dNSHj3jd1fht3TKvH3,html-keyboard-response,190,685512,0.0-46.0-6.0-1.0-1.0-1.0,,,,,,,,,,,,,,,563e35190980220011572d9a,09:26:08,03/04/2024
1175.0,,,ospan,symmetry,TBItH5KtR1dNSHj3jd1fht3TKvH3,symmetry-judgement-task,191,688510,0.0-46.0-6.0-1.0-1.0-2.0,,,,,,,,,,1.0,1.0,,,,563e35190980220011572d9a,09:26:08,03/04/2024
,"<div style=""font-size: 10rem; color: #0000FF"">S</div>",,ospan,letter,TBItH5KtR1dNSHj3jd1fht3TKvH3,html-keyboard-response,192,689513,0.0-46.0-6.0-1.0-1.0-3.0,,,,,,,,,,,,,,,563e35190980220011572d9a,09:26:08,03/04/2024
925.0,,,ospan,symmetry,TBItH5KtR1dNSHj3jd1fht3TKvH3,symmetry-judgement-task,193,692259,0.0-46.0-6.0-1.0-1.0-4.0,,,,,,,,,,1.0,1.0,,,,563e35190980220011572d9a,09:26:08,03/04/2024
,"<div style=""font-size: 10rem; color: #0000FF"">L</div>",,ospan,letter,TBItH5KtR1dNSHj3jd1fht3TKvH3,html-keyboard-response,194,693261,0.0-46.0-6.0-1.0-1.0-5.0,,,,,,,,,,,,,,,563e35190980220011572d9a,09:26:08,03/04/2024
978.0,,,ospan,symmetry,TBItH5KtR1dNSHj3jd1fht3TKvH3,symmetry-judgement-task,195,696059,0.0-46.0-6.0-1.0-1.0-6.0,,,,,,,,,,1.0,1.0,,,,563e35190980220011572d9a,09:26:08,03/04/2024
,"<div style=""font-size: 10rem; color: #0000FF"">K</div>",,ospan,letter,TBItH5KtR1dNSHj3jd1fht3TKvH3,html-keyboard-response,196,697062,0.0-46.0-6.0-1.0-1.0-7.0,,,,,,,,,,,,,,,563e35190980220011572d9a,09:26:08,03/04/2024
910.0,,,ospan,symmetry,TBItH5KtR1dNSHj3jd1fht3TKvH3,symmetry-judgement-task,197,699794,0.0-46.0-6.0-1.0-1.0-8.0,,,,,,,,,,1.0,1.0,,,,563e35190980220011572d9a,09:26:08,03/04/2024
,"<div style=""font-size: 10rem; color: #0000FF"">P</div>",,ospan,letter,TBItH5KtR1dNSHj3jd1fht3TKvH3,html-keyboard-response,198,700798,0.0-46.0-6.0-1.0-1.0-9.0,,,,,,,,,,,,,,,563e35190980220011572d9a,09:26:08,03/04/2024
1175.0,,,ospan,symmetry,TBItH5KtR1dNSHj3jd1fht3TKvH3,symmetry-judgement-task,199,703792,0.0-46.0-6.0-1.0-1.0-10.0,,,,,,,,,,1.0,1.0,,,,563e35190980220011572d9a,09:26:08,03/04/2024
,"<div style=""font-size: 10rem; color: #0000FF"">N</div>",,ospan,letter,TBItH5KtR1dNSHj3jd1fht3TKvH3,html-keyboard-response,200,704795,0.0-46.0-6.0-1.0-1.0-11.0,,,,,,,,,,,,,,,563e35190980220011572d9a,09:26:08,03/04/2024
1825.0,,,ospan,symmetry,TBItH5KtR1dNSHj3jd1fht3TKvH3,symmetry-judgement-task,201,708443,0.0-46.0-6.0-1.0-1.0-12.0,,,,,,,,,,1.0,1.0,,,,563e35190980220011572d9a,09:26:08,03/04/2024
,"<div style=""font-size: 10rem; color: #0000FF"">R</div>",,ospan,letter,TBItH5KtR1dNSHj3jd1fht3TKvH3,html-keyboard-response,202,709446,0.0-46.0-6.0-1.0-1.0-13.0,,,,,,,,,,,,,,,563e35190980220011572d9a,09:26:08,03/04/2024
1806.0,,,ospan,symmetry,TBItH5KtR1dNSHj3jd1fht3TKvH3,symmetry-judgement-task,203,713076,0.0-46.0-6.0-1.0-1.0-14.0,,,,,,,,,,1.0,1.0,,,,563e35190980220011572d9a,09:26:08,03/04/2024
,"<div style=""font-size: 10rem; color: #0000FF"">J</div>",,ospan,letter,TBItH5KtR1dNSHj3jd1fht3TKvH3,html-keyboard-response,204,714078,0.0-46.0-6.0-1.0-1.0-15.0,,,,,,,,,,,,,,,563e35190980220011572d9a,09:26:08,03/04/2024
7192.999999999884,"<div class = numbox><p style=""font-size: 2.4rem"">Please recall the letters you saw to the best of your ability. If you do not remember a particular letter, use the SKIP button.<br><b>(When you are ready to lock in your answer, press ENTER)</b></p><button id = button_1 class = ""square num-button"" onclick = ""recordClick(this)""><div class = content><div class = numbers>C</div></div></button><button id = button_2 class = ""square num-button"" onclick = ""recordClick(this)""><div class = content><div class = numbers>G</div></div></button><button id = button_3 class = ""square num-button"" onclick = ""recordClick(this)""><div class = content><div class = numbers>H</div></div></button><button id = button_4 class = ""square num-button"" onclick = ""recordClick(this)""><div class = content><div class = numbers>J</div></div></button><button id = button_5 class = ""square num-button"" onclick = ""recordClick(this)""><div class = content><div class = numbers>K</div></div></button><button id = button_6 class = ""square num-button"" onclick = ""recordClick(this)""><div class = content><div class = numbers>L</div></div></button><button id = button_7 class = ""square num-button"" onclick = ""recordClick(this)""><div class = content><div class = numbers>N</div></div></button><button id = button_8 class = ""square num-button"" onclick = ""recordClick(this)""><div class = content><div class = numbers>P</div></div></button><button id = button_9 class = ""square num-button"" onclick = ""recordClick(this)""><div class = content><div class = numbers>Q</div></div></button><button id = button_10 class = ""square num-button"" onclick = ""recordClick(this)""><div class = content><div class = numbers>R</div></div></button><button id = button_11 class = ""square num-button"" onclick = ""recordClick(this)""><div class = content><div class = numbers>S</div></div></button><button id = button_12 class = ""square num-button"" onclick = ""recordClick(this)""><div class = content><div class = numbers>Y</div></div></button><button class = clear_button id = ""ClearButton"" onclick = ""clearResponse()"">BACKSPACE</button><button class = blank_button id = ""BlankButton"" onclick = ""blankResponse()"">SKIP</button><p style=""font-size: 2.4rem""><u><b>Current Answer:</b></u></p><br><br><div id=echoed_txt style=""font-size: 5rem; color:blue;""><b></b></div></div>",enter,ospan,retrieval,TBItH5KtR1dNSHj3jd1fht3TKvH3,html-keyboard-response,205,722027,0.0-46.0-6.0-1.0-2.0,41,32,15,8.0,"[""J"",""S"",""L"",""K"",""N"",""Y"",""P"",""J""]","[""G"",""S"",""L"",""K"",""P"",""N"",""R"",""J""]",0.0,4.0,,,,,,,563e35190980220011572d9a,09:26:08,03/04/2024
844.0,[''],0,ospan,feedback,TBItH5KtR1dNSHj3jd1fht3TKvH3,html-button-response,206,723375,0.0-46.0-6.0-1.0-3.0,,,,,,,,,,,,100.0,0.0,,563e35190980220011572d9a,09:26:08,03/04/2024
18283.0,,{'Q0': 'enjoyed symmetry game - could have been harder'},ospan,survey_ospan,TBItH5KtR1dNSHj3jd1fht3TKvH3,lmdlab-survey-text,207,742412,0.0-46.0-7.0,,,,,,,,,,,,,,TBItH5KtR1dNSHj3jd1fht3TKvH3,563e35190980220011572d9a,09:26:08,03/04/2024
758.0,<p><p style='font-size: 3rem'>Great work!<br><br>This completes the symmetry and memory task.</p><br><br><br>,0,ospan,finish,TBItH5KtR1dNSHj3jd1fht3TKvH3,html-button-response,208,743174,0.0-46.0-8.0,41,32,15,,,,,,,,,100.0,,,563e35190980220011572d9a,09:26:08,03/04/2024
