rt,stimulus,response,exp_name,exp_stage,subjectID,trial_type,trial_index,time_elapsed,internal_node_id,ospan_shown,ospan_total,ospan_abs,length,resp_actual,resp_correct,full_correct,num_correct,feedback,accuracy,correct,math_acc,math_warning,databaseID,prolificID,start_time,date
3300.1999999284744,<div class = 'left_align' style='font-size: 3.25rem; line-height: 1.3;'><p class = 'center_align'><b>Welcome to the Symmetry and Memory Task</b><br><br><br><br></p>Press 'continue' to show the instructions.<br><br><br><br></div>,0,ospan,instruct,5FDIqHUO2RNUAShocxPFSOV0B583,html-button-response,54,491463,0.0-46.0-0.0-0.0-0.0,,,,,,,,,,,,,,,5f6fa1423bef885572c5d7e7,09:15:52,03/04/2024
13029.799999952316,"<div class = 'left_align' style='font-size: 3.25rem; line-height: 1.3;'><p class = 'center_align'><b>Symmetry and Memory Task</b><br><br></p>In this task, you will try to memorize letters you see on the screen<br>while you also view black and white grid pictures.<br><br>In the next few minutes, you will have some practice to get you familiar<br>with how the task works.<br><br>It may be difficult sometimes, but please do not worry about making mistakes!<br><br>We will begin by practicing the letter part of the task.<br><br><br><br></div>",0,ospan,instruct,5FDIqHUO2RNUAShocxPFSOV0B583,html-button-response,55,504755,0.0-46.0-0.0-0.0-1.0,,,,,,,,,,,,,,,5f6fa1423bef885572c5d7e7,09:15:52,03/04/2024
12375.700000047684,"<div class = 'left_align' style='font-size: 3.25rem; line-height: 1.3;'>For this practice part, letters will appear on the screen one at a time.<br><br>Try to remember each letter in the order presented.<br><br>After some letters have been shown, you will see a response screen. Your<br>goal is to report the letters you saw <b>in order</b>. If you do not remember<br>a particular letter, you will have the option to leave it blank.<br><br><br><br></div>",0,ospan,instruct,5FDIqHUO2RNUAShocxPFSOV0B583,html-button-response,56,517386,0.0-46.0-0.0-0.0-2.0,,,,,,,,,,,,,,,5f6fa1423bef885572c5d7e7,09:15:52,03/04/2024
4847.299999952316,"<div class = 'left_align' style='font-size: 3.25rem; line-height: 1.3;'>Remember, it is very important to get the letters in the same<br>order as you see them.<br><br>When you are ready, you may begin the letter practice.</div><br><br><br><br>",0,ospan,instruct,5FDIqHUO2RNUAShocxPFSOV0B583,html-button-response,57,522496,0.0-46.0-0.0-0.0-3.0,,,,,,,,,,,,,,,5f6fa1423bef885572c5d7e7,09:15:52,03/04/2024
,"<p style=""font-size:75px;"">...</p>",,ospan,iti,5FDIqHUO2RNUAShocxPFSOV0B583,html-keyboard-response,58,523777,0.0-46.0-0.0-1.0-0.0,,,,,,,,,,,,,,,5f6fa1423bef885572c5d7e7,09:15:52,03/04/2024
,"<div style=""font-size: 10rem; color: #0000FF"">K</div>",,ospan,letter,5FDIqHUO2RNUAShocxPFSOV0B583,html-keyboard-response,59,524791,0.0-46.0-0.0-1.0-1.0,,,,,,,,,,,,,,,5f6fa1423bef885572c5d7e7,09:15:52,03/04/2024
,"<div style=""font-size: 10rem; color: #0000FF"">C</div>",,ospan,letter,5FDIqHUO2RNUAShocxPFSOV0B583,html-keyboard-response,60,526573,0.0-46.0-0.0-1.0-2.0,,,,,,,,,,,,,,,5f6fa1423bef885572c5d7e7,09:15:52,03/04/2024
9346.099999904633,"<div class = numbox><p style=""font-size: 2.4rem"">Please recall the letters you saw to the best of your ability. If you do not remember a particular letter, use the SKIP button.<br><b>(When you are ready to lock in your answer, press ENTER)</b></p><button id = button_1 class = ""square num-button"" onclick = ""recordClick(this)""><div class = content><div class = numbers>C</div></div></button><button id = button_2 class = ""square num-button"" onclick = ""recordClick(this)""><div class = content><div class = numbers>G</div></div></button><button id = button_3 class = ""square num-button"" onclick = ""recordClick(this)""><div class = content><div class = numbers>H</div></div></button><button id = button_4 class = ""square num-button"" onclick = ""recordClick(this)""><div class = content><div class = numbers>J</div></div></button><button id = button_5 class = ""square num-button"" onclick = ""recordClick(this)""><div class = content><div class = numbers>K</div></div></button><button id = button_6 class = ""square num-button"" onclick = ""recordClick(this)""><div class = content><div class = numbers>L</div></div></button><button id = button_7 class = ""square num-button"" onclick = ""recordClick(this)""><div class = content><div class = numbers>N</div></div></button><button id = button_8 class = ""square num-button"" onclick = ""recordClick(this)""><div class = content><div class = numbers>P</div></div></button><button id = button_9 class = ""square num-button"" onclick = ""recordClick(this)""><div class = content><div class = numbers>Q</div></div></button><button id = button_10 class = ""square num-button"" onclick = ""recordClick(this)""><div class = content><div class = numbers>R</div></div></button><button id = button_11 class = ""square num-button"" onclick = ""recordClick(this)""><div class = content><div class = numbers>S</div></div></button><button id = button_12 class = ""square num-button"" onclick = ""recordClick(this)""><div class = content><div class = numbers>Y</div></div></button><button class = clear_button id = ""ClearButton"" onclick = ""clearResponse()"">BACKSPACE</button><button class = blank_button id = ""BlankButton"" onclick = ""blankResponse()"">SKIP</button><p style=""font-size: 2.4rem""><u><b>Current Answer:</b></u></p><br><br><div id=echoed_txt style=""font-size: 5rem; color:blue;""><b></b></div></div>",enter,ospan,retrieval,5FDIqHUO2RNUAShocxPFSOV0B583,html-keyboard-response,61,536685,0.0-46.0-0.0-1.0-3.0,NA,NA,NA,2.0,"[""K"",""C""]","[""K"",""C""]",1.0,2.0,"['<font color=""green"">K</font>', '<font color=""green"">C</font>']",,,,,,5f6fa1423bef885572c5d7e7,09:15:52,03/04/2024
2179.0999999046326,"['<p style=""font-size:44px"">Letters:<br><br><br><font color=""green"">K</font> <font color=""green"">C</font></p><br><br>']",0,ospan,practice_feedback,5FDIqHUO2RNUAShocxPFSOV0B583,html-button-response,62,539372,0.0-46.0-0.0-1.0-4.0,,,,,,,,,,,,,,,5f6fa1423bef885572c5d7e7,09:15:52,03/04/2024
,"<p style=""font-size:75px;"">...</p>",,ospan,iti,5FDIqHUO2RNUAShocxPFSOV0B583,html-keyboard-response,63,540376,0.0-46.0-0.0-2.0-0.0,,,,,,,,,,,,,,,5f6fa1423bef885572c5d7e7,09:15:52,03/04/2024
,"<div style=""font-size: 10rem; color: #0000FF"">R</div>",,ospan,letter,5FDIqHUO2RNUAShocxPFSOV0B583,html-keyboard-response,64,541391,0.0-46.0-0.0-2.0-1.0,,,,,,,,,,,,,,,5f6fa1423bef885572c5d7e7,09:15:52,03/04/2024
,"<div style=""font-size: 10rem; color: #0000FF"">N</div>",,ospan,letter,5FDIqHUO2RNUAShocxPFSOV0B583,html-keyboard-response,65,543159,0.0-46.0-0.0-2.0-2.0,,,,,,,,,,,,,,,5f6fa1423bef885572c5d7e7,09:15:52,03/04/2024
,"<div style=""font-size: 10rem; color: #0000FF"">P</div>",,ospan,letter,5FDIqHUO2RNUAShocxPFSOV0B583,html-keyboard-response,66,544921,0.0-46.0-0.0-2.0-3.0,,,,,,,,,,,,,,,5f6fa1423bef885572c5d7e7,09:15:52,03/04/2024
6992.699999928474,"<div class = numbox><p style=""font-size: 2.4rem"">Please recall the letters you saw to the best of your ability. If you do not remember a particular letter, use the SKIP button.<br><b>(When you are ready to lock in your answer, press ENTER)</b></p><button id = button_1 class = ""square num-button"" onclick = ""recordClick(this)""><div class = content><div class = numbers>C</div></div></button><button id = button_2 class = ""square num-button"" onclick = ""recordClick(this)""><div class = content><div class = numbers>G</div></div></button><button id = button_3 class = ""square num-button"" onclick = ""recordClick(this)""><div class = content><div class = numbers>H</div></div></button><button id = button_4 class = ""square num-button"" onclick = ""recordClick(this)""><div class = content><div class = numbers>J</div></div></button><button id = button_5 class = ""square num-button"" onclick = ""recordClick(this)""><div class = content><div class = numbers>K</div></div></button><button id = button_6 class = ""square num-button"" onclick = ""recordClick(this)""><div class = content><div class = numbers>L</div></div></button><button id = button_7 class = ""square num-button"" onclick = ""recordClick(this)""><div class = content><div class = numbers>N</div></div></button><button id = button_8 class = ""square num-button"" onclick = ""recordClick(this)""><div class = content><div class = numbers>P</div></div></button><button id = button_9 class = ""square num-button"" onclick = ""recordClick(this)""><div class = content><div class = numbers>Q</div></div></button><button id = button_10 class = ""square num-button"" onclick = ""recordClick(this)""><div class = content><div class = numbers>R</div></div></button><button id = button_11 class = ""square num-button"" onclick = ""recordClick(this)""><div class = content><div class = numbers>S</div></div></button><button id = button_12 class = ""square num-button"" onclick = ""recordClick(this)""><div class = content><div class = numbers>Y</div></div></button><button class = clear_button id = ""ClearButton"" onclick = ""clearResponse()"">BACKSPACE</button><button class = blank_button id = ""BlankButton"" onclick = ""blankResponse()"">SKIP</button><p style=""font-size: 2.4rem""><u><b>Current Answer:</b></u></p><br><br><div id=echoed_txt style=""font-size: 5rem; color:blue;""><b></b></div></div>",enter,ospan,retrieval,5FDIqHUO2RNUAShocxPFSOV0B583,html-keyboard-response,67,552672,0.0-46.0-0.0-2.0-4.0,NA,NA,NA,3.0,"[""R"",""N"",""P""]","[""R"",""N"",""P""]",1.0,3.0,"['<font color=""green"">R</font>', '<font color=""green"">N</font>', '<font color=""green"">P</font>']",,,,,,5f6fa1423bef885572c5d7e7,09:15:52,03/04/2024
1199.2000000476837,"['<p style=""font-size:44px"">Letters:<br><br><br><font color=""green"">R</font> <font color=""green"">N</font> <font color=""green"">P</font></p><br><br>']",0,ospan,practice_feedback,5FDIqHUO2RNUAShocxPFSOV0B583,html-button-response,68,554386,0.0-46.0-0.0-2.0-5.0,,,,,,,,,,,,,,,5f6fa1423bef885572c5d7e7,09:15:52,03/04/2024
14599.5,"<div class = 'left_align' style='font-size: 3.25rem; line-height: 1.3;'>Now you will practice doing the <b>symmetry judgment part</b> of the experiment.<br><br>A black and white grid picture will appear on the screen and you have to judge if it is <br>symmetrical or asymetrical.<br><br>A picture is 'mirror' symmetrical if its left half is identical to the right half when flipped.<br>Here are examples of a symmetrical and an asymetrical picture:<br><br><center><img src='Stimuli/img/symm_instructions_extra.png' style='height:420px; width:900'></img></center><br>To judge symmetry, imagine you were to fold each picture down the middle, like a book –<br>would the left half match the right half when folded onto each other?<br><br></div><br>",0,ospan,instruct,5FDIqHUO2RNUAShocxPFSOV0B583,html-button-response,69,568987,0.0-46.0-1.0-0.0-0.0,,,,,,,,,,,,,,,5f6fa1423bef885572c5d7e7,09:15:52,03/04/2024
4897.0,"<div class = 'left_align' style='font-size: 3.25rem; line-height: 1.3;'>When you have viewed the picture and determined whether it is symmetrical or not,<br>you can <b>click the Yes or No button</b> below to answer.<br><br>If you take longer than 15 seconds, it will continue automatically<br>and record the answer as an error.</div><br>",0,ospan,instruct,5FDIqHUO2RNUAShocxPFSOV0B583,html-button-response,70,574149,0.0-46.0-1.0-0.0-1.0,,,,,,,,,,,,,,,5f6fa1423bef885572c5d7e7,09:15:52,03/04/2024
8833.399999976158,"<div class = 'left_align' style='font-size: 3.25rem; line-height: 1.3;'>It is <b>very</b> important that you make the symmetry judgment correctly.<br><br>It is also important that you try and judge the picture as quickly as you can.<br><br>When you are ready, click on the button below to try some practice problems.</div><br><br><br><br>",0,ospan,instruct,5FDIqHUO2RNUAShocxPFSOV0B583,html-button-response,71,583238,0.0-46.0-1.0-0.0-2.0,,,,,,,,,,,,,,,5f6fa1423bef885572c5d7e7,09:15:52,03/04/2024
1782.0,,,ospan,symmetry,5FDIqHUO2RNUAShocxPFSOV0B583,symmetry-judgement-task,72,585887,0.0-46.0-1.0-1.0-0.0,,,,,,,,,,1.0,1.0,,,,5f6fa1423bef885572c5d7e7,09:15:52,03/04/2024
,"<p style=""color:green; font-size: 35px"">Correct</p>",,ospan,feedback,5FDIqHUO2RNUAShocxPFSOV0B583,html-keyboard-response,73,586642,0.0-46.0-1.0-1.0-1.0,,,,,,,,,,,,,,,5f6fa1423bef885572c5d7e7,09:15:52,03/04/2024
1552.0,,,ospan,symmetry,5FDIqHUO2RNUAShocxPFSOV0B583,symmetry-judgement-task,74,590974,0.0-46.0-1.0-1.0-2.0,,,,,,,,,,1.0,1.0,,,,5f6fa1423bef885572c5d7e7,09:15:52,03/04/2024
,"<p style=""color:green; font-size: 35px"">Correct</p>",,ospan,feedback,5FDIqHUO2RNUAShocxPFSOV0B583,html-keyboard-response,75,591729,0.0-46.0-1.0-1.0-3.0,,,,,,,,,,,,,,,5f6fa1423bef885572c5d7e7,09:15:52,03/04/2024
1500.0,,,ospan,symmetry,5FDIqHUO2RNUAShocxPFSOV0B583,symmetry-judgement-task,76,596039,0.0-46.0-1.0-1.0-4.0,,,,,,,,,,1.0,1.0,,,,5f6fa1423bef885572c5d7e7,09:15:52,03/04/2024
,"<p style=""color:green; font-size: 35px"">Correct</p>",,ospan,feedback,5FDIqHUO2RNUAShocxPFSOV0B583,html-keyboard-response,77,596797,0.0-46.0-1.0-1.0-5.0,,,,,,,,,,,,,,,5f6fa1423bef885572c5d7e7,09:15:52,03/04/2024
1860.1000000238419,"<p style=""font-size: 3rem;"">You responded correctly on 3 of 3 symmetry judgments. Good job!</p><br><br>",0,ospan,practice,5FDIqHUO2RNUAShocxPFSOV0B583,html-button-response,78,600671,0.0-46.0-1.0-2.0,,,,,,,,,,,,,,,5f6fa1423bef885572c5d7e7,09:15:52,03/04/2024
11922.700000047684,"<div class = 'left_align' style='font-size: 3.25rem; line-height: 1.3;'>Now you will practice doing both parts of the experiment at the same time.<br><br>In the next practice set, you will be given one grid picture to judge.<br>Then letter will appear on the screen. Try to remember the letter.<br><br>It is <b>very important</b> to make the symmetry judgment as quickly and accurately as possible.<br><br>Just as before, once you have make the symmetry judgment, you can click Yes or No.<br><b>Note that you will no longer see Correct or Incorrect feedback.</div><br><br><br><br>",0,ospan,instruct,5FDIqHUO2RNUAShocxPFSOV0B583,html-button-response,79,612860,0.0-46.0-2.0-0.0-0.0,,,,,,,,,,,,,,,5f6fa1423bef885572c5d7e7,09:15:52,03/04/2024
8146.600000023842,"<div class = 'left_align' style='font-size: 3.25rem; line-height: 1.3;'>After the letter goes away, another grid picture will appear, and then<br>another letter.<br><br>At the end of each set of letters and grids, you will recall the letters to the best<br>of your ability. Remember, try your best to get the letters in the correct order.<br><br>It is important to <b>quickly</b> and <b>accurately</b> make the symmetry judgments.</div><br><br><br><br>",0,ospan,instruct,5FDIqHUO2RNUAShocxPFSOV0B583,html-button-response,80,621260,0.0-46.0-2.0-0.0-1.0,,,,,,,,,,,,,,,5f6fa1423bef885572c5d7e7,09:15:52,03/04/2024
12563.800000071526,"<div class = 'left_align' style='font-size: 3.25rem; line-height: 1.3;'>On the feedback screen, if you are not doing well at the symmetry judgments,<br>you will also see a warning in the middle. This indicates your percent <br>correct for the grid pictures for the entire experiment.<br><br>It is <b>very</b> important for you to keep accuracy at least at 85%: <u>We can only use<br>data where the participant was at least 85% accurate on the judgments.</u> Therefore,<br> please try your best to perform well on the symmetry judgments, <b>at the same time</b><br>doing your best to recall as many letters as possible.<br><br>Click the button to try some practice problems.</div><br><br><br><br>",0,ospan,instruct,5FDIqHUO2RNUAShocxPFSOV0B583,html-button-response,81,634091,0.0-46.0-2.0-0.0-2.0,,,,,,,,,,,,,,,5f6fa1423bef885572c5d7e7,09:15:52,03/04/2024
,"<p style=""font-size:75px;"">...</p>",,ospan,iti,5FDIqHUO2RNUAShocxPFSOV0B583,html-keyboard-response,82,635354,0.0-46.0-2.0-1.0-0.0,,,,,,,,,,,,,,,5f6fa1423bef885572c5d7e7,09:15:52,03/04/2024
1542.0,,,ospan,symmetry,5FDIqHUO2RNUAShocxPFSOV0B583,symmetry-judgement-task,83,638194,0.0-46.0-2.0-1.0-1.0-0.0,,,,,,,,,,1.0,1.0,,,,5f6fa1423bef885572c5d7e7,09:15:52,03/04/2024
,"<div style=""font-size: 10rem; color: #0000FF"">P</div>",,ospan,letter,5FDIqHUO2RNUAShocxPFSOV0B583,html-keyboard-response,84,639206,0.0-46.0-2.0-1.0-1.0-1.0,,,,,,,,,,,,,,,5f6fa1423bef885572c5d7e7,09:15:52,03/04/2024
1284.0,,,ospan,symmetry,5FDIqHUO2RNUAShocxPFSOV0B583,symmetry-judgement-task,85,642528,0.0-46.0-2.0-1.0-1.0-2.0,,,,,,,,,,1.0,1.0,,,,5f6fa1423bef885572c5d7e7,09:15:52,03/04/2024
,"<div style=""font-size: 10rem; color: #0000FF"">G</div>",,ospan,letter,5FDIqHUO2RNUAShocxPFSOV0B583,html-keyboard-response,86,643545,0.0-46.0-2.0-1.0-1.0-3.0,,,,,,,,,,,,,,,5f6fa1423bef885572c5d7e7,09:15:52,03/04/2024
1243.0,,,ospan,symmetry,5FDIqHUO2RNUAShocxPFSOV0B583,symmetry-judgement-task,87,646833,0.0-46.0-2.0-1.0-1.0-4.0,,,,,,,,,,1.0,1.0,,,,5f6fa1423bef885572c5d7e7,09:15:52,03/04/2024
,"<div style=""font-size: 10rem; color: #0000FF"">K</div>",,ospan,letter,5FDIqHUO2RNUAShocxPFSOV0B583,html-keyboard-response,88,647845,0.0-46.0-2.0-1.0-1.0-5.0,,,,,,,,,,,,,,,5f6fa1423bef885572c5d7e7,09:15:52,03/04/2024
3404.8000000715256,"<div class = numbox><p style=""font-size: 2.4rem"">Please recall the letters you saw to the best of your ability. If you do not remember a particular letter, use the SKIP button.<br><b>(When you are ready to lock in your answer, press ENTER)</b></p><button id = button_1 class = ""square num-button"" onclick = ""recordClick(this)""><div class = content><div class = numbers>C</div></div></button><button id = button_2 class = ""square num-button"" onclick = ""recordClick(this)""><div class = content><div class = numbers>G</div></div></button><button id = button_3 class = ""square num-button"" onclick = ""recordClick(this)""><div class = content><div class = numbers>H</div></div></button><button id = button_4 class = ""square num-button"" onclick = ""recordClick(this)""><div class = content><div class = numbers>J</div></div></button><button id = button_5 class = ""square num-button"" onclick = ""recordClick(this)""><div class = content><div class = numbers>K</div></div></button><button id = button_6 class = ""square num-button"" onclick = ""recordClick(this)""><div class = content><div class = numbers>L</div></div></button><button id = button_7 class = ""square num-button"" onclick = ""recordClick(this)""><div class = content><div class = numbers>N</div></div></button><button id = button_8 class = ""square num-button"" onclick = ""recordClick(this)""><div class = content><div class = numbers>P</div></div></button><button id = button_9 class = ""square num-button"" onclick = ""recordClick(this)""><div class = content><div class = numbers>Q</div></div></button><button id = button_10 class = ""square num-button"" onclick = ""recordClick(this)""><div class = content><div class = numbers>R</div></div></button><button id = button_11 class = ""square num-button"" onclick = ""recordClick(this)""><div class = content><div class = numbers>S</div></div></button><button id = button_12 class = ""square num-button"" onclick = ""recordClick(this)""><div class = content><div class = numbers>Y</div></div></button><button class = clear_button id = ""ClearButton"" onclick = ""clearResponse()"">BACKSPACE</button><button class = blank_button id = ""BlankButton"" onclick = ""blankResponse()"">SKIP</button><p style=""font-size: 2.4rem""><u><b>Current Answer:</b></u></p><br><br><div id=echoed_txt style=""font-size: 5rem; color:blue;""><b></b></div></div>",enter,ospan,retrieval,5FDIqHUO2RNUAShocxPFSOV0B583,html-keyboard-response,89,652010,0.0-46.0-2.0-1.0-2.0-0.0,NA,NA,NA,3.0,"[""P"",""G"",""K""]","[""P"",""G"",""K""]",1.0,3.0,"['<font color=""green"">P</font>', '<font color=""green"">G</font>', '<font color=""green"">K</font>']",,,,,,5f6fa1423bef885572c5d7e7,09:15:52,03/04/2024
1820.3000000715256,"['<p style=""font-size:44px"">Letters:<br><br><br><font color=""green"">P</font> <font color=""green"">G</font> <font color=""green"">K</font></p><br><br><p style=""font-size:30px"">Symmetry:<br><br><font color=""green"">100%</font></p><br><br>']",0,ospan,practice_feedback,5FDIqHUO2RNUAShocxPFSOV0B583,html-button-response,90,654338,0.0-46.0-2.0-1.0-2.0-1.0,,,,,,,,,,,,,,,5f6fa1423bef885572c5d7e7,09:15:52,03/04/2024
,"<p style=""font-size:75px;"">...</p>",,ospan,iti,5FDIqHUO2RNUAShocxPFSOV0B583,html-keyboard-response,91,655347,0.0-46.0-2.0-2.0-0.0,,,,,,,,,,,,,,,5f6fa1423bef885572c5d7e7,09:15:52,03/04/2024
1312.0,,,ospan,symmetry,5FDIqHUO2RNUAShocxPFSOV0B583,symmetry-judgement-task,92,657915,0.0-46.0-2.0-2.0-1.0-0.0,,,,,,,,,,1.0,1.0,,,,5f6fa1423bef885572c5d7e7,09:15:52,03/04/2024
,"<div style=""font-size: 10rem; color: #0000FF"">K</div>",,ospan,letter,5FDIqHUO2RNUAShocxPFSOV0B583,html-keyboard-response,93,658925,0.0-46.0-2.0-2.0-1.0-1.0,,,,,,,,,,,,,,,5f6fa1423bef885572c5d7e7,09:15:52,03/04/2024
1181.0,,,ospan,symmetry,5FDIqHUO2RNUAShocxPFSOV0B583,symmetry-judgement-task,94,662189,0.0-46.0-2.0-2.0-1.0-2.0,,,,,,,,,,1.0,1.0,,,,5f6fa1423bef885572c5d7e7,09:15:52,03/04/2024
,"<div style=""font-size: 10rem; color: #0000FF"">C</div>",,ospan,letter,5FDIqHUO2RNUAShocxPFSOV0B583,html-keyboard-response,95,663208,0.0-46.0-2.0-2.0-1.0-3.0,,,,,,,,,,,,,,,5f6fa1423bef885572c5d7e7,09:15:52,03/04/2024
1156.0,,,ospan,symmetry,5FDIqHUO2RNUAShocxPFSOV0B583,symmetry-judgement-task,96,666435,0.0-46.0-2.0-2.0-1.0-4.0,,,,,,,,,,1.0,1.0,,,,5f6fa1423bef885572c5d7e7,09:15:52,03/04/2024
,"<div style=""font-size: 10rem; color: #0000FF"">G</div>",,ospan,letter,5FDIqHUO2RNUAShocxPFSOV0B583,html-keyboard-response,97,667437,0.0-46.0-2.0-2.0-1.0-5.0,,,,,,,,,,,,,,,5f6fa1423bef885572c5d7e7,09:15:52,03/04/2024
3788.600000023842,"<div class = numbox><p style=""font-size: 2.4rem"">Please recall the letters you saw to the best of your ability. If you do not remember a particular letter, use the SKIP button.<br><b>(When you are ready to lock in your answer, press ENTER)</b></p><button id = button_1 class = ""square num-button"" onclick = ""recordClick(this)""><div class = content><div class = numbers>C</div></div></button><button id = button_2 class = ""square num-button"" onclick = ""recordClick(this)""><div class = content><div class = numbers>G</div></div></button><button id = button_3 class = ""square num-button"" onclick = ""recordClick(this)""><div class = content><div class = numbers>H</div></div></button><button id = button_4 class = ""square num-button"" onclick = ""recordClick(this)""><div class = content><div class = numbers>J</div></div></button><button id = button_5 class = ""square num-button"" onclick = ""recordClick(this)""><div class = content><div class = numbers>K</div></div></button><button id = button_6 class = ""square num-button"" onclick = ""recordClick(this)""><div class = content><div class = numbers>L</div></div></button><button id = button_7 class = ""square num-button"" onclick = ""recordClick(this)""><div class = content><div class = numbers>N</div></div></button><button id = button_8 class = ""square num-button"" onclick = ""recordClick(this)""><div class = content><div class = numbers>P</div></div></button><button id = button_9 class = ""square num-button"" onclick = ""recordClick(this)""><div class = content><div class = numbers>Q</div></div></button><button id = button_10 class = ""square num-button"" onclick = ""recordClick(this)""><div class = content><div class = numbers>R</div></div></button><button id = button_11 class = ""square num-button"" onclick = ""recordClick(this)""><div class = content><div class = numbers>S</div></div></button><button id = button_12 class = ""square num-button"" onclick = ""recordClick(this)""><div class = content><div class = numbers>Y</div></div></button><button class = clear_button id = ""ClearButton"" onclick = ""clearResponse()"">BACKSPACE</button><button class = blank_button id = ""BlankButton"" onclick = ""blankResponse()"">SKIP</button><p style=""font-size: 2.4rem""><u><b>Current Answer:</b></u></p><br><br><div id=echoed_txt style=""font-size: 5rem; color:blue;""><b></b></div></div>",enter,ospan,retrieval,5FDIqHUO2RNUAShocxPFSOV0B583,html-keyboard-response,98,671991,0.0-46.0-2.0-2.0-2.0-0.0,NA,NA,NA,3.0,"[""K"",""C"",""G""]","[""K"",""C"",""G""]",1.0,3.0,"['<font color=""green"">K</font>', '<font color=""green"">C</font>', '<font color=""green"">G</font>']",,,,,,5f6fa1423bef885572c5d7e7,09:15:52,03/04/2024
1302.0,"['<p style=""font-size:44px"">Letters:<br><br><br><font color=""green"">K</font> <font color=""green"">C</font> <font color=""green"">G</font></p><br><br><p style=""font-size:30px"">Symmetry:<br><br><font color=""green"">100%</font></p><br><br>']",0,ospan,practice_feedback,5FDIqHUO2RNUAShocxPFSOV0B583,html-button-response,99,673801,0.0-46.0-2.0-2.0-2.0-1.0,,,,,,,,,,,,,,,5f6fa1423bef885572c5d7e7,09:15:52,03/04/2024
18099.200000047684,"<div class = 'left_align' style='font-size: 3rem; line-height: 1.3;'><b>Great work! That is the end of practice.</b><br><br>The real trials will look just like the practice trials you just completed.<br><br><u>Here, you will not see feedback</u>. First, you will see an grid picture to judge,<br>then a letter to remember. When the recall screen appears, report the letters in the<br>order presented. If you forget a letter, remember to use the <b>blank</b> button to move to the<br>next letter. Some of the sets will have more symmetry grids and letters than others.<br><br>It is important that you do your best on both the symmetry judgments and the letter recall<br>parts of the experiment. For for the symmetry judgments, try to work as <b>quickly</b> and <br>as <b>accurately</b> as possible. Remember to keep your symmetry accuracy at 85% or above.<br><br><b>For the letters, do NOT use any external aid (e.g., writing on paper, electronic device).</b><br><br>It is <u>very important</u> to our experiment to have a <b>true</b> view of your real performance.<br><br>Do not worry if you miss some when it gets hard! This task is meant to be very challenging!<br><br>Click the button to begin.</div><br><br><br><br>",0,ospan,starting_real_here,5FDIqHUO2RNUAShocxPFSOV0B583,html-button-response,100,691904,0.0-46.0-2.0-3.0,,,,,,,,,,,,,,,5f6fa1423bef885572c5d7e7,09:15:52,03/04/2024
,"<p style=""font-size:75px;"">...</p>",,ospan,iti,5FDIqHUO2RNUAShocxPFSOV0B583,html-keyboard-response,101,693184,0.0-46.0-3.0-0.0-0.0,,,,,,,,,,,,,,,5f6fa1423bef885572c5d7e7,09:15:52,03/04/2024
1449.0,,,ospan,symmetry,5FDIqHUO2RNUAShocxPFSOV0B583,symmetry-judgement-task,102,695735,0.0-46.0-3.0-0.0-1.0-0.0,,,,,,,,,,1.0,1.0,,,,5f6fa1423bef885572c5d7e7,09:15:52,03/04/2024
,"<div style=""font-size: 10rem; color: #0000FF"">H</div>",,ospan,letter,5FDIqHUO2RNUAShocxPFSOV0B583,html-keyboard-response,103,696743,0.0-46.0-3.0-0.0-1.0-1.0,,,,,,,,,,,,,,,5f6fa1423bef885572c5d7e7,09:15:52,03/04/2024
1011.0,,,ospan,symmetry,5FDIqHUO2RNUAShocxPFSOV0B583,symmetry-judgement-task,104,699844,0.0-46.0-3.0-0.0-1.0-2.0,,,,,,,,,,1.0,1.0,,,,5f6fa1423bef885572c5d7e7,09:15:52,03/04/2024
,"<div style=""font-size: 10rem; color: #0000FF"">K</div>",,ospan,letter,5FDIqHUO2RNUAShocxPFSOV0B583,html-keyboard-response,105,700860,0.0-46.0-3.0-0.0-1.0-3.0,,,,,,,,,,,,,,,5f6fa1423bef885572c5d7e7,09:15:52,03/04/2024
1343.0,,,ospan,symmetry,5FDIqHUO2RNUAShocxPFSOV0B583,symmetry-judgement-task,106,704345,0.0-46.0-3.0-0.0-1.0-4.0,,,,,,,,,,1.0,1.0,,,,5f6fa1423bef885572c5d7e7,09:15:52,03/04/2024
,"<div style=""font-size: 10rem; color: #0000FF"">L</div>",,ospan,letter,5FDIqHUO2RNUAShocxPFSOV0B583,html-keyboard-response,107,705359,0.0-46.0-3.0-0.0-1.0-5.0,,,,,,,,,,,,,,,5f6fa1423bef885572c5d7e7,09:15:52,03/04/2024
3361.899999976158,"<div class = numbox><p style=""font-size: 2.4rem"">Please recall the letters you saw to the best of your ability. If you do not remember a particular letter, use the SKIP button.<br><b>(When you are ready to lock in your answer, press ENTER)</b></p><button id = button_1 class = ""square num-button"" onclick = ""recordClick(this)""><div class = content><div class = numbers>C</div></div></button><button id = button_2 class = ""square num-button"" onclick = ""recordClick(this)""><div class = content><div class = numbers>G</div></div></button><button id = button_3 class = ""square num-button"" onclick = ""recordClick(this)""><div class = content><div class = numbers>H</div></div></button><button id = button_4 class = ""square num-button"" onclick = ""recordClick(this)""><div class = content><div class = numbers>J</div></div></button><button id = button_5 class = ""square num-button"" onclick = ""recordClick(this)""><div class = content><div class = numbers>K</div></div></button><button id = button_6 class = ""square num-button"" onclick = ""recordClick(this)""><div class = content><div class = numbers>L</div></div></button><button id = button_7 class = ""square num-button"" onclick = ""recordClick(this)""><div class = content><div class = numbers>N</div></div></button><button id = button_8 class = ""square num-button"" onclick = ""recordClick(this)""><div class = content><div class = numbers>P</div></div></button><button id = button_9 class = ""square num-button"" onclick = ""recordClick(this)""><div class = content><div class = numbers>Q</div></div></button><button id = button_10 class = ""square num-button"" onclick = ""recordClick(this)""><div class = content><div class = numbers>R</div></div></button><button id = button_11 class = ""square num-button"" onclick = ""recordClick(this)""><div class = content><div class = numbers>S</div></div></button><button id = button_12 class = ""square num-button"" onclick = ""recordClick(this)""><div class = content><div class = numbers>Y</div></div></button><button class = clear_button id = ""ClearButton"" onclick = ""clearResponse()"">BACKSPACE</button><button class = blank_button id = ""BlankButton"" onclick = ""blankResponse()"">SKIP</button><p style=""font-size: 2.4rem""><u><b>Current Answer:</b></u></p><br><br><div id=echoed_txt style=""font-size: 5rem; color:blue;""><b></b></div></div>",enter,ospan,retrieval,5FDIqHUO2RNUAShocxPFSOV0B583,html-keyboard-response,108,709485,0.0-46.0-3.0-0.0-2.0,3,3,3,3.0,"[""H"",""K"",""L""]","[""H"",""K"",""L""]",1.0,3.0,,,,,,,5f6fa1423bef885572c5d7e7,09:15:52,03/04/2024
1039.1999999284744,[''],0,ospan,feedback,5FDIqHUO2RNUAShocxPFSOV0B583,html-button-response,109,711044,0.0-46.0-3.0-0.0-3.0,,,,,,,,,,,,100.0,0.0,,5f6fa1423bef885572c5d7e7,09:15:52,03/04/2024
,"<p style=""font-size:75px;"">...</p>",,ospan,iti,5FDIqHUO2RNUAShocxPFSOV0B583,html-keyboard-response,110,712049,0.0-46.0-4.0-0.0-0.0,,,,,,,,,,,,,,,5f6fa1423bef885572c5d7e7,09:15:52,03/04/2024
1629.0,,,ospan,symmetry,5FDIqHUO2RNUAShocxPFSOV0B583,symmetry-judgement-task,111,714786,0.0-46.0-4.0-0.0-1.0-0.0,,,,,,,,,,1.0,1.0,,,,5f6fa1423bef885572c5d7e7,09:15:52,03/04/2024
,"<div style=""font-size: 10rem; color: #0000FF"">Y</div>",,ospan,letter,5FDIqHUO2RNUAShocxPFSOV0B583,html-keyboard-response,112,715792,0.0-46.0-4.0-0.0-1.0-1.0,,,,,,,,,,,,,,,5f6fa1423bef885572c5d7e7,09:15:52,03/04/2024
1173.0,,,ospan,symmetry,5FDIqHUO2RNUAShocxPFSOV0B583,symmetry-judgement-task,113,718999,0.0-46.0-4.0-0.0-1.0-2.0,,,,,,,,,,1.0,1.0,,,,5f6fa1423bef885572c5d7e7,09:15:52,03/04/2024
,"<div style=""font-size: 10rem; color: #0000FF"">S</div>",,ospan,letter,5FDIqHUO2RNUAShocxPFSOV0B583,html-keyboard-response,114,720003,0.0-46.0-4.0-0.0-1.0-3.0,,,,,,,,,,,,,,,5f6fa1423bef885572c5d7e7,09:15:52,03/04/2024
2041.0,,,ospan,symmetry,5FDIqHUO2RNUAShocxPFSOV0B583,symmetry-judgement-task,115,724085,0.0-46.0-4.0-0.0-1.0-4.0,,,,,,,,,,1.0,1.0,,,,5f6fa1423bef885572c5d7e7,09:15:52,03/04/2024
,"<div style=""font-size: 10rem; color: #0000FF"">L</div>",,ospan,letter,5FDIqHUO2RNUAShocxPFSOV0B583,html-keyboard-response,116,725093,0.0-46.0-4.0-0.0-1.0-5.0,,,,,,,,,,,,,,,5f6fa1423bef885572c5d7e7,09:15:52,03/04/2024
1315.0,,,ospan,symmetry,5FDIqHUO2RNUAShocxPFSOV0B583,symmetry-judgement-task,117,728414,0.0-46.0-4.0-0.0-1.0-6.0,,,,,,,,,,1.0,1.0,,,,5f6fa1423bef885572c5d7e7,09:15:52,03/04/2024
,"<div style=""font-size: 10rem; color: #0000FF"">H</div>",,ospan,letter,5FDIqHUO2RNUAShocxPFSOV0B583,html-keyboard-response,118,729428,0.0-46.0-4.0-0.0-1.0-7.0,,,,,,,,,,,,,,,5f6fa1423bef885572c5d7e7,09:15:52,03/04/2024
7422.0,"<div class = numbox><p style=""font-size: 2.4rem"">Please recall the letters you saw to the best of your ability. If you do not remember a particular letter, use the SKIP button.<br><b>(When you are ready to lock in your answer, press ENTER)</b></p><button id = button_1 class = ""square num-button"" onclick = ""recordClick(this)""><div class = content><div class = numbers>C</div></div></button><button id = button_2 class = ""square num-button"" onclick = ""recordClick(this)""><div class = content><div class = numbers>G</div></div></button><button id = button_3 class = ""square num-button"" onclick = ""recordClick(this)""><div class = content><div class = numbers>H</div></div></button><button id = button_4 class = ""square num-button"" onclick = ""recordClick(this)""><div class = content><div class = numbers>J</div></div></button><button id = button_5 class = ""square num-button"" onclick = ""recordClick(this)""><div class = content><div class = numbers>K</div></div></button><button id = button_6 class = ""square num-button"" onclick = ""recordClick(this)""><div class = content><div class = numbers>L</div></div></button><button id = button_7 class = ""square num-button"" onclick = ""recordClick(this)""><div class = content><div class = numbers>N</div></div></button><button id = button_8 class = ""square num-button"" onclick = ""recordClick(this)""><div class = content><div class = numbers>P</div></div></button><button id = button_9 class = ""square num-button"" onclick = ""recordClick(this)""><div class = content><div class = numbers>Q</div></div></button><button id = button_10 class = ""square num-button"" onclick = ""recordClick(this)""><div class = content><div class = numbers>R</div></div></button><button id = button_11 class = ""square num-button"" onclick = ""recordClick(this)""><div class = content><div class = numbers>S</div></div></button><button id = button_12 class = ""square num-button"" onclick = ""recordClick(this)""><div class = content><div class = numbers>Y</div></div></button><button class = clear_button id = ""ClearButton"" onclick = ""clearResponse()"">BACKSPACE</button><button class = blank_button id = ""BlankButton"" onclick = ""blankResponse()"">SKIP</button><p style=""font-size: 2.4rem""><u><b>Current Answer:</b></u></p><br><br><div id=echoed_txt style=""font-size: 5rem; color:blue;""><b></b></div></div>",enter,ospan,retrieval,5FDIqHUO2RNUAShocxPFSOV0B583,html-keyboard-response,119,737611,0.0-46.0-4.0-0.0-2.0,7,7,7,4.0,"[""Y"",""S"",""L"",""H""]","[""Y"",""S"",""L"",""H""]",1.0,4.0,,,,,,,5f6fa1423bef885572c5d7e7,09:15:52,03/04/2024
1460.6000000238419,[''],0,ospan,feedback,5FDIqHUO2RNUAShocxPFSOV0B583,html-button-response,120,739580,0.0-46.0-4.0-0.0-3.0,,,,,,,,,,,,100.0,0.0,,5f6fa1423bef885572c5d7e7,09:15:52,03/04/2024
,"<p style=""font-size:75px;"">...</p>",,ospan,iti,5FDIqHUO2RNUAShocxPFSOV0B583,html-keyboard-response,121,740594,0.0-46.0-4.0-1.0-0.0,,,,,,,,,,,,,,,5f6fa1423bef885572c5d7e7,09:15:52,03/04/2024
1020.0,,,ospan,symmetry,5FDIqHUO2RNUAShocxPFSOV0B583,symmetry-judgement-task,122,742914,0.0-46.0-4.0-1.0-1.0-0.0,,,,,,,,,,1.0,1.0,,,,5f6fa1423bef885572c5d7e7,09:15:52,03/04/2024
,"<div style=""font-size: 10rem; color: #0000FF"">P</div>",,ospan,letter,5FDIqHUO2RNUAShocxPFSOV0B583,html-keyboard-response,123,743924,0.0-46.0-4.0-1.0-1.0-1.0,,,,,,,,,,,,,,,5f6fa1423bef885572c5d7e7,09:15:52,03/04/2024
1123.0,,,ospan,symmetry,5FDIqHUO2RNUAShocxPFSOV0B583,symmetry-judgement-task,124,747119,0.0-46.0-4.0-1.0-1.0-2.0,,,,,,,,,,1.0,1.0,,,,5f6fa1423bef885572c5d7e7,09:15:52,03/04/2024
,"<div style=""font-size: 10rem; color: #0000FF"">R</div>",,ospan,letter,5FDIqHUO2RNUAShocxPFSOV0B583,html-keyboard-response,125,748129,0.0-46.0-4.0-1.0-1.0-3.0,,,,,,,,,,,,,,,5f6fa1423bef885572c5d7e7,09:15:52,03/04/2024
996.0,,,ospan,symmetry,5FDIqHUO2RNUAShocxPFSOV0B583,symmetry-judgement-task,126,751235,0.0-46.0-4.0-1.0-1.0-4.0,,,,,,,,,,1.0,1.0,,,,5f6fa1423bef885572c5d7e7,09:15:52,03/04/2024
,"<div style=""font-size: 10rem; color: #0000FF"">C</div>",,ospan,letter,5FDIqHUO2RNUAShocxPFSOV0B583,html-keyboard-response,127,752246,0.0-46.0-4.0-1.0-1.0-5.0,,,,,,,,,,,,,,,5f6fa1423bef885572c5d7e7,09:15:52,03/04/2024
1016.0,,,ospan,symmetry,5FDIqHUO2RNUAShocxPFSOV0B583,symmetry-judgement-task,128,755396,0.0-46.0-4.0-1.0-1.0-6.0,,,,,,,,,,1.0,1.0,,,,5f6fa1423bef885572c5d7e7,09:15:52,03/04/2024
,"<div style=""font-size: 10rem; color: #0000FF"">K</div>",,ospan,letter,5FDIqHUO2RNUAShocxPFSOV0B583,html-keyboard-response,129,756405,0.0-46.0-4.0-1.0-1.0-7.0,,,,,,,,,,,,,,,5f6fa1423bef885572c5d7e7,09:15:52,03/04/2024
1370.0,,,ospan,symmetry,5FDIqHUO2RNUAShocxPFSOV0B583,symmetry-judgement-task,130,759803,0.0-46.0-4.0-1.0-1.0-8.0,,,,,,,,,,1.0,1.0,,,,5f6fa1423bef885572c5d7e7,09:15:52,03/04/2024
,"<div style=""font-size: 10rem; color: #0000FF"">S</div>",,ospan,letter,5FDIqHUO2RNUAShocxPFSOV0B583,html-keyboard-response,131,760807,0.0-46.0-4.0-1.0-1.0-9.0,,,,,,,,,,,,,,,5f6fa1423bef885572c5d7e7,09:15:52,03/04/2024
9072.0,"<div class = numbox><p style=""font-size: 2.4rem"">Please recall the letters you saw to the best of your ability. If you do not remember a particular letter, use the SKIP button.<br><b>(When you are ready to lock in your answer, press ENTER)</b></p><button id = button_1 class = ""square num-button"" onclick = ""recordClick(this)""><div class = content><div class = numbers>C</div></div></button><button id = button_2 class = ""square num-button"" onclick = ""recordClick(this)""><div class = content><div class = numbers>G</div></div></button><button id = button_3 class = ""square num-button"" onclick = ""recordClick(this)""><div class = content><div class = numbers>H</div></div></button><button id = button_4 class = ""square num-button"" onclick = ""recordClick(this)""><div class = content><div class = numbers>J</div></div></button><button id = button_5 class = ""square num-button"" onclick = ""recordClick(this)""><div class = content><div class = numbers>K</div></div></button><button id = button_6 class = ""square num-button"" onclick = ""recordClick(this)""><div class = content><div class = numbers>L</div></div></button><button id = button_7 class = ""square num-button"" onclick = ""recordClick(this)""><div class = content><div class = numbers>N</div></div></button><button id = button_8 class = ""square num-button"" onclick = ""recordClick(this)""><div class = content><div class = numbers>P</div></div></button><button id = button_9 class = ""square num-button"" onclick = ""recordClick(this)""><div class = content><div class = numbers>Q</div></div></button><button id = button_10 class = ""square num-button"" onclick = ""recordClick(this)""><div class = content><div class = numbers>R</div></div></button><button id = button_11 class = ""square num-button"" onclick = ""recordClick(this)""><div class = content><div class = numbers>S</div></div></button><button id = button_12 class = ""square num-button"" onclick = ""recordClick(this)""><div class = content><div class = numbers>Y</div></div></button><button class = clear_button id = ""ClearButton"" onclick = ""clearResponse()"">BACKSPACE</button><button class = blank_button id = ""BlankButton"" onclick = ""blankResponse()"">SKIP</button><p style=""font-size: 2.4rem""><u><b>Current Answer:</b></u></p><br><br><div id=echoed_txt style=""font-size: 5rem; color:blue;""><b></b></div></div>",enter,ospan,retrieval,5FDIqHUO2RNUAShocxPFSOV0B583,html-keyboard-response,132,770633,0.0-46.0-4.0-1.0-2.0,12,12,12,5.0,"[""P"",""R"",""C"",""K"",""S""]","[""P"",""R"",""C"",""K"",""S""]",1.0,5.0,,,,,,,5f6fa1423bef885572c5d7e7,09:15:52,03/04/2024
1156.5,[''],0,ospan,feedback,5FDIqHUO2RNUAShocxPFSOV0B583,html-button-response,133,772295,0.0-46.0-4.0-1.0-3.0,,,,,,,,,,,,100.0,0.0,,5f6fa1423bef885572c5d7e7,09:15:52,03/04/2024
,"<p style=""font-size:75px;"">...</p>",,ospan,iti,5FDIqHUO2RNUAShocxPFSOV0B583,html-keyboard-response,134,773300,0.0-46.0-4.0-2.0-0.0,,,,,,,,,,,,,,,5f6fa1423bef885572c5d7e7,09:15:52,03/04/2024
1345.0,,,ospan,symmetry,5FDIqHUO2RNUAShocxPFSOV0B583,symmetry-judgement-task,135,775922,0.0-46.0-4.0-2.0-1.0-0.0,,,,,,,,,,1.0,1.0,,,,5f6fa1423bef885572c5d7e7,09:15:52,03/04/2024
,"<div style=""font-size: 10rem; color: #0000FF"">G</div>",,ospan,letter,5FDIqHUO2RNUAShocxPFSOV0B583,html-keyboard-response,136,776933,0.0-46.0-4.0-2.0-1.0-1.0,,,,,,,,,,,,,,,5f6fa1423bef885572c5d7e7,09:15:52,03/04/2024
1335.0,,,ospan,symmetry,5FDIqHUO2RNUAShocxPFSOV0B583,symmetry-judgement-task,137,780265,0.0-46.0-4.0-2.0-1.0-2.0,,,,,,,,,,1.0,1.0,,,,5f6fa1423bef885572c5d7e7,09:15:52,03/04/2024
,"<div style=""font-size: 10rem; color: #0000FF"">Y</div>",,ospan,letter,5FDIqHUO2RNUAShocxPFSOV0B583,html-keyboard-response,138,781269,0.0-46.0-4.0-2.0-1.0-3.0,,,,,,,,,,,,,,,5f6fa1423bef885572c5d7e7,09:15:52,03/04/2024
1032.0,,,ospan,symmetry,5FDIqHUO2RNUAShocxPFSOV0B583,symmetry-judgement-task,139,784354,0.0-46.0-4.0-2.0-1.0-4.0,,,,,,,,,,1.0,1.0,,,,5f6fa1423bef885572c5d7e7,09:15:52,03/04/2024
,"<div style=""font-size: 10rem; color: #0000FF"">C</div>",,ospan,letter,5FDIqHUO2RNUAShocxPFSOV0B583,html-keyboard-response,140,785369,0.0-46.0-4.0-2.0-1.0-5.0,,,,,,,,,,,,,,,5f6fa1423bef885572c5d7e7,09:15:52,03/04/2024
4842.199999928474,"<div class = numbox><p style=""font-size: 2.4rem"">Please recall the letters you saw to the best of your ability. If you do not remember a particular letter, use the SKIP button.<br><b>(When you are ready to lock in your answer, press ENTER)</b></p><button id = button_1 class = ""square num-button"" onclick = ""recordClick(this)""><div class = content><div class = numbers>C</div></div></button><button id = button_2 class = ""square num-button"" onclick = ""recordClick(this)""><div class = content><div class = numbers>G</div></div></button><button id = button_3 class = ""square num-button"" onclick = ""recordClick(this)""><div class = content><div class = numbers>H</div></div></button><button id = button_4 class = ""square num-button"" onclick = ""recordClick(this)""><div class = content><div class = numbers>J</div></div></button><button id = button_5 class = ""square num-button"" onclick = ""recordClick(this)""><div class = content><div class = numbers>K</div></div></button><button id = button_6 class = ""square num-button"" onclick = ""recordClick(this)""><div class = content><div class = numbers>L</div></div></button><button id = button_7 class = ""square num-button"" onclick = ""recordClick(this)""><div class = content><div class = numbers>N</div></div></button><button id = button_8 class = ""square num-button"" onclick = ""recordClick(this)""><div class = content><div class = numbers>P</div></div></button><button id = button_9 class = ""square num-button"" onclick = ""recordClick(this)""><div class = content><div class = numbers>Q</div></div></button><button id = button_10 class = ""square num-button"" onclick = ""recordClick(this)""><div class = content><div class = numbers>R</div></div></button><button id = button_11 class = ""square num-button"" onclick = ""recordClick(this)""><div class = content><div class = numbers>S</div></div></button><button id = button_12 class = ""square num-button"" onclick = ""recordClick(this)""><div class = content><div class = numbers>Y</div></div></button><button class = clear_button id = ""ClearButton"" onclick = ""clearResponse()"">BACKSPACE</button><button class = blank_button id = ""BlankButton"" onclick = ""blankResponse()"">SKIP</button><p style=""font-size: 2.4rem""><u><b>Current Answer:</b></u></p><br><br><div id=echoed_txt style=""font-size: 5rem; color:blue;""><b></b></div></div>",enter,ospan,retrieval,5FDIqHUO2RNUAShocxPFSOV0B583,html-keyboard-response,141,790965,0.0-46.0-4.0-2.0-2.0,15,15,15,3.0,"[""G"",""Y"",""C""]","[""G"",""Y"",""C""]",1.0,3.0,,,,,,,5f6fa1423bef885572c5d7e7,09:15:52,03/04/2024
1297.0,[''],0,ospan,feedback,5FDIqHUO2RNUAShocxPFSOV0B583,html-button-response,142,792775,0.0-46.0-4.0-2.0-3.0,,,,,,,,,,,,100.0,0.0,,5f6fa1423bef885572c5d7e7,09:15:52,03/04/2024
,"<p style=""font-size:75px;"">...</p>",,ospan,iti,5FDIqHUO2RNUAShocxPFSOV0B583,html-keyboard-response,143,793784,0.0-46.0-5.0-0.0-0.0,,,,,,,,,,,,,,,5f6fa1423bef885572c5d7e7,09:15:52,03/04/2024
1476.0,,,ospan,symmetry,5FDIqHUO2RNUAShocxPFSOV0B583,symmetry-judgement-task,144,796366,0.0-46.0-5.0-0.0-1.0-0.0,,,,,,,,,,1.0,1.0,,,,5f6fa1423bef885572c5d7e7,09:15:52,03/04/2024
,"<div style=""font-size: 10rem; color: #0000FF"">N</div>",,ospan,letter,5FDIqHUO2RNUAShocxPFSOV0B583,html-keyboard-response,145,797374,0.0-46.0-5.0-0.0-1.0-1.0,,,,,,,,,,,,,,,5f6fa1423bef885572c5d7e7,09:15:52,03/04/2024
1372.0,,,ospan,symmetry,5FDIqHUO2RNUAShocxPFSOV0B583,symmetry-judgement-task,146,800752,0.0-46.0-5.0-0.0-1.0-2.0,,,,,,,,,,1.0,1.0,,,,5f6fa1423bef885572c5d7e7,09:15:52,03/04/2024
,"<div style=""font-size: 10rem; color: #0000FF"">R</div>",,ospan,letter,5FDIqHUO2RNUAShocxPFSOV0B583,html-keyboard-response,147,801756,0.0-46.0-5.0-0.0-1.0-3.0,,,,,,,,,,,,,,,5f6fa1423bef885572c5d7e7,09:15:52,03/04/2024
1617.0,,,ospan,symmetry,5FDIqHUO2RNUAShocxPFSOV0B583,symmetry-judgement-task,148,805387,0.0-46.0-5.0-0.0-1.0-4.0,,,,,,,,,,1.0,1.0,,,,5f6fa1423bef885572c5d7e7,09:15:52,03/04/2024
,"<div style=""font-size: 10rem; color: #0000FF"">Y</div>",,ospan,letter,5FDIqHUO2RNUAShocxPFSOV0B583,html-keyboard-response,149,806396,0.0-46.0-5.0-0.0-1.0-5.0,,,,,,,,,,,,,,,5f6fa1423bef885572c5d7e7,09:15:52,03/04/2024
1385.0,,,ospan,symmetry,5FDIqHUO2RNUAShocxPFSOV0B583,symmetry-judgement-task,150,809896,0.0-46.0-5.0-0.0-1.0-6.0,,,,,,,,,,0.0,0.0,,,,5f6fa1423bef885572c5d7e7,09:15:52,03/04/2024
,"<div style=""font-size: 10rem; color: #0000FF"">J</div>",,ospan,letter,5FDIqHUO2RNUAShocxPFSOV0B583,html-keyboard-response,151,810901,0.0-46.0-5.0-0.0-1.0-7.0,,,,,,,,,,,,,,,5f6fa1423bef885572c5d7e7,09:15:52,03/04/2024
1266.0,,,ospan,symmetry,5FDIqHUO2RNUAShocxPFSOV0B583,symmetry-judgement-task,152,814264,0.0-46.0-5.0-0.0-1.0-8.0,,,,,,,,,,1.0,1.0,,,,5f6fa1423bef885572c5d7e7,09:15:52,03/04/2024
,"<div style=""font-size: 10rem; color: #0000FF"">S</div>",,ospan,letter,5FDIqHUO2RNUAShocxPFSOV0B583,html-keyboard-response,153,815281,0.0-46.0-5.0-0.0-1.0-9.0,,,,,,,,,,,,,,,5f6fa1423bef885572c5d7e7,09:15:52,03/04/2024
1034.0,,,ospan,symmetry,5FDIqHUO2RNUAShocxPFSOV0B583,symmetry-judgement-task,154,818357,0.0-46.0-5.0-0.0-1.0-10.0,,,,,,,,,,1.0,1.0,,,,5f6fa1423bef885572c5d7e7,09:15:52,03/04/2024
,"<div style=""font-size: 10rem; color: #0000FF"">Q</div>",,ospan,letter,5FDIqHUO2RNUAShocxPFSOV0B583,html-keyboard-response,155,819359,0.0-46.0-5.0-0.0-1.0-11.0,,,,,,,,,,,,,,,5f6fa1423bef885572c5d7e7,09:15:52,03/04/2024
7014.5,"<div class = numbox><p style=""font-size: 2.4rem"">Please recall the letters you saw to the best of your ability. If you do not remember a particular letter, use the SKIP button.<br><b>(When you are ready to lock in your answer, press ENTER)</b></p><button id = button_1 class = ""square num-button"" onclick = ""recordClick(this)""><div class = content><div class = numbers>C</div></div></button><button id = button_2 class = ""square num-button"" onclick = ""recordClick(this)""><div class = content><div class = numbers>G</div></div></button><button id = button_3 class = ""square num-button"" onclick = ""recordClick(this)""><div class = content><div class = numbers>H</div></div></button><button id = button_4 class = ""square num-button"" onclick = ""recordClick(this)""><div class = content><div class = numbers>J</div></div></button><button id = button_5 class = ""square num-button"" onclick = ""recordClick(this)""><div class = content><div class = numbers>K</div></div></button><button id = button_6 class = ""square num-button"" onclick = ""recordClick(this)""><div class = content><div class = numbers>L</div></div></button><button id = button_7 class = ""square num-button"" onclick = ""recordClick(this)""><div class = content><div class = numbers>N</div></div></button><button id = button_8 class = ""square num-button"" onclick = ""recordClick(this)""><div class = content><div class = numbers>P</div></div></button><button id = button_9 class = ""square num-button"" onclick = ""recordClick(this)""><div class = content><div class = numbers>Q</div></div></button><button id = button_10 class = ""square num-button"" onclick = ""recordClick(this)""><div class = content><div class = numbers>R</div></div></button><button id = button_11 class = ""square num-button"" onclick = ""recordClick(this)""><div class = content><div class = numbers>S</div></div></button><button id = button_12 class = ""square num-button"" onclick = ""recordClick(this)""><div class = content><div class = numbers>Y</div></div></button><button class = clear_button id = ""ClearButton"" onclick = ""clearResponse()"">BACKSPACE</button><button class = blank_button id = ""BlankButton"" onclick = ""blankResponse()"">SKIP</button><p style=""font-size: 2.4rem""><u><b>Current Answer:</b></u></p><br><br><div id=echoed_txt style=""font-size: 5rem; color:blue;""><b></b></div></div>",enter,ospan,retrieval,5FDIqHUO2RNUAShocxPFSOV0B583,html-keyboard-response,156,827128,0.0-46.0-5.0-0.0-2.0,21,21,21,6.0,"[""N"",""R"",""Y"",""J"",""S"",""Q""]","[""N"",""R"",""Y"",""J"",""S"",""Q""]",1.0,6.0,,,,,,,5f6fa1423bef885572c5d7e7,09:15:52,03/04/2024
1457.6000000238419,[''],0,ospan,feedback,5FDIqHUO2RNUAShocxPFSOV0B583,html-button-response,157,829091,0.0-46.0-5.0-0.0-3.0,,,,,,,,,,,,95.0,0.0,,5f6fa1423bef885572c5d7e7,09:15:52,03/04/2024
,"<p style=""font-size:75px;"">...</p>",,ospan,iti,5FDIqHUO2RNUAShocxPFSOV0B583,html-keyboard-response,158,830103,0.0-46.0-5.0-1.0-0.0,,,,,,,,,,,,,,,5f6fa1423bef885572c5d7e7,09:15:52,03/04/2024
1644.0,,,ospan,symmetry,5FDIqHUO2RNUAShocxPFSOV0B583,symmetry-judgement-task,159,832887,0.0-46.0-5.0-1.0-1.0-0.0,,,,,,,,,,1.0,1.0,,,,5f6fa1423bef885572c5d7e7,09:15:52,03/04/2024
,"<div style=""font-size: 10rem; color: #0000FF"">K</div>",,ospan,letter,5FDIqHUO2RNUAShocxPFSOV0B583,html-keyboard-response,160,833896,0.0-46.0-5.0-1.0-1.0-1.0,,,,,,,,,,,,,,,5f6fa1423bef885572c5d7e7,09:15:52,03/04/2024
1055.0,,,ospan,symmetry,5FDIqHUO2RNUAShocxPFSOV0B583,symmetry-judgement-task,161,837096,0.0-46.0-5.0-1.0-1.0-2.0,,,,,,,,,,1.0,1.0,,,,5f6fa1423bef885572c5d7e7,09:15:52,03/04/2024
,"<div style=""font-size: 10rem; color: #0000FF"">Y</div>",,ospan,letter,5FDIqHUO2RNUAShocxPFSOV0B583,html-keyboard-response,162,838108,0.0-46.0-5.0-1.0-1.0-3.0,,,,,,,,,,,,,,,5f6fa1423bef885572c5d7e7,09:15:52,03/04/2024
1210.0,,,ospan,symmetry,5FDIqHUO2RNUAShocxPFSOV0B583,symmetry-judgement-task,163,841421,0.0-46.0-5.0-1.0-1.0-4.0,,,,,,,,,,1.0,1.0,,,,5f6fa1423bef885572c5d7e7,09:15:52,03/04/2024
,"<div style=""font-size: 10rem; color: #0000FF"">J</div>",,ospan,letter,5FDIqHUO2RNUAShocxPFSOV0B583,html-keyboard-response,164,842425,0.0-46.0-5.0-1.0-1.0-5.0,,,,,,,,,,,,,,,5f6fa1423bef885572c5d7e7,09:15:52,03/04/2024
959.0,,,ospan,symmetry,5FDIqHUO2RNUAShocxPFSOV0B583,symmetry-judgement-task,165,845473,0.0-46.0-5.0-1.0-1.0-6.0,,,,,,,,,,1.0,1.0,,,,5f6fa1423bef885572c5d7e7,09:15:52,03/04/2024
,"<div style=""font-size: 10rem; color: #0000FF"">C</div>",,ospan,letter,5FDIqHUO2RNUAShocxPFSOV0B583,html-keyboard-response,166,846488,0.0-46.0-5.0-1.0-1.0-7.0,,,,,,,,,,,,,,,5f6fa1423bef885572c5d7e7,09:15:52,03/04/2024
1182.0,,,ospan,symmetry,5FDIqHUO2RNUAShocxPFSOV0B583,symmetry-judgement-task,167,849730,0.0-46.0-5.0-1.0-1.0-8.0,,,,,,,,,,1.0,1.0,,,,5f6fa1423bef885572c5d7e7,09:15:52,03/04/2024
,"<div style=""font-size: 10rem; color: #0000FF"">G</div>",,ospan,letter,5FDIqHUO2RNUAShocxPFSOV0B583,html-keyboard-response,168,850737,0.0-46.0-5.0-1.0-1.0-9.0,,,,,,,,,,,,,,,5f6fa1423bef885572c5d7e7,09:15:52,03/04/2024
1309.0,,,ospan,symmetry,5FDIqHUO2RNUAShocxPFSOV0B583,symmetry-judgement-task,169,854310,0.0-46.0-5.0-1.0-1.0-10.0,,,,,,,,,,1.0,1.0,,,,5f6fa1423bef885572c5d7e7,09:15:52,03/04/2024
,"<div style=""font-size: 10rem; color: #0000FF"">N</div>",,ospan,letter,5FDIqHUO2RNUAShocxPFSOV0B583,html-keyboard-response,170,855319,0.0-46.0-5.0-1.0-1.0-11.0,,,,,,,,,,,,,,,5f6fa1423bef885572c5d7e7,09:15:52,03/04/2024
900.0,,,ospan,symmetry,5FDIqHUO2RNUAShocxPFSOV0B583,symmetry-judgement-task,171,858298,0.0-46.0-5.0-1.0-1.0-12.0,,,,,,,,,,1.0,1.0,,,,5f6fa1423bef885572c5d7e7,09:15:52,03/04/2024
,"<div style=""font-size: 10rem; color: #0000FF"">P</div>",,ospan,letter,5FDIqHUO2RNUAShocxPFSOV0B583,html-keyboard-response,172,859303,0.0-46.0-5.0-1.0-1.0-13.0,,,,,,,,,,,,,,,5f6fa1423bef885572c5d7e7,09:15:52,03/04/2024
10426.299999952316,"<div class = numbox><p style=""font-size: 2.4rem"">Please recall the letters you saw to the best of your ability. If you do not remember a particular letter, use the SKIP button.<br><b>(When you are ready to lock in your answer, press ENTER)</b></p><button id = button_1 class = ""square num-button"" onclick = ""recordClick(this)""><div class = content><div class = numbers>C</div></div></button><button id = button_2 class = ""square num-button"" onclick = ""recordClick(this)""><div class = content><div class = numbers>G</div></div></button><button id = button_3 class = ""square num-button"" onclick = ""recordClick(this)""><div class = content><div class = numbers>H</div></div></button><button id = button_4 class = ""square num-button"" onclick = ""recordClick(this)""><div class = content><div class = numbers>J</div></div></button><button id = button_5 class = ""square num-button"" onclick = ""recordClick(this)""><div class = content><div class = numbers>K</div></div></button><button id = button_6 class = ""square num-button"" onclick = ""recordClick(this)""><div class = content><div class = numbers>L</div></div></button><button id = button_7 class = ""square num-button"" onclick = ""recordClick(this)""><div class = content><div class = numbers>N</div></div></button><button id = button_8 class = ""square num-button"" onclick = ""recordClick(this)""><div class = content><div class = numbers>P</div></div></button><button id = button_9 class = ""square num-button"" onclick = ""recordClick(this)""><div class = content><div class = numbers>Q</div></div></button><button id = button_10 class = ""square num-button"" onclick = ""recordClick(this)""><div class = content><div class = numbers>R</div></div></button><button id = button_11 class = ""square num-button"" onclick = ""recordClick(this)""><div class = content><div class = numbers>S</div></div></button><button id = button_12 class = ""square num-button"" onclick = ""recordClick(this)""><div class = content><div class = numbers>Y</div></div></button><button class = clear_button id = ""ClearButton"" onclick = ""clearResponse()"">BACKSPACE</button><button class = blank_button id = ""BlankButton"" onclick = ""blankResponse()"">SKIP</button><p style=""font-size: 2.4rem""><u><b>Current Answer:</b></u></p><br><br><div id=echoed_txt style=""font-size: 5rem; color:blue;""><b></b></div></div>",enter,ospan,retrieval,5FDIqHUO2RNUAShocxPFSOV0B583,html-keyboard-response,173,870482,0.0-46.0-5.0-1.0-2.0,28,27,21,7.0,"[""K"",""Y"",""J"",""C"",""G"",""N""]","[""K"",""Y"",""J"",""C"",""G"",""N"",""P""]",0.0,6.0,,,,,,,5f6fa1423bef885572c5d7e7,09:15:52,03/04/2024
1062.6000000238419,[''],0,ospan,feedback,5FDIqHUO2RNUAShocxPFSOV0B583,html-button-response,174,872055,0.0-46.0-5.0-1.0-3.0,,,,,,,,,,,,96.0,0.0,,5f6fa1423bef885572c5d7e7,09:15:52,03/04/2024
,"<p style=""font-size:75px;"">...</p>",,ospan,iti,5FDIqHUO2RNUAShocxPFSOV0B583,html-keyboard-response,175,873067,0.0-46.0-6.0-0.0-0.0,,,,,,,,,,,,,,,5f6fa1423bef885572c5d7e7,09:15:52,03/04/2024
1728.0,,,ospan,symmetry,5FDIqHUO2RNUAShocxPFSOV0B583,symmetry-judgement-task,176,875897,0.0-46.0-6.0-0.0-1.0-0.0,,,,,,,,,,1.0,1.0,,,,5f6fa1423bef885572c5d7e7,09:15:52,03/04/2024
,"<div style=""font-size: 10rem; color: #0000FF"">K</div>",,ospan,letter,5FDIqHUO2RNUAShocxPFSOV0B583,html-keyboard-response,177,876913,0.0-46.0-6.0-0.0-1.0-1.0,,,,,,,,,,,,,,,5f6fa1423bef885572c5d7e7,09:15:52,03/04/2024
1516.0,,,ospan,symmetry,5FDIqHUO2RNUAShocxPFSOV0B583,symmetry-judgement-task,178,880508,0.0-46.0-6.0-0.0-1.0-2.0,,,,,,,,,,1.0,1.0,,,,5f6fa1423bef885572c5d7e7,09:15:52,03/04/2024
,"<div style=""font-size: 10rem; color: #0000FF"">P</div>",,ospan,letter,5FDIqHUO2RNUAShocxPFSOV0B583,html-keyboard-response,179,881522,0.0-46.0-6.0-0.0-1.0-3.0,,,,,,,,,,,,,,,5f6fa1423bef885572c5d7e7,09:15:52,03/04/2024
1023.0,,,ospan,symmetry,5FDIqHUO2RNUAShocxPFSOV0B583,symmetry-judgement-task,180,884555,0.0-46.0-6.0-0.0-1.0-4.0,,,,,,,,,,1.0,1.0,,,,5f6fa1423bef885572c5d7e7,09:15:52,03/04/2024
,"<div style=""font-size: 10rem; color: #0000FF"">G</div>",,ospan,letter,5FDIqHUO2RNUAShocxPFSOV0B583,html-keyboard-response,181,885566,0.0-46.0-6.0-0.0-1.0-5.0,,,,,,,,,,,,,,,5f6fa1423bef885572c5d7e7,09:15:52,03/04/2024
1082.0,,,ospan,symmetry,5FDIqHUO2RNUAShocxPFSOV0B583,symmetry-judgement-task,182,888700,0.0-46.0-6.0-0.0-1.0-6.0,,,,,,,,,,1.0,1.0,,,,5f6fa1423bef885572c5d7e7,09:15:52,03/04/2024
,"<div style=""font-size: 10rem; color: #0000FF"">S</div>",,ospan,letter,5FDIqHUO2RNUAShocxPFSOV0B583,html-keyboard-response,183,889717,0.0-46.0-6.0-0.0-1.0-7.0,,,,,,,,,,,,,,,5f6fa1423bef885572c5d7e7,09:15:52,03/04/2024
1167.0,,,ospan,symmetry,5FDIqHUO2RNUAShocxPFSOV0B583,symmetry-judgement-task,184,892911,0.0-46.0-6.0-0.0-1.0-8.0,,,,,,,,,,1.0,1.0,,,,5f6fa1423bef885572c5d7e7,09:15:52,03/04/2024
,"<div style=""font-size: 10rem; color: #0000FF"">H</div>",,ospan,letter,5FDIqHUO2RNUAShocxPFSOV0B583,html-keyboard-response,185,893926,0.0-46.0-6.0-0.0-1.0-9.0,,,,,,,,,,,,,,,5f6fa1423bef885572c5d7e7,09:15:52,03/04/2024
5699.099999904633,"<div class = numbox><p style=""font-size: 2.4rem"">Please recall the letters you saw to the best of your ability. If you do not remember a particular letter, use the SKIP button.<br><b>(When you are ready to lock in your answer, press ENTER)</b></p><button id = button_1 class = ""square num-button"" onclick = ""recordClick(this)""><div class = content><div class = numbers>C</div></div></button><button id = button_2 class = ""square num-button"" onclick = ""recordClick(this)""><div class = content><div class = numbers>G</div></div></button><button id = button_3 class = ""square num-button"" onclick = ""recordClick(this)""><div class = content><div class = numbers>H</div></div></button><button id = button_4 class = ""square num-button"" onclick = ""recordClick(this)""><div class = content><div class = numbers>J</div></div></button><button id = button_5 class = ""square num-button"" onclick = ""recordClick(this)""><div class = content><div class = numbers>K</div></div></button><button id = button_6 class = ""square num-button"" onclick = ""recordClick(this)""><div class = content><div class = numbers>L</div></div></button><button id = button_7 class = ""square num-button"" onclick = ""recordClick(this)""><div class = content><div class = numbers>N</div></div></button><button id = button_8 class = ""square num-button"" onclick = ""recordClick(this)""><div class = content><div class = numbers>P</div></div></button><button id = button_9 class = ""square num-button"" onclick = ""recordClick(this)""><div class = content><div class = numbers>Q</div></div></button><button id = button_10 class = ""square num-button"" onclick = ""recordClick(this)""><div class = content><div class = numbers>R</div></div></button><button id = button_11 class = ""square num-button"" onclick = ""recordClick(this)""><div class = content><div class = numbers>S</div></div></button><button id = button_12 class = ""square num-button"" onclick = ""recordClick(this)""><div class = content><div class = numbers>Y</div></div></button><button class = clear_button id = ""ClearButton"" onclick = ""clearResponse()"">BACKSPACE</button><button class = blank_button id = ""BlankButton"" onclick = ""blankResponse()"">SKIP</button><p style=""font-size: 2.4rem""><u><b>Current Answer:</b></u></p><br><br><div id=echoed_txt style=""font-size: 5rem; color:blue;""><b></b></div></div>",enter,ospan,retrieval,5FDIqHUO2RNUAShocxPFSOV0B583,html-keyboard-response,186,900393,0.0-46.0-6.0-0.0-2.0,33,32,26,5.0,"[""K"",""P"",""G"",""S"",""H""]","[""K"",""P"",""G"",""S"",""H""]",1.0,5.0,,,,,,,5f6fa1423bef885572c5d7e7,09:15:52,03/04/2024
1392.7000000476837,[''],0,ospan,feedback,5FDIqHUO2RNUAShocxPFSOV0B583,html-button-response,187,902296,0.0-46.0-6.0-0.0-3.0,,,,,,,,,,,,97.0,0.0,,5f6fa1423bef885572c5d7e7,09:15:52,03/04/2024
,"<p style=""font-size:75px;"">...</p>",,ospan,iti,5FDIqHUO2RNUAShocxPFSOV0B583,html-keyboard-response,188,903301,0.0-46.0-6.0-1.0-0.0,,,,,,,,,,,,,,,5f6fa1423bef885572c5d7e7,09:15:52,03/04/2024
1498.0,,,ospan,symmetry,5FDIqHUO2RNUAShocxPFSOV0B583,symmetry-judgement-task,189,906128,0.0-46.0-6.0-1.0-1.0-0.0,,,,,,,,,,1.0,1.0,,,,5f6fa1423bef885572c5d7e7,09:15:52,03/04/2024
,"<div style=""font-size: 10rem; color: #0000FF"">L</div>",,ospan,letter,5FDIqHUO2RNUAShocxPFSOV0B583,html-keyboard-response,190,907132,0.0-46.0-6.0-1.0-1.0-1.0,,,,,,,,,,,,,,,5f6fa1423bef885572c5d7e7,09:15:52,03/04/2024
1105.0,,,ospan,symmetry,5FDIqHUO2RNUAShocxPFSOV0B583,symmetry-judgement-task,191,910247,0.0-46.0-6.0-1.0-1.0-2.0,,,,,,,,,,1.0,1.0,,,,5f6fa1423bef885572c5d7e7,09:15:52,03/04/2024
,"<div style=""font-size: 10rem; color: #0000FF"">C</div>",,ospan,letter,5FDIqHUO2RNUAShocxPFSOV0B583,html-keyboard-response,192,911263,0.0-46.0-6.0-1.0-1.0-3.0,,,,,,,,,,,,,,,5f6fa1423bef885572c5d7e7,09:15:52,03/04/2024
1127.0,,,ospan,symmetry,5FDIqHUO2RNUAShocxPFSOV0B583,symmetry-judgement-task,193,914374,0.0-46.0-6.0-1.0-1.0-4.0,,,,,,,,,,1.0,1.0,,,,5f6fa1423bef885572c5d7e7,09:15:52,03/04/2024
,"<div style=""font-size: 10rem; color: #0000FF"">N</div>",,ospan,letter,5FDIqHUO2RNUAShocxPFSOV0B583,html-keyboard-response,194,915392,0.0-46.0-6.0-1.0-1.0-5.0,,,,,,,,,,,,,,,5f6fa1423bef885572c5d7e7,09:15:52,03/04/2024
1011.0,,,ospan,symmetry,5FDIqHUO2RNUAShocxPFSOV0B583,symmetry-judgement-task,195,918462,0.0-46.0-6.0-1.0-1.0-6.0,,,,,,,,,,1.0,1.0,,,,5f6fa1423bef885572c5d7e7,09:15:52,03/04/2024
,"<div style=""font-size: 10rem; color: #0000FF"">H</div>",,ospan,letter,5FDIqHUO2RNUAShocxPFSOV0B583,html-keyboard-response,196,919478,0.0-46.0-6.0-1.0-1.0-7.0,,,,,,,,,,,,,,,5f6fa1423bef885572c5d7e7,09:15:52,03/04/2024
1049.0,,,ospan,symmetry,5FDIqHUO2RNUAShocxPFSOV0B583,symmetry-judgement-task,197,922589,0.0-46.0-6.0-1.0-1.0-8.0,,,,,,,,,,1.0,1.0,,,,5f6fa1423bef885572c5d7e7,09:15:52,03/04/2024
,"<div style=""font-size: 10rem; color: #0000FF"">R</div>",,ospan,letter,5FDIqHUO2RNUAShocxPFSOV0B583,html-keyboard-response,198,923598,0.0-46.0-6.0-1.0-1.0-9.0,,,,,,,,,,,,,,,5f6fa1423bef885572c5d7e7,09:15:52,03/04/2024
1055.0,,,ospan,symmetry,5FDIqHUO2RNUAShocxPFSOV0B583,symmetry-judgement-task,199,926687,0.0-46.0-6.0-1.0-1.0-10.0,,,,,,,,,,1.0,1.0,,,,5f6fa1423bef885572c5d7e7,09:15:52,03/04/2024
,"<div style=""font-size: 10rem; color: #0000FF"">J</div>",,ospan,letter,5FDIqHUO2RNUAShocxPFSOV0B583,html-keyboard-response,200,927701,0.0-46.0-6.0-1.0-1.0-11.0,,,,,,,,,,,,,,,5f6fa1423bef885572c5d7e7,09:15:52,03/04/2024
1192.0,,,ospan,symmetry,5FDIqHUO2RNUAShocxPFSOV0B583,symmetry-judgement-task,201,930901,0.0-46.0-6.0-1.0-1.0-12.0,,,,,,,,,,1.0,1.0,,,,5f6fa1423bef885572c5d7e7,09:15:52,03/04/2024
,"<div style=""font-size: 10rem; color: #0000FF"">S</div>",,ospan,letter,5FDIqHUO2RNUAShocxPFSOV0B583,html-keyboard-response,202,931907,0.0-46.0-6.0-1.0-1.0-13.0,,,,,,,,,,,,,,,5f6fa1423bef885572c5d7e7,09:15:52,03/04/2024
1130.0,,,ospan,symmetry,5FDIqHUO2RNUAShocxPFSOV0B583,symmetry-judgement-task,203,935108,0.0-46.0-6.0-1.0-1.0-14.0,,,,,,,,,,1.0,1.0,,,,5f6fa1423bef885572c5d7e7,09:15:52,03/04/2024
,"<div style=""font-size: 10rem; color: #0000FF"">K</div>",,ospan,letter,5FDIqHUO2RNUAShocxPFSOV0B583,html-keyboard-response,204,936115,0.0-46.0-6.0-1.0-1.0-15.0,,,,,,,,,,,,,,,5f6fa1423bef885572c5d7e7,09:15:52,03/04/2024
13024.200000047684,"<div class = numbox><p style=""font-size: 2.4rem"">Please recall the letters you saw to the best of your ability. If you do not remember a particular letter, use the SKIP button.<br><b>(When you are ready to lock in your answer, press ENTER)</b></p><button id = button_1 class = ""square num-button"" onclick = ""recordClick(this)""><div class = content><div class = numbers>C</div></div></button><button id = button_2 class = ""square num-button"" onclick = ""recordClick(this)""><div class = content><div class = numbers>G</div></div></button><button id = button_3 class = ""square num-button"" onclick = ""recordClick(this)""><div class = content><div class = numbers>H</div></div></button><button id = button_4 class = ""square num-button"" onclick = ""recordClick(this)""><div class = content><div class = numbers>J</div></div></button><button id = button_5 class = ""square num-button"" onclick = ""recordClick(this)""><div class = content><div class = numbers>K</div></div></button><button id = button_6 class = ""square num-button"" onclick = ""recordClick(this)""><div class = content><div class = numbers>L</div></div></button><button id = button_7 class = ""square num-button"" onclick = ""recordClick(this)""><div class = content><div class = numbers>N</div></div></button><button id = button_8 class = ""square num-button"" onclick = ""recordClick(this)""><div class = content><div class = numbers>P</div></div></button><button id = button_9 class = ""square num-button"" onclick = ""recordClick(this)""><div class = content><div class = numbers>Q</div></div></button><button id = button_10 class = ""square num-button"" onclick = ""recordClick(this)""><div class = content><div class = numbers>R</div></div></button><button id = button_11 class = ""square num-button"" onclick = ""recordClick(this)""><div class = content><div class = numbers>S</div></div></button><button id = button_12 class = ""square num-button"" onclick = ""recordClick(this)""><div class = content><div class = numbers>Y</div></div></button><button class = clear_button id = ""ClearButton"" onclick = ""clearResponse()"">BACKSPACE</button><button class = blank_button id = ""BlankButton"" onclick = ""blankResponse()"">SKIP</button><p style=""font-size: 2.4rem""><u><b>Current Answer:</b></u></p><br><br><div id=echoed_txt style=""font-size: 5rem; color:blue;""><b></b></div></div>",enter,ospan,retrieval,5FDIqHUO2RNUAShocxPFSOV0B583,html-keyboard-response,205,949905,0.0-46.0-6.0-1.0-2.0,41,39,26,8.0,"[""L"",""C"",""N"",""H"",""R"",""J"",""S"",""_""]","[""L"",""C"",""N"",""H"",""R"",""J"",""S"",""K""]",0.0,7.0,,,,,,,5f6fa1423bef885572c5d7e7,09:15:52,03/04/2024
1270.4000000953674,[''],0,ospan,feedback,5FDIqHUO2RNUAShocxPFSOV0B583,html-button-response,206,951692,0.0-46.0-6.0-1.0-3.0,,,,,,,,,,,,98.0,0.0,,5f6fa1423bef885572c5d7e7,09:15:52,03/04/2024
12336.699999928474,,{'Q0': 'No feedback'},ospan,survey_ospan,5FDIqHUO2RNUAShocxPFSOV0B583,lmdlab-survey-text,207,964793,0.0-46.0-7.0,,,,,,,,,,,,,,5FDIqHUO2RNUAShocxPFSOV0B583,5f6fa1423bef885572c5d7e7,09:15:52,03/04/2024
2041.2000000476837,<p><p style='font-size: 3rem'>Great work!<br><br>This completes the symmetry and memory task.</p><br><br><br>,0,ospan,finish,5FDIqHUO2RNUAShocxPFSOV0B583,html-button-response,208,966842,0.0-46.0-8.0,41,39,26,,,,,,,,,98.0,,,5f6fa1423bef885572c5d7e7,09:15:52,03/04/2024
