rt,stimulus,response,exp_name,exp_stage,subjectID,trial_type,trial_index,time_elapsed,internal_node_id,ospan_shown,ospan_total,ospan_abs,length,resp_actual,resp_correct,full_correct,num_correct,feedback,accuracy,correct,math_acc,math_warning,databaseID,prolificID,start_time,date
1361.3999999761581,<div class = 'left_align' style='font-size: 3.25rem; line-height: 1.3;'><p class = 'center_align'><b>Welcome to the Symmetry and Memory Task</b><br><br><br><br></p>Press 'continue' to show the instructions.<br><br><br><br></div>,0,ospan,instruct,duKawfN3m4WV03NqRxzyPr5p4lz1,html-button-response,51,357331,0.0-43.0-0.0-0.0-0.0,,,,,,,,,,,,,,,65a5418464c0267277a80a1e,15:32:43,05/03/2024
5699.100000023842,"<div class = 'left_align' style='font-size: 3.25rem; line-height: 1.3;'><p class = 'center_align'><b>Symmetry and Memory Task</b><br><br></p>In this task, you will try to memorize letters you see on the screen<br>while you also view black and white grid pictures.<br><br>In the next few minutes, you will have some practice to get you familiar<br>with how the task works.<br><br>It may be difficult sometimes, but please do not worry about making mistakes!<br><br>We will begin by practicing the letter part of the task.<br><br><br><br></div>",0,ospan,instruct,duKawfN3m4WV03NqRxzyPr5p4lz1,html-button-response,52,363293,0.0-43.0-0.0-0.0-1.0,,,,,,,,,,,,,,,65a5418464c0267277a80a1e,15:32:43,05/03/2024
5563.899999976158,"<div class = 'left_align' style='font-size: 3.25rem; line-height: 1.3;'>For this practice part, letters will appear on the screen one at a time.<br><br>Try to remember each letter in the order presented.<br><br>After some letters have been shown, you will see a response screen. Your<br>goal is to report the letters you saw <b>in order</b>. If you do not remember<br>a particular letter, you will have the option to leave it blank.<br><br><br><br></div>",0,ospan,instruct,duKawfN3m4WV03NqRxzyPr5p4lz1,html-button-response,53,369114,0.0-43.0-0.0-0.0-2.0,,,,,,,,,,,,,,,65a5418464c0267277a80a1e,15:32:43,05/03/2024
905.6000000238419,"<div class = 'left_align' style='font-size: 3.25rem; line-height: 1.3;'>Remember, it is very important to get the letters in the same<br>order as you see them.<br><br>When you are ready, you may begin the letter practice.</div><br><br><br><br>",0,ospan,instruct,duKawfN3m4WV03NqRxzyPr5p4lz1,html-button-response,54,370284,0.0-43.0-0.0-0.0-3.0,,,,,,,,,,,,,,,65a5418464c0267277a80a1e,15:32:43,05/03/2024
,"<p style=""font-size:75px;"">...</p>",,ospan,iti,duKawfN3m4WV03NqRxzyPr5p4lz1,html-keyboard-response,55,371560,0.0-43.0-0.0-1.0-0.0,,,,,,,,,,,,,,,65a5418464c0267277a80a1e,15:32:43,05/03/2024
,"<div style=""font-size: 10rem; color: #0000FF"">N</div>",,ospan,letter,duKawfN3m4WV03NqRxzyPr5p4lz1,html-keyboard-response,56,372574,0.0-43.0-0.0-1.0-1.0,,,,,,,,,,,,,,,65a5418464c0267277a80a1e,15:32:43,05/03/2024
,"<div style=""font-size: 10rem; color: #0000FF"">R</div>",,ospan,letter,duKawfN3m4WV03NqRxzyPr5p4lz1,html-keyboard-response,57,374328,0.0-43.0-0.0-1.0-2.0,,,,,,,,,,,,,,,65a5418464c0267277a80a1e,15:32:43,05/03/2024
4879.300000011921,"<div class = numbox><p style=""font-size: 2.4rem"">Please recall the letters you saw to the best of your ability. If you do not remember a particular letter, use the SKIP button.<br><b>(When you are ready to lock in your answer, press ENTER)</b></p><button id = button_1 class = ""square num-button"" onclick = ""recordClick(this)""><div class = content><div class = numbers>C</div></div></button><button id = button_2 class = ""square num-button"" onclick = ""recordClick(this)""><div class = content><div class = numbers>G</div></div></button><button id = button_3 class = ""square num-button"" onclick = ""recordClick(this)""><div class = content><div class = numbers>H</div></div></button><button id = button_4 class = ""square num-button"" onclick = ""recordClick(this)""><div class = content><div class = numbers>J</div></div></button><button id = button_5 class = ""square num-button"" onclick = ""recordClick(this)""><div class = content><div class = numbers>K</div></div></button><button id = button_6 class = ""square num-button"" onclick = ""recordClick(this)""><div class = content><div class = numbers>L</div></div></button><button id = button_7 class = ""square num-button"" onclick = ""recordClick(this)""><div class = content><div class = numbers>N</div></div></button><button id = button_8 class = ""square num-button"" onclick = ""recordClick(this)""><div class = content><div class = numbers>P</div></div></button><button id = button_9 class = ""square num-button"" onclick = ""recordClick(this)""><div class = content><div class = numbers>Q</div></div></button><button id = button_10 class = ""square num-button"" onclick = ""recordClick(this)""><div class = content><div class = numbers>R</div></div></button><button id = button_11 class = ""square num-button"" onclick = ""recordClick(this)""><div class = content><div class = numbers>S</div></div></button><button id = button_12 class = ""square num-button"" onclick = ""recordClick(this)""><div class = content><div class = numbers>Y</div></div></button><button class = clear_button id = ""ClearButton"" onclick = ""clearResponse()"">BACKSPACE</button><button class = blank_button id = ""BlankButton"" onclick = ""blankResponse()"">SKIP</button><p style=""font-size: 2.4rem""><u><b>Current Answer:</b></u></p><br><br><div id=echoed_txt style=""font-size: 5rem; color:blue;""><b></b></div></div>",enter,ospan,retrieval,duKawfN3m4WV03NqRxzyPr5p4lz1,html-keyboard-response,58,379961,0.0-43.0-0.0-1.0-3.0,NA,NA,NA,2.0,"[""N"",""R""]","[""N"",""R""]",1.0,2.0,"['<font color=""green"">N</font>', '<font color=""green"">R</font>']",,,,,,65a5418464c0267277a80a1e,15:32:43,05/03/2024
1743.699999988079,"['<p style=""font-size:44px"">Letters:<br><br><br><font color=""green"">N</font> <font color=""green"">R</font></p><br><br>']",0,ospan,practice_feedback,duKawfN3m4WV03NqRxzyPr5p4lz1,html-button-response,59,382216,0.0-43.0-0.0-1.0-4.0,,,,,,,,,,,,,,,65a5418464c0267277a80a1e,15:32:43,05/03/2024
,"<p style=""font-size:75px;"">...</p>",,ospan,iti,duKawfN3m4WV03NqRxzyPr5p4lz1,html-keyboard-response,60,383220,0.0-43.0-0.0-2.0-0.0,,,,,,,,,,,,,,,65a5418464c0267277a80a1e,15:32:43,05/03/2024
,"<div style=""font-size: 10rem; color: #0000FF"">G</div>",,ospan,letter,duKawfN3m4WV03NqRxzyPr5p4lz1,html-keyboard-response,61,384221,0.0-43.0-0.0-2.0-1.0,,,,,,,,,,,,,,,65a5418464c0267277a80a1e,15:32:43,05/03/2024
,"<div style=""font-size: 10rem; color: #0000FF"">N</div>",,ospan,letter,duKawfN3m4WV03NqRxzyPr5p4lz1,html-keyboard-response,62,385982,0.0-43.0-0.0-2.0-2.0,,,,,,,,,,,,,,,65a5418464c0267277a80a1e,15:32:43,05/03/2024
,"<div style=""font-size: 10rem; color: #0000FF"">P</div>",,ospan,letter,duKawfN3m4WV03NqRxzyPr5p4lz1,html-keyboard-response,63,387757,0.0-43.0-0.0-2.0-3.0,,,,,,,,,,,,,,,65a5418464c0267277a80a1e,15:32:43,05/03/2024
2838.800000011921,"<div class = numbox><p style=""font-size: 2.4rem"">Please recall the letters you saw to the best of your ability. If you do not remember a particular letter, use the SKIP button.<br><b>(When you are ready to lock in your answer, press ENTER)</b></p><button id = button_1 class = ""square num-button"" onclick = ""recordClick(this)""><div class = content><div class = numbers>C</div></div></button><button id = button_2 class = ""square num-button"" onclick = ""recordClick(this)""><div class = content><div class = numbers>G</div></div></button><button id = button_3 class = ""square num-button"" onclick = ""recordClick(this)""><div class = content><div class = numbers>H</div></div></button><button id = button_4 class = ""square num-button"" onclick = ""recordClick(this)""><div class = content><div class = numbers>J</div></div></button><button id = button_5 class = ""square num-button"" onclick = ""recordClick(this)""><div class = content><div class = numbers>K</div></div></button><button id = button_6 class = ""square num-button"" onclick = ""recordClick(this)""><div class = content><div class = numbers>L</div></div></button><button id = button_7 class = ""square num-button"" onclick = ""recordClick(this)""><div class = content><div class = numbers>N</div></div></button><button id = button_8 class = ""square num-button"" onclick = ""recordClick(this)""><div class = content><div class = numbers>P</div></div></button><button id = button_9 class = ""square num-button"" onclick = ""recordClick(this)""><div class = content><div class = numbers>Q</div></div></button><button id = button_10 class = ""square num-button"" onclick = ""recordClick(this)""><div class = content><div class = numbers>R</div></div></button><button id = button_11 class = ""square num-button"" onclick = ""recordClick(this)""><div class = content><div class = numbers>S</div></div></button><button id = button_12 class = ""square num-button"" onclick = ""recordClick(this)""><div class = content><div class = numbers>Y</div></div></button><button class = clear_button id = ""ClearButton"" onclick = ""clearResponse()"">BACKSPACE</button><button class = blank_button id = ""BlankButton"" onclick = ""blankResponse()"">SKIP</button><p style=""font-size: 2.4rem""><u><b>Current Answer:</b></u></p><br><br><div id=echoed_txt style=""font-size: 5rem; color:blue;""><b></b></div></div>",enter,ospan,retrieval,duKawfN3m4WV03NqRxzyPr5p4lz1,html-keyboard-response,64,391361,0.0-43.0-0.0-2.0-4.0,NA,NA,NA,3.0,"[""G"",""N"",""P""]","[""G"",""N"",""P""]",1.0,3.0,"['<font color=""green"">G</font>', '<font color=""green"">N</font>', '<font color=""green"">P</font>']",,,,,,65a5418464c0267277a80a1e,15:32:43,05/03/2024
1517.699999988079,"['<p style=""font-size:44px"">Letters:<br><br><br><font color=""green"">G</font> <font color=""green"">N</font> <font color=""green"">P</font></p><br><br>']",0,ospan,practice_feedback,duKawfN3m4WV03NqRxzyPr5p4lz1,html-button-response,65,393390,0.0-43.0-0.0-2.0-5.0,,,,,,,,,,,,,,,65a5418464c0267277a80a1e,15:32:43,05/03/2024
9745.5,"<div class = 'left_align' style='font-size: 3.25rem; line-height: 1.3;'>Now you will practice doing the <b>symmetry judgment part</b> of the experiment.<br><br>A black and white grid picture will appear on the screen and you have to judge if it is <br>symmetrical or asymetrical.<br><br>A picture is 'mirror' symmetrical if its left half is identical to the right half when flipped.<br>Here are examples of a symmetrical and an asymetrical picture:<br><br><center><img src='Stimuli/img/symm_instructions_extra.png' style='height:420px; width:900'></img></center><br>To judge symmetry, imagine you were to fold each picture down the middle, like a book –<br>would the left half match the right half when folded onto each other?<br><br></div><br>",0,ospan,instruct,duKawfN3m4WV03NqRxzyPr5p4lz1,html-button-response,66,403137,0.0-43.0-1.0-0.0-0.0,,,,,,,,,,,,,,,65a5418464c0267277a80a1e,15:32:43,05/03/2024
4464.0,"<div class = 'left_align' style='font-size: 3.25rem; line-height: 1.3;'>When you have viewed the picture and determined whether it is symmetrical or not,<br>you can <b>click the Yes or No button</b> below to answer.<br><br>If you take longer than 15 seconds, it will continue automatically<br>and record the answer as an error.</div><br>",0,ospan,instruct,duKawfN3m4WV03NqRxzyPr5p4lz1,html-button-response,67,407857,0.0-43.0-1.0-0.0-1.0,,,,,,,,,,,,,,,65a5418464c0267277a80a1e,15:32:43,05/03/2024
4721.599999964237,"<div class = 'left_align' style='font-size: 3.25rem; line-height: 1.3;'>It is <b>very</b> important that you make the symmetry judgment correctly.<br><br>It is also important that you try and judge the picture as quickly as you can.<br><br>When you are ready, click on the button below to try some practice problems.</div><br><br><br><br>",0,ospan,instruct,duKawfN3m4WV03NqRxzyPr5p4lz1,html-button-response,68,412843,0.0-43.0-1.0-0.0-2.0,,,,,,,,,,,,,,,65a5418464c0267277a80a1e,15:32:43,05/03/2024
1135.0,,,ospan,symmetry,duKawfN3m4WV03NqRxzyPr5p4lz1,symmetry-judgement-task,69,414757,0.0-43.0-1.0-1.0-0.0,,,,,,,,,,1.0,1.0,,,,65a5418464c0267277a80a1e,15:32:43,05/03/2024
,"<p style=""color:green; font-size: 35px"">Correct</p>",,ospan,feedback,duKawfN3m4WV03NqRxzyPr5p4lz1,html-keyboard-response,70,415509,0.0-43.0-1.0-1.0-1.0,,,,,,,,,,,,,,,65a5418464c0267277a80a1e,15:32:43,05/03/2024
980.0,,,ospan,symmetry,duKawfN3m4WV03NqRxzyPr5p4lz1,symmetry-judgement-task,71,419090,0.0-43.0-1.0-1.0-2.0,,,,,,,,,,1.0,1.0,,,,65a5418464c0267277a80a1e,15:32:43,05/03/2024
,"<p style=""color:green; font-size: 35px"">Correct</p>",,ospan,feedback,duKawfN3m4WV03NqRxzyPr5p4lz1,html-keyboard-response,72,419848,0.0-43.0-1.0-1.0-3.0,,,,,,,,,,,,,,,65a5418464c0267277a80a1e,15:32:43,05/03/2024
789.0,,,ospan,symmetry,duKawfN3m4WV03NqRxzyPr5p4lz1,symmetry-judgement-task,73,423231,0.0-43.0-1.0-1.0-4.0,,,,,,,,,,1.0,1.0,,,,65a5418464c0267277a80a1e,15:32:43,05/03/2024
,"<p style=""color:green; font-size: 35px"">Correct</p>",,ospan,feedback,duKawfN3m4WV03NqRxzyPr5p4lz1,html-keyboard-response,74,423984,0.0-43.0-1.0-1.0-5.0,,,,,,,,,,,,,,,65a5418464c0267277a80a1e,15:32:43,05/03/2024
1175.7999999523163,"<p style=""font-size: 3rem;"">You responded correctly on 3 of 3 symmetry judgments. Good job!</p><br><br>",0,ospan,practice,duKawfN3m4WV03NqRxzyPr5p4lz1,html-button-response,75,427176,0.0-43.0-1.0-2.0,,,,,,,,,,,,,,,65a5418464c0267277a80a1e,15:32:43,05/03/2024
5523.0,"<div class = 'left_align' style='font-size: 3.25rem; line-height: 1.3;'>Now you will practice doing both parts of the experiment at the same time.<br><br>In the next practice set, you will be given one grid picture to judge.<br>Then letter will appear on the screen. Try to remember the letter.<br><br>It is <b>very important</b> to make the symmetry judgment as quickly and accurately as possible.<br><br>Just as before, once you have make the symmetry judgment, you can click Yes or No.<br><b>Note that you will no longer see Correct or Incorrect feedback.</div><br><br><br><br>",0,ospan,instruct,duKawfN3m4WV03NqRxzyPr5p4lz1,html-button-response,76,432960,0.0-43.0-2.0-0.0-0.0,,,,,,,,,,,,,,,65a5418464c0267277a80a1e,15:32:43,05/03/2024
1809.5999999642372,"<div class = 'left_align' style='font-size: 3.25rem; line-height: 1.3;'>After the letter goes away, another grid picture will appear, and then<br>another letter.<br><br>At the end of each set of letters and grids, you will recall the letters to the best<br>of your ability. Remember, try your best to get the letters in the correct order.<br><br>It is important to <b>quickly</b> and <b>accurately</b> make the symmetry judgments.</div><br><br><br><br>",0,ospan,instruct,duKawfN3m4WV03NqRxzyPr5p4lz1,html-button-response,77,435030,0.0-43.0-2.0-0.0-1.0,,,,,,,,,,,,,,,65a5418464c0267277a80a1e,15:32:43,05/03/2024
7328.100000023842,"<div class = 'left_align' style='font-size: 3.25rem; line-height: 1.3;'>On the feedback screen, if you are not doing well at the symmetry judgments,<br>you will also see a warning in the middle. This indicates your percent <br>correct for the grid pictures for the entire experiment.<br><br>It is <b>very</b> important for you to keep accuracy at least at 85%: <u>We can only use<br>data where the participant was at least 85% accurate on the judgments.</u> Therefore,<br> please try your best to perform well on the symmetry judgments, <b>at the same time</b><br>doing your best to recall as many letters as possible.<br><br>Click the button to try some practice problems.</div><br><br><br><br>",0,ospan,instruct,duKawfN3m4WV03NqRxzyPr5p4lz1,html-button-response,78,442624,0.0-43.0-2.0-0.0-2.0,,,,,,,,,,,,,,,65a5418464c0267277a80a1e,15:32:43,05/03/2024
,"<p style=""font-size:75px;"">...</p>",,ospan,iti,duKawfN3m4WV03NqRxzyPr5p4lz1,html-keyboard-response,79,443893,0.0-43.0-2.0-1.0-0.0,,,,,,,,,,,,,,,65a5418464c0267277a80a1e,15:32:43,05/03/2024
939.0,,,ospan,symmetry,duKawfN3m4WV03NqRxzyPr5p4lz1,symmetry-judgement-task,80,445858,0.0-43.0-2.0-1.0-1.0-0.0,,,,,,,,,,1.0,1.0,,,,65a5418464c0267277a80a1e,15:32:43,05/03/2024
,"<div style=""font-size: 10rem; color: #0000FF"">S</div>",,ospan,letter,duKawfN3m4WV03NqRxzyPr5p4lz1,html-keyboard-response,81,446861,0.0-43.0-2.0-1.0-1.0-1.0,,,,,,,,,,,,,,,65a5418464c0267277a80a1e,15:32:43,05/03/2024
817.0,,,ospan,symmetry,duKawfN3m4WV03NqRxzyPr5p4lz1,symmetry-judgement-task,82,449537,0.0-43.0-2.0-1.0-1.0-2.0,,,,,,,,,,1.0,1.0,,,,65a5418464c0267277a80a1e,15:32:43,05/03/2024
,"<div style=""font-size: 10rem; color: #0000FF"">Y</div>",,ospan,letter,duKawfN3m4WV03NqRxzyPr5p4lz1,html-keyboard-response,83,450540,0.0-43.0-2.0-1.0-1.0-3.0,,,,,,,,,,,,,,,65a5418464c0267277a80a1e,15:32:43,05/03/2024
953.0,,,ospan,symmetry,duKawfN3m4WV03NqRxzyPr5p4lz1,symmetry-judgement-task,84,453346,0.0-43.0-2.0-1.0-1.0-4.0,,,,,,,,,,1.0,1.0,,,,65a5418464c0267277a80a1e,15:32:43,05/03/2024
,"<div style=""font-size: 10rem; color: #0000FF"">C</div>",,ospan,letter,duKawfN3m4WV03NqRxzyPr5p4lz1,html-keyboard-response,85,454356,0.0-43.0-2.0-1.0-1.0-5.0,,,,,,,,,,,,,,,65a5418464c0267277a80a1e,15:32:43,05/03/2024
2925.5,"<div class = numbox><p style=""font-size: 2.4rem"">Please recall the letters you saw to the best of your ability. If you do not remember a particular letter, use the SKIP button.<br><b>(When you are ready to lock in your answer, press ENTER)</b></p><button id = button_1 class = ""square num-button"" onclick = ""recordClick(this)""><div class = content><div class = numbers>C</div></div></button><button id = button_2 class = ""square num-button"" onclick = ""recordClick(this)""><div class = content><div class = numbers>G</div></div></button><button id = button_3 class = ""square num-button"" onclick = ""recordClick(this)""><div class = content><div class = numbers>H</div></div></button><button id = button_4 class = ""square num-button"" onclick = ""recordClick(this)""><div class = content><div class = numbers>J</div></div></button><button id = button_5 class = ""square num-button"" onclick = ""recordClick(this)""><div class = content><div class = numbers>K</div></div></button><button id = button_6 class = ""square num-button"" onclick = ""recordClick(this)""><div class = content><div class = numbers>L</div></div></button><button id = button_7 class = ""square num-button"" onclick = ""recordClick(this)""><div class = content><div class = numbers>N</div></div></button><button id = button_8 class = ""square num-button"" onclick = ""recordClick(this)""><div class = content><div class = numbers>P</div></div></button><button id = button_9 class = ""square num-button"" onclick = ""recordClick(this)""><div class = content><div class = numbers>Q</div></div></button><button id = button_10 class = ""square num-button"" onclick = ""recordClick(this)""><div class = content><div class = numbers>R</div></div></button><button id = button_11 class = ""square num-button"" onclick = ""recordClick(this)""><div class = content><div class = numbers>S</div></div></button><button id = button_12 class = ""square num-button"" onclick = ""recordClick(this)""><div class = content><div class = numbers>Y</div></div></button><button class = clear_button id = ""ClearButton"" onclick = ""clearResponse()"">BACKSPACE</button><button class = blank_button id = ""BlankButton"" onclick = ""blankResponse()"">SKIP</button><p style=""font-size: 2.4rem""><u><b>Current Answer:</b></u></p><br><br><div id=echoed_txt style=""font-size: 5rem; color:blue;""><b></b></div></div>",enter,ospan,retrieval,duKawfN3m4WV03NqRxzyPr5p4lz1,html-keyboard-response,86,458048,0.0-43.0-2.0-1.0-2.0-0.0,NA,NA,NA,3.0,"[""S"",""Y"",""C""]","[""S"",""Y"",""C""]",1.0,3.0,"['<font color=""green"">S</font>', '<font color=""green"">Y</font>', '<font color=""green"">C</font>']",,,,,,65a5418464c0267277a80a1e,15:32:43,05/03/2024
1373.3999999761581,"['<p style=""font-size:44px"">Letters:<br><br><br><font color=""green"">S</font> <font color=""green"">Y</font> <font color=""green"">C</font></p><br><br><p style=""font-size:30px"">Symmetry:<br><br><font color=""green"">100%</font></p><br><br>']",0,ospan,practice_feedback,duKawfN3m4WV03NqRxzyPr5p4lz1,html-button-response,87,459927,0.0-43.0-2.0-1.0-2.0-1.0,,,,,,,,,,,,,,,65a5418464c0267277a80a1e,15:32:43,05/03/2024
,"<p style=""font-size:75px;"">...</p>",,ospan,iti,duKawfN3m4WV03NqRxzyPr5p4lz1,html-keyboard-response,88,460939,0.0-43.0-2.0-2.0-0.0,,,,,,,,,,,,,,,65a5418464c0267277a80a1e,15:32:43,05/03/2024
824.0,,,ospan,symmetry,duKawfN3m4WV03NqRxzyPr5p4lz1,symmetry-judgement-task,89,462868,0.0-43.0-2.0-2.0-1.0-0.0,,,,,,,,,,1.0,1.0,,,,65a5418464c0267277a80a1e,15:32:43,05/03/2024
,"<div style=""font-size: 10rem; color: #0000FF"">Q</div>",,ospan,letter,duKawfN3m4WV03NqRxzyPr5p4lz1,html-keyboard-response,90,463872,0.0-43.0-2.0-2.0-1.0-1.0,,,,,,,,,,,,,,,65a5418464c0267277a80a1e,15:32:43,05/03/2024
796.0,,,ospan,symmetry,duKawfN3m4WV03NqRxzyPr5p4lz1,symmetry-judgement-task,91,466522,0.0-43.0-2.0-2.0-1.0-2.0,,,,,,,,,,1.0,1.0,,,,65a5418464c0267277a80a1e,15:32:43,05/03/2024
,"<div style=""font-size: 10rem; color: #0000FF"">G</div>",,ospan,letter,duKawfN3m4WV03NqRxzyPr5p4lz1,html-keyboard-response,92,467526,0.0-43.0-2.0-2.0-1.0-3.0,,,,,,,,,,,,,,,65a5418464c0267277a80a1e,15:32:43,05/03/2024
959.0,,,ospan,symmetry,duKawfN3m4WV03NqRxzyPr5p4lz1,symmetry-judgement-task,93,470346,0.0-43.0-2.0-2.0-1.0-4.0,,,,,,,,,,1.0,1.0,,,,65a5418464c0267277a80a1e,15:32:43,05/03/2024
,"<div style=""font-size: 10rem; color: #0000FF"">H</div>",,ospan,letter,duKawfN3m4WV03NqRxzyPr5p4lz1,html-keyboard-response,94,471352,0.0-43.0-2.0-2.0-1.0-5.0,,,,,,,,,,,,,,,65a5418464c0267277a80a1e,15:32:43,05/03/2024
4348.800000011921,"<div class = numbox><p style=""font-size: 2.4rem"">Please recall the letters you saw to the best of your ability. If you do not remember a particular letter, use the SKIP button.<br><b>(When you are ready to lock in your answer, press ENTER)</b></p><button id = button_1 class = ""square num-button"" onclick = ""recordClick(this)""><div class = content><div class = numbers>C</div></div></button><button id = button_2 class = ""square num-button"" onclick = ""recordClick(this)""><div class = content><div class = numbers>G</div></div></button><button id = button_3 class = ""square num-button"" onclick = ""recordClick(this)""><div class = content><div class = numbers>H</div></div></button><button id = button_4 class = ""square num-button"" onclick = ""recordClick(this)""><div class = content><div class = numbers>J</div></div></button><button id = button_5 class = ""square num-button"" onclick = ""recordClick(this)""><div class = content><div class = numbers>K</div></div></button><button id = button_6 class = ""square num-button"" onclick = ""recordClick(this)""><div class = content><div class = numbers>L</div></div></button><button id = button_7 class = ""square num-button"" onclick = ""recordClick(this)""><div class = content><div class = numbers>N</div></div></button><button id = button_8 class = ""square num-button"" onclick = ""recordClick(this)""><div class = content><div class = numbers>P</div></div></button><button id = button_9 class = ""square num-button"" onclick = ""recordClick(this)""><div class = content><div class = numbers>Q</div></div></button><button id = button_10 class = ""square num-button"" onclick = ""recordClick(this)""><div class = content><div class = numbers>R</div></div></button><button id = button_11 class = ""square num-button"" onclick = ""recordClick(this)""><div class = content><div class = numbers>S</div></div></button><button id = button_12 class = ""square num-button"" onclick = ""recordClick(this)""><div class = content><div class = numbers>Y</div></div></button><button class = clear_button id = ""ClearButton"" onclick = ""clearResponse()"">BACKSPACE</button><button class = blank_button id = ""BlankButton"" onclick = ""blankResponse()"">SKIP</button><p style=""font-size: 2.4rem""><u><b>Current Answer:</b></u></p><br><br><div id=echoed_txt style=""font-size: 5rem; color:blue;""><b></b></div></div>",enter,ospan,retrieval,duKawfN3m4WV03NqRxzyPr5p4lz1,html-keyboard-response,95,476452,0.0-43.0-2.0-2.0-2.0-0.0,NA,NA,NA,3.0,"[""Q"",""G"",""H""]","[""Q"",""G"",""H""]",1.0,3.0,"['<font color=""green"">Q</font>', '<font color=""green"">G</font>', '<font color=""green"">H</font>']",,,,,,65a5418464c0267277a80a1e,15:32:43,05/03/2024
894.3999999761581,"['<p style=""font-size:44px"">Letters:<br><br><br><font color=""green"">Q</font> <font color=""green"">G</font> <font color=""green"">H</font></p><br><br><p style=""font-size:30px"">Symmetry:<br><br><font color=""green"">100%</font></p><br><br>']",0,ospan,practice_feedback,duKawfN3m4WV03NqRxzyPr5p4lz1,html-button-response,96,477859,0.0-43.0-2.0-2.0-2.0-1.0,,,,,,,,,,,,,,,65a5418464c0267277a80a1e,15:32:43,05/03/2024
2881.0,"<div class = 'left_align' style='font-size: 3rem; line-height: 1.3;'><b>Great work! That is the end of practice.</b><br><br>The real trials will look just like the practice trials you just completed.<br><br><u>Here, you will not see feedback</u>. First, you will see an grid picture to judge,<br>then a letter to remember. When the recall screen appears, report the letters in the<br>order presented. If you forget a letter, remember to use the <b>blank</b> button to move to the<br>next letter. Some of the sets will have more symmetry grids and letters than others.<br><br>It is important that you do your best on both the symmetry judgments and the letter recall<br>parts of the experiment. For for the symmetry judgments, try to work as <b>quickly</b> and <br>as <b>accurately</b> as possible. Remember to keep your symmetry accuracy at 85% or above.<br><br><b>For the letters, do NOT use any external aid (e.g., writing on paper, electronic device).</b><br><br>It is <u>very important</u> to our experiment to have a <b>true</b> view of your real performance.<br><br>Do not worry if you miss some when it gets hard! This task is meant to be very challenging!<br><br>Click the button to begin.</div><br><br><br><br>",0,ospan,starting_real_here,duKawfN3m4WV03NqRxzyPr5p4lz1,html-button-response,97,480741,0.0-43.0-2.0-3.0,,,,,,,,,,,,,,,65a5418464c0267277a80a1e,15:32:43,05/03/2024
,"<p style=""font-size:75px;"">...</p>",,ospan,iti,duKawfN3m4WV03NqRxzyPr5p4lz1,html-keyboard-response,98,482003,0.0-43.0-3.0-0.0-0.0,,,,,,,,,,,,,,,65a5418464c0267277a80a1e,15:32:43,05/03/2024
965.0,,,ospan,symmetry,duKawfN3m4WV03NqRxzyPr5p4lz1,symmetry-judgement-task,99,483995,0.0-43.0-3.0-0.0-1.0-0.0,,,,,,,,,,1.0,1.0,,,,65a5418464c0267277a80a1e,15:32:43,05/03/2024
,"<div style=""font-size: 10rem; color: #0000FF"">P</div>",,ospan,letter,duKawfN3m4WV03NqRxzyPr5p4lz1,html-keyboard-response,100,485003,0.0-43.0-3.0-0.0-1.0-1.0,,,,,,,,,,,,,,,65a5418464c0267277a80a1e,15:32:43,05/03/2024
1700.0,,,ospan,symmetry,duKawfN3m4WV03NqRxzyPr5p4lz1,symmetry-judgement-task,101,488484,0.0-43.0-3.0-0.0-1.0-2.0,,,,,,,,,,1.0,1.0,,,,65a5418464c0267277a80a1e,15:32:43,05/03/2024
,"<div style=""font-size: 10rem; color: #0000FF"">G</div>",,ospan,letter,duKawfN3m4WV03NqRxzyPr5p4lz1,html-keyboard-response,102,489487,0.0-43.0-3.0-0.0-1.0-3.0,,,,,,,,,,,,,,,65a5418464c0267277a80a1e,15:32:43,05/03/2024
801.0,,,ospan,symmetry,duKawfN3m4WV03NqRxzyPr5p4lz1,symmetry-judgement-task,103,492133,0.0-43.0-3.0-0.0-1.0-4.0,,,,,,,,,,1.0,1.0,,,,65a5418464c0267277a80a1e,15:32:43,05/03/2024
,"<div style=""font-size: 10rem; color: #0000FF"">L</div>",,ospan,letter,duKawfN3m4WV03NqRxzyPr5p4lz1,html-keyboard-response,104,493144,0.0-43.0-3.0-0.0-1.0-5.0,,,,,,,,,,,,,,,65a5418464c0267277a80a1e,15:32:43,05/03/2024
2364.0,"<div class = numbox><p style=""font-size: 2.4rem"">Please recall the letters you saw to the best of your ability. If you do not remember a particular letter, use the SKIP button.<br><b>(When you are ready to lock in your answer, press ENTER)</b></p><button id = button_1 class = ""square num-button"" onclick = ""recordClick(this)""><div class = content><div class = numbers>C</div></div></button><button id = button_2 class = ""square num-button"" onclick = ""recordClick(this)""><div class = content><div class = numbers>G</div></div></button><button id = button_3 class = ""square num-button"" onclick = ""recordClick(this)""><div class = content><div class = numbers>H</div></div></button><button id = button_4 class = ""square num-button"" onclick = ""recordClick(this)""><div class = content><div class = numbers>J</div></div></button><button id = button_5 class = ""square num-button"" onclick = ""recordClick(this)""><div class = content><div class = numbers>K</div></div></button><button id = button_6 class = ""square num-button"" onclick = ""recordClick(this)""><div class = content><div class = numbers>L</div></div></button><button id = button_7 class = ""square num-button"" onclick = ""recordClick(this)""><div class = content><div class = numbers>N</div></div></button><button id = button_8 class = ""square num-button"" onclick = ""recordClick(this)""><div class = content><div class = numbers>P</div></div></button><button id = button_9 class = ""square num-button"" onclick = ""recordClick(this)""><div class = content><div class = numbers>Q</div></div></button><button id = button_10 class = ""square num-button"" onclick = ""recordClick(this)""><div class = content><div class = numbers>R</div></div></button><button id = button_11 class = ""square num-button"" onclick = ""recordClick(this)""><div class = content><div class = numbers>S</div></div></button><button id = button_12 class = ""square num-button"" onclick = ""recordClick(this)""><div class = content><div class = numbers>Y</div></div></button><button class = clear_button id = ""ClearButton"" onclick = ""clearResponse()"">BACKSPACE</button><button class = blank_button id = ""BlankButton"" onclick = ""blankResponse()"">SKIP</button><p style=""font-size: 2.4rem""><u><b>Current Answer:</b></u></p><br><br><div id=echoed_txt style=""font-size: 5rem; color:blue;""><b></b></div></div>",enter,ospan,retrieval,duKawfN3m4WV03NqRxzyPr5p4lz1,html-keyboard-response,105,496271,0.0-43.0-3.0-0.0-2.0,3,3,3,3.0,"[""P"",""G"",""L""]","[""P"",""G"",""L""]",1.0,3.0,,,,,,,65a5418464c0267277a80a1e,15:32:43,05/03/2024
668.3000000119209,[''],0,ospan,feedback,duKawfN3m4WV03NqRxzyPr5p4lz1,html-button-response,106,497453,0.0-43.0-3.0-0.0-3.0,,,,,,,,,,,,100.0,0.0,,65a5418464c0267277a80a1e,15:32:43,05/03/2024
,"<p style=""font-size:75px;"">...</p>",,ospan,iti,duKawfN3m4WV03NqRxzyPr5p4lz1,html-keyboard-response,107,498454,0.0-43.0-4.0-0.0-0.0,,,,,,,,,,,,,,,65a5418464c0267277a80a1e,15:32:43,05/03/2024
643.0,,,ospan,symmetry,duKawfN3m4WV03NqRxzyPr5p4lz1,symmetry-judgement-task,108,500194,0.0-43.0-4.0-0.0-1.0-0.0,,,,,,,,,,1.0,1.0,,,,65a5418464c0267277a80a1e,15:32:43,05/03/2024
,"<div style=""font-size: 10rem; color: #0000FF"">R</div>",,ospan,letter,duKawfN3m4WV03NqRxzyPr5p4lz1,html-keyboard-response,109,501202,0.0-43.0-4.0-0.0-1.0-1.0,,,,,,,,,,,,,,,65a5418464c0267277a80a1e,15:32:43,05/03/2024
917.0,,,ospan,symmetry,duKawfN3m4WV03NqRxzyPr5p4lz1,symmetry-judgement-task,110,503958,0.0-43.0-4.0-0.0-1.0-2.0,,,,,,,,,,1.0,1.0,,,,65a5418464c0267277a80a1e,15:32:43,05/03/2024
,"<div style=""font-size: 10rem; color: #0000FF"">N</div>",,ospan,letter,duKawfN3m4WV03NqRxzyPr5p4lz1,html-keyboard-response,111,504967,0.0-43.0-4.0-0.0-1.0-3.0,,,,,,,,,,,,,,,65a5418464c0267277a80a1e,15:32:43,05/03/2024
862.0,,,ospan,symmetry,duKawfN3m4WV03NqRxzyPr5p4lz1,symmetry-judgement-task,112,507684,0.0-43.0-4.0-0.0-1.0-4.0,,,,,,,,,,1.0,1.0,,,,65a5418464c0267277a80a1e,15:32:43,05/03/2024
,"<div style=""font-size: 10rem; color: #0000FF"">L</div>",,ospan,letter,duKawfN3m4WV03NqRxzyPr5p4lz1,html-keyboard-response,113,508696,0.0-43.0-4.0-0.0-1.0-5.0,,,,,,,,,,,,,,,65a5418464c0267277a80a1e,15:32:43,05/03/2024
770.0,,,ospan,symmetry,duKawfN3m4WV03NqRxzyPr5p4lz1,symmetry-judgement-task,114,511323,0.0-43.0-4.0-0.0-1.0-6.0,,,,,,,,,,1.0,1.0,,,,65a5418464c0267277a80a1e,15:32:43,05/03/2024
,"<div style=""font-size: 10rem; color: #0000FF"">C</div>",,ospan,letter,duKawfN3m4WV03NqRxzyPr5p4lz1,html-keyboard-response,115,512324,0.0-43.0-4.0-0.0-1.0-7.0,,,,,,,,,,,,,,,65a5418464c0267277a80a1e,15:32:43,05/03/2024
4548.399999976158,"<div class = numbox><p style=""font-size: 2.4rem"">Please recall the letters you saw to the best of your ability. If you do not remember a particular letter, use the SKIP button.<br><b>(When you are ready to lock in your answer, press ENTER)</b></p><button id = button_1 class = ""square num-button"" onclick = ""recordClick(this)""><div class = content><div class = numbers>C</div></div></button><button id = button_2 class = ""square num-button"" onclick = ""recordClick(this)""><div class = content><div class = numbers>G</div></div></button><button id = button_3 class = ""square num-button"" onclick = ""recordClick(this)""><div class = content><div class = numbers>H</div></div></button><button id = button_4 class = ""square num-button"" onclick = ""recordClick(this)""><div class = content><div class = numbers>J</div></div></button><button id = button_5 class = ""square num-button"" onclick = ""recordClick(this)""><div class = content><div class = numbers>K</div></div></button><button id = button_6 class = ""square num-button"" onclick = ""recordClick(this)""><div class = content><div class = numbers>L</div></div></button><button id = button_7 class = ""square num-button"" onclick = ""recordClick(this)""><div class = content><div class = numbers>N</div></div></button><button id = button_8 class = ""square num-button"" onclick = ""recordClick(this)""><div class = content><div class = numbers>P</div></div></button><button id = button_9 class = ""square num-button"" onclick = ""recordClick(this)""><div class = content><div class = numbers>Q</div></div></button><button id = button_10 class = ""square num-button"" onclick = ""recordClick(this)""><div class = content><div class = numbers>R</div></div></button><button id = button_11 class = ""square num-button"" onclick = ""recordClick(this)""><div class = content><div class = numbers>S</div></div></button><button id = button_12 class = ""square num-button"" onclick = ""recordClick(this)""><div class = content><div class = numbers>Y</div></div></button><button class = clear_button id = ""ClearButton"" onclick = ""clearResponse()"">BACKSPACE</button><button class = blank_button id = ""BlankButton"" onclick = ""blankResponse()"">SKIP</button><p style=""font-size: 2.4rem""><u><b>Current Answer:</b></u></p><br><br><div id=echoed_txt style=""font-size: 5rem; color:blue;""><b></b></div></div>",enter,ospan,retrieval,duKawfN3m4WV03NqRxzyPr5p4lz1,html-keyboard-response,116,517625,0.0-43.0-4.0-0.0-2.0,7,7,7,4.0,"[""R"",""N"",""L"",""C""]","[""R"",""N"",""L"",""C""]",1.0,4.0,,,,,,,65a5418464c0267277a80a1e,15:32:43,05/03/2024
566.0,[''],0,ospan,feedback,duKawfN3m4WV03NqRxzyPr5p4lz1,html-button-response,117,518693,0.0-43.0-4.0-0.0-3.0,,,,,,,,,,,,100.0,0.0,,65a5418464c0267277a80a1e,15:32:43,05/03/2024
,"<p style=""font-size:75px;"">...</p>",,ospan,iti,duKawfN3m4WV03NqRxzyPr5p4lz1,html-keyboard-response,118,519694,0.0-43.0-4.0-1.0-0.0,,,,,,,,,,,,,,,65a5418464c0267277a80a1e,15:32:43,05/03/2024
1018.0,,,ospan,symmetry,duKawfN3m4WV03NqRxzyPr5p4lz1,symmetry-judgement-task,119,521739,0.0-43.0-4.0-1.0-1.0-0.0,,,,,,,,,,1.0,1.0,,,,65a5418464c0267277a80a1e,15:32:43,05/03/2024
,"<div style=""font-size: 10rem; color: #0000FF"">S</div>",,ospan,letter,duKawfN3m4WV03NqRxzyPr5p4lz1,html-keyboard-response,120,522752,0.0-43.0-4.0-1.0-1.0-1.0,,,,,,,,,,,,,,,65a5418464c0267277a80a1e,15:32:43,05/03/2024
708.0,,,ospan,symmetry,duKawfN3m4WV03NqRxzyPr5p4lz1,symmetry-judgement-task,121,525328,0.0-43.0-4.0-1.0-1.0-2.0,,,,,,,,,,1.0,1.0,,,,65a5418464c0267277a80a1e,15:32:43,05/03/2024
,"<div style=""font-size: 10rem; color: #0000FF"">J</div>",,ospan,letter,duKawfN3m4WV03NqRxzyPr5p4lz1,html-keyboard-response,122,526343,0.0-43.0-4.0-1.0-1.0-3.0,,,,,,,,,,,,,,,65a5418464c0267277a80a1e,15:32:43,05/03/2024
932.0,,,ospan,symmetry,duKawfN3m4WV03NqRxzyPr5p4lz1,symmetry-judgement-task,123,529133,0.0-43.0-4.0-1.0-1.0-4.0,,,,,,,,,,1.0,1.0,,,,65a5418464c0267277a80a1e,15:32:43,05/03/2024
,"<div style=""font-size: 10rem; color: #0000FF"">R</div>",,ospan,letter,duKawfN3m4WV03NqRxzyPr5p4lz1,html-keyboard-response,124,530142,0.0-43.0-4.0-1.0-1.0-5.0,,,,,,,,,,,,,,,65a5418464c0267277a80a1e,15:32:43,05/03/2024
795.0,,,ospan,symmetry,duKawfN3m4WV03NqRxzyPr5p4lz1,symmetry-judgement-task,125,532781,0.0-43.0-4.0-1.0-1.0-6.0,,,,,,,,,,1.0,1.0,,,,65a5418464c0267277a80a1e,15:32:43,05/03/2024
,"<div style=""font-size: 10rem; color: #0000FF"">G</div>",,ospan,letter,duKawfN3m4WV03NqRxzyPr5p4lz1,html-keyboard-response,126,533788,0.0-43.0-4.0-1.0-1.0-7.0,,,,,,,,,,,,,,,65a5418464c0267277a80a1e,15:32:43,05/03/2024
767.0,,,ospan,symmetry,duKawfN3m4WV03NqRxzyPr5p4lz1,symmetry-judgement-task,127,536402,0.0-43.0-4.0-1.0-1.0-8.0,,,,,,,,,,1.0,1.0,,,,65a5418464c0267277a80a1e,15:32:43,05/03/2024
,"<div style=""font-size: 10rem; color: #0000FF"">Y</div>",,ospan,letter,duKawfN3m4WV03NqRxzyPr5p4lz1,html-keyboard-response,128,537405,0.0-43.0-4.0-1.0-1.0-9.0,,,,,,,,,,,,,,,65a5418464c0267277a80a1e,15:32:43,05/03/2024
5162.800000011921,"<div class = numbox><p style=""font-size: 2.4rem"">Please recall the letters you saw to the best of your ability. If you do not remember a particular letter, use the SKIP button.<br><b>(When you are ready to lock in your answer, press ENTER)</b></p><button id = button_1 class = ""square num-button"" onclick = ""recordClick(this)""><div class = content><div class = numbers>C</div></div></button><button id = button_2 class = ""square num-button"" onclick = ""recordClick(this)""><div class = content><div class = numbers>G</div></div></button><button id = button_3 class = ""square num-button"" onclick = ""recordClick(this)""><div class = content><div class = numbers>H</div></div></button><button id = button_4 class = ""square num-button"" onclick = ""recordClick(this)""><div class = content><div class = numbers>J</div></div></button><button id = button_5 class = ""square num-button"" onclick = ""recordClick(this)""><div class = content><div class = numbers>K</div></div></button><button id = button_6 class = ""square num-button"" onclick = ""recordClick(this)""><div class = content><div class = numbers>L</div></div></button><button id = button_7 class = ""square num-button"" onclick = ""recordClick(this)""><div class = content><div class = numbers>N</div></div></button><button id = button_8 class = ""square num-button"" onclick = ""recordClick(this)""><div class = content><div class = numbers>P</div></div></button><button id = button_9 class = ""square num-button"" onclick = ""recordClick(this)""><div class = content><div class = numbers>Q</div></div></button><button id = button_10 class = ""square num-button"" onclick = ""recordClick(this)""><div class = content><div class = numbers>R</div></div></button><button id = button_11 class = ""square num-button"" onclick = ""recordClick(this)""><div class = content><div class = numbers>S</div></div></button><button id = button_12 class = ""square num-button"" onclick = ""recordClick(this)""><div class = content><div class = numbers>Y</div></div></button><button class = clear_button id = ""ClearButton"" onclick = ""clearResponse()"">BACKSPACE</button><button class = blank_button id = ""BlankButton"" onclick = ""blankResponse()"">SKIP</button><p style=""font-size: 2.4rem""><u><b>Current Answer:</b></u></p><br><br><div id=echoed_txt style=""font-size: 5rem; color:blue;""><b></b></div></div>",enter,ospan,retrieval,duKawfN3m4WV03NqRxzyPr5p4lz1,html-keyboard-response,129,543320,0.0-43.0-4.0-1.0-2.0,12,8,7,5.0,"[""S"",""L"",""J"",""R"",""C""]","[""S"",""J"",""R"",""G"",""Y""]",0.0,1.0,,,,,,,65a5418464c0267277a80a1e,15:32:43,05/03/2024
548.3000000119209,[''],0,ospan,feedback,duKawfN3m4WV03NqRxzyPr5p4lz1,html-button-response,130,544371,0.0-43.0-4.0-1.0-3.0,,,,,,,,,,,,100.0,0.0,,65a5418464c0267277a80a1e,15:32:43,05/03/2024
,"<p style=""font-size:75px;"">...</p>",,ospan,iti,duKawfN3m4WV03NqRxzyPr5p4lz1,html-keyboard-response,131,545381,0.0-43.0-4.0-2.0-0.0,,,,,,,,,,,,,,,65a5418464c0267277a80a1e,15:32:43,05/03/2024
962.0,,,ospan,symmetry,duKawfN3m4WV03NqRxzyPr5p4lz1,symmetry-judgement-task,132,547372,0.0-43.0-4.0-2.0-1.0-0.0,,,,,,,,,,1.0,1.0,,,,65a5418464c0267277a80a1e,15:32:43,05/03/2024
,"<div style=""font-size: 10rem; color: #0000FF"">P</div>",,ospan,letter,duKawfN3m4WV03NqRxzyPr5p4lz1,html-keyboard-response,133,548375,0.0-43.0-4.0-2.0-1.0-1.0,,,,,,,,,,,,,,,65a5418464c0267277a80a1e,15:32:43,05/03/2024
958.0,,,ospan,symmetry,duKawfN3m4WV03NqRxzyPr5p4lz1,symmetry-judgement-task,134,551122,0.0-43.0-4.0-2.0-1.0-2.0,,,,,,,,,,1.0,1.0,,,,65a5418464c0267277a80a1e,15:32:43,05/03/2024
,"<div style=""font-size: 10rem; color: #0000FF"">S</div>",,ospan,letter,duKawfN3m4WV03NqRxzyPr5p4lz1,html-keyboard-response,135,552138,0.0-43.0-4.0-2.0-1.0-3.0,,,,,,,,,,,,,,,65a5418464c0267277a80a1e,15:32:43,05/03/2024
855.0,,,ospan,symmetry,duKawfN3m4WV03NqRxzyPr5p4lz1,symmetry-judgement-task,136,554773,0.0-43.0-4.0-2.0-1.0-4.0,,,,,,,,,,1.0,1.0,,,,65a5418464c0267277a80a1e,15:32:43,05/03/2024
,"<div style=""font-size: 10rem; color: #0000FF"">R</div>",,ospan,letter,duKawfN3m4WV03NqRxzyPr5p4lz1,html-keyboard-response,137,555788,0.0-43.0-4.0-2.0-1.0-5.0,,,,,,,,,,,,,,,65a5418464c0267277a80a1e,15:32:43,05/03/2024
2478.599999964237,"<div class = numbox><p style=""font-size: 2.4rem"">Please recall the letters you saw to the best of your ability. If you do not remember a particular letter, use the SKIP button.<br><b>(When you are ready to lock in your answer, press ENTER)</b></p><button id = button_1 class = ""square num-button"" onclick = ""recordClick(this)""><div class = content><div class = numbers>C</div></div></button><button id = button_2 class = ""square num-button"" onclick = ""recordClick(this)""><div class = content><div class = numbers>G</div></div></button><button id = button_3 class = ""square num-button"" onclick = ""recordClick(this)""><div class = content><div class = numbers>H</div></div></button><button id = button_4 class = ""square num-button"" onclick = ""recordClick(this)""><div class = content><div class = numbers>J</div></div></button><button id = button_5 class = ""square num-button"" onclick = ""recordClick(this)""><div class = content><div class = numbers>K</div></div></button><button id = button_6 class = ""square num-button"" onclick = ""recordClick(this)""><div class = content><div class = numbers>L</div></div></button><button id = button_7 class = ""square num-button"" onclick = ""recordClick(this)""><div class = content><div class = numbers>N</div></div></button><button id = button_8 class = ""square num-button"" onclick = ""recordClick(this)""><div class = content><div class = numbers>P</div></div></button><button id = button_9 class = ""square num-button"" onclick = ""recordClick(this)""><div class = content><div class = numbers>Q</div></div></button><button id = button_10 class = ""square num-button"" onclick = ""recordClick(this)""><div class = content><div class = numbers>R</div></div></button><button id = button_11 class = ""square num-button"" onclick = ""recordClick(this)""><div class = content><div class = numbers>S</div></div></button><button id = button_12 class = ""square num-button"" onclick = ""recordClick(this)""><div class = content><div class = numbers>Y</div></div></button><button class = clear_button id = ""ClearButton"" onclick = ""clearResponse()"">BACKSPACE</button><button class = blank_button id = ""BlankButton"" onclick = ""blankResponse()"">SKIP</button><p style=""font-size: 2.4rem""><u><b>Current Answer:</b></u></p><br><br><div id=echoed_txt style=""font-size: 5rem; color:blue;""><b></b></div></div>",enter,ospan,retrieval,duKawfN3m4WV03NqRxzyPr5p4lz1,html-keyboard-response,138,559025,0.0-43.0-4.0-2.0-2.0,15,11,10,3.0,"[""P"",""S"",""R""]","[""P"",""S"",""R""]",1.0,3.0,,,,,,,65a5418464c0267277a80a1e,15:32:43,05/03/2024
490.7000000476837,[''],0,ospan,feedback,duKawfN3m4WV03NqRxzyPr5p4lz1,html-button-response,139,560024,0.0-43.0-4.0-2.0-3.0,,,,,,,,,,,,100.0,0.0,,65a5418464c0267277a80a1e,15:32:43,05/03/2024
,"<p style=""font-size:75px;"">...</p>",,ospan,iti,duKawfN3m4WV03NqRxzyPr5p4lz1,html-keyboard-response,140,561027,0.0-43.0-5.0-0.0-0.0,,,,,,,,,,,,,,,65a5418464c0267277a80a1e,15:32:43,05/03/2024
905.0,,,ospan,symmetry,duKawfN3m4WV03NqRxzyPr5p4lz1,symmetry-judgement-task,141,562954,0.0-43.0-5.0-0.0-1.0-0.0,,,,,,,,,,1.0,1.0,,,,65a5418464c0267277a80a1e,15:32:43,05/03/2024
,"<div style=""font-size: 10rem; color: #0000FF"">Q</div>",,ospan,letter,duKawfN3m4WV03NqRxzyPr5p4lz1,html-keyboard-response,142,563966,0.0-43.0-5.0-0.0-1.0-1.0,,,,,,,,,,,,,,,65a5418464c0267277a80a1e,15:32:43,05/03/2024
714.0,,,ospan,symmetry,duKawfN3m4WV03NqRxzyPr5p4lz1,symmetry-judgement-task,143,566538,0.0-43.0-5.0-0.0-1.0-2.0,,,,,,,,,,1.0,1.0,,,,65a5418464c0267277a80a1e,15:32:43,05/03/2024
,"<div style=""font-size: 10rem; color: #0000FF"">J</div>",,ospan,letter,duKawfN3m4WV03NqRxzyPr5p4lz1,html-keyboard-response,144,567554,0.0-43.0-5.0-0.0-1.0-3.0,,,,,,,,,,,,,,,65a5418464c0267277a80a1e,15:32:43,05/03/2024
800.0,,,ospan,symmetry,duKawfN3m4WV03NqRxzyPr5p4lz1,symmetry-judgement-task,145,570205,0.0-43.0-5.0-0.0-1.0-4.0,,,,,,,,,,1.0,1.0,,,,65a5418464c0267277a80a1e,15:32:43,05/03/2024
,"<div style=""font-size: 10rem; color: #0000FF"">S</div>",,ospan,letter,duKawfN3m4WV03NqRxzyPr5p4lz1,html-keyboard-response,146,571207,0.0-43.0-5.0-0.0-1.0-5.0,,,,,,,,,,,,,,,65a5418464c0267277a80a1e,15:32:43,05/03/2024
722.0,,,ospan,symmetry,duKawfN3m4WV03NqRxzyPr5p4lz1,symmetry-judgement-task,147,573711,0.0-43.0-5.0-0.0-1.0-6.0,,,,,,,,,,1.0,1.0,,,,65a5418464c0267277a80a1e,15:32:43,05/03/2024
,"<div style=""font-size: 10rem; color: #0000FF"">N</div>",,ospan,letter,duKawfN3m4WV03NqRxzyPr5p4lz1,html-keyboard-response,148,574714,0.0-43.0-5.0-0.0-1.0-7.0,,,,,,,,,,,,,,,65a5418464c0267277a80a1e,15:32:43,05/03/2024
844.0,,,ospan,symmetry,duKawfN3m4WV03NqRxzyPr5p4lz1,symmetry-judgement-task,149,577415,0.0-43.0-5.0-0.0-1.0-8.0,,,,,,,,,,1.0,1.0,,,,65a5418464c0267277a80a1e,15:32:43,05/03/2024
,"<div style=""font-size: 10rem; color: #0000FF"">C</div>",,ospan,letter,duKawfN3m4WV03NqRxzyPr5p4lz1,html-keyboard-response,150,578428,0.0-43.0-5.0-0.0-1.0-9.0,,,,,,,,,,,,,,,65a5418464c0267277a80a1e,15:32:43,05/03/2024
721.0,,,ospan,symmetry,duKawfN3m4WV03NqRxzyPr5p4lz1,symmetry-judgement-task,151,581003,0.0-43.0-5.0-0.0-1.0-10.0,,,,,,,,,,1.0,1.0,,,,65a5418464c0267277a80a1e,15:32:43,05/03/2024
,"<div style=""font-size: 10rem; color: #0000FF"">K</div>",,ospan,letter,duKawfN3m4WV03NqRxzyPr5p4lz1,html-keyboard-response,152,582010,0.0-43.0-5.0-0.0-1.0-11.0,,,,,,,,,,,,,,,65a5418464c0267277a80a1e,15:32:43,05/03/2024
5386.599999964237,"<div class = numbox><p style=""font-size: 2.4rem"">Please recall the letters you saw to the best of your ability. If you do not remember a particular letter, use the SKIP button.<br><b>(When you are ready to lock in your answer, press ENTER)</b></p><button id = button_1 class = ""square num-button"" onclick = ""recordClick(this)""><div class = content><div class = numbers>C</div></div></button><button id = button_2 class = ""square num-button"" onclick = ""recordClick(this)""><div class = content><div class = numbers>G</div></div></button><button id = button_3 class = ""square num-button"" onclick = ""recordClick(this)""><div class = content><div class = numbers>H</div></div></button><button id = button_4 class = ""square num-button"" onclick = ""recordClick(this)""><div class = content><div class = numbers>J</div></div></button><button id = button_5 class = ""square num-button"" onclick = ""recordClick(this)""><div class = content><div class = numbers>K</div></div></button><button id = button_6 class = ""square num-button"" onclick = ""recordClick(this)""><div class = content><div class = numbers>L</div></div></button><button id = button_7 class = ""square num-button"" onclick = ""recordClick(this)""><div class = content><div class = numbers>N</div></div></button><button id = button_8 class = ""square num-button"" onclick = ""recordClick(this)""><div class = content><div class = numbers>P</div></div></button><button id = button_9 class = ""square num-button"" onclick = ""recordClick(this)""><div class = content><div class = numbers>Q</div></div></button><button id = button_10 class = ""square num-button"" onclick = ""recordClick(this)""><div class = content><div class = numbers>R</div></div></button><button id = button_11 class = ""square num-button"" onclick = ""recordClick(this)""><div class = content><div class = numbers>S</div></div></button><button id = button_12 class = ""square num-button"" onclick = ""recordClick(this)""><div class = content><div class = numbers>Y</div></div></button><button class = clear_button id = ""ClearButton"" onclick = ""clearResponse()"">BACKSPACE</button><button class = blank_button id = ""BlankButton"" onclick = ""blankResponse()"">SKIP</button><p style=""font-size: 2.4rem""><u><b>Current Answer:</b></u></p><br><br><div id=echoed_txt style=""font-size: 5rem; color:blue;""><b></b></div></div>",enter,ospan,retrieval,duKawfN3m4WV03NqRxzyPr5p4lz1,html-keyboard-response,153,588149,0.0-43.0-5.0-0.0-2.0,21,16,10,6.0,"[""Q"",""J"",""S"",""N"",""C""]","[""Q"",""J"",""S"",""N"",""C"",""K""]",0.0,5.0,,,,,,,65a5418464c0267277a80a1e,15:32:43,05/03/2024
458.39999997615814,[''],0,ospan,feedback,duKawfN3m4WV03NqRxzyPr5p4lz1,html-button-response,154,589120,0.0-43.0-5.0-0.0-3.0,,,,,,,,,,,,100.0,0.0,,65a5418464c0267277a80a1e,15:32:43,05/03/2024
,"<p style=""font-size:75px;"">...</p>",,ospan,iti,duKawfN3m4WV03NqRxzyPr5p4lz1,html-keyboard-response,155,590128,0.0-43.0-5.0-1.0-0.0,,,,,,,,,,,,,,,65a5418464c0267277a80a1e,15:32:43,05/03/2024
1057.0,,,ospan,symmetry,duKawfN3m4WV03NqRxzyPr5p4lz1,symmetry-judgement-task,156,592215,0.0-43.0-5.0-1.0-1.0-0.0,,,,,,,,,,1.0,1.0,,,,65a5418464c0267277a80a1e,15:32:43,05/03/2024
,"<div style=""font-size: 10rem; color: #0000FF"">P</div>",,ospan,letter,duKawfN3m4WV03NqRxzyPr5p4lz1,html-keyboard-response,157,593227,0.0-43.0-5.0-1.0-1.0-1.0,,,,,,,,,,,,,,,65a5418464c0267277a80a1e,15:32:43,05/03/2024
792.0,,,ospan,symmetry,duKawfN3m4WV03NqRxzyPr5p4lz1,symmetry-judgement-task,158,595862,0.0-43.0-5.0-1.0-1.0-2.0,,,,,,,,,,1.0,1.0,,,,65a5418464c0267277a80a1e,15:32:43,05/03/2024
,"<div style=""font-size: 10rem; color: #0000FF"">G</div>",,ospan,letter,duKawfN3m4WV03NqRxzyPr5p4lz1,html-keyboard-response,159,596871,0.0-43.0-5.0-1.0-1.0-3.0,,,,,,,,,,,,,,,65a5418464c0267277a80a1e,15:32:43,05/03/2024
1018.0,,,ospan,symmetry,duKawfN3m4WV03NqRxzyPr5p4lz1,symmetry-judgement-task,160,599740,0.0-43.0-5.0-1.0-1.0-4.0,,,,,,,,,,1.0,1.0,,,,65a5418464c0267277a80a1e,15:32:43,05/03/2024
,"<div style=""font-size: 10rem; color: #0000FF"">Q</div>",,ospan,letter,duKawfN3m4WV03NqRxzyPr5p4lz1,html-keyboard-response,161,600752,0.0-43.0-5.0-1.0-1.0-5.0,,,,,,,,,,,,,,,65a5418464c0267277a80a1e,15:32:43,05/03/2024
760.0,,,ospan,symmetry,duKawfN3m4WV03NqRxzyPr5p4lz1,symmetry-judgement-task,162,603300,0.0-43.0-5.0-1.0-1.0-6.0,,,,,,,,,,1.0,1.0,,,,65a5418464c0267277a80a1e,15:32:43,05/03/2024
,"<div style=""font-size: 10rem; color: #0000FF"">Y</div>",,ospan,letter,duKawfN3m4WV03NqRxzyPr5p4lz1,html-keyboard-response,163,604312,0.0-43.0-5.0-1.0-1.0-7.0,,,,,,,,,,,,,,,65a5418464c0267277a80a1e,15:32:43,05/03/2024
965.0,,,ospan,symmetry,duKawfN3m4WV03NqRxzyPr5p4lz1,symmetry-judgement-task,164,607058,0.0-43.0-5.0-1.0-1.0-8.0,,,,,,,,,,1.0,1.0,,,,65a5418464c0267277a80a1e,15:32:43,05/03/2024
,"<div style=""font-size: 10rem; color: #0000FF"">S</div>",,ospan,letter,duKawfN3m4WV03NqRxzyPr5p4lz1,html-keyboard-response,165,608069,0.0-43.0-5.0-1.0-1.0-9.0,,,,,,,,,,,,,,,65a5418464c0267277a80a1e,15:32:43,05/03/2024
791.0,,,ospan,symmetry,duKawfN3m4WV03NqRxzyPr5p4lz1,symmetry-judgement-task,166,610709,0.0-43.0-5.0-1.0-1.0-10.0,,,,,,,,,,1.0,1.0,,,,65a5418464c0267277a80a1e,15:32:43,05/03/2024
,"<div style=""font-size: 10rem; color: #0000FF"">N</div>",,ospan,letter,duKawfN3m4WV03NqRxzyPr5p4lz1,html-keyboard-response,167,611712,0.0-43.0-5.0-1.0-1.0-11.0,,,,,,,,,,,,,,,65a5418464c0267277a80a1e,15:32:43,05/03/2024
946.0,,,ospan,symmetry,duKawfN3m4WV03NqRxzyPr5p4lz1,symmetry-judgement-task,168,614510,0.0-43.0-5.0-1.0-1.0-12.0,,,,,,,,,,1.0,1.0,,,,65a5418464c0267277a80a1e,15:32:43,05/03/2024
,"<div style=""font-size: 10rem; color: #0000FF"">H</div>",,ospan,letter,duKawfN3m4WV03NqRxzyPr5p4lz1,html-keyboard-response,169,615518,0.0-43.0-5.0-1.0-1.0-13.0,,,,,,,,,,,,,,,65a5418464c0267277a80a1e,15:32:43,05/03/2024
5298.600000023842,"<div class = numbox><p style=""font-size: 2.4rem"">Please recall the letters you saw to the best of your ability. If you do not remember a particular letter, use the SKIP button.<br><b>(When you are ready to lock in your answer, press ENTER)</b></p><button id = button_1 class = ""square num-button"" onclick = ""recordClick(this)""><div class = content><div class = numbers>C</div></div></button><button id = button_2 class = ""square num-button"" onclick = ""recordClick(this)""><div class = content><div class = numbers>G</div></div></button><button id = button_3 class = ""square num-button"" onclick = ""recordClick(this)""><div class = content><div class = numbers>H</div></div></button><button id = button_4 class = ""square num-button"" onclick = ""recordClick(this)""><div class = content><div class = numbers>J</div></div></button><button id = button_5 class = ""square num-button"" onclick = ""recordClick(this)""><div class = content><div class = numbers>K</div></div></button><button id = button_6 class = ""square num-button"" onclick = ""recordClick(this)""><div class = content><div class = numbers>L</div></div></button><button id = button_7 class = ""square num-button"" onclick = ""recordClick(this)""><div class = content><div class = numbers>N</div></div></button><button id = button_8 class = ""square num-button"" onclick = ""recordClick(this)""><div class = content><div class = numbers>P</div></div></button><button id = button_9 class = ""square num-button"" onclick = ""recordClick(this)""><div class = content><div class = numbers>Q</div></div></button><button id = button_10 class = ""square num-button"" onclick = ""recordClick(this)""><div class = content><div class = numbers>R</div></div></button><button id = button_11 class = ""square num-button"" onclick = ""recordClick(this)""><div class = content><div class = numbers>S</div></div></button><button id = button_12 class = ""square num-button"" onclick = ""recordClick(this)""><div class = content><div class = numbers>Y</div></div></button><button class = clear_button id = ""ClearButton"" onclick = ""clearResponse()"">BACKSPACE</button><button class = blank_button id = ""BlankButton"" onclick = ""blankResponse()"">SKIP</button><p style=""font-size: 2.4rem""><u><b>Current Answer:</b></u></p><br><br><div id=echoed_txt style=""font-size: 5rem; color:blue;""><b></b></div></div>",enter,ospan,retrieval,duKawfN3m4WV03NqRxzyPr5p4lz1,html-keyboard-response,170,621568,0.0-43.0-5.0-1.0-2.0,28,21,10,7.0,"[""P"",""G"",""Q"",""Y"",""S"",""G""]","[""P"",""G"",""Q"",""Y"",""S"",""N"",""H""]",0.0,5.0,,,,,,,65a5418464c0267277a80a1e,15:32:43,05/03/2024
475.19999998807907,[''],0,ospan,feedback,duKawfN3m4WV03NqRxzyPr5p4lz1,html-button-response,171,622552,0.0-43.0-5.0-1.0-3.0,,,,,,,,,,,,100.0,0.0,,65a5418464c0267277a80a1e,15:32:43,05/03/2024
,"<p style=""font-size:75px;"">...</p>",,ospan,iti,duKawfN3m4WV03NqRxzyPr5p4lz1,html-keyboard-response,172,623557,0.0-43.0-6.0-0.0-0.0,,,,,,,,,,,,,,,65a5418464c0267277a80a1e,15:32:43,05/03/2024
994.0,,,ospan,symmetry,duKawfN3m4WV03NqRxzyPr5p4lz1,symmetry-judgement-task,173,625578,0.0-43.0-6.0-0.0-1.0-0.0,,,,,,,,,,1.0,1.0,,,,65a5418464c0267277a80a1e,15:32:43,05/03/2024
,"<div style=""font-size: 10rem; color: #0000FF"">C</div>",,ospan,letter,duKawfN3m4WV03NqRxzyPr5p4lz1,html-keyboard-response,174,626588,0.0-43.0-6.0-0.0-1.0-1.0,,,,,,,,,,,,,,,65a5418464c0267277a80a1e,15:32:43,05/03/2024
775.0,,,ospan,symmetry,duKawfN3m4WV03NqRxzyPr5p4lz1,symmetry-judgement-task,175,629208,0.0-43.0-6.0-0.0-1.0-2.0,,,,,,,,,,1.0,1.0,,,,65a5418464c0267277a80a1e,15:32:43,05/03/2024
,"<div style=""font-size: 10rem; color: #0000FF"">R</div>",,ospan,letter,duKawfN3m4WV03NqRxzyPr5p4lz1,html-keyboard-response,176,630210,0.0-43.0-6.0-0.0-1.0-3.0,,,,,,,,,,,,,,,65a5418464c0267277a80a1e,15:32:43,05/03/2024
959.0,,,ospan,symmetry,duKawfN3m4WV03NqRxzyPr5p4lz1,symmetry-judgement-task,177,633031,0.0-43.0-6.0-0.0-1.0-4.0,,,,,,,,,,1.0,1.0,,,,65a5418464c0267277a80a1e,15:32:43,05/03/2024
,"<div style=""font-size: 10rem; color: #0000FF"">K</div>",,ospan,letter,duKawfN3m4WV03NqRxzyPr5p4lz1,html-keyboard-response,178,634034,0.0-43.0-6.0-0.0-1.0-5.0,,,,,,,,,,,,,,,65a5418464c0267277a80a1e,15:32:43,05/03/2024
688.0,,,ospan,symmetry,duKawfN3m4WV03NqRxzyPr5p4lz1,symmetry-judgement-task,179,636564,0.0-43.0-6.0-0.0-1.0-6.0,,,,,,,,,,1.0,1.0,,,,65a5418464c0267277a80a1e,15:32:43,05/03/2024
,"<div style=""font-size: 10rem; color: #0000FF"">G</div>",,ospan,letter,duKawfN3m4WV03NqRxzyPr5p4lz1,html-keyboard-response,180,637568,0.0-43.0-6.0-0.0-1.0-7.0,,,,,,,,,,,,,,,65a5418464c0267277a80a1e,15:32:43,05/03/2024
839.0,,,ospan,symmetry,duKawfN3m4WV03NqRxzyPr5p4lz1,symmetry-judgement-task,181,640264,0.0-43.0-6.0-0.0-1.0-8.0,,,,,,,,,,1.0,1.0,,,,65a5418464c0267277a80a1e,15:32:43,05/03/2024
,"<div style=""font-size: 10rem; color: #0000FF"">L</div>",,ospan,letter,duKawfN3m4WV03NqRxzyPr5p4lz1,html-keyboard-response,182,641267,0.0-43.0-6.0-0.0-1.0-9.0,,,,,,,,,,,,,,,65a5418464c0267277a80a1e,15:32:43,05/03/2024
9671.599999964237,"<div class = numbox><p style=""font-size: 2.4rem"">Please recall the letters you saw to the best of your ability. If you do not remember a particular letter, use the SKIP button.<br><b>(When you are ready to lock in your answer, press ENTER)</b></p><button id = button_1 class = ""square num-button"" onclick = ""recordClick(this)""><div class = content><div class = numbers>C</div></div></button><button id = button_2 class = ""square num-button"" onclick = ""recordClick(this)""><div class = content><div class = numbers>G</div></div></button><button id = button_3 class = ""square num-button"" onclick = ""recordClick(this)""><div class = content><div class = numbers>H</div></div></button><button id = button_4 class = ""square num-button"" onclick = ""recordClick(this)""><div class = content><div class = numbers>J</div></div></button><button id = button_5 class = ""square num-button"" onclick = ""recordClick(this)""><div class = content><div class = numbers>K</div></div></button><button id = button_6 class = ""square num-button"" onclick = ""recordClick(this)""><div class = content><div class = numbers>L</div></div></button><button id = button_7 class = ""square num-button"" onclick = ""recordClick(this)""><div class = content><div class = numbers>N</div></div></button><button id = button_8 class = ""square num-button"" onclick = ""recordClick(this)""><div class = content><div class = numbers>P</div></div></button><button id = button_9 class = ""square num-button"" onclick = ""recordClick(this)""><div class = content><div class = numbers>Q</div></div></button><button id = button_10 class = ""square num-button"" onclick = ""recordClick(this)""><div class = content><div class = numbers>R</div></div></button><button id = button_11 class = ""square num-button"" onclick = ""recordClick(this)""><div class = content><div class = numbers>S</div></div></button><button id = button_12 class = ""square num-button"" onclick = ""recordClick(this)""><div class = content><div class = numbers>Y</div></div></button><button class = clear_button id = ""ClearButton"" onclick = ""clearResponse()"">BACKSPACE</button><button class = blank_button id = ""BlankButton"" onclick = ""blankResponse()"">SKIP</button><p style=""font-size: 2.4rem""><u><b>Current Answer:</b></u></p><br><br><div id=echoed_txt style=""font-size: 5rem; color:blue;""><b></b></div></div>",enter,ospan,retrieval,duKawfN3m4WV03NqRxzyPr5p4lz1,html-keyboard-response,183,651704,0.0-43.0-6.0-0.0-2.0,33,25,10,5.0,"[""C"",""R"",""K"",""G"",""H""]","[""C"",""R"",""K"",""G"",""L""]",0.0,4.0,,,,,,,65a5418464c0267277a80a1e,15:32:43,05/03/2024
502.30000001192093,[''],0,ospan,feedback,duKawfN3m4WV03NqRxzyPr5p4lz1,html-button-response,184,652709,0.0-43.0-6.0-0.0-3.0,,,,,,,,,,,,100.0,0.0,,65a5418464c0267277a80a1e,15:32:43,05/03/2024
,"<p style=""font-size:75px;"">...</p>",,ospan,iti,duKawfN3m4WV03NqRxzyPr5p4lz1,html-keyboard-response,185,653712,0.0-43.0-6.0-1.0-0.0,,,,,,,,,,,,,,,65a5418464c0267277a80a1e,15:32:43,05/03/2024
734.0,,,ospan,symmetry,duKawfN3m4WV03NqRxzyPr5p4lz1,symmetry-judgement-task,186,655480,0.0-43.0-6.0-1.0-1.0-0.0,,,,,,,,,,1.0,1.0,,,,65a5418464c0267277a80a1e,15:32:43,05/03/2024
,"<div style=""font-size: 10rem; color: #0000FF"">L</div>",,ospan,letter,duKawfN3m4WV03NqRxzyPr5p4lz1,html-keyboard-response,187,656482,0.0-43.0-6.0-1.0-1.0-1.0,,,,,,,,,,,,,,,65a5418464c0267277a80a1e,15:32:43,05/03/2024
745.0,,,ospan,symmetry,duKawfN3m4WV03NqRxzyPr5p4lz1,symmetry-judgement-task,188,659080,0.0-43.0-6.0-1.0-1.0-2.0,,,,,,,,,,1.0,1.0,,,,65a5418464c0267277a80a1e,15:32:43,05/03/2024
,"<div style=""font-size: 10rem; color: #0000FF"">K</div>",,ospan,letter,duKawfN3m4WV03NqRxzyPr5p4lz1,html-keyboard-response,189,660082,0.0-43.0-6.0-1.0-1.0-3.0,,,,,,,,,,,,,,,65a5418464c0267277a80a1e,15:32:43,05/03/2024
836.0,,,ospan,symmetry,duKawfN3m4WV03NqRxzyPr5p4lz1,symmetry-judgement-task,190,662769,0.0-43.0-6.0-1.0-1.0-4.0,,,,,,,,,,1.0,1.0,,,,65a5418464c0267277a80a1e,15:32:43,05/03/2024
,"<div style=""font-size: 10rem; color: #0000FF"">C</div>",,ospan,letter,duKawfN3m4WV03NqRxzyPr5p4lz1,html-keyboard-response,191,663782,0.0-43.0-6.0-1.0-1.0-5.0,,,,,,,,,,,,,,,65a5418464c0267277a80a1e,15:32:43,05/03/2024
932.0,,,ospan,symmetry,duKawfN3m4WV03NqRxzyPr5p4lz1,symmetry-judgement-task,192,666566,0.0-43.0-6.0-1.0-1.0-6.0,,,,,,,,,,1.0,1.0,,,,65a5418464c0267277a80a1e,15:32:43,05/03/2024
,"<div style=""font-size: 10rem; color: #0000FF"">Q</div>",,ospan,letter,duKawfN3m4WV03NqRxzyPr5p4lz1,html-keyboard-response,193,667576,0.0-43.0-6.0-1.0-1.0-7.0,,,,,,,,,,,,,,,65a5418464c0267277a80a1e,15:32:43,05/03/2024
1022.0,,,ospan,symmetry,duKawfN3m4WV03NqRxzyPr5p4lz1,symmetry-judgement-task,194,670398,0.0-43.0-6.0-1.0-1.0-8.0,,,,,,,,,,1.0,1.0,,,,65a5418464c0267277a80a1e,15:32:43,05/03/2024
,"<div style=""font-size: 10rem; color: #0000FF"">J</div>",,ospan,letter,duKawfN3m4WV03NqRxzyPr5p4lz1,html-keyboard-response,195,671411,0.0-43.0-6.0-1.0-1.0-9.0,,,,,,,,,,,,,,,65a5418464c0267277a80a1e,15:32:43,05/03/2024
1762.0,,,ospan,symmetry,duKawfN3m4WV03NqRxzyPr5p4lz1,symmetry-judgement-task,196,675043,0.0-43.0-6.0-1.0-1.0-10.0,,,,,,,,,,1.0,1.0,,,,65a5418464c0267277a80a1e,15:32:43,05/03/2024
,"<div style=""font-size: 10rem; color: #0000FF"">R</div>",,ospan,letter,duKawfN3m4WV03NqRxzyPr5p4lz1,html-keyboard-response,197,676056,0.0-43.0-6.0-1.0-1.0-11.0,,,,,,,,,,,,,,,65a5418464c0267277a80a1e,15:32:43,05/03/2024
1081.0,,,ospan,symmetry,duKawfN3m4WV03NqRxzyPr5p4lz1,symmetry-judgement-task,198,678988,0.0-43.0-6.0-1.0-1.0-12.0,,,,,,,,,,1.0,1.0,,,,65a5418464c0267277a80a1e,15:32:43,05/03/2024
,"<div style=""font-size: 10rem; color: #0000FF"">Y</div>",,ospan,letter,duKawfN3m4WV03NqRxzyPr5p4lz1,html-keyboard-response,199,679996,0.0-43.0-6.0-1.0-1.0-13.0,,,,,,,,,,,,,,,65a5418464c0267277a80a1e,15:32:43,05/03/2024
889.0,,,ospan,symmetry,duKawfN3m4WV03NqRxzyPr5p4lz1,symmetry-judgement-task,200,682756,0.0-43.0-6.0-1.0-1.0-14.0,,,,,,,,,,1.0,1.0,,,,65a5418464c0267277a80a1e,15:32:43,05/03/2024
,"<div style=""font-size: 10rem; color: #0000FF"">N</div>",,ospan,letter,duKawfN3m4WV03NqRxzyPr5p4lz1,html-keyboard-response,201,683759,0.0-43.0-6.0-1.0-1.0-15.0,,,,,,,,,,,,,,,65a5418464c0267277a80a1e,15:32:43,05/03/2024
7764.100000023842,"<div class = numbox><p style=""font-size: 2.4rem"">Please recall the letters you saw to the best of your ability. If you do not remember a particular letter, use the SKIP button.<br><b>(When you are ready to lock in your answer, press ENTER)</b></p><button id = button_1 class = ""square num-button"" onclick = ""recordClick(this)""><div class = content><div class = numbers>C</div></div></button><button id = button_2 class = ""square num-button"" onclick = ""recordClick(this)""><div class = content><div class = numbers>G</div></div></button><button id = button_3 class = ""square num-button"" onclick = ""recordClick(this)""><div class = content><div class = numbers>H</div></div></button><button id = button_4 class = ""square num-button"" onclick = ""recordClick(this)""><div class = content><div class = numbers>J</div></div></button><button id = button_5 class = ""square num-button"" onclick = ""recordClick(this)""><div class = content><div class = numbers>K</div></div></button><button id = button_6 class = ""square num-button"" onclick = ""recordClick(this)""><div class = content><div class = numbers>L</div></div></button><button id = button_7 class = ""square num-button"" onclick = ""recordClick(this)""><div class = content><div class = numbers>N</div></div></button><button id = button_8 class = ""square num-button"" onclick = ""recordClick(this)""><div class = content><div class = numbers>P</div></div></button><button id = button_9 class = ""square num-button"" onclick = ""recordClick(this)""><div class = content><div class = numbers>Q</div></div></button><button id = button_10 class = ""square num-button"" onclick = ""recordClick(this)""><div class = content><div class = numbers>R</div></div></button><button id = button_11 class = ""square num-button"" onclick = ""recordClick(this)""><div class = content><div class = numbers>S</div></div></button><button id = button_12 class = ""square num-button"" onclick = ""recordClick(this)""><div class = content><div class = numbers>Y</div></div></button><button class = clear_button id = ""ClearButton"" onclick = ""clearResponse()"">BACKSPACE</button><button class = blank_button id = ""BlankButton"" onclick = ""blankResponse()"">SKIP</button><p style=""font-size: 2.4rem""><u><b>Current Answer:</b></u></p><br><br><div id=echoed_txt style=""font-size: 5rem; color:blue;""><b></b></div></div>",enter,ospan,retrieval,duKawfN3m4WV03NqRxzyPr5p4lz1,html-keyboard-response,202,692275,0.0-43.0-6.0-1.0-2.0,41,26,10,8.0,"[""L"",""C"",""Q"",""J"",""H"",""S""]","[""L"",""K"",""C"",""Q"",""J"",""R"",""Y"",""N""]",0.0,1.0,,,,,,,65a5418464c0267277a80a1e,15:32:43,05/03/2024
666.6999999880791,[''],0,ospan,feedback,duKawfN3m4WV03NqRxzyPr5p4lz1,html-button-response,203,693446,0.0-43.0-6.0-1.0-3.0,,,,,,,,,,,,100.0,0.0,,65a5418464c0267277a80a1e,15:32:43,05/03/2024
16869.400000035763,,{'Q0': 'Quite challenging when the letters were above 5'},ospan,survey_ospan,duKawfN3m4WV03NqRxzyPr5p4lz1,lmdlab-survey-text,204,711078,0.0-43.0-7.0,,,,,,,,,,,,,,duKawfN3m4WV03NqRxzyPr5p4lz1,65a5418464c0267277a80a1e,15:32:43,05/03/2024
768.8999999761581,<p><p style='font-size: 3rem'>Great work!<br><br>This completes the symmetry and memory task.</p><br><br><br>,0,ospan,finish,duKawfN3m4WV03NqRxzyPr5p4lz1,html-button-response,205,711848,0.0-43.0-8.0,41,26,10,,,,,,,,,100.0,,,65a5418464c0267277a80a1e,15:32:43,05/03/2024
