rt,stimulus,response,exp_name,exp_stage,subjectID,trial_type,trial_index,time_elapsed,internal_node_id,ospan_shown,ospan_total,ospan_abs,length,resp_actual,resp_correct,full_correct,num_correct,feedback,accuracy,correct,math_acc,math_warning,databaseID,prolificID,start_time,date
2188.7000000476837,<div class = 'left_align' style='font-size: 3.25rem; line-height: 1.3;'><p class = 'center_align'><b>Welcome to the Symmetry and Memory Task</b><br><br><br><br></p>Press 'continue' to show the instructions.<br><br><br><br></div>,0,ospan,instruct,l3DjBvMKnegxFtUKcOY8BFnJwd22,html-button-response,54,537031,0.0-46.0-0.0-0.0-0.0,,,,,,,,,,,,,,,613b94b83b5cb4c72904f8b3,08:55:07,03/04/2024
15343.600000143051,"<div class = 'left_align' style='font-size: 3.25rem; line-height: 1.3;'><p class = 'center_align'><b>Symmetry and Memory Task</b><br><br></p>In this task, you will try to memorize letters you see on the screen<br>while you also view black and white grid pictures.<br><br>In the next few minutes, you will have some practice to get you familiar<br>with how the task works.<br><br>It may be difficult sometimes, but please do not worry about making mistakes!<br><br>We will begin by practicing the letter part of the task.<br><br><br><br></div>",0,ospan,instruct,l3DjBvMKnegxFtUKcOY8BFnJwd22,html-button-response,55,552629,0.0-46.0-0.0-0.0-1.0,,,,,,,,,,,,,,,613b94b83b5cb4c72904f8b3,08:55:07,03/04/2024
3368.0999999046326,"<div class = 'left_align' style='font-size: 3.25rem; line-height: 1.3;'>For this practice part, letters will appear on the screen one at a time.<br><br>Try to remember each letter in the order presented.<br><br>After some letters have been shown, you will see a response screen. Your<br>goal is to report the letters you saw <b>in order</b>. If you do not remember<br>a particular letter, you will have the option to leave it blank.<br><br><br><br></div>",0,ospan,instruct,l3DjBvMKnegxFtUKcOY8BFnJwd22,html-button-response,56,556262,0.0-46.0-0.0-0.0-2.0,,,,,,,,,,,,,,,613b94b83b5cb4c72904f8b3,08:55:07,03/04/2024
1485.0,"<div class = 'left_align' style='font-size: 3.25rem; line-height: 1.3;'>Remember, it is very important to get the letters in the same<br>order as you see them.<br><br>When you are ready, you may begin the letter practice.</div><br><br><br><br>",0,ospan,instruct,l3DjBvMKnegxFtUKcOY8BFnJwd22,html-button-response,57,558011,0.0-46.0-0.0-0.0-3.0,,,,,,,,,,,,,,,613b94b83b5cb4c72904f8b3,08:55:07,03/04/2024
,"<p style=""font-size:75px;"">...</p>",,ospan,iti,l3DjBvMKnegxFtUKcOY8BFnJwd22,html-keyboard-response,58,559280,0.0-46.0-0.0-1.0-0.0,,,,,,,,,,,,,,,613b94b83b5cb4c72904f8b3,08:55:07,03/04/2024
,"<div style=""font-size: 10rem; color: #0000FF"">C</div>",,ospan,letter,l3DjBvMKnegxFtUKcOY8BFnJwd22,html-keyboard-response,59,560296,0.0-46.0-0.0-1.0-1.0,,,,,,,,,,,,,,,613b94b83b5cb4c72904f8b3,08:55:07,03/04/2024
,"<div style=""font-size: 10rem; color: #0000FF"">Q</div>",,ospan,letter,l3DjBvMKnegxFtUKcOY8BFnJwd22,html-keyboard-response,60,562063,0.0-46.0-0.0-1.0-2.0,,,,,,,,,,,,,,,613b94b83b5cb4c72904f8b3,08:55:07,03/04/2024
5279.799999952316,"<div class = numbox><p style=""font-size: 2.4rem"">Please recall the letters you saw to the best of your ability. If you do not remember a particular letter, use the SKIP button.<br><b>(When you are ready to lock in your answer, press ENTER)</b></p><button id = button_1 class = ""square num-button"" onclick = ""recordClick(this)""><div class = content><div class = numbers>C</div></div></button><button id = button_2 class = ""square num-button"" onclick = ""recordClick(this)""><div class = content><div class = numbers>G</div></div></button><button id = button_3 class = ""square num-button"" onclick = ""recordClick(this)""><div class = content><div class = numbers>H</div></div></button><button id = button_4 class = ""square num-button"" onclick = ""recordClick(this)""><div class = content><div class = numbers>J</div></div></button><button id = button_5 class = ""square num-button"" onclick = ""recordClick(this)""><div class = content><div class = numbers>K</div></div></button><button id = button_6 class = ""square num-button"" onclick = ""recordClick(this)""><div class = content><div class = numbers>L</div></div></button><button id = button_7 class = ""square num-button"" onclick = ""recordClick(this)""><div class = content><div class = numbers>N</div></div></button><button id = button_8 class = ""square num-button"" onclick = ""recordClick(this)""><div class = content><div class = numbers>P</div></div></button><button id = button_9 class = ""square num-button"" onclick = ""recordClick(this)""><div class = content><div class = numbers>Q</div></div></button><button id = button_10 class = ""square num-button"" onclick = ""recordClick(this)""><div class = content><div class = numbers>R</div></div></button><button id = button_11 class = ""square num-button"" onclick = ""recordClick(this)""><div class = content><div class = numbers>S</div></div></button><button id = button_12 class = ""square num-button"" onclick = ""recordClick(this)""><div class = content><div class = numbers>Y</div></div></button><button class = clear_button id = ""ClearButton"" onclick = ""clearResponse()"">BACKSPACE</button><button class = blank_button id = ""BlankButton"" onclick = ""blankResponse()"">SKIP</button><p style=""font-size: 2.4rem""><u><b>Current Answer:</b></u></p><br><br><div id=echoed_txt style=""font-size: 5rem; color:blue;""><b></b></div></div>",enter,ospan,retrieval,l3DjBvMKnegxFtUKcOY8BFnJwd22,html-keyboard-response,61,568109,0.0-46.0-0.0-1.0-3.0,NA,NA,NA,2.0,"[""Q""]","[""C"",""Q""]",0.0,0.0,"['<font color=""red"">C</font>', '<font color=""red"">Q</font>']",,,,,,613b94b83b5cb4c72904f8b3,08:55:07,03/04/2024
2131.0,"['<p style=""font-size:44px"">Letters:<br><br><br><font color=""red"">C</font> <font color=""red"">Q</font></p><br><br>']",0,ospan,practice_feedback,l3DjBvMKnegxFtUKcOY8BFnJwd22,html-button-response,62,570746,0.0-46.0-0.0-1.0-4.0,,,,,,,,,,,,,,,613b94b83b5cb4c72904f8b3,08:55:07,03/04/2024
,"<p style=""font-size:75px;"">...</p>",,ospan,iti,l3DjBvMKnegxFtUKcOY8BFnJwd22,html-keyboard-response,63,571753,0.0-46.0-0.0-2.0-0.0,,,,,,,,,,,,,,,613b94b83b5cb4c72904f8b3,08:55:07,03/04/2024
,"<div style=""font-size: 10rem; color: #0000FF"">G</div>",,ospan,letter,l3DjBvMKnegxFtUKcOY8BFnJwd22,html-keyboard-response,64,572757,0.0-46.0-0.0-2.0-1.0,,,,,,,,,,,,,,,613b94b83b5cb4c72904f8b3,08:55:07,03/04/2024
,"<div style=""font-size: 10rem; color: #0000FF"">J</div>",,ospan,letter,l3DjBvMKnegxFtUKcOY8BFnJwd22,html-keyboard-response,65,574526,0.0-46.0-0.0-2.0-2.0,,,,,,,,,,,,,,,613b94b83b5cb4c72904f8b3,08:55:07,03/04/2024
,"<div style=""font-size: 10rem; color: #0000FF"">N</div>",,ospan,letter,l3DjBvMKnegxFtUKcOY8BFnJwd22,html-keyboard-response,66,576298,0.0-46.0-0.0-2.0-3.0,,,,,,,,,,,,,,,613b94b83b5cb4c72904f8b3,08:55:07,03/04/2024
6689.5,"<div class = numbox><p style=""font-size: 2.4rem"">Please recall the letters you saw to the best of your ability. If you do not remember a particular letter, use the SKIP button.<br><b>(When you are ready to lock in your answer, press ENTER)</b></p><button id = button_1 class = ""square num-button"" onclick = ""recordClick(this)""><div class = content><div class = numbers>C</div></div></button><button id = button_2 class = ""square num-button"" onclick = ""recordClick(this)""><div class = content><div class = numbers>G</div></div></button><button id = button_3 class = ""square num-button"" onclick = ""recordClick(this)""><div class = content><div class = numbers>H</div></div></button><button id = button_4 class = ""square num-button"" onclick = ""recordClick(this)""><div class = content><div class = numbers>J</div></div></button><button id = button_5 class = ""square num-button"" onclick = ""recordClick(this)""><div class = content><div class = numbers>K</div></div></button><button id = button_6 class = ""square num-button"" onclick = ""recordClick(this)""><div class = content><div class = numbers>L</div></div></button><button id = button_7 class = ""square num-button"" onclick = ""recordClick(this)""><div class = content><div class = numbers>N</div></div></button><button id = button_8 class = ""square num-button"" onclick = ""recordClick(this)""><div class = content><div class = numbers>P</div></div></button><button id = button_9 class = ""square num-button"" onclick = ""recordClick(this)""><div class = content><div class = numbers>Q</div></div></button><button id = button_10 class = ""square num-button"" onclick = ""recordClick(this)""><div class = content><div class = numbers>R</div></div></button><button id = button_11 class = ""square num-button"" onclick = ""recordClick(this)""><div class = content><div class = numbers>S</div></div></button><button id = button_12 class = ""square num-button"" onclick = ""recordClick(this)""><div class = content><div class = numbers>Y</div></div></button><button class = clear_button id = ""ClearButton"" onclick = ""clearResponse()"">BACKSPACE</button><button class = blank_button id = ""BlankButton"" onclick = ""blankResponse()"">SKIP</button><p style=""font-size: 2.4rem""><u><b>Current Answer:</b></u></p><br><br><div id=echoed_txt style=""font-size: 5rem; color:blue;""><b></b></div></div>",enter,ospan,retrieval,l3DjBvMKnegxFtUKcOY8BFnJwd22,html-keyboard-response,67,583754,0.0-46.0-0.0-2.0-4.0,NA,NA,NA,3.0,"[""Q"",""J"",""N""]","[""G"",""J"",""N""]",0.0,2.0,"['<font color=""red"">G</font>', '<font color=""green"">J</font>', '<font color=""green"">N</font>']",,,,,,613b94b83b5cb4c72904f8b3,08:55:07,03/04/2024
7881.299999952316,"['<p style=""font-size:44px"">Letters:<br><br><br><font color=""red"">G</font> <font color=""green"">J</font> <font color=""green"">N</font></p><br><br>']",0,ospan,practice_feedback,l3DjBvMKnegxFtUKcOY8BFnJwd22,html-button-response,68,592143,0.0-46.0-0.0-2.0-5.0,,,,,,,,,,,,,,,613b94b83b5cb4c72904f8b3,08:55:07,03/04/2024
10394.700000047684,"<div class = 'left_align' style='font-size: 3.25rem; line-height: 1.3;'>Now you will practice doing the <b>symmetry judgment part</b> of the experiment.<br><br>A black and white grid picture will appear on the screen and you have to judge if it is <br>symmetrical or asymetrical.<br><br>A picture is 'mirror' symmetrical if its left half is identical to the right half when flipped.<br>Here are examples of a symmetrical and an asymetrical picture:<br><br><center><img src='Stimuli/img/symm_instructions_extra.png' style='height:420px; width:900'></img></center><br>To judge symmetry, imagine you were to fold each picture down the middle, like a book –<br>would the left half match the right half when folded onto each other?<br><br></div><br>",0,ospan,instruct,l3DjBvMKnegxFtUKcOY8BFnJwd22,html-button-response,69,602540,0.0-46.0-1.0-0.0-0.0,,,,,,,,,,,,,,,613b94b83b5cb4c72904f8b3,08:55:07,03/04/2024
5843.900000095367,"<div class = 'left_align' style='font-size: 3.25rem; line-height: 1.3;'>When you have viewed the picture and determined whether it is symmetrical or not,<br>you can <b>click the Yes or No button</b> below to answer.<br><br>If you take longer than 15 seconds, it will continue automatically<br>and record the answer as an error.</div><br>",0,ospan,instruct,l3DjBvMKnegxFtUKcOY8BFnJwd22,html-button-response,70,608639,0.0-46.0-1.0-0.0-1.0,,,,,,,,,,,,,,,613b94b83b5cb4c72904f8b3,08:55:07,03/04/2024
3827.0,"<div class = 'left_align' style='font-size: 3.25rem; line-height: 1.3;'>It is <b>very</b> important that you make the symmetry judgment correctly.<br><br>It is also important that you try and judge the picture as quickly as you can.<br><br>When you are ready, click on the button below to try some practice problems.</div><br><br><br><br>",0,ospan,instruct,l3DjBvMKnegxFtUKcOY8BFnJwd22,html-button-response,71,612723,0.0-46.0-1.0-0.0-2.0,,,,,,,,,,,,,,,613b94b83b5cb4c72904f8b3,08:55:07,03/04/2024
1921.0,,,ospan,symmetry,l3DjBvMKnegxFtUKcOY8BFnJwd22,symmetry-judgement-task,72,615439,0.0-46.0-1.0-1.0-0.0,,,,,,,,,,1.0,1.0,,,,613b94b83b5cb4c72904f8b3,08:55:07,03/04/2024
,"<p style=""color:green; font-size: 35px"">Correct</p>",,ospan,feedback,l3DjBvMKnegxFtUKcOY8BFnJwd22,html-keyboard-response,73,616193,0.0-46.0-1.0-1.0-1.0,,,,,,,,,,,,,,,613b94b83b5cb4c72904f8b3,08:55:07,03/04/2024
1847.0,,,ospan,symmetry,l3DjBvMKnegxFtUKcOY8BFnJwd22,symmetry-judgement-task,74,620682,0.0-46.0-1.0-1.0-2.0,,,,,,,,,,1.0,1.0,,,,613b94b83b5cb4c72904f8b3,08:55:07,03/04/2024
,"<p style=""color:green; font-size: 35px"">Correct</p>",,ospan,feedback,l3DjBvMKnegxFtUKcOY8BFnJwd22,html-keyboard-response,75,621443,0.0-46.0-1.0-1.0-3.0,,,,,,,,,,,,,,,613b94b83b5cb4c72904f8b3,08:55:07,03/04/2024
1157.0,,,ospan,symmetry,l3DjBvMKnegxFtUKcOY8BFnJwd22,symmetry-judgement-task,76,625252,0.0-46.0-1.0-1.0-4.0,,,,,,,,,,1.0,1.0,,,,613b94b83b5cb4c72904f8b3,08:55:07,03/04/2024
,"<p style=""color:green; font-size: 35px"">Correct</p>",,ospan,feedback,l3DjBvMKnegxFtUKcOY8BFnJwd22,html-keyboard-response,77,626015,0.0-46.0-1.0-1.0-5.0,,,,,,,,,,,,,,,613b94b83b5cb4c72904f8b3,08:55:07,03/04/2024
1180.3999998569489,"<p style=""font-size: 3rem;"">You responded correctly on 3 of 3 symmetry judgments. Good job!</p><br><br>",0,ospan,practice,l3DjBvMKnegxFtUKcOY8BFnJwd22,html-button-response,78,629200,0.0-46.0-1.0-2.0,,,,,,,,,,,,,,,613b94b83b5cb4c72904f8b3,08:55:07,03/04/2024
2365.4000000953674,"<div class = 'left_align' style='font-size: 3.25rem; line-height: 1.3;'>Now you will practice doing both parts of the experiment at the same time.<br><br>In the next practice set, you will be given one grid picture to judge.<br>Then letter will appear on the screen. Try to remember the letter.<br><br>It is <b>very important</b> to make the symmetry judgment as quickly and accurately as possible.<br><br>Just as before, once you have make the symmetry judgment, you can click Yes or No.<br><b>Note that you will no longer see Correct or Incorrect feedback.</div><br><br><br><br>",0,ospan,instruct,l3DjBvMKnegxFtUKcOY8BFnJwd22,html-button-response,79,631832,0.0-46.0-2.0-0.0-0.0,,,,,,,,,,,,,,,613b94b83b5cb4c72904f8b3,08:55:07,03/04/2024
3260.5,"<div class = 'left_align' style='font-size: 3.25rem; line-height: 1.3;'>After the letter goes away, another grid picture will appear, and then<br>another letter.<br><br>At the end of each set of letters and grids, you will recall the letters to the best<br>of your ability. Remember, try your best to get the letters in the correct order.<br><br>It is important to <b>quickly</b> and <b>accurately</b> make the symmetry judgments.</div><br><br><br><br>",0,ospan,instruct,l3DjBvMKnegxFtUKcOY8BFnJwd22,html-button-response,80,635349,0.0-46.0-2.0-0.0-1.0,,,,,,,,,,,,,,,613b94b83b5cb4c72904f8b3,08:55:07,03/04/2024
5036.299999952316,"<div class = 'left_align' style='font-size: 3.25rem; line-height: 1.3;'>On the feedback screen, if you are not doing well at the symmetry judgments,<br>you will also see a warning in the middle. This indicates your percent <br>correct for the grid pictures for the entire experiment.<br><br>It is <b>very</b> important for you to keep accuracy at least at 85%: <u>We can only use<br>data where the participant was at least 85% accurate on the judgments.</u> Therefore,<br> please try your best to perform well on the symmetry judgments, <b>at the same time</b><br>doing your best to recall as many letters as possible.<br><br>Click the button to try some practice problems.</div><br><br><br><br>",0,ospan,instruct,l3DjBvMKnegxFtUKcOY8BFnJwd22,html-button-response,81,640638,0.0-46.0-2.0-0.0-2.0,,,,,,,,,,,,,,,613b94b83b5cb4c72904f8b3,08:55:07,03/04/2024
,"<p style=""font-size:75px;"">...</p>",,ospan,iti,l3DjBvMKnegxFtUKcOY8BFnJwd22,html-keyboard-response,82,641903,0.0-46.0-2.0-1.0-0.0,,,,,,,,,,,,,,,613b94b83b5cb4c72904f8b3,08:55:07,03/04/2024
2007.0,,,ospan,symmetry,l3DjBvMKnegxFtUKcOY8BFnJwd22,symmetry-judgement-task,83,644958,0.0-46.0-2.0-1.0-1.0-0.0,,,,,,,,,,1.0,1.0,,,,613b94b83b5cb4c72904f8b3,08:55:07,03/04/2024
,"<div style=""font-size: 10rem; color: #0000FF"">S</div>",,ospan,letter,l3DjBvMKnegxFtUKcOY8BFnJwd22,html-keyboard-response,84,645970,0.0-46.0-2.0-1.0-1.0-1.0,,,,,,,,,,,,,,,613b94b83b5cb4c72904f8b3,08:55:07,03/04/2024
1050.0,,,ospan,symmetry,l3DjBvMKnegxFtUKcOY8BFnJwd22,symmetry-judgement-task,85,648925,0.0-46.0-2.0-1.0-1.0-2.0,,,,,,,,,,1.0,1.0,,,,613b94b83b5cb4c72904f8b3,08:55:07,03/04/2024
,"<div style=""font-size: 10rem; color: #0000FF"">G</div>",,ospan,letter,l3DjBvMKnegxFtUKcOY8BFnJwd22,html-keyboard-response,86,649937,0.0-46.0-2.0-1.0-1.0-3.0,,,,,,,,,,,,,,,613b94b83b5cb4c72904f8b3,08:55:07,03/04/2024
1438.0,,,ospan,symmetry,l3DjBvMKnegxFtUKcOY8BFnJwd22,symmetry-judgement-task,87,653264,0.0-46.0-2.0-1.0-1.0-4.0,,,,,,,,,,1.0,1.0,,,,613b94b83b5cb4c72904f8b3,08:55:07,03/04/2024
,"<div style=""font-size: 10rem; color: #0000FF"">P</div>",,ospan,letter,l3DjBvMKnegxFtUKcOY8BFnJwd22,html-keyboard-response,88,654275,0.0-46.0-2.0-1.0-1.0-5.0,,,,,,,,,,,,,,,613b94b83b5cb4c72904f8b3,08:55:07,03/04/2024
4987.400000095367,"<div class = numbox><p style=""font-size: 2.4rem"">Please recall the letters you saw to the best of your ability. If you do not remember a particular letter, use the SKIP button.<br><b>(When you are ready to lock in your answer, press ENTER)</b></p><button id = button_1 class = ""square num-button"" onclick = ""recordClick(this)""><div class = content><div class = numbers>C</div></div></button><button id = button_2 class = ""square num-button"" onclick = ""recordClick(this)""><div class = content><div class = numbers>G</div></div></button><button id = button_3 class = ""square num-button"" onclick = ""recordClick(this)""><div class = content><div class = numbers>H</div></div></button><button id = button_4 class = ""square num-button"" onclick = ""recordClick(this)""><div class = content><div class = numbers>J</div></div></button><button id = button_5 class = ""square num-button"" onclick = ""recordClick(this)""><div class = content><div class = numbers>K</div></div></button><button id = button_6 class = ""square num-button"" onclick = ""recordClick(this)""><div class = content><div class = numbers>L</div></div></button><button id = button_7 class = ""square num-button"" onclick = ""recordClick(this)""><div class = content><div class = numbers>N</div></div></button><button id = button_8 class = ""square num-button"" onclick = ""recordClick(this)""><div class = content><div class = numbers>P</div></div></button><button id = button_9 class = ""square num-button"" onclick = ""recordClick(this)""><div class = content><div class = numbers>Q</div></div></button><button id = button_10 class = ""square num-button"" onclick = ""recordClick(this)""><div class = content><div class = numbers>R</div></div></button><button id = button_11 class = ""square num-button"" onclick = ""recordClick(this)""><div class = content><div class = numbers>S</div></div></button><button id = button_12 class = ""square num-button"" onclick = ""recordClick(this)""><div class = content><div class = numbers>Y</div></div></button><button class = clear_button id = ""ClearButton"" onclick = ""clearResponse()"">BACKSPACE</button><button class = blank_button id = ""BlankButton"" onclick = ""blankResponse()"">SKIP</button><p style=""font-size: 2.4rem""><u><b>Current Answer:</b></u></p><br><br><div id=echoed_txt style=""font-size: 5rem; color:blue;""><b></b></div></div>",enter,ospan,retrieval,l3DjBvMKnegxFtUKcOY8BFnJwd22,html-keyboard-response,89,660023,0.0-46.0-2.0-1.0-2.0-0.0,NA,NA,NA,3.0,"[""S"",""G"",""P""]","[""S"",""G"",""P""]",1.0,3.0,"['<font color=""green"">S</font>', '<font color=""green"">G</font>', '<font color=""green"">P</font>']",,,,,,613b94b83b5cb4c72904f8b3,08:55:07,03/04/2024
939.7999999523163,"['<p style=""font-size:44px"">Letters:<br><br><br><font color=""green"">S</font> <font color=""green"">G</font> <font color=""green"">P</font></p><br><br><p style=""font-size:30px"">Symmetry:<br><br><font color=""green"">100%</font></p><br><br>']",0,ospan,practice_feedback,l3DjBvMKnegxFtUKcOY8BFnJwd22,html-button-response,90,661474,0.0-46.0-2.0-1.0-2.0-1.0,,,,,,,,,,,,,,,613b94b83b5cb4c72904f8b3,08:55:07,03/04/2024
,"<p style=""font-size:75px;"">...</p>",,ospan,iti,l3DjBvMKnegxFtUKcOY8BFnJwd22,html-keyboard-response,91,662480,0.0-46.0-2.0-2.0-0.0,,,,,,,,,,,,,,,613b94b83b5cb4c72904f8b3,08:55:07,03/04/2024
1621.0,,,ospan,symmetry,l3DjBvMKnegxFtUKcOY8BFnJwd22,symmetry-judgement-task,92,665139,0.0-46.0-2.0-2.0-1.0-0.0,,,,,,,,,,1.0,1.0,,,,613b94b83b5cb4c72904f8b3,08:55:07,03/04/2024
,"<div style=""font-size: 10rem; color: #0000FF"">S</div>",,ospan,letter,l3DjBvMKnegxFtUKcOY8BFnJwd22,html-keyboard-response,93,666157,0.0-46.0-2.0-2.0-1.0-1.0,,,,,,,,,,,,,,,613b94b83b5cb4c72904f8b3,08:55:07,03/04/2024
1123.0,,,ospan,symmetry,l3DjBvMKnegxFtUKcOY8BFnJwd22,symmetry-judgement-task,94,669199,0.0-46.0-2.0-2.0-1.0-2.0,,,,,,,,,,1.0,1.0,,,,613b94b83b5cb4c72904f8b3,08:55:07,03/04/2024
,"<div style=""font-size: 10rem; color: #0000FF"">K</div>",,ospan,letter,l3DjBvMKnegxFtUKcOY8BFnJwd22,html-keyboard-response,95,670211,0.0-46.0-2.0-2.0-1.0-3.0,,,,,,,,,,,,,,,613b94b83b5cb4c72904f8b3,08:55:07,03/04/2024
1024.0,,,ospan,symmetry,l3DjBvMKnegxFtUKcOY8BFnJwd22,symmetry-judgement-task,96,673127,0.0-46.0-2.0-2.0-1.0-4.0,,,,,,,,,,1.0,1.0,,,,613b94b83b5cb4c72904f8b3,08:55:07,03/04/2024
,"<div style=""font-size: 10rem; color: #0000FF"">Q</div>",,ospan,letter,l3DjBvMKnegxFtUKcOY8BFnJwd22,html-keyboard-response,97,674134,0.0-46.0-2.0-2.0-1.0-5.0,,,,,,,,,,,,,,,613b94b83b5cb4c72904f8b3,08:55:07,03/04/2024
3988.100000143051,"<div class = numbox><p style=""font-size: 2.4rem"">Please recall the letters you saw to the best of your ability. If you do not remember a particular letter, use the SKIP button.<br><b>(When you are ready to lock in your answer, press ENTER)</b></p><button id = button_1 class = ""square num-button"" onclick = ""recordClick(this)""><div class = content><div class = numbers>C</div></div></button><button id = button_2 class = ""square num-button"" onclick = ""recordClick(this)""><div class = content><div class = numbers>G</div></div></button><button id = button_3 class = ""square num-button"" onclick = ""recordClick(this)""><div class = content><div class = numbers>H</div></div></button><button id = button_4 class = ""square num-button"" onclick = ""recordClick(this)""><div class = content><div class = numbers>J</div></div></button><button id = button_5 class = ""square num-button"" onclick = ""recordClick(this)""><div class = content><div class = numbers>K</div></div></button><button id = button_6 class = ""square num-button"" onclick = ""recordClick(this)""><div class = content><div class = numbers>L</div></div></button><button id = button_7 class = ""square num-button"" onclick = ""recordClick(this)""><div class = content><div class = numbers>N</div></div></button><button id = button_8 class = ""square num-button"" onclick = ""recordClick(this)""><div class = content><div class = numbers>P</div></div></button><button id = button_9 class = ""square num-button"" onclick = ""recordClick(this)""><div class = content><div class = numbers>Q</div></div></button><button id = button_10 class = ""square num-button"" onclick = ""recordClick(this)""><div class = content><div class = numbers>R</div></div></button><button id = button_11 class = ""square num-button"" onclick = ""recordClick(this)""><div class = content><div class = numbers>S</div></div></button><button id = button_12 class = ""square num-button"" onclick = ""recordClick(this)""><div class = content><div class = numbers>Y</div></div></button><button class = clear_button id = ""ClearButton"" onclick = ""clearResponse()"">BACKSPACE</button><button class = blank_button id = ""BlankButton"" onclick = ""blankResponse()"">SKIP</button><p style=""font-size: 2.4rem""><u><b>Current Answer:</b></u></p><br><br><div id=echoed_txt style=""font-size: 5rem; color:blue;""><b></b></div></div>",enter,ospan,retrieval,l3DjBvMKnegxFtUKcOY8BFnJwd22,html-keyboard-response,98,678875,0.0-46.0-2.0-2.0-2.0-0.0,NA,NA,NA,3.0,"[""S"",""K"",""K"",""Q""]","[""S"",""K"",""Q""]",0.0,2.0,"['<font color=""green"">S</font>', '<font color=""green"">K</font>', '<font color=""red"">Q</font>']",,,,,,613b94b83b5cb4c72904f8b3,08:55:07,03/04/2024
2158.600000143051,"['<p style=""font-size:44px"">Letters:<br><br><br><font color=""green"">S</font> <font color=""green"">K</font> <font color=""red"">Q</font></p><br><br><p style=""font-size:30px"">Symmetry:<br><br><font color=""green"">100%</font></p><br><br>']",0,ospan,practice_feedback,l3DjBvMKnegxFtUKcOY8BFnJwd22,html-button-response,99,681552,0.0-46.0-2.0-2.0-2.0-1.0,,,,,,,,,,,,,,,613b94b83b5cb4c72904f8b3,08:55:07,03/04/2024
24719.900000095367,"<div class = 'left_align' style='font-size: 3rem; line-height: 1.3;'><b>Great work! That is the end of practice.</b><br><br>The real trials will look just like the practice trials you just completed.<br><br><u>Here, you will not see feedback</u>. First, you will see an grid picture to judge,<br>then a letter to remember. When the recall screen appears, report the letters in the<br>order presented. If you forget a letter, remember to use the <b>blank</b> button to move to the<br>next letter. Some of the sets will have more symmetry grids and letters than others.<br><br>It is important that you do your best on both the symmetry judgments and the letter recall<br>parts of the experiment. For for the symmetry judgments, try to work as <b>quickly</b> and <br>as <b>accurately</b> as possible. Remember to keep your symmetry accuracy at 85% or above.<br><br><b>For the letters, do NOT use any external aid (e.g., writing on paper, electronic device).</b><br><br>It is <u>very important</u> to our experiment to have a <b>true</b> view of your real performance.<br><br>Do not worry if you miss some when it gets hard! This task is meant to be very challenging!<br><br>Click the button to begin.</div><br><br><br><br>",0,ospan,starting_real_here,l3DjBvMKnegxFtUKcOY8BFnJwd22,html-button-response,100,706277,0.0-46.0-2.0-3.0,,,,,,,,,,,,,,,613b94b83b5cb4c72904f8b3,08:55:07,03/04/2024
,"<p style=""font-size:75px;"">...</p>",,ospan,iti,l3DjBvMKnegxFtUKcOY8BFnJwd22,html-keyboard-response,101,707537,0.0-46.0-3.0-0.0-0.0,,,,,,,,,,,,,,,613b94b83b5cb4c72904f8b3,08:55:07,03/04/2024
1680.0,,,ospan,symmetry,l3DjBvMKnegxFtUKcOY8BFnJwd22,symmetry-judgement-task,102,710259,0.0-46.0-3.0-0.0-1.0-0.0,,,,,,,,,,1.0,1.0,,,,613b94b83b5cb4c72904f8b3,08:55:07,03/04/2024
,"<div style=""font-size: 10rem; color: #0000FF"">J</div>",,ospan,letter,l3DjBvMKnegxFtUKcOY8BFnJwd22,html-keyboard-response,103,711268,0.0-46.0-3.0-0.0-1.0-1.0,,,,,,,,,,,,,,,613b94b83b5cb4c72904f8b3,08:55:07,03/04/2024
1269.0,,,ospan,symmetry,l3DjBvMKnegxFtUKcOY8BFnJwd22,symmetry-judgement-task,104,714346,0.0-46.0-3.0-0.0-1.0-2.0,,,,,,,,,,1.0,1.0,,,,613b94b83b5cb4c72904f8b3,08:55:07,03/04/2024
,"<div style=""font-size: 10rem; color: #0000FF"">H</div>",,ospan,letter,l3DjBvMKnegxFtUKcOY8BFnJwd22,html-keyboard-response,105,715362,0.0-46.0-3.0-0.0-1.0-3.0,,,,,,,,,,,,,,,613b94b83b5cb4c72904f8b3,08:55:07,03/04/2024
1285.0,,,ospan,symmetry,l3DjBvMKnegxFtUKcOY8BFnJwd22,symmetry-judgement-task,106,718536,0.0-46.0-3.0-0.0-1.0-4.0,,,,,,,,,,1.0,1.0,,,,613b94b83b5cb4c72904f8b3,08:55:07,03/04/2024
,"<div style=""font-size: 10rem; color: #0000FF"">R</div>",,ospan,letter,l3DjBvMKnegxFtUKcOY8BFnJwd22,html-keyboard-response,107,719540,0.0-46.0-3.0-0.0-1.0-5.0,,,,,,,,,,,,,,,613b94b83b5cb4c72904f8b3,08:55:07,03/04/2024
3258.800000190735,"<div class = numbox><p style=""font-size: 2.4rem"">Please recall the letters you saw to the best of your ability. If you do not remember a particular letter, use the SKIP button.<br><b>(When you are ready to lock in your answer, press ENTER)</b></p><button id = button_1 class = ""square num-button"" onclick = ""recordClick(this)""><div class = content><div class = numbers>C</div></div></button><button id = button_2 class = ""square num-button"" onclick = ""recordClick(this)""><div class = content><div class = numbers>G</div></div></button><button id = button_3 class = ""square num-button"" onclick = ""recordClick(this)""><div class = content><div class = numbers>H</div></div></button><button id = button_4 class = ""square num-button"" onclick = ""recordClick(this)""><div class = content><div class = numbers>J</div></div></button><button id = button_5 class = ""square num-button"" onclick = ""recordClick(this)""><div class = content><div class = numbers>K</div></div></button><button id = button_6 class = ""square num-button"" onclick = ""recordClick(this)""><div class = content><div class = numbers>L</div></div></button><button id = button_7 class = ""square num-button"" onclick = ""recordClick(this)""><div class = content><div class = numbers>N</div></div></button><button id = button_8 class = ""square num-button"" onclick = ""recordClick(this)""><div class = content><div class = numbers>P</div></div></button><button id = button_9 class = ""square num-button"" onclick = ""recordClick(this)""><div class = content><div class = numbers>Q</div></div></button><button id = button_10 class = ""square num-button"" onclick = ""recordClick(this)""><div class = content><div class = numbers>R</div></div></button><button id = button_11 class = ""square num-button"" onclick = ""recordClick(this)""><div class = content><div class = numbers>S</div></div></button><button id = button_12 class = ""square num-button"" onclick = ""recordClick(this)""><div class = content><div class = numbers>Y</div></div></button><button class = clear_button id = ""ClearButton"" onclick = ""clearResponse()"">BACKSPACE</button><button class = blank_button id = ""BlankButton"" onclick = ""blankResponse()"">SKIP</button><p style=""font-size: 2.4rem""><u><b>Current Answer:</b></u></p><br><br><div id=echoed_txt style=""font-size: 5rem; color:blue;""><b></b></div></div>",enter,ospan,retrieval,l3DjBvMKnegxFtUKcOY8BFnJwd22,html-keyboard-response,108,723553,0.0-46.0-3.0-0.0-2.0,3,3,3,3.0,"[""J"",""H"",""R""]","[""J"",""H"",""R""]",1.0,3.0,,,,,,,613b94b83b5cb4c72904f8b3,08:55:07,03/04/2024
1032.5999999046326,[''],0,ospan,feedback,l3DjBvMKnegxFtUKcOY8BFnJwd22,html-button-response,109,725091,0.0-46.0-3.0-0.0-3.0,,,,,,,,,,,,100.0,0.0,,613b94b83b5cb4c72904f8b3,08:55:07,03/04/2024
,"<p style=""font-size:75px;"">...</p>",,ospan,iti,l3DjBvMKnegxFtUKcOY8BFnJwd22,html-keyboard-response,110,726100,0.0-46.0-4.0-0.0-0.0,,,,,,,,,,,,,,,613b94b83b5cb4c72904f8b3,08:55:07,03/04/2024
1289.0,,,ospan,symmetry,l3DjBvMKnegxFtUKcOY8BFnJwd22,symmetry-judgement-task,111,728519,0.0-46.0-4.0-0.0-1.0-0.0,,,,,,,,,,1.0,1.0,,,,613b94b83b5cb4c72904f8b3,08:55:07,03/04/2024
,"<div style=""font-size: 10rem; color: #0000FF"">R</div>",,ospan,letter,l3DjBvMKnegxFtUKcOY8BFnJwd22,html-keyboard-response,112,729532,0.0-46.0-4.0-0.0-1.0-1.0,,,,,,,,,,,,,,,613b94b83b5cb4c72904f8b3,08:55:07,03/04/2024
959.0,,,ospan,symmetry,l3DjBvMKnegxFtUKcOY8BFnJwd22,symmetry-judgement-task,113,732420,0.0-46.0-4.0-0.0-1.0-2.0,,,,,,,,,,1.0,1.0,,,,613b94b83b5cb4c72904f8b3,08:55:07,03/04/2024
,"<div style=""font-size: 10rem; color: #0000FF"">S</div>",,ospan,letter,l3DjBvMKnegxFtUKcOY8BFnJwd22,html-keyboard-response,114,733432,0.0-46.0-4.0-0.0-1.0-3.0,,,,,,,,,,,,,,,613b94b83b5cb4c72904f8b3,08:55:07,03/04/2024
1062.0,,,ospan,symmetry,l3DjBvMKnegxFtUKcOY8BFnJwd22,symmetry-judgement-task,115,736384,0.0-46.0-4.0-0.0-1.0-4.0,,,,,,,,,,1.0,1.0,,,,613b94b83b5cb4c72904f8b3,08:55:07,03/04/2024
,"<div style=""font-size: 10rem; color: #0000FF"">Y</div>",,ospan,letter,l3DjBvMKnegxFtUKcOY8BFnJwd22,html-keyboard-response,116,737396,0.0-46.0-4.0-0.0-1.0-5.0,,,,,,,,,,,,,,,613b94b83b5cb4c72904f8b3,08:55:07,03/04/2024
1085.0,,,ospan,symmetry,l3DjBvMKnegxFtUKcOY8BFnJwd22,symmetry-judgement-task,117,740375,0.0-46.0-4.0-0.0-1.0-6.0,,,,,,,,,,1.0,1.0,,,,613b94b83b5cb4c72904f8b3,08:55:07,03/04/2024
,"<div style=""font-size: 10rem; color: #0000FF"">N</div>",,ospan,letter,l3DjBvMKnegxFtUKcOY8BFnJwd22,html-keyboard-response,118,741391,0.0-46.0-4.0-0.0-1.0-7.0,,,,,,,,,,,,,,,613b94b83b5cb4c72904f8b3,08:55:07,03/04/2024
5744.200000047684,"<div class = numbox><p style=""font-size: 2.4rem"">Please recall the letters you saw to the best of your ability. If you do not remember a particular letter, use the SKIP button.<br><b>(When you are ready to lock in your answer, press ENTER)</b></p><button id = button_1 class = ""square num-button"" onclick = ""recordClick(this)""><div class = content><div class = numbers>C</div></div></button><button id = button_2 class = ""square num-button"" onclick = ""recordClick(this)""><div class = content><div class = numbers>G</div></div></button><button id = button_3 class = ""square num-button"" onclick = ""recordClick(this)""><div class = content><div class = numbers>H</div></div></button><button id = button_4 class = ""square num-button"" onclick = ""recordClick(this)""><div class = content><div class = numbers>J</div></div></button><button id = button_5 class = ""square num-button"" onclick = ""recordClick(this)""><div class = content><div class = numbers>K</div></div></button><button id = button_6 class = ""square num-button"" onclick = ""recordClick(this)""><div class = content><div class = numbers>L</div></div></button><button id = button_7 class = ""square num-button"" onclick = ""recordClick(this)""><div class = content><div class = numbers>N</div></div></button><button id = button_8 class = ""square num-button"" onclick = ""recordClick(this)""><div class = content><div class = numbers>P</div></div></button><button id = button_9 class = ""square num-button"" onclick = ""recordClick(this)""><div class = content><div class = numbers>Q</div></div></button><button id = button_10 class = ""square num-button"" onclick = ""recordClick(this)""><div class = content><div class = numbers>R</div></div></button><button id = button_11 class = ""square num-button"" onclick = ""recordClick(this)""><div class = content><div class = numbers>S</div></div></button><button id = button_12 class = ""square num-button"" onclick = ""recordClick(this)""><div class = content><div class = numbers>Y</div></div></button><button class = clear_button id = ""ClearButton"" onclick = ""clearResponse()"">BACKSPACE</button><button class = blank_button id = ""BlankButton"" onclick = ""blankResponse()"">SKIP</button><p style=""font-size: 2.4rem""><u><b>Current Answer:</b></u></p><br><br><div id=echoed_txt style=""font-size: 5rem; color:blue;""><b></b></div></div>",enter,ospan,retrieval,l3DjBvMKnegxFtUKcOY8BFnJwd22,html-keyboard-response,119,747893,0.0-46.0-4.0-0.0-2.0,7,7,7,4.0,"[""R"",""S"",""Y"",""N""]","[""R"",""S"",""Y"",""N""]",1.0,4.0,,,,,,,613b94b83b5cb4c72904f8b3,08:55:07,03/04/2024
1058.0,[''],0,ospan,feedback,l3DjBvMKnegxFtUKcOY8BFnJwd22,html-button-response,120,749463,0.0-46.0-4.0-0.0-3.0,,,,,,,,,,,,100.0,0.0,,613b94b83b5cb4c72904f8b3,08:55:07,03/04/2024
,"<p style=""font-size:75px;"">...</p>",,ospan,iti,l3DjBvMKnegxFtUKcOY8BFnJwd22,html-keyboard-response,121,750469,0.0-46.0-4.0-1.0-0.0,,,,,,,,,,,,,,,613b94b83b5cb4c72904f8b3,08:55:07,03/04/2024
1202.0,,,ospan,symmetry,l3DjBvMKnegxFtUKcOY8BFnJwd22,symmetry-judgement-task,122,752721,0.0-46.0-4.0-1.0-1.0-0.0,,,,,,,,,,1.0,1.0,,,,613b94b83b5cb4c72904f8b3,08:55:07,03/04/2024
,"<div style=""font-size: 10rem; color: #0000FF"">Q</div>",,ospan,letter,l3DjBvMKnegxFtUKcOY8BFnJwd22,html-keyboard-response,123,753732,0.0-46.0-4.0-1.0-1.0-1.0,,,,,,,,,,,,,,,613b94b83b5cb4c72904f8b3,08:55:07,03/04/2024
1040.0,,,ospan,symmetry,l3DjBvMKnegxFtUKcOY8BFnJwd22,symmetry-judgement-task,124,756678,0.0-46.0-4.0-1.0-1.0-2.0,,,,,,,,,,1.0,1.0,,,,613b94b83b5cb4c72904f8b3,08:55:07,03/04/2024
,"<div style=""font-size: 10rem; color: #0000FF"">K</div>",,ospan,letter,l3DjBvMKnegxFtUKcOY8BFnJwd22,html-keyboard-response,125,757690,0.0-46.0-4.0-1.0-1.0-3.0,,,,,,,,,,,,,,,613b94b83b5cb4c72904f8b3,08:55:07,03/04/2024
1131.0,,,ospan,symmetry,l3DjBvMKnegxFtUKcOY8BFnJwd22,symmetry-judgement-task,126,760698,0.0-46.0-4.0-1.0-1.0-4.0,,,,,,,,,,1.0,1.0,,,,613b94b83b5cb4c72904f8b3,08:55:07,03/04/2024
,"<div style=""font-size: 10rem; color: #0000FF"">S</div>",,ospan,letter,l3DjBvMKnegxFtUKcOY8BFnJwd22,html-keyboard-response,127,761703,0.0-46.0-4.0-1.0-1.0-5.0,,,,,,,,,,,,,,,613b94b83b5cb4c72904f8b3,08:55:07,03/04/2024
818.0,,,ospan,symmetry,l3DjBvMKnegxFtUKcOY8BFnJwd22,symmetry-judgement-task,128,764411,0.0-46.0-4.0-1.0-1.0-6.0,,,,,,,,,,1.0,1.0,,,,613b94b83b5cb4c72904f8b3,08:55:07,03/04/2024
,"<div style=""font-size: 10rem; color: #0000FF"">G</div>",,ospan,letter,l3DjBvMKnegxFtUKcOY8BFnJwd22,html-keyboard-response,129,765426,0.0-46.0-4.0-1.0-1.0-7.0,,,,,,,,,,,,,,,613b94b83b5cb4c72904f8b3,08:55:07,03/04/2024
1091.0,,,ospan,symmetry,l3DjBvMKnegxFtUKcOY8BFnJwd22,symmetry-judgement-task,130,768391,0.0-46.0-4.0-1.0-1.0-8.0,,,,,,,,,,1.0,1.0,,,,613b94b83b5cb4c72904f8b3,08:55:07,03/04/2024
,"<div style=""font-size: 10rem; color: #0000FF"">Y</div>",,ospan,letter,l3DjBvMKnegxFtUKcOY8BFnJwd22,html-keyboard-response,131,769407,0.0-46.0-4.0-1.0-1.0-9.0,,,,,,,,,,,,,,,613b94b83b5cb4c72904f8b3,08:55:07,03/04/2024
6673.599999904633,"<div class = numbox><p style=""font-size: 2.4rem"">Please recall the letters you saw to the best of your ability. If you do not remember a particular letter, use the SKIP button.<br><b>(When you are ready to lock in your answer, press ENTER)</b></p><button id = button_1 class = ""square num-button"" onclick = ""recordClick(this)""><div class = content><div class = numbers>C</div></div></button><button id = button_2 class = ""square num-button"" onclick = ""recordClick(this)""><div class = content><div class = numbers>G</div></div></button><button id = button_3 class = ""square num-button"" onclick = ""recordClick(this)""><div class = content><div class = numbers>H</div></div></button><button id = button_4 class = ""square num-button"" onclick = ""recordClick(this)""><div class = content><div class = numbers>J</div></div></button><button id = button_5 class = ""square num-button"" onclick = ""recordClick(this)""><div class = content><div class = numbers>K</div></div></button><button id = button_6 class = ""square num-button"" onclick = ""recordClick(this)""><div class = content><div class = numbers>L</div></div></button><button id = button_7 class = ""square num-button"" onclick = ""recordClick(this)""><div class = content><div class = numbers>N</div></div></button><button id = button_8 class = ""square num-button"" onclick = ""recordClick(this)""><div class = content><div class = numbers>P</div></div></button><button id = button_9 class = ""square num-button"" onclick = ""recordClick(this)""><div class = content><div class = numbers>Q</div></div></button><button id = button_10 class = ""square num-button"" onclick = ""recordClick(this)""><div class = content><div class = numbers>R</div></div></button><button id = button_11 class = ""square num-button"" onclick = ""recordClick(this)""><div class = content><div class = numbers>S</div></div></button><button id = button_12 class = ""square num-button"" onclick = ""recordClick(this)""><div class = content><div class = numbers>Y</div></div></button><button class = clear_button id = ""ClearButton"" onclick = ""clearResponse()"">BACKSPACE</button><button class = blank_button id = ""BlankButton"" onclick = ""blankResponse()"">SKIP</button><p style=""font-size: 2.4rem""><u><b>Current Answer:</b></u></p><br><br><div id=echoed_txt style=""font-size: 5rem; color:blue;""><b></b></div></div>",enter,ospan,retrieval,l3DjBvMKnegxFtUKcOY8BFnJwd22,html-keyboard-response,132,776844,0.0-46.0-4.0-1.0-2.0,12,12,12,5.0,"[""Q"",""K"",""S"",""G"",""Y""]","[""Q"",""K"",""S"",""G"",""Y""]",1.0,5.0,,,,,,,613b94b83b5cb4c72904f8b3,08:55:07,03/04/2024
1099.2000000476837,[''],0,ospan,feedback,l3DjBvMKnegxFtUKcOY8BFnJwd22,html-button-response,133,778456,0.0-46.0-4.0-1.0-3.0,,,,,,,,,,,,100.0,0.0,,613b94b83b5cb4c72904f8b3,08:55:07,03/04/2024
,"<p style=""font-size:75px;"">...</p>",,ospan,iti,l3DjBvMKnegxFtUKcOY8BFnJwd22,html-keyboard-response,134,779472,0.0-46.0-4.0-2.0-0.0,,,,,,,,,,,,,,,613b94b83b5cb4c72904f8b3,08:55:07,03/04/2024
1435.0,,,ospan,symmetry,l3DjBvMKnegxFtUKcOY8BFnJwd22,symmetry-judgement-task,135,781962,0.0-46.0-4.0-2.0-1.0-0.0,,,,,,,,,,1.0,1.0,,,,613b94b83b5cb4c72904f8b3,08:55:07,03/04/2024
,"<div style=""font-size: 10rem; color: #0000FF"">N</div>",,ospan,letter,l3DjBvMKnegxFtUKcOY8BFnJwd22,html-keyboard-response,136,782967,0.0-46.0-4.0-2.0-1.0-1.0,,,,,,,,,,,,,,,613b94b83b5cb4c72904f8b3,08:55:07,03/04/2024
995.0,,,ospan,symmetry,l3DjBvMKnegxFtUKcOY8BFnJwd22,symmetry-judgement-task,137,785848,0.0-46.0-4.0-2.0-1.0-2.0,,,,,,,,,,1.0,1.0,,,,613b94b83b5cb4c72904f8b3,08:55:07,03/04/2024
,"<div style=""font-size: 10rem; color: #0000FF"">J</div>",,ospan,letter,l3DjBvMKnegxFtUKcOY8BFnJwd22,html-keyboard-response,138,786855,0.0-46.0-4.0-2.0-1.0-3.0,,,,,,,,,,,,,,,613b94b83b5cb4c72904f8b3,08:55:07,03/04/2024
1007.0,,,ospan,symmetry,l3DjBvMKnegxFtUKcOY8BFnJwd22,symmetry-judgement-task,139,789755,0.0-46.0-4.0-2.0-1.0-4.0,,,,,,,,,,1.0,1.0,,,,613b94b83b5cb4c72904f8b3,08:55:07,03/04/2024
,"<div style=""font-size: 10rem; color: #0000FF"">L</div>",,ospan,letter,l3DjBvMKnegxFtUKcOY8BFnJwd22,html-keyboard-response,140,790770,0.0-46.0-4.0-2.0-1.0-5.0,,,,,,,,,,,,,,,613b94b83b5cb4c72904f8b3,08:55:07,03/04/2024
5304.0,"<div class = numbox><p style=""font-size: 2.4rem"">Please recall the letters you saw to the best of your ability. If you do not remember a particular letter, use the SKIP button.<br><b>(When you are ready to lock in your answer, press ENTER)</b></p><button id = button_1 class = ""square num-button"" onclick = ""recordClick(this)""><div class = content><div class = numbers>C</div></div></button><button id = button_2 class = ""square num-button"" onclick = ""recordClick(this)""><div class = content><div class = numbers>G</div></div></button><button id = button_3 class = ""square num-button"" onclick = ""recordClick(this)""><div class = content><div class = numbers>H</div></div></button><button id = button_4 class = ""square num-button"" onclick = ""recordClick(this)""><div class = content><div class = numbers>J</div></div></button><button id = button_5 class = ""square num-button"" onclick = ""recordClick(this)""><div class = content><div class = numbers>K</div></div></button><button id = button_6 class = ""square num-button"" onclick = ""recordClick(this)""><div class = content><div class = numbers>L</div></div></button><button id = button_7 class = ""square num-button"" onclick = ""recordClick(this)""><div class = content><div class = numbers>N</div></div></button><button id = button_8 class = ""square num-button"" onclick = ""recordClick(this)""><div class = content><div class = numbers>P</div></div></button><button id = button_9 class = ""square num-button"" onclick = ""recordClick(this)""><div class = content><div class = numbers>Q</div></div></button><button id = button_10 class = ""square num-button"" onclick = ""recordClick(this)""><div class = content><div class = numbers>R</div></div></button><button id = button_11 class = ""square num-button"" onclick = ""recordClick(this)""><div class = content><div class = numbers>S</div></div></button><button id = button_12 class = ""square num-button"" onclick = ""recordClick(this)""><div class = content><div class = numbers>Y</div></div></button><button class = clear_button id = ""ClearButton"" onclick = ""clearResponse()"">BACKSPACE</button><button class = blank_button id = ""BlankButton"" onclick = ""blankResponse()"">SKIP</button><p style=""font-size: 2.4rem""><u><b>Current Answer:</b></u></p><br><br><div id=echoed_txt style=""font-size: 5rem; color:blue;""><b></b></div></div>",enter,ospan,retrieval,l3DjBvMKnegxFtUKcOY8BFnJwd22,html-keyboard-response,141,796840,0.0-46.0-4.0-2.0-2.0,15,15,15,3.0,"[""N"",""J"",""L""]","[""N"",""J"",""L""]",1.0,3.0,,,,,,,613b94b83b5cb4c72904f8b3,08:55:07,03/04/2024
933.0,[''],0,ospan,feedback,l3DjBvMKnegxFtUKcOY8BFnJwd22,html-button-response,142,798280,0.0-46.0-4.0-2.0-3.0,,,,,,,,,,,,100.0,0.0,,613b94b83b5cb4c72904f8b3,08:55:07,03/04/2024
,"<p style=""font-size:75px;"">...</p>",,ospan,iti,l3DjBvMKnegxFtUKcOY8BFnJwd22,html-keyboard-response,143,799290,0.0-46.0-5.0-0.0-0.0,,,,,,,,,,,,,,,613b94b83b5cb4c72904f8b3,08:55:07,03/04/2024
1197.0,,,ospan,symmetry,l3DjBvMKnegxFtUKcOY8BFnJwd22,symmetry-judgement-task,144,801621,0.0-46.0-5.0-0.0-1.0-0.0,,,,,,,,,,1.0,1.0,,,,613b94b83b5cb4c72904f8b3,08:55:07,03/04/2024
,"<div style=""font-size: 10rem; color: #0000FF"">R</div>",,ospan,letter,l3DjBvMKnegxFtUKcOY8BFnJwd22,html-keyboard-response,145,802625,0.0-46.0-5.0-0.0-1.0-1.0,,,,,,,,,,,,,,,613b94b83b5cb4c72904f8b3,08:55:07,03/04/2024
820.0,,,ospan,symmetry,l3DjBvMKnegxFtUKcOY8BFnJwd22,symmetry-judgement-task,146,805329,0.0-46.0-5.0-0.0-1.0-2.0,,,,,,,,,,1.0,1.0,,,,613b94b83b5cb4c72904f8b3,08:55:07,03/04/2024
,"<div style=""font-size: 10rem; color: #0000FF"">S</div>",,ospan,letter,l3DjBvMKnegxFtUKcOY8BFnJwd22,html-keyboard-response,147,806343,0.0-46.0-5.0-0.0-1.0-3.0,,,,,,,,,,,,,,,613b94b83b5cb4c72904f8b3,08:55:07,03/04/2024
889.0,,,ospan,symmetry,l3DjBvMKnegxFtUKcOY8BFnJwd22,symmetry-judgement-task,148,809133,0.0-46.0-5.0-0.0-1.0-4.0,,,,,,,,,,1.0,1.0,,,,613b94b83b5cb4c72904f8b3,08:55:07,03/04/2024
,"<div style=""font-size: 10rem; color: #0000FF"">K</div>",,ospan,letter,l3DjBvMKnegxFtUKcOY8BFnJwd22,html-keyboard-response,149,810143,0.0-46.0-5.0-0.0-1.0-5.0,,,,,,,,,,,,,,,613b94b83b5cb4c72904f8b3,08:55:07,03/04/2024
2173.0,,,ospan,symmetry,l3DjBvMKnegxFtUKcOY8BFnJwd22,symmetry-judgement-task,150,814202,0.0-46.0-5.0-0.0-1.0-6.0,,,,,,,,,,1.0,1.0,,,,613b94b83b5cb4c72904f8b3,08:55:07,03/04/2024
,"<div style=""font-size: 10rem; color: #0000FF"">Q</div>",,ospan,letter,l3DjBvMKnegxFtUKcOY8BFnJwd22,html-keyboard-response,151,815208,0.0-46.0-5.0-0.0-1.0-7.0,,,,,,,,,,,,,,,613b94b83b5cb4c72904f8b3,08:55:07,03/04/2024
977.0,,,ospan,symmetry,l3DjBvMKnegxFtUKcOY8BFnJwd22,symmetry-judgement-task,152,818070,0.0-46.0-5.0-0.0-1.0-8.0,,,,,,,,,,1.0,1.0,,,,613b94b83b5cb4c72904f8b3,08:55:07,03/04/2024
,"<div style=""font-size: 10rem; color: #0000FF"">G</div>",,ospan,letter,l3DjBvMKnegxFtUKcOY8BFnJwd22,html-keyboard-response,153,819078,0.0-46.0-5.0-0.0-1.0-9.0,,,,,,,,,,,,,,,613b94b83b5cb4c72904f8b3,08:55:07,03/04/2024
970.0,,,ospan,symmetry,l3DjBvMKnegxFtUKcOY8BFnJwd22,symmetry-judgement-task,154,821937,0.0-46.0-5.0-0.0-1.0-10.0,,,,,,,,,,1.0,1.0,,,,613b94b83b5cb4c72904f8b3,08:55:07,03/04/2024
,"<div style=""font-size: 10rem; color: #0000FF"">L</div>",,ospan,letter,l3DjBvMKnegxFtUKcOY8BFnJwd22,html-keyboard-response,155,822940,0.0-46.0-5.0-0.0-1.0-11.0,,,,,,,,,,,,,,,613b94b83b5cb4c72904f8b3,08:55:07,03/04/2024
6169.700000047684,"<div class = numbox><p style=""font-size: 2.4rem"">Please recall the letters you saw to the best of your ability. If you do not remember a particular letter, use the SKIP button.<br><b>(When you are ready to lock in your answer, press ENTER)</b></p><button id = button_1 class = ""square num-button"" onclick = ""recordClick(this)""><div class = content><div class = numbers>C</div></div></button><button id = button_2 class = ""square num-button"" onclick = ""recordClick(this)""><div class = content><div class = numbers>G</div></div></button><button id = button_3 class = ""square num-button"" onclick = ""recordClick(this)""><div class = content><div class = numbers>H</div></div></button><button id = button_4 class = ""square num-button"" onclick = ""recordClick(this)""><div class = content><div class = numbers>J</div></div></button><button id = button_5 class = ""square num-button"" onclick = ""recordClick(this)""><div class = content><div class = numbers>K</div></div></button><button id = button_6 class = ""square num-button"" onclick = ""recordClick(this)""><div class = content><div class = numbers>L</div></div></button><button id = button_7 class = ""square num-button"" onclick = ""recordClick(this)""><div class = content><div class = numbers>N</div></div></button><button id = button_8 class = ""square num-button"" onclick = ""recordClick(this)""><div class = content><div class = numbers>P</div></div></button><button id = button_9 class = ""square num-button"" onclick = ""recordClick(this)""><div class = content><div class = numbers>Q</div></div></button><button id = button_10 class = ""square num-button"" onclick = ""recordClick(this)""><div class = content><div class = numbers>R</div></div></button><button id = button_11 class = ""square num-button"" onclick = ""recordClick(this)""><div class = content><div class = numbers>S</div></div></button><button id = button_12 class = ""square num-button"" onclick = ""recordClick(this)""><div class = content><div class = numbers>Y</div></div></button><button class = clear_button id = ""ClearButton"" onclick = ""clearResponse()"">BACKSPACE</button><button class = blank_button id = ""BlankButton"" onclick = ""blankResponse()"">SKIP</button><p style=""font-size: 2.4rem""><u><b>Current Answer:</b></u></p><br><br><div id=echoed_txt style=""font-size: 5rem; color:blue;""><b></b></div></div>",enter,ospan,retrieval,l3DjBvMKnegxFtUKcOY8BFnJwd22,html-keyboard-response,156,829869,0.0-46.0-5.0-0.0-2.0,21,21,21,6.0,"[""R"",""S"",""K"",""Q"",""G"",""L""]","[""R"",""S"",""K"",""Q"",""G"",""L""]",1.0,6.0,,,,,,,613b94b83b5cb4c72904f8b3,08:55:07,03/04/2024
1004.0999999046326,[''],0,ospan,feedback,l3DjBvMKnegxFtUKcOY8BFnJwd22,html-button-response,157,831389,0.0-46.0-5.0-0.0-3.0,,,,,,,,,,,,100.0,0.0,,613b94b83b5cb4c72904f8b3,08:55:07,03/04/2024
,"<p style=""font-size:75px;"">...</p>",,ospan,iti,l3DjBvMKnegxFtUKcOY8BFnJwd22,html-keyboard-response,158,832393,0.0-46.0-5.0-1.0-0.0,,,,,,,,,,,,,,,613b94b83b5cb4c72904f8b3,08:55:07,03/04/2024
1174.0,,,ospan,symmetry,l3DjBvMKnegxFtUKcOY8BFnJwd22,symmetry-judgement-task,159,834606,0.0-46.0-5.0-1.0-1.0-0.0,,,,,,,,,,1.0,1.0,,,,613b94b83b5cb4c72904f8b3,08:55:07,03/04/2024
,"<div style=""font-size: 10rem; color: #0000FF"">R</div>",,ospan,letter,l3DjBvMKnegxFtUKcOY8BFnJwd22,html-keyboard-response,160,835620,0.0-46.0-5.0-1.0-1.0-1.0,,,,,,,,,,,,,,,613b94b83b5cb4c72904f8b3,08:55:07,03/04/2024
1190.0,,,ospan,symmetry,l3DjBvMKnegxFtUKcOY8BFnJwd22,symmetry-judgement-task,161,838608,0.0-46.0-5.0-1.0-1.0-2.0,,,,,,,,,,1.0,1.0,,,,613b94b83b5cb4c72904f8b3,08:55:07,03/04/2024
,"<div style=""font-size: 10rem; color: #0000FF"">K</div>",,ospan,letter,l3DjBvMKnegxFtUKcOY8BFnJwd22,html-keyboard-response,162,839616,0.0-46.0-5.0-1.0-1.0-3.0,,,,,,,,,,,,,,,613b94b83b5cb4c72904f8b3,08:55:07,03/04/2024
932.0,,,ospan,symmetry,l3DjBvMKnegxFtUKcOY8BFnJwd22,symmetry-judgement-task,163,842428,0.0-46.0-5.0-1.0-1.0-4.0,,,,,,,,,,1.0,1.0,,,,613b94b83b5cb4c72904f8b3,08:55:07,03/04/2024
,"<div style=""font-size: 10rem; color: #0000FF"">G</div>",,ospan,letter,l3DjBvMKnegxFtUKcOY8BFnJwd22,html-keyboard-response,164,843432,0.0-46.0-5.0-1.0-1.0-5.0,,,,,,,,,,,,,,,613b94b83b5cb4c72904f8b3,08:55:07,03/04/2024
1483.0,,,ospan,symmetry,l3DjBvMKnegxFtUKcOY8BFnJwd22,symmetry-judgement-task,165,846789,0.0-46.0-5.0-1.0-1.0-6.0,,,,,,,,,,1.0,1.0,,,,613b94b83b5cb4c72904f8b3,08:55:07,03/04/2024
,"<div style=""font-size: 10rem; color: #0000FF"">C</div>",,ospan,letter,l3DjBvMKnegxFtUKcOY8BFnJwd22,html-keyboard-response,166,847801,0.0-46.0-5.0-1.0-1.0-7.0,,,,,,,,,,,,,,,613b94b83b5cb4c72904f8b3,08:55:07,03/04/2024
998.0,,,ospan,symmetry,l3DjBvMKnegxFtUKcOY8BFnJwd22,symmetry-judgement-task,167,850697,0.0-46.0-5.0-1.0-1.0-8.0,,,,,,,,,,1.0,1.0,,,,613b94b83b5cb4c72904f8b3,08:55:07,03/04/2024
,"<div style=""font-size: 10rem; color: #0000FF"">L</div>",,ospan,letter,l3DjBvMKnegxFtUKcOY8BFnJwd22,html-keyboard-response,168,851712,0.0-46.0-5.0-1.0-1.0-9.0,,,,,,,,,,,,,,,613b94b83b5cb4c72904f8b3,08:55:07,03/04/2024
1003.0,,,ospan,symmetry,l3DjBvMKnegxFtUKcOY8BFnJwd22,symmetry-judgement-task,169,854611,0.0-46.0-5.0-1.0-1.0-10.0,,,,,,,,,,1.0,1.0,,,,613b94b83b5cb4c72904f8b3,08:55:07,03/04/2024
,"<div style=""font-size: 10rem; color: #0000FF"">Y</div>",,ospan,letter,l3DjBvMKnegxFtUKcOY8BFnJwd22,html-keyboard-response,170,855614,0.0-46.0-5.0-1.0-1.0-11.0,,,,,,,,,,,,,,,613b94b83b5cb4c72904f8b3,08:55:07,03/04/2024
1055.0,,,ospan,symmetry,l3DjBvMKnegxFtUKcOY8BFnJwd22,symmetry-judgement-task,171,858549,0.0-46.0-5.0-1.0-1.0-12.0,,,,,,,,,,1.0,1.0,,,,613b94b83b5cb4c72904f8b3,08:55:07,03/04/2024
,"<div style=""font-size: 10rem; color: #0000FF"">P</div>",,ospan,letter,l3DjBvMKnegxFtUKcOY8BFnJwd22,html-keyboard-response,172,859559,0.0-46.0-5.0-1.0-1.0-13.0,,,,,,,,,,,,,,,613b94b83b5cb4c72904f8b3,08:55:07,03/04/2024
9596.700000047684,"<div class = numbox><p style=""font-size: 2.4rem"">Please recall the letters you saw to the best of your ability. If you do not remember a particular letter, use the SKIP button.<br><b>(When you are ready to lock in your answer, press ENTER)</b></p><button id = button_1 class = ""square num-button"" onclick = ""recordClick(this)""><div class = content><div class = numbers>C</div></div></button><button id = button_2 class = ""square num-button"" onclick = ""recordClick(this)""><div class = content><div class = numbers>G</div></div></button><button id = button_3 class = ""square num-button"" onclick = ""recordClick(this)""><div class = content><div class = numbers>H</div></div></button><button id = button_4 class = ""square num-button"" onclick = ""recordClick(this)""><div class = content><div class = numbers>J</div></div></button><button id = button_5 class = ""square num-button"" onclick = ""recordClick(this)""><div class = content><div class = numbers>K</div></div></button><button id = button_6 class = ""square num-button"" onclick = ""recordClick(this)""><div class = content><div class = numbers>L</div></div></button><button id = button_7 class = ""square num-button"" onclick = ""recordClick(this)""><div class = content><div class = numbers>N</div></div></button><button id = button_8 class = ""square num-button"" onclick = ""recordClick(this)""><div class = content><div class = numbers>P</div></div></button><button id = button_9 class = ""square num-button"" onclick = ""recordClick(this)""><div class = content><div class = numbers>Q</div></div></button><button id = button_10 class = ""square num-button"" onclick = ""recordClick(this)""><div class = content><div class = numbers>R</div></div></button><button id = button_11 class = ""square num-button"" onclick = ""recordClick(this)""><div class = content><div class = numbers>S</div></div></button><button id = button_12 class = ""square num-button"" onclick = ""recordClick(this)""><div class = content><div class = numbers>Y</div></div></button><button class = clear_button id = ""ClearButton"" onclick = ""clearResponse()"">BACKSPACE</button><button class = blank_button id = ""BlankButton"" onclick = ""blankResponse()"">SKIP</button><p style=""font-size: 2.4rem""><u><b>Current Answer:</b></u></p><br><br><div id=echoed_txt style=""font-size: 5rem; color:blue;""><b></b></div></div>",enter,ospan,retrieval,l3DjBvMKnegxFtUKcOY8BFnJwd22,html-keyboard-response,173,869914,0.0-46.0-5.0-1.0-2.0,28,27,21,7.0,"[""R"",""K"",""G"",""C"",""L"",""Y""]","[""R"",""K"",""G"",""C"",""L"",""Y"",""P""]",0.0,6.0,,,,,,,613b94b83b5cb4c72904f8b3,08:55:07,03/04/2024
1404.4000000953674,[''],0,ospan,feedback,l3DjBvMKnegxFtUKcOY8BFnJwd22,html-button-response,174,871825,0.0-46.0-5.0-1.0-3.0,,,,,,,,,,,,100.0,0.0,,613b94b83b5cb4c72904f8b3,08:55:07,03/04/2024
,"<p style=""font-size:75px;"">...</p>",,ospan,iti,l3DjBvMKnegxFtUKcOY8BFnJwd22,html-keyboard-response,175,872838,0.0-46.0-6.0-0.0-0.0,,,,,,,,,,,,,,,613b94b83b5cb4c72904f8b3,08:55:07,03/04/2024
1212.0,,,ospan,symmetry,l3DjBvMKnegxFtUKcOY8BFnJwd22,symmetry-judgement-task,176,875181,0.0-46.0-6.0-0.0-1.0-0.0,,,,,,,,,,1.0,1.0,,,,613b94b83b5cb4c72904f8b3,08:55:07,03/04/2024
,"<div style=""font-size: 10rem; color: #0000FF"">Y</div>",,ospan,letter,l3DjBvMKnegxFtUKcOY8BFnJwd22,html-keyboard-response,177,876194,0.0-46.0-6.0-0.0-1.0-1.0,,,,,,,,,,,,,,,613b94b83b5cb4c72904f8b3,08:55:07,03/04/2024
928.0,,,ospan,symmetry,l3DjBvMKnegxFtUKcOY8BFnJwd22,symmetry-judgement-task,178,879005,0.0-46.0-6.0-0.0-1.0-2.0,,,,,,,,,,1.0,1.0,,,,613b94b83b5cb4c72904f8b3,08:55:07,03/04/2024
,"<div style=""font-size: 10rem; color: #0000FF"">K</div>",,ospan,letter,l3DjBvMKnegxFtUKcOY8BFnJwd22,html-keyboard-response,179,880017,0.0-46.0-6.0-0.0-1.0-3.0,,,,,,,,,,,,,,,613b94b83b5cb4c72904f8b3,08:55:07,03/04/2024
1152.0,,,ospan,symmetry,l3DjBvMKnegxFtUKcOY8BFnJwd22,symmetry-judgement-task,180,883071,0.0-46.0-6.0-0.0-1.0-4.0,,,,,,,,,,1.0,1.0,,,,613b94b83b5cb4c72904f8b3,08:55:07,03/04/2024
,"<div style=""font-size: 10rem; color: #0000FF"">C</div>",,ospan,letter,l3DjBvMKnegxFtUKcOY8BFnJwd22,html-keyboard-response,181,884087,0.0-46.0-6.0-0.0-1.0-5.0,,,,,,,,,,,,,,,613b94b83b5cb4c72904f8b3,08:55:07,03/04/2024
1073.0,,,ospan,symmetry,l3DjBvMKnegxFtUKcOY8BFnJwd22,symmetry-judgement-task,182,887044,0.0-46.0-6.0-0.0-1.0-6.0,,,,,,,,,,1.0,1.0,,,,613b94b83b5cb4c72904f8b3,08:55:07,03/04/2024
,"<div style=""font-size: 10rem; color: #0000FF"">P</div>",,ospan,letter,l3DjBvMKnegxFtUKcOY8BFnJwd22,html-keyboard-response,183,888048,0.0-46.0-6.0-0.0-1.0-7.0,,,,,,,,,,,,,,,613b94b83b5cb4c72904f8b3,08:55:07,03/04/2024
1300.0,,,ospan,symmetry,l3DjBvMKnegxFtUKcOY8BFnJwd22,symmetry-judgement-task,184,891253,0.0-46.0-6.0-0.0-1.0-8.0,,,,,,,,,,1.0,1.0,,,,613b94b83b5cb4c72904f8b3,08:55:07,03/04/2024
,"<div style=""font-size: 10rem; color: #0000FF"">N</div>",,ospan,letter,l3DjBvMKnegxFtUKcOY8BFnJwd22,html-keyboard-response,185,892268,0.0-46.0-6.0-0.0-1.0-9.0,,,,,,,,,,,,,,,613b94b83b5cb4c72904f8b3,08:55:07,03/04/2024
14640.599999904633,"<div class = numbox><p style=""font-size: 2.4rem"">Please recall the letters you saw to the best of your ability. If you do not remember a particular letter, use the SKIP button.<br><b>(When you are ready to lock in your answer, press ENTER)</b></p><button id = button_1 class = ""square num-button"" onclick = ""recordClick(this)""><div class = content><div class = numbers>C</div></div></button><button id = button_2 class = ""square num-button"" onclick = ""recordClick(this)""><div class = content><div class = numbers>G</div></div></button><button id = button_3 class = ""square num-button"" onclick = ""recordClick(this)""><div class = content><div class = numbers>H</div></div></button><button id = button_4 class = ""square num-button"" onclick = ""recordClick(this)""><div class = content><div class = numbers>J</div></div></button><button id = button_5 class = ""square num-button"" onclick = ""recordClick(this)""><div class = content><div class = numbers>K</div></div></button><button id = button_6 class = ""square num-button"" onclick = ""recordClick(this)""><div class = content><div class = numbers>L</div></div></button><button id = button_7 class = ""square num-button"" onclick = ""recordClick(this)""><div class = content><div class = numbers>N</div></div></button><button id = button_8 class = ""square num-button"" onclick = ""recordClick(this)""><div class = content><div class = numbers>P</div></div></button><button id = button_9 class = ""square num-button"" onclick = ""recordClick(this)""><div class = content><div class = numbers>Q</div></div></button><button id = button_10 class = ""square num-button"" onclick = ""recordClick(this)""><div class = content><div class = numbers>R</div></div></button><button id = button_11 class = ""square num-button"" onclick = ""recordClick(this)""><div class = content><div class = numbers>S</div></div></button><button id = button_12 class = ""square num-button"" onclick = ""recordClick(this)""><div class = content><div class = numbers>Y</div></div></button><button class = clear_button id = ""ClearButton"" onclick = ""clearResponse()"">BACKSPACE</button><button class = blank_button id = ""BlankButton"" onclick = ""blankResponse()"">SKIP</button><p style=""font-size: 2.4rem""><u><b>Current Answer:</b></u></p><br><br><div id=echoed_txt style=""font-size: 5rem; color:blue;""><b></b></div></div>",enter,ospan,retrieval,l3DjBvMKnegxFtUKcOY8BFnJwd22,html-keyboard-response,186,907663,0.0-46.0-6.0-0.0-2.0,33,32,26,5.0,"[""Y"",""K"",""C"",""P"",""N""]","[""Y"",""K"",""C"",""P"",""N""]",1.0,5.0,,,,,,,613b94b83b5cb4c72904f8b3,08:55:07,03/04/2024
946.7999999523163,[''],0,ospan,feedback,l3DjBvMKnegxFtUKcOY8BFnJwd22,html-button-response,187,909125,0.0-46.0-6.0-0.0-3.0,,,,,,,,,,,,100.0,0.0,,613b94b83b5cb4c72904f8b3,08:55:07,03/04/2024
,"<p style=""font-size:75px;"">...</p>",,ospan,iti,l3DjBvMKnegxFtUKcOY8BFnJwd22,html-keyboard-response,188,910139,0.0-46.0-6.0-1.0-0.0,,,,,,,,,,,,,,,613b94b83b5cb4c72904f8b3,08:55:07,03/04/2024
1410.0,,,ospan,symmetry,l3DjBvMKnegxFtUKcOY8BFnJwd22,symmetry-judgement-task,189,912676,0.0-46.0-6.0-1.0-1.0-0.0,,,,,,,,,,1.0,1.0,,,,613b94b83b5cb4c72904f8b3,08:55:07,03/04/2024
,"<div style=""font-size: 10rem; color: #0000FF"">K</div>",,ospan,letter,l3DjBvMKnegxFtUKcOY8BFnJwd22,html-keyboard-response,190,913684,0.0-46.0-6.0-1.0-1.0-1.0,,,,,,,,,,,,,,,613b94b83b5cb4c72904f8b3,08:55:07,03/04/2024
1012.0,,,ospan,symmetry,l3DjBvMKnegxFtUKcOY8BFnJwd22,symmetry-judgement-task,191,916572,0.0-46.0-6.0-1.0-1.0-2.0,,,,,,,,,,1.0,1.0,,,,613b94b83b5cb4c72904f8b3,08:55:07,03/04/2024
,"<div style=""font-size: 10rem; color: #0000FF"">L</div>",,ospan,letter,l3DjBvMKnegxFtUKcOY8BFnJwd22,html-keyboard-response,192,917585,0.0-46.0-6.0-1.0-1.0-3.0,,,,,,,,,,,,,,,613b94b83b5cb4c72904f8b3,08:55:07,03/04/2024
917.0,,,ospan,symmetry,l3DjBvMKnegxFtUKcOY8BFnJwd22,symmetry-judgement-task,193,920394,0.0-46.0-6.0-1.0-1.0-4.0,,,,,,,,,,1.0,1.0,,,,613b94b83b5cb4c72904f8b3,08:55:07,03/04/2024
,"<div style=""font-size: 10rem; color: #0000FF"">Y</div>",,ospan,letter,l3DjBvMKnegxFtUKcOY8BFnJwd22,html-keyboard-response,194,921404,0.0-46.0-6.0-1.0-1.0-5.0,,,,,,,,,,,,,,,613b94b83b5cb4c72904f8b3,08:55:07,03/04/2024
751.0,,,ospan,symmetry,l3DjBvMKnegxFtUKcOY8BFnJwd22,symmetry-judgement-task,195,924043,0.0-46.0-6.0-1.0-1.0-6.0,,,,,,,,,,1.0,1.0,,,,613b94b83b5cb4c72904f8b3,08:55:07,03/04/2024
,"<div style=""font-size: 10rem; color: #0000FF"">H</div>",,ospan,letter,l3DjBvMKnegxFtUKcOY8BFnJwd22,html-keyboard-response,196,925060,0.0-46.0-6.0-1.0-1.0-7.0,,,,,,,,,,,,,,,613b94b83b5cb4c72904f8b3,08:55:07,03/04/2024
859.0,,,ospan,symmetry,l3DjBvMKnegxFtUKcOY8BFnJwd22,symmetry-judgement-task,197,927814,0.0-46.0-6.0-1.0-1.0-8.0,,,,,,,,,,1.0,1.0,,,,613b94b83b5cb4c72904f8b3,08:55:07,03/04/2024
,"<div style=""font-size: 10rem; color: #0000FF"">P</div>",,ospan,letter,l3DjBvMKnegxFtUKcOY8BFnJwd22,html-keyboard-response,198,928831,0.0-46.0-6.0-1.0-1.0-9.0,,,,,,,,,,,,,,,613b94b83b5cb4c72904f8b3,08:55:07,03/04/2024
1112.0,,,ospan,symmetry,l3DjBvMKnegxFtUKcOY8BFnJwd22,symmetry-judgement-task,199,931830,0.0-46.0-6.0-1.0-1.0-10.0,,,,,,,,,,1.0,1.0,,,,613b94b83b5cb4c72904f8b3,08:55:07,03/04/2024
,"<div style=""font-size: 10rem; color: #0000FF"">N</div>",,ospan,letter,l3DjBvMKnegxFtUKcOY8BFnJwd22,html-keyboard-response,200,932848,0.0-46.0-6.0-1.0-1.0-11.0,,,,,,,,,,,,,,,613b94b83b5cb4c72904f8b3,08:55:07,03/04/2024
1163.0,,,ospan,symmetry,l3DjBvMKnegxFtUKcOY8BFnJwd22,symmetry-judgement-task,201,935913,0.0-46.0-6.0-1.0-1.0-12.0,,,,,,,,,,1.0,1.0,,,,613b94b83b5cb4c72904f8b3,08:55:07,03/04/2024
,"<div style=""font-size: 10rem; color: #0000FF"">J</div>",,ospan,letter,l3DjBvMKnegxFtUKcOY8BFnJwd22,html-keyboard-response,202,936916,0.0-46.0-6.0-1.0-1.0-13.0,,,,,,,,,,,,,,,613b94b83b5cb4c72904f8b3,08:55:07,03/04/2024
880.0,,,ospan,symmetry,l3DjBvMKnegxFtUKcOY8BFnJwd22,symmetry-judgement-task,203,939705,0.0-46.0-6.0-1.0-1.0-14.0,,,,,,,,,,1.0,1.0,,,,613b94b83b5cb4c72904f8b3,08:55:07,03/04/2024
,"<div style=""font-size: 10rem; color: #0000FF"">R</div>",,ospan,letter,l3DjBvMKnegxFtUKcOY8BFnJwd22,html-keyboard-response,204,940723,0.0-46.0-6.0-1.0-1.0-15.0,,,,,,,,,,,,,,,613b94b83b5cb4c72904f8b3,08:55:07,03/04/2024
17193.400000095367,"<div class = numbox><p style=""font-size: 2.4rem"">Please recall the letters you saw to the best of your ability. If you do not remember a particular letter, use the SKIP button.<br><b>(When you are ready to lock in your answer, press ENTER)</b></p><button id = button_1 class = ""square num-button"" onclick = ""recordClick(this)""><div class = content><div class = numbers>C</div></div></button><button id = button_2 class = ""square num-button"" onclick = ""recordClick(this)""><div class = content><div class = numbers>G</div></div></button><button id = button_3 class = ""square num-button"" onclick = ""recordClick(this)""><div class = content><div class = numbers>H</div></div></button><button id = button_4 class = ""square num-button"" onclick = ""recordClick(this)""><div class = content><div class = numbers>J</div></div></button><button id = button_5 class = ""square num-button"" onclick = ""recordClick(this)""><div class = content><div class = numbers>K</div></div></button><button id = button_6 class = ""square num-button"" onclick = ""recordClick(this)""><div class = content><div class = numbers>L</div></div></button><button id = button_7 class = ""square num-button"" onclick = ""recordClick(this)""><div class = content><div class = numbers>N</div></div></button><button id = button_8 class = ""square num-button"" onclick = ""recordClick(this)""><div class = content><div class = numbers>P</div></div></button><button id = button_9 class = ""square num-button"" onclick = ""recordClick(this)""><div class = content><div class = numbers>Q</div></div></button><button id = button_10 class = ""square num-button"" onclick = ""recordClick(this)""><div class = content><div class = numbers>R</div></div></button><button id = button_11 class = ""square num-button"" onclick = ""recordClick(this)""><div class = content><div class = numbers>S</div></div></button><button id = button_12 class = ""square num-button"" onclick = ""recordClick(this)""><div class = content><div class = numbers>Y</div></div></button><button class = clear_button id = ""ClearButton"" onclick = ""clearResponse()"">BACKSPACE</button><button class = blank_button id = ""BlankButton"" onclick = ""blankResponse()"">SKIP</button><p style=""font-size: 2.4rem""><u><b>Current Answer:</b></u></p><br><br><div id=echoed_txt style=""font-size: 5rem; color:blue;""><b></b></div></div>",enter,ospan,retrieval,l3DjBvMKnegxFtUKcOY8BFnJwd22,html-keyboard-response,205,958673,0.0-46.0-6.0-1.0-2.0,41,33,26,8.0,"[""Y"",""K"",""L"",""Y"",""H"",""P"",""J"",""S""]","[""K"",""L"",""Y"",""H"",""P"",""N"",""J"",""R""]",0.0,1.0,,,,,,,613b94b83b5cb4c72904f8b3,08:55:07,03/04/2024
1267.5,[''],0,ospan,feedback,l3DjBvMKnegxFtUKcOY8BFnJwd22,html-button-response,206,960447,0.0-46.0-6.0-1.0-3.0,,,,,,,,,,,,100.0,0.0,,613b94b83b5cb4c72904f8b3,08:55:07,03/04/2024
12941.0,,{'Q0': 'Enjoyed finding symmetry '},ospan,survey_ospan,l3DjBvMKnegxFtUKcOY8BFnJwd22,lmdlab-survey-text,207,974145,0.0-46.0-7.0,,,,,,,,,,,,,,l3DjBvMKnegxFtUKcOY8BFnJwd22,613b94b83b5cb4c72904f8b3,08:55:07,03/04/2024
883.2000000476837,<p><p style='font-size: 3rem'>Great work!<br><br>This completes the symmetry and memory task.</p><br><br><br>,0,ospan,finish,l3DjBvMKnegxFtUKcOY8BFnJwd22,html-button-response,208,975033,0.0-46.0-8.0,41,33,26,,,,,,,,,100.0,,,613b94b83b5cb4c72904f8b3,08:55:07,03/04/2024
