rt,stimulus,response,exp_name,exp_stage,subjectID,trial_type,trial_index,time_elapsed,internal_node_id,ospan_shown,ospan_total,ospan_abs,length,resp_actual,resp_correct,full_correct,num_correct,feedback,accuracy,correct,math_acc,math_warning,databaseID,prolificID,start_time,date
2874.2999999998137,<div class = 'left_align' style='font-size: 3.25rem; line-height: 1.3;'><p class = 'center_align'><b>Welcome to the Symmetry and Memory Task</b><br><br><br><br></p>Press 'continue' to show the instructions.<br><br><br><br></div>,0,ospan,instruct,rnRIr4p5h0VjZiHGRo0hFlSMeay1,html-button-response,54,597839,0.0-46.0-0.0-0.0-0.0,,,,,,,,,,,,,,,593f105f02d1cc0001071a72,15:10:47,03/04/2024
46663.700000000186,"<div class = 'left_align' style='font-size: 3.25rem; line-height: 1.3;'><p class = 'center_align'><b>Symmetry and Memory Task</b><br><br></p>In this task, you will try to memorize letters you see on the screen<br>while you also view black and white grid pictures.<br><br>In the next few minutes, you will have some practice to get you familiar<br>with how the task works.<br><br>It may be difficult sometimes, but please do not worry about making mistakes!<br><br>We will begin by practicing the letter part of the task.<br><br><br><br></div>",0,ospan,instruct,rnRIr4p5h0VjZiHGRo0hFlSMeay1,html-button-response,55,644766,0.0-46.0-0.0-0.0-1.0,,,,,,,,,,,,,,,593f105f02d1cc0001071a72,15:10:47,03/04/2024
11648.700000000186,"<div class = 'left_align' style='font-size: 3.25rem; line-height: 1.3;'>For this practice part, letters will appear on the screen one at a time.<br><br>Try to remember each letter in the order presented.<br><br>After some letters have been shown, you will see a response screen. Your<br>goal is to report the letters you saw <b>in order</b>. If you do not remember<br>a particular letter, you will have the option to leave it blank.<br><br><br><br></div>",0,ospan,instruct,rnRIr4p5h0VjZiHGRo0hFlSMeay1,html-button-response,56,656676,0.0-46.0-0.0-0.0-2.0,,,,,,,,,,,,,,,593f105f02d1cc0001071a72,15:10:47,03/04/2024
1942.1000000005588,"<div class = 'left_align' style='font-size: 3.25rem; line-height: 1.3;'>Remember, it is very important to get the letters in the same<br>order as you see them.<br><br>When you are ready, you may begin the letter practice.</div><br><br><br><br>",0,ospan,instruct,rnRIr4p5h0VjZiHGRo0hFlSMeay1,html-button-response,57,658879,0.0-46.0-0.0-0.0-3.0,,,,,,,,,,,,,,,593f105f02d1cc0001071a72,15:10:47,03/04/2024
,"<p style=""font-size:75px;"">...</p>",,ospan,iti,rnRIr4p5h0VjZiHGRo0hFlSMeay1,html-keyboard-response,58,660136,0.0-46.0-0.0-1.0-0.0,,,,,,,,,,,,,,,593f105f02d1cc0001071a72,15:10:47,03/04/2024
,"<div style=""font-size: 10rem; color: #0000FF"">P</div>",,ospan,letter,rnRIr4p5h0VjZiHGRo0hFlSMeay1,html-keyboard-response,59,661146,0.0-46.0-0.0-1.0-1.0,,,,,,,,,,,,,,,593f105f02d1cc0001071a72,15:10:47,03/04/2024
,"<div style=""font-size: 10rem; color: #0000FF"">N</div>",,ospan,letter,rnRIr4p5h0VjZiHGRo0hFlSMeay1,html-keyboard-response,60,662902,0.0-46.0-0.0-1.0-2.0,,,,,,,,,,,,,,,593f105f02d1cc0001071a72,15:10:47,03/04/2024
8534.700000000186,"<div class = numbox><p style=""font-size: 2.4rem"">Please recall the letters you saw to the best of your ability. If you do not remember a particular letter, use the SKIP button.<br><b>(When you are ready to lock in your answer, press ENTER)</b></p><button id = button_1 class = ""square num-button"" onclick = ""recordClick(this)""><div class = content><div class = numbers>C</div></div></button><button id = button_2 class = ""square num-button"" onclick = ""recordClick(this)""><div class = content><div class = numbers>G</div></div></button><button id = button_3 class = ""square num-button"" onclick = ""recordClick(this)""><div class = content><div class = numbers>H</div></div></button><button id = button_4 class = ""square num-button"" onclick = ""recordClick(this)""><div class = content><div class = numbers>J</div></div></button><button id = button_5 class = ""square num-button"" onclick = ""recordClick(this)""><div class = content><div class = numbers>K</div></div></button><button id = button_6 class = ""square num-button"" onclick = ""recordClick(this)""><div class = content><div class = numbers>L</div></div></button><button id = button_7 class = ""square num-button"" onclick = ""recordClick(this)""><div class = content><div class = numbers>N</div></div></button><button id = button_8 class = ""square num-button"" onclick = ""recordClick(this)""><div class = content><div class = numbers>P</div></div></button><button id = button_9 class = ""square num-button"" onclick = ""recordClick(this)""><div class = content><div class = numbers>Q</div></div></button><button id = button_10 class = ""square num-button"" onclick = ""recordClick(this)""><div class = content><div class = numbers>R</div></div></button><button id = button_11 class = ""square num-button"" onclick = ""recordClick(this)""><div class = content><div class = numbers>S</div></div></button><button id = button_12 class = ""square num-button"" onclick = ""recordClick(this)""><div class = content><div class = numbers>Y</div></div></button><button class = clear_button id = ""ClearButton"" onclick = ""clearResponse()"">BACKSPACE</button><button class = blank_button id = ""BlankButton"" onclick = ""blankResponse()"">SKIP</button><p style=""font-size: 2.4rem""><u><b>Current Answer:</b></u></p><br><br><div id=echoed_txt style=""font-size: 5rem; color:blue;""><b></b></div></div>",enter,ospan,retrieval,rnRIr4p5h0VjZiHGRo0hFlSMeay1,html-keyboard-response,61,672206,0.0-46.0-0.0-1.0-3.0,NA,NA,NA,2.0,"[""P"",""N""]","[""P"",""N""]",1.0,2.0,"['<font color=""green"">P</font>', '<font color=""green"">N</font>']",,,,,,593f105f02d1cc0001071a72,15:10:47,03/04/2024
1888.5,"['<p style=""font-size:44px"">Letters:<br><br><br><font color=""green"">P</font> <font color=""green"">N</font></p><br><br>']",0,ospan,practice_feedback,rnRIr4p5h0VjZiHGRo0hFlSMeay1,html-button-response,62,674619,0.0-46.0-0.0-1.0-4.0,,,,,,,,,,,,,,,593f105f02d1cc0001071a72,15:10:47,03/04/2024
,"<p style=""font-size:75px;"">...</p>",,ospan,iti,rnRIr4p5h0VjZiHGRo0hFlSMeay1,html-keyboard-response,63,675629,0.0-46.0-0.0-2.0-0.0,,,,,,,,,,,,,,,593f105f02d1cc0001071a72,15:10:47,03/04/2024
,"<div style=""font-size: 10rem; color: #0000FF"">R</div>",,ospan,letter,rnRIr4p5h0VjZiHGRo0hFlSMeay1,html-keyboard-response,64,676642,0.0-46.0-0.0-2.0-1.0,,,,,,,,,,,,,,,593f105f02d1cc0001071a72,15:10:47,03/04/2024
,"<div style=""font-size: 10rem; color: #0000FF"">C</div>",,ospan,letter,rnRIr4p5h0VjZiHGRo0hFlSMeay1,html-keyboard-response,65,678396,0.0-46.0-0.0-2.0-2.0,,,,,,,,,,,,,,,593f105f02d1cc0001071a72,15:10:47,03/04/2024
,"<div style=""font-size: 10rem; color: #0000FF"">Q</div>",,ospan,letter,rnRIr4p5h0VjZiHGRo0hFlSMeay1,html-keyboard-response,66,680150,0.0-46.0-0.0-2.0-3.0,,,,,,,,,,,,,,,593f105f02d1cc0001071a72,15:10:47,03/04/2024
6156.799999999814,"<div class = numbox><p style=""font-size: 2.4rem"">Please recall the letters you saw to the best of your ability. If you do not remember a particular letter, use the SKIP button.<br><b>(When you are ready to lock in your answer, press ENTER)</b></p><button id = button_1 class = ""square num-button"" onclick = ""recordClick(this)""><div class = content><div class = numbers>C</div></div></button><button id = button_2 class = ""square num-button"" onclick = ""recordClick(this)""><div class = content><div class = numbers>G</div></div></button><button id = button_3 class = ""square num-button"" onclick = ""recordClick(this)""><div class = content><div class = numbers>H</div></div></button><button id = button_4 class = ""square num-button"" onclick = ""recordClick(this)""><div class = content><div class = numbers>J</div></div></button><button id = button_5 class = ""square num-button"" onclick = ""recordClick(this)""><div class = content><div class = numbers>K</div></div></button><button id = button_6 class = ""square num-button"" onclick = ""recordClick(this)""><div class = content><div class = numbers>L</div></div></button><button id = button_7 class = ""square num-button"" onclick = ""recordClick(this)""><div class = content><div class = numbers>N</div></div></button><button id = button_8 class = ""square num-button"" onclick = ""recordClick(this)""><div class = content><div class = numbers>P</div></div></button><button id = button_9 class = ""square num-button"" onclick = ""recordClick(this)""><div class = content><div class = numbers>Q</div></div></button><button id = button_10 class = ""square num-button"" onclick = ""recordClick(this)""><div class = content><div class = numbers>R</div></div></button><button id = button_11 class = ""square num-button"" onclick = ""recordClick(this)""><div class = content><div class = numbers>S</div></div></button><button id = button_12 class = ""square num-button"" onclick = ""recordClick(this)""><div class = content><div class = numbers>Y</div></div></button><button class = clear_button id = ""ClearButton"" onclick = ""clearResponse()"">BACKSPACE</button><button class = blank_button id = ""BlankButton"" onclick = ""blankResponse()"">SKIP</button><p style=""font-size: 2.4rem""><u><b>Current Answer:</b></u></p><br><br><div id=echoed_txt style=""font-size: 5rem; color:blue;""><b></b></div></div>",enter,ospan,retrieval,rnRIr4p5h0VjZiHGRo0hFlSMeay1,html-keyboard-response,67,687071,0.0-46.0-0.0-2.0-4.0,NA,NA,NA,3.0,"[""R"",""C"",""Q""]","[""R"",""C"",""Q""]",1.0,3.0,"['<font color=""green"">R</font>', '<font color=""green"">C</font>', '<font color=""green"">Q</font>']",,,,,,593f105f02d1cc0001071a72,15:10:47,03/04/2024
2436.4000000003725,"['<p style=""font-size:44px"">Letters:<br><br><br><font color=""green"">R</font> <font color=""green"">C</font> <font color=""green"">Q</font></p><br><br>']",0,ospan,practice_feedback,rnRIr4p5h0VjZiHGRo0hFlSMeay1,html-button-response,68,690018,0.0-46.0-0.0-2.0-5.0,,,,,,,,,,,,,,,593f105f02d1cc0001071a72,15:10:47,03/04/2024
17368.799999999814,"<div class = 'left_align' style='font-size: 3.25rem; line-height: 1.3;'>Now you will practice doing the <b>symmetry judgment part</b> of the experiment.<br><br>A black and white grid picture will appear on the screen and you have to judge if it is <br>symmetrical or asymetrical.<br><br>A picture is 'mirror' symmetrical if its left half is identical to the right half when flipped.<br>Here are examples of a symmetrical and an asymetrical picture:<br><br><center><img src='Stimuli/img/symm_instructions_extra.png' style='height:420px; width:900'></img></center><br>To judge symmetry, imagine you were to fold each picture down the middle, like a book –<br>would the left half match the right half when folded onto each other?<br><br></div><br>",0,ospan,instruct,rnRIr4p5h0VjZiHGRo0hFlSMeay1,html-button-response,69,707401,0.0-46.0-1.0-0.0-0.0,,,,,,,,,,,,,,,593f105f02d1cc0001071a72,15:10:47,03/04/2024
3234.7000000001863,"<div class = 'left_align' style='font-size: 3.25rem; line-height: 1.3;'>When you have viewed the picture and determined whether it is symmetrical or not,<br>you can <b>click the Yes or No button</b> below to answer.<br><br>If you take longer than 15 seconds, it will continue automatically<br>and record the answer as an error.</div><br>",0,ospan,instruct,rnRIr4p5h0VjZiHGRo0hFlSMeay1,html-button-response,70,710896,0.0-46.0-1.0-0.0-1.0,,,,,,,,,,,,,,,593f105f02d1cc0001071a72,15:10:47,03/04/2024
1430.4000000003725,"<div class = 'left_align' style='font-size: 3.25rem; line-height: 1.3;'>It is <b>very</b> important that you make the symmetry judgment correctly.<br><br>It is also important that you try and judge the picture as quickly as you can.<br><br>When you are ready, click on the button below to try some practice problems.</div><br><br><br><br>",0,ospan,instruct,rnRIr4p5h0VjZiHGRo0hFlSMeay1,html-button-response,71,712586,0.0-46.0-1.0-0.0-2.0,,,,,,,,,,,,,,,593f105f02d1cc0001071a72,15:10:47,03/04/2024
3610.0,,,ospan,symmetry,rnRIr4p5h0VjZiHGRo0hFlSMeay1,symmetry-judgement-task,72,717546,0.0-46.0-1.0-1.0-0.0,,,,,,,,,,1.0,1.0,,,,593f105f02d1cc0001071a72,15:10:47,03/04/2024
,"<p style=""color:green; font-size: 35px"">Correct</p>",,ospan,feedback,rnRIr4p5h0VjZiHGRo0hFlSMeay1,html-keyboard-response,73,718306,0.0-46.0-1.0-1.0-1.0,,,,,,,,,,,,,,,593f105f02d1cc0001071a72,15:10:47,03/04/2024
2358.0,,,ospan,symmetry,rnRIr4p5h0VjZiHGRo0hFlSMeay1,symmetry-judgement-task,74,725611,0.0-46.0-1.0-1.0-2.0,,,,,,,,,,1.0,1.0,,,,593f105f02d1cc0001071a72,15:10:47,03/04/2024
,"<p style=""color:green; font-size: 35px"">Correct</p>",,ospan,feedback,rnRIr4p5h0VjZiHGRo0hFlSMeay1,html-keyboard-response,75,726370,0.0-46.0-1.0-1.0-3.0,,,,,,,,,,,,,,,593f105f02d1cc0001071a72,15:10:47,03/04/2024
2232.0,,,ospan,symmetry,rnRIr4p5h0VjZiHGRo0hFlSMeay1,symmetry-judgement-task,76,733740,0.0-46.0-1.0-1.0-4.0,,,,,,,,,,1.0,1.0,,,,593f105f02d1cc0001071a72,15:10:47,03/04/2024
,"<p style=""color:green; font-size: 35px"">Correct</p>",,ospan,feedback,rnRIr4p5h0VjZiHGRo0hFlSMeay1,html-keyboard-response,77,734499,0.0-46.0-1.0-1.0-5.0,,,,,,,,,,,,,,,593f105f02d1cc0001071a72,15:10:47,03/04/2024
1922.7000000001863,"<p style=""font-size: 3rem;"">You responded correctly on 3 of 3 symmetry judgments. Good job!</p><br><br>",0,ospan,practice,rnRIr4p5h0VjZiHGRo0hFlSMeay1,html-button-response,78,738436,0.0-46.0-1.0-2.0,,,,,,,,,,,,,,,593f105f02d1cc0001071a72,15:10:47,03/04/2024
7968.0,"<div class = 'left_align' style='font-size: 3.25rem; line-height: 1.3;'>Now you will practice doing both parts of the experiment at the same time.<br><br>In the next practice set, you will be given one grid picture to judge.<br>Then letter will appear on the screen. Try to remember the letter.<br><br>It is <b>very important</b> to make the symmetry judgment as quickly and accurately as possible.<br><br>Just as before, once you have make the symmetry judgment, you can click Yes or No.<br><b>Note that you will no longer see Correct or Incorrect feedback.</div><br><br><br><br>",0,ospan,instruct,rnRIr4p5h0VjZiHGRo0hFlSMeay1,html-button-response,79,746665,0.0-46.0-2.0-0.0-0.0,,,,,,,,,,,,,,,593f105f02d1cc0001071a72,15:10:47,03/04/2024
1395.800000000745,"<div class = 'left_align' style='font-size: 3.25rem; line-height: 1.3;'>After the letter goes away, another grid picture will appear, and then<br>another letter.<br><br>At the end of each set of letters and grids, you will recall the letters to the best<br>of your ability. Remember, try your best to get the letters in the correct order.<br><br>It is important to <b>quickly</b> and <b>accurately</b> make the symmetry judgments.</div><br><br><br><br>",0,ospan,instruct,rnRIr4p5h0VjZiHGRo0hFlSMeay1,html-button-response,80,748323,0.0-46.0-2.0-0.0-1.0,,,,,,,,,,,,,,,593f105f02d1cc0001071a72,15:10:47,03/04/2024
8081.299999999814,"<div class = 'left_align' style='font-size: 3.25rem; line-height: 1.3;'>On the feedback screen, if you are not doing well at the symmetry judgments,<br>you will also see a warning in the middle. This indicates your percent <br>correct for the grid pictures for the entire experiment.<br><br>It is <b>very</b> important for you to keep accuracy at least at 85%: <u>We can only use<br>data where the participant was at least 85% accurate on the judgments.</u> Therefore,<br> please try your best to perform well on the symmetry judgments, <b>at the same time</b><br>doing your best to recall as many letters as possible.<br><br>Click the button to try some practice problems.</div><br><br><br><br>",0,ospan,instruct,rnRIr4p5h0VjZiHGRo0hFlSMeay1,html-button-response,81,756668,0.0-46.0-2.0-0.0-2.0,,,,,,,,,,,,,,,593f105f02d1cc0001071a72,15:10:47,03/04/2024
,"<p style=""font-size:75px;"">...</p>",,ospan,iti,rnRIr4p5h0VjZiHGRo0hFlSMeay1,html-keyboard-response,82,757927,0.0-46.0-2.0-1.0-0.0,,,,,,,,,,,,,,,593f105f02d1cc0001071a72,15:10:47,03/04/2024
1591.0,,,ospan,symmetry,rnRIr4p5h0VjZiHGRo0hFlSMeay1,symmetry-judgement-task,83,763274,0.0-46.0-2.0-1.0-1.0-0.0,,,,,,,,,,1.0,1.0,,,,593f105f02d1cc0001071a72,15:10:47,03/04/2024
,"<div style=""font-size: 10rem; color: #0000FF"">C</div>",,ospan,letter,rnRIr4p5h0VjZiHGRo0hFlSMeay1,html-keyboard-response,84,764284,0.0-46.0-2.0-1.0-1.0-1.0,,,,,,,,,,,,,,,593f105f02d1cc0001071a72,15:10:47,03/04/2024
1733.0,,,ospan,symmetry,rnRIr4p5h0VjZiHGRo0hFlSMeay1,symmetry-judgement-task,85,770052,0.0-46.0-2.0-1.0-1.0-2.0,,,,,,,,,,1.0,1.0,,,,593f105f02d1cc0001071a72,15:10:47,03/04/2024
,"<div style=""font-size: 10rem; color: #0000FF"">S</div>",,ospan,letter,rnRIr4p5h0VjZiHGRo0hFlSMeay1,html-keyboard-response,86,771061,0.0-46.0-2.0-1.0-1.0-3.0,,,,,,,,,,,,,,,593f105f02d1cc0001071a72,15:10:47,03/04/2024
1433.0,,,ospan,symmetry,rnRIr4p5h0VjZiHGRo0hFlSMeay1,symmetry-judgement-task,87,776811,0.0-46.0-2.0-1.0-1.0-4.0,,,,,,,,,,1.0,1.0,,,,593f105f02d1cc0001071a72,15:10:47,03/04/2024
,"<div style=""font-size: 10rem; color: #0000FF"">H</div>",,ospan,letter,rnRIr4p5h0VjZiHGRo0hFlSMeay1,html-keyboard-response,88,777818,0.0-46.0-2.0-1.0-1.0-5.0,,,,,,,,,,,,,,,593f105f02d1cc0001071a72,15:10:47,03/04/2024
5926.700000000186,"<div class = numbox><p style=""font-size: 2.4rem"">Please recall the letters you saw to the best of your ability. If you do not remember a particular letter, use the SKIP button.<br><b>(When you are ready to lock in your answer, press ENTER)</b></p><button id = button_1 class = ""square num-button"" onclick = ""recordClick(this)""><div class = content><div class = numbers>C</div></div></button><button id = button_2 class = ""square num-button"" onclick = ""recordClick(this)""><div class = content><div class = numbers>G</div></div></button><button id = button_3 class = ""square num-button"" onclick = ""recordClick(this)""><div class = content><div class = numbers>H</div></div></button><button id = button_4 class = ""square num-button"" onclick = ""recordClick(this)""><div class = content><div class = numbers>J</div></div></button><button id = button_5 class = ""square num-button"" onclick = ""recordClick(this)""><div class = content><div class = numbers>K</div></div></button><button id = button_6 class = ""square num-button"" onclick = ""recordClick(this)""><div class = content><div class = numbers>L</div></div></button><button id = button_7 class = ""square num-button"" onclick = ""recordClick(this)""><div class = content><div class = numbers>N</div></div></button><button id = button_8 class = ""square num-button"" onclick = ""recordClick(this)""><div class = content><div class = numbers>P</div></div></button><button id = button_9 class = ""square num-button"" onclick = ""recordClick(this)""><div class = content><div class = numbers>Q</div></div></button><button id = button_10 class = ""square num-button"" onclick = ""recordClick(this)""><div class = content><div class = numbers>R</div></div></button><button id = button_11 class = ""square num-button"" onclick = ""recordClick(this)""><div class = content><div class = numbers>S</div></div></button><button id = button_12 class = ""square num-button"" onclick = ""recordClick(this)""><div class = content><div class = numbers>Y</div></div></button><button class = clear_button id = ""ClearButton"" onclick = ""clearResponse()"">BACKSPACE</button><button class = blank_button id = ""BlankButton"" onclick = ""blankResponse()"">SKIP</button><p style=""font-size: 2.4rem""><u><b>Current Answer:</b></u></p><br><br><div id=echoed_txt style=""font-size: 5rem; color:blue;""><b></b></div></div>",enter,ospan,retrieval,rnRIr4p5h0VjZiHGRo0hFlSMeay1,html-keyboard-response,89,784510,0.0-46.0-2.0-1.0-2.0-0.0,NA,NA,NA,3.0,"[""C"",""S"",""H""]","[""C"",""S"",""H""]",1.0,3.0,"['<font color=""green"">C</font>', '<font color=""green"">S</font>', '<font color=""green"">H</font>']",,,,,,593f105f02d1cc0001071a72,15:10:47,03/04/2024
3022.2000000001863,"['<p style=""font-size:44px"">Letters:<br><br><br><font color=""green"">C</font> <font color=""green"">S</font> <font color=""green"">H</font></p><br><br><p style=""font-size:30px"">Symmetry:<br><br><font color=""green"">100%</font></p><br><br>']",0,ospan,practice_feedback,rnRIr4p5h0VjZiHGRo0hFlSMeay1,html-button-response,90,788051,0.0-46.0-2.0-1.0-2.0-1.0,,,,,,,,,,,,,,,593f105f02d1cc0001071a72,15:10:47,03/04/2024
,"<p style=""font-size:75px;"">...</p>",,ospan,iti,rnRIr4p5h0VjZiHGRo0hFlSMeay1,html-keyboard-response,91,789063,0.0-46.0-2.0-2.0-0.0,,,,,,,,,,,,,,,593f105f02d1cc0001071a72,15:10:47,03/04/2024
2444.0,,,ospan,symmetry,rnRIr4p5h0VjZiHGRo0hFlSMeay1,symmetry-judgement-task,92,795233,0.0-46.0-2.0-2.0-1.0-0.0,,,,,,,,,,1.0,1.0,,,,593f105f02d1cc0001071a72,15:10:47,03/04/2024
,"<div style=""font-size: 10rem; color: #0000FF"">S</div>",,ospan,letter,rnRIr4p5h0VjZiHGRo0hFlSMeay1,html-keyboard-response,93,796240,0.0-46.0-2.0-2.0-1.0-1.0,,,,,,,,,,,,,,,593f105f02d1cc0001071a72,15:10:47,03/04/2024
1575.0,,,ospan,symmetry,rnRIr4p5h0VjZiHGRo0hFlSMeay1,symmetry-judgement-task,94,801939,0.0-46.0-2.0-2.0-1.0-2.0,,,,,,,,,,1.0,1.0,,,,593f105f02d1cc0001071a72,15:10:47,03/04/2024
,"<div style=""font-size: 10rem; color: #0000FF"">L</div>",,ospan,letter,rnRIr4p5h0VjZiHGRo0hFlSMeay1,html-keyboard-response,95,802953,0.0-46.0-2.0-2.0-1.0-3.0,,,,,,,,,,,,,,,593f105f02d1cc0001071a72,15:10:47,03/04/2024
1851.0,,,ospan,symmetry,rnRIr4p5h0VjZiHGRo0hFlSMeay1,symmetry-judgement-task,96,809037,0.0-46.0-2.0-2.0-1.0-4.0,,,,,,,,,,1.0,1.0,,,,593f105f02d1cc0001071a72,15:10:47,03/04/2024
,"<div style=""font-size: 10rem; color: #0000FF"">J</div>",,ospan,letter,rnRIr4p5h0VjZiHGRo0hFlSMeay1,html-keyboard-response,97,810045,0.0-46.0-2.0-2.0-1.0-5.0,,,,,,,,,,,,,,,593f105f02d1cc0001071a72,15:10:47,03/04/2024
4838.0,"<div class = numbox><p style=""font-size: 2.4rem"">Please recall the letters you saw to the best of your ability. If you do not remember a particular letter, use the SKIP button.<br><b>(When you are ready to lock in your answer, press ENTER)</b></p><button id = button_1 class = ""square num-button"" onclick = ""recordClick(this)""><div class = content><div class = numbers>C</div></div></button><button id = button_2 class = ""square num-button"" onclick = ""recordClick(this)""><div class = content><div class = numbers>G</div></div></button><button id = button_3 class = ""square num-button"" onclick = ""recordClick(this)""><div class = content><div class = numbers>H</div></div></button><button id = button_4 class = ""square num-button"" onclick = ""recordClick(this)""><div class = content><div class = numbers>J</div></div></button><button id = button_5 class = ""square num-button"" onclick = ""recordClick(this)""><div class = content><div class = numbers>K</div></div></button><button id = button_6 class = ""square num-button"" onclick = ""recordClick(this)""><div class = content><div class = numbers>L</div></div></button><button id = button_7 class = ""square num-button"" onclick = ""recordClick(this)""><div class = content><div class = numbers>N</div></div></button><button id = button_8 class = ""square num-button"" onclick = ""recordClick(this)""><div class = content><div class = numbers>P</div></div></button><button id = button_9 class = ""square num-button"" onclick = ""recordClick(this)""><div class = content><div class = numbers>Q</div></div></button><button id = button_10 class = ""square num-button"" onclick = ""recordClick(this)""><div class = content><div class = numbers>R</div></div></button><button id = button_11 class = ""square num-button"" onclick = ""recordClick(this)""><div class = content><div class = numbers>S</div></div></button><button id = button_12 class = ""square num-button"" onclick = ""recordClick(this)""><div class = content><div class = numbers>Y</div></div></button><button class = clear_button id = ""ClearButton"" onclick = ""clearResponse()"">BACKSPACE</button><button class = blank_button id = ""BlankButton"" onclick = ""blankResponse()"">SKIP</button><p style=""font-size: 2.4rem""><u><b>Current Answer:</b></u></p><br><br><div id=echoed_txt style=""font-size: 5rem; color:blue;""><b></b></div></div>",enter,ospan,retrieval,rnRIr4p5h0VjZiHGRo0hFlSMeay1,html-keyboard-response,98,815647,0.0-46.0-2.0-2.0-2.0-0.0,NA,NA,NA,3.0,"[""S"",""L"",""J""]","[""S"",""L"",""J""]",1.0,3.0,"['<font color=""green"">S</font>', '<font color=""green"">L</font>', '<font color=""green"">J</font>']",,,,,,593f105f02d1cc0001071a72,15:10:47,03/04/2024
2098.7000000001863,"['<p style=""font-size:44px"">Letters:<br><br><br><font color=""green"">S</font> <font color=""green"">L</font> <font color=""green"">J</font></p><br><br><p style=""font-size:30px"">Symmetry:<br><br><font color=""green"">100%</font></p><br><br>']",0,ospan,practice_feedback,rnRIr4p5h0VjZiHGRo0hFlSMeay1,html-button-response,99,818262,0.0-46.0-2.0-2.0-2.0-1.0,,,,,,,,,,,,,,,593f105f02d1cc0001071a72,15:10:47,03/04/2024
6397.899999999441,"<div class = 'left_align' style='font-size: 3rem; line-height: 1.3;'><b>Great work! That is the end of practice.</b><br><br>The real trials will look just like the practice trials you just completed.<br><br><u>Here, you will not see feedback</u>. First, you will see an grid picture to judge,<br>then a letter to remember. When the recall screen appears, report the letters in the<br>order presented. If you forget a letter, remember to use the <b>blank</b> button to move to the<br>next letter. Some of the sets will have more symmetry grids and letters than others.<br><br>It is important that you do your best on both the symmetry judgments and the letter recall<br>parts of the experiment. For for the symmetry judgments, try to work as <b>quickly</b> and <br>as <b>accurately</b> as possible. Remember to keep your symmetry accuracy at 85% or above.<br><br><b>For the letters, do NOT use any external aid (e.g., writing on paper, electronic device).</b><br><br>It is <u>very important</u> to our experiment to have a <b>true</b> view of your real performance.<br><br>Do not worry if you miss some when it gets hard! This task is meant to be very challenging!<br><br>Click the button to begin.</div><br><br><br><br>",0,ospan,starting_real_here,rnRIr4p5h0VjZiHGRo0hFlSMeay1,html-button-response,100,824678,0.0-46.0-2.0-3.0,,,,,,,,,,,,,,,593f105f02d1cc0001071a72,15:10:47,03/04/2024
,"<p style=""font-size:75px;"">...</p>",,ospan,iti,rnRIr4p5h0VjZiHGRo0hFlSMeay1,html-keyboard-response,101,825939,0.0-46.0-3.0-0.0-0.0,,,,,,,,,,,,,,,593f105f02d1cc0001071a72,15:10:47,03/04/2024
3452.0,,,ospan,symmetry,rnRIr4p5h0VjZiHGRo0hFlSMeay1,symmetry-judgement-task,102,830857,0.0-46.0-3.0-0.0-1.0-0.0,,,,,,,,,,1.0,1.0,,,,593f105f02d1cc0001071a72,15:10:47,03/04/2024
,"<div style=""font-size: 10rem; color: #0000FF"">L</div>",,ospan,letter,rnRIr4p5h0VjZiHGRo0hFlSMeay1,html-keyboard-response,103,831868,0.0-46.0-3.0-0.0-1.0-1.0,,,,,,,,,,,,,,,593f105f02d1cc0001071a72,15:10:47,03/04/2024
1304.0,,,ospan,symmetry,rnRIr4p5h0VjZiHGRo0hFlSMeay1,symmetry-judgement-task,104,837510,0.0-46.0-3.0-0.0-1.0-2.0,,,,,,,,,,1.0,1.0,,,,593f105f02d1cc0001071a72,15:10:47,03/04/2024
,"<div style=""font-size: 10rem; color: #0000FF"">N</div>",,ospan,letter,rnRIr4p5h0VjZiHGRo0hFlSMeay1,html-keyboard-response,105,838516,0.0-46.0-3.0-0.0-1.0-3.0,,,,,,,,,,,,,,,593f105f02d1cc0001071a72,15:10:47,03/04/2024
1402.0,,,ospan,symmetry,rnRIr4p5h0VjZiHGRo0hFlSMeay1,symmetry-judgement-task,106,843999,0.0-46.0-3.0-0.0-1.0-4.0,,,,,,,,,,1.0,1.0,,,,593f105f02d1cc0001071a72,15:10:47,03/04/2024
,"<div style=""font-size: 10rem; color: #0000FF"">S</div>",,ospan,letter,rnRIr4p5h0VjZiHGRo0hFlSMeay1,html-keyboard-response,107,845015,0.0-46.0-3.0-0.0-1.0-5.0,,,,,,,,,,,,,,,593f105f02d1cc0001071a72,15:10:47,03/04/2024
3997.4000000003725,"<div class = numbox><p style=""font-size: 2.4rem"">Please recall the letters you saw to the best of your ability. If you do not remember a particular letter, use the SKIP button.<br><b>(When you are ready to lock in your answer, press ENTER)</b></p><button id = button_1 class = ""square num-button"" onclick = ""recordClick(this)""><div class = content><div class = numbers>C</div></div></button><button id = button_2 class = ""square num-button"" onclick = ""recordClick(this)""><div class = content><div class = numbers>G</div></div></button><button id = button_3 class = ""square num-button"" onclick = ""recordClick(this)""><div class = content><div class = numbers>H</div></div></button><button id = button_4 class = ""square num-button"" onclick = ""recordClick(this)""><div class = content><div class = numbers>J</div></div></button><button id = button_5 class = ""square num-button"" onclick = ""recordClick(this)""><div class = content><div class = numbers>K</div></div></button><button id = button_6 class = ""square num-button"" onclick = ""recordClick(this)""><div class = content><div class = numbers>L</div></div></button><button id = button_7 class = ""square num-button"" onclick = ""recordClick(this)""><div class = content><div class = numbers>N</div></div></button><button id = button_8 class = ""square num-button"" onclick = ""recordClick(this)""><div class = content><div class = numbers>P</div></div></button><button id = button_9 class = ""square num-button"" onclick = ""recordClick(this)""><div class = content><div class = numbers>Q</div></div></button><button id = button_10 class = ""square num-button"" onclick = ""recordClick(this)""><div class = content><div class = numbers>R</div></div></button><button id = button_11 class = ""square num-button"" onclick = ""recordClick(this)""><div class = content><div class = numbers>S</div></div></button><button id = button_12 class = ""square num-button"" onclick = ""recordClick(this)""><div class = content><div class = numbers>Y</div></div></button><button class = clear_button id = ""ClearButton"" onclick = ""clearResponse()"">BACKSPACE</button><button class = blank_button id = ""BlankButton"" onclick = ""blankResponse()"">SKIP</button><p style=""font-size: 2.4rem""><u><b>Current Answer:</b></u></p><br><br><div id=echoed_txt style=""font-size: 5rem; color:blue;""><b></b></div></div>",enter,ospan,retrieval,rnRIr4p5h0VjZiHGRo0hFlSMeay1,html-keyboard-response,108,849778,0.0-46.0-3.0-0.0-2.0,3,3,3,3.0,"[""L"",""N"",""S""]","[""L"",""N"",""S""]",1.0,3.0,,,,,,,593f105f02d1cc0001071a72,15:10:47,03/04/2024
2212.699999999255,[''],0,ospan,feedback,rnRIr4p5h0VjZiHGRo0hFlSMeay1,html-button-response,109,852503,0.0-46.0-3.0-0.0-3.0,,,,,,,,,,,,100.0,0.0,,593f105f02d1cc0001071a72,15:10:47,03/04/2024
,"<p style=""font-size:75px;"">...</p>",,ospan,iti,rnRIr4p5h0VjZiHGRo0hFlSMeay1,html-keyboard-response,110,853516,0.0-46.0-4.0-0.0-0.0,,,,,,,,,,,,,,,593f105f02d1cc0001071a72,15:10:47,03/04/2024
1645.0,,,ospan,symmetry,rnRIr4p5h0VjZiHGRo0hFlSMeay1,symmetry-judgement-task,111,858610,0.0-46.0-4.0-0.0-1.0-0.0,,,,,,,,,,1.0,1.0,,,,593f105f02d1cc0001071a72,15:10:47,03/04/2024
,"<div style=""font-size: 10rem; color: #0000FF"">P</div>",,ospan,letter,rnRIr4p5h0VjZiHGRo0hFlSMeay1,html-keyboard-response,112,859621,0.0-46.0-4.0-0.0-1.0-1.0,,,,,,,,,,,,,,,593f105f02d1cc0001071a72,15:10:47,03/04/2024
1828.0,,,ospan,symmetry,rnRIr4p5h0VjZiHGRo0hFlSMeay1,symmetry-judgement-task,113,865654,0.0-46.0-4.0-0.0-1.0-2.0,,,,,,,,,,1.0,1.0,,,,593f105f02d1cc0001071a72,15:10:47,03/04/2024
,"<div style=""font-size: 10rem; color: #0000FF"">H</div>",,ospan,letter,rnRIr4p5h0VjZiHGRo0hFlSMeay1,html-keyboard-response,114,866663,0.0-46.0-4.0-0.0-1.0-3.0,,,,,,,,,,,,,,,593f105f02d1cc0001071a72,15:10:47,03/04/2024
1814.0,,,ospan,symmetry,rnRIr4p5h0VjZiHGRo0hFlSMeay1,symmetry-judgement-task,115,872946,0.0-46.0-4.0-0.0-1.0-4.0,,,,,,,,,,1.0,1.0,,,,593f105f02d1cc0001071a72,15:10:47,03/04/2024
,"<div style=""font-size: 10rem; color: #0000FF"">G</div>",,ospan,letter,rnRIr4p5h0VjZiHGRo0hFlSMeay1,html-keyboard-response,116,873958,0.0-46.0-4.0-0.0-1.0-5.0,,,,,,,,,,,,,,,593f105f02d1cc0001071a72,15:10:47,03/04/2024
2230.0,,,ospan,symmetry,rnRIr4p5h0VjZiHGRo0hFlSMeay1,symmetry-judgement-task,117,880421,0.0-46.0-4.0-0.0-1.0-6.0,,,,,,,,,,1.0,1.0,,,,593f105f02d1cc0001071a72,15:10:47,03/04/2024
,"<div style=""font-size: 10rem; color: #0000FF"">J</div>",,ospan,letter,rnRIr4p5h0VjZiHGRo0hFlSMeay1,html-keyboard-response,118,881432,0.0-46.0-4.0-0.0-1.0-7.0,,,,,,,,,,,,,,,593f105f02d1cc0001071a72,15:10:47,03/04/2024
18460.599999999627,"<div class = numbox><p style=""font-size: 2.4rem"">Please recall the letters you saw to the best of your ability. If you do not remember a particular letter, use the SKIP button.<br><b>(When you are ready to lock in your answer, press ENTER)</b></p><button id = button_1 class = ""square num-button"" onclick = ""recordClick(this)""><div class = content><div class = numbers>C</div></div></button><button id = button_2 class = ""square num-button"" onclick = ""recordClick(this)""><div class = content><div class = numbers>G</div></div></button><button id = button_3 class = ""square num-button"" onclick = ""recordClick(this)""><div class = content><div class = numbers>H</div></div></button><button id = button_4 class = ""square num-button"" onclick = ""recordClick(this)""><div class = content><div class = numbers>J</div></div></button><button id = button_5 class = ""square num-button"" onclick = ""recordClick(this)""><div class = content><div class = numbers>K</div></div></button><button id = button_6 class = ""square num-button"" onclick = ""recordClick(this)""><div class = content><div class = numbers>L</div></div></button><button id = button_7 class = ""square num-button"" onclick = ""recordClick(this)""><div class = content><div class = numbers>N</div></div></button><button id = button_8 class = ""square num-button"" onclick = ""recordClick(this)""><div class = content><div class = numbers>P</div></div></button><button id = button_9 class = ""square num-button"" onclick = ""recordClick(this)""><div class = content><div class = numbers>Q</div></div></button><button id = button_10 class = ""square num-button"" onclick = ""recordClick(this)""><div class = content><div class = numbers>R</div></div></button><button id = button_11 class = ""square num-button"" onclick = ""recordClick(this)""><div class = content><div class = numbers>S</div></div></button><button id = button_12 class = ""square num-button"" onclick = ""recordClick(this)""><div class = content><div class = numbers>Y</div></div></button><button class = clear_button id = ""ClearButton"" onclick = ""clearResponse()"">BACKSPACE</button><button class = blank_button id = ""BlankButton"" onclick = ""blankResponse()"">SKIP</button><p style=""font-size: 2.4rem""><u><b>Current Answer:</b></u></p><br><br><div id=echoed_txt style=""font-size: 5rem; color:blue;""><b></b></div></div>",enter,ospan,retrieval,rnRIr4p5h0VjZiHGRo0hFlSMeay1,html-keyboard-response,119,900663,0.0-46.0-4.0-0.0-2.0,7,7,7,4.0,"[""P"",""H"",""G"",""J""]","[""P"",""H"",""G"",""J""]",1.0,4.0,,,,,,,593f105f02d1cc0001071a72,15:10:47,03/04/2024
1871.0,[''],0,ospan,feedback,rnRIr4p5h0VjZiHGRo0hFlSMeay1,html-button-response,120,903047,0.0-46.0-4.0-0.0-3.0,,,,,,,,,,,,100.0,0.0,,593f105f02d1cc0001071a72,15:10:47,03/04/2024
,"<p style=""font-size:75px;"">...</p>",,ospan,iti,rnRIr4p5h0VjZiHGRo0hFlSMeay1,html-keyboard-response,121,904064,0.0-46.0-4.0-1.0-0.0,,,,,,,,,,,,,,,593f105f02d1cc0001071a72,15:10:47,03/04/2024
2665.0,,,ospan,symmetry,rnRIr4p5h0VjZiHGRo0hFlSMeay1,symmetry-judgement-task,122,910526,0.0-46.0-4.0-1.0-1.0-0.0,,,,,,,,,,1.0,1.0,,,,593f105f02d1cc0001071a72,15:10:47,03/04/2024
,"<div style=""font-size: 10rem; color: #0000FF"">C</div>",,ospan,letter,rnRIr4p5h0VjZiHGRo0hFlSMeay1,html-keyboard-response,123,911535,0.0-46.0-4.0-1.0-1.0-1.0,,,,,,,,,,,,,,,593f105f02d1cc0001071a72,15:10:47,03/04/2024
1518.0,,,ospan,symmetry,rnRIr4p5h0VjZiHGRo0hFlSMeay1,symmetry-judgement-task,124,917370,0.0-46.0-4.0-1.0-1.0-2.0,,,,,,,,,,1.0,1.0,,,,593f105f02d1cc0001071a72,15:10:47,03/04/2024
,"<div style=""font-size: 10rem; color: #0000FF"">G</div>",,ospan,letter,rnRIr4p5h0VjZiHGRo0hFlSMeay1,html-keyboard-response,125,918391,0.0-46.0-4.0-1.0-1.0-3.0,,,,,,,,,,,,,,,593f105f02d1cc0001071a72,15:10:47,03/04/2024
1886.0,,,ospan,symmetry,rnRIr4p5h0VjZiHGRo0hFlSMeay1,symmetry-judgement-task,126,924294,0.0-46.0-4.0-1.0-1.0-4.0,,,,,,,,,,1.0,1.0,,,,593f105f02d1cc0001071a72,15:10:47,03/04/2024
,"<div style=""font-size: 10rem; color: #0000FF"">L</div>",,ospan,letter,rnRIr4p5h0VjZiHGRo0hFlSMeay1,html-keyboard-response,127,925302,0.0-46.0-4.0-1.0-1.0-5.0,,,,,,,,,,,,,,,593f105f02d1cc0001071a72,15:10:47,03/04/2024
2010.0,,,ospan,symmetry,rnRIr4p5h0VjZiHGRo0hFlSMeay1,symmetry-judgement-task,128,931635,0.0-46.0-4.0-1.0-1.0-6.0,,,,,,,,,,1.0,1.0,,,,593f105f02d1cc0001071a72,15:10:47,03/04/2024
,"<div style=""font-size: 10rem; color: #0000FF"">H</div>",,ospan,letter,rnRIr4p5h0VjZiHGRo0hFlSMeay1,html-keyboard-response,129,932644,0.0-46.0-4.0-1.0-1.0-7.0,,,,,,,,,,,,,,,593f105f02d1cc0001071a72,15:10:47,03/04/2024
1681.0,,,ospan,symmetry,rnRIr4p5h0VjZiHGRo0hFlSMeay1,symmetry-judgement-task,130,938641,0.0-46.0-4.0-1.0-1.0-8.0,,,,,,,,,,1.0,1.0,,,,593f105f02d1cc0001071a72,15:10:47,03/04/2024
,"<div style=""font-size: 10rem; color: #0000FF"">Q</div>",,ospan,letter,rnRIr4p5h0VjZiHGRo0hFlSMeay1,html-keyboard-response,131,939663,0.0-46.0-4.0-1.0-1.0-9.0,,,,,,,,,,,,,,,593f105f02d1cc0001071a72,15:10:47,03/04/2024
7268.4000000003725,"<div class = numbox><p style=""font-size: 2.4rem"">Please recall the letters you saw to the best of your ability. If you do not remember a particular letter, use the SKIP button.<br><b>(When you are ready to lock in your answer, press ENTER)</b></p><button id = button_1 class = ""square num-button"" onclick = ""recordClick(this)""><div class = content><div class = numbers>C</div></div></button><button id = button_2 class = ""square num-button"" onclick = ""recordClick(this)""><div class = content><div class = numbers>G</div></div></button><button id = button_3 class = ""square num-button"" onclick = ""recordClick(this)""><div class = content><div class = numbers>H</div></div></button><button id = button_4 class = ""square num-button"" onclick = ""recordClick(this)""><div class = content><div class = numbers>J</div></div></button><button id = button_5 class = ""square num-button"" onclick = ""recordClick(this)""><div class = content><div class = numbers>K</div></div></button><button id = button_6 class = ""square num-button"" onclick = ""recordClick(this)""><div class = content><div class = numbers>L</div></div></button><button id = button_7 class = ""square num-button"" onclick = ""recordClick(this)""><div class = content><div class = numbers>N</div></div></button><button id = button_8 class = ""square num-button"" onclick = ""recordClick(this)""><div class = content><div class = numbers>P</div></div></button><button id = button_9 class = ""square num-button"" onclick = ""recordClick(this)""><div class = content><div class = numbers>Q</div></div></button><button id = button_10 class = ""square num-button"" onclick = ""recordClick(this)""><div class = content><div class = numbers>R</div></div></button><button id = button_11 class = ""square num-button"" onclick = ""recordClick(this)""><div class = content><div class = numbers>S</div></div></button><button id = button_12 class = ""square num-button"" onclick = ""recordClick(this)""><div class = content><div class = numbers>Y</div></div></button><button class = clear_button id = ""ClearButton"" onclick = ""clearResponse()"">BACKSPACE</button><button class = blank_button id = ""BlankButton"" onclick = ""blankResponse()"">SKIP</button><p style=""font-size: 2.4rem""><u><b>Current Answer:</b></u></p><br><br><div id=echoed_txt style=""font-size: 5rem; color:blue;""><b></b></div></div>",enter,ospan,retrieval,rnRIr4p5h0VjZiHGRo0hFlSMeay1,html-keyboard-response,132,947694,0.0-46.0-4.0-1.0-2.0,12,12,12,5.0,"[""C"",""G"",""L"",""H"",""Q""]","[""C"",""G"",""L"",""H"",""Q""]",1.0,5.0,,,,,,,593f105f02d1cc0001071a72,15:10:47,03/04/2024
1714.4000000003725,[''],0,ospan,feedback,rnRIr4p5h0VjZiHGRo0hFlSMeay1,html-button-response,133,949919,0.0-46.0-4.0-1.0-3.0,,,,,,,,,,,,100.0,0.0,,593f105f02d1cc0001071a72,15:10:47,03/04/2024
,"<p style=""font-size:75px;"">...</p>",,ospan,iti,rnRIr4p5h0VjZiHGRo0hFlSMeay1,html-keyboard-response,134,950932,0.0-46.0-4.0-2.0-0.0,,,,,,,,,,,,,,,593f105f02d1cc0001071a72,15:10:47,03/04/2024
1519.0,,,ospan,symmetry,rnRIr4p5h0VjZiHGRo0hFlSMeay1,symmetry-judgement-task,135,956045,0.0-46.0-4.0-2.0-1.0-0.0,,,,,,,,,,0.0,0.0,,,,593f105f02d1cc0001071a72,15:10:47,03/04/2024
,"<div style=""font-size: 10rem; color: #0000FF"">G</div>",,ospan,letter,rnRIr4p5h0VjZiHGRo0hFlSMeay1,html-keyboard-response,136,957054,0.0-46.0-4.0-2.0-1.0-1.0,,,,,,,,,,,,,,,593f105f02d1cc0001071a72,15:10:47,03/04/2024
2845.0,,,ospan,symmetry,rnRIr4p5h0VjZiHGRo0hFlSMeay1,symmetry-judgement-task,137,964049,0.0-46.0-4.0-2.0-1.0-2.0,,,,,,,,,,1.0,1.0,,,,593f105f02d1cc0001071a72,15:10:47,03/04/2024
,"<div style=""font-size: 10rem; color: #0000FF"">S</div>",,ospan,letter,rnRIr4p5h0VjZiHGRo0hFlSMeay1,html-keyboard-response,138,965065,0.0-46.0-4.0-2.0-1.0-3.0,,,,,,,,,,,,,,,593f105f02d1cc0001071a72,15:10:47,03/04/2024
1679.0,,,ospan,symmetry,rnRIr4p5h0VjZiHGRo0hFlSMeay1,symmetry-judgement-task,139,971012,0.0-46.0-4.0-2.0-1.0-4.0,,,,,,,,,,0.0,0.0,,,,593f105f02d1cc0001071a72,15:10:47,03/04/2024
,"<div style=""font-size: 10rem; color: #0000FF"">H</div>",,ospan,letter,rnRIr4p5h0VjZiHGRo0hFlSMeay1,html-keyboard-response,140,972019,0.0-46.0-4.0-2.0-1.0-5.0,,,,,,,,,,,,,,,593f105f02d1cc0001071a72,15:10:47,03/04/2024
5243.4000000003725,"<div class = numbox><p style=""font-size: 2.4rem"">Please recall the letters you saw to the best of your ability. If you do not remember a particular letter, use the SKIP button.<br><b>(When you are ready to lock in your answer, press ENTER)</b></p><button id = button_1 class = ""square num-button"" onclick = ""recordClick(this)""><div class = content><div class = numbers>C</div></div></button><button id = button_2 class = ""square num-button"" onclick = ""recordClick(this)""><div class = content><div class = numbers>G</div></div></button><button id = button_3 class = ""square num-button"" onclick = ""recordClick(this)""><div class = content><div class = numbers>H</div></div></button><button id = button_4 class = ""square num-button"" onclick = ""recordClick(this)""><div class = content><div class = numbers>J</div></div></button><button id = button_5 class = ""square num-button"" onclick = ""recordClick(this)""><div class = content><div class = numbers>K</div></div></button><button id = button_6 class = ""square num-button"" onclick = ""recordClick(this)""><div class = content><div class = numbers>L</div></div></button><button id = button_7 class = ""square num-button"" onclick = ""recordClick(this)""><div class = content><div class = numbers>N</div></div></button><button id = button_8 class = ""square num-button"" onclick = ""recordClick(this)""><div class = content><div class = numbers>P</div></div></button><button id = button_9 class = ""square num-button"" onclick = ""recordClick(this)""><div class = content><div class = numbers>Q</div></div></button><button id = button_10 class = ""square num-button"" onclick = ""recordClick(this)""><div class = content><div class = numbers>R</div></div></button><button id = button_11 class = ""square num-button"" onclick = ""recordClick(this)""><div class = content><div class = numbers>S</div></div></button><button id = button_12 class = ""square num-button"" onclick = ""recordClick(this)""><div class = content><div class = numbers>Y</div></div></button><button class = clear_button id = ""ClearButton"" onclick = ""clearResponse()"">BACKSPACE</button><button class = blank_button id = ""BlankButton"" onclick = ""blankResponse()"">SKIP</button><p style=""font-size: 2.4rem""><u><b>Current Answer:</b></u></p><br><br><div id=echoed_txt style=""font-size: 5rem; color:blue;""><b></b></div></div>",enter,ospan,retrieval,rnRIr4p5h0VjZiHGRo0hFlSMeay1,html-keyboard-response,141,978026,0.0-46.0-4.0-2.0-2.0,15,15,15,3.0,"[""G"",""S"",""H""]","[""G"",""S"",""H""]",1.0,3.0,,,,,,,593f105f02d1cc0001071a72,15:10:47,03/04/2024
5470.200000000186,[''],0,ospan,feedback,rnRIr4p5h0VjZiHGRo0hFlSMeay1,html-button-response,142,984012,0.0-46.0-4.0-2.0-3.0,,,,,,,,,,,,87.0,0.0,,593f105f02d1cc0001071a72,15:10:47,03/04/2024
,"<p style=""font-size:75px;"">...</p>",,ospan,iti,rnRIr4p5h0VjZiHGRo0hFlSMeay1,html-keyboard-response,143,985031,0.0-46.0-5.0-0.0-0.0,,,,,,,,,,,,,,,593f105f02d1cc0001071a72,15:10:47,03/04/2024
3197.0,,,ospan,symmetry,rnRIr4p5h0VjZiHGRo0hFlSMeay1,symmetry-judgement-task,144,989714,0.0-46.0-5.0-0.0-1.0-0.0,,,,,,,,,,1.0,1.0,,,,593f105f02d1cc0001071a72,15:10:47,03/04/2024
,"<div style=""font-size: 10rem; color: #0000FF"">C</div>",,ospan,letter,rnRIr4p5h0VjZiHGRo0hFlSMeay1,html-keyboard-response,145,990727,0.0-46.0-5.0-0.0-1.0-1.0,,,,,,,,,,,,,,,593f105f02d1cc0001071a72,15:10:47,03/04/2024
1740.0,,,ospan,symmetry,rnRIr4p5h0VjZiHGRo0hFlSMeay1,symmetry-judgement-task,146,996662,0.0-46.0-5.0-0.0-1.0-2.0,,,,,,,,,,1.0,1.0,,,,593f105f02d1cc0001071a72,15:10:47,03/04/2024
,"<div style=""font-size: 10rem; color: #0000FF"">Q</div>",,ospan,letter,rnRIr4p5h0VjZiHGRo0hFlSMeay1,html-keyboard-response,147,997675,0.0-46.0-5.0-0.0-1.0-3.0,,,,,,,,,,,,,,,593f105f02d1cc0001071a72,15:10:47,03/04/2024
1420.0,,,ospan,symmetry,rnRIr4p5h0VjZiHGRo0hFlSMeay1,symmetry-judgement-task,148,1003144,0.0-46.0-5.0-0.0-1.0-4.0,,,,,,,,,,1.0,1.0,,,,593f105f02d1cc0001071a72,15:10:47,03/04/2024
,"<div style=""font-size: 10rem; color: #0000FF"">G</div>",,ospan,letter,rnRIr4p5h0VjZiHGRo0hFlSMeay1,html-keyboard-response,149,1004154,0.0-46.0-5.0-0.0-1.0-5.0,,,,,,,,,,,,,,,593f105f02d1cc0001071a72,15:10:47,03/04/2024
1503.0,,,ospan,symmetry,rnRIr4p5h0VjZiHGRo0hFlSMeay1,symmetry-judgement-task,150,1009999,0.0-46.0-5.0-0.0-1.0-6.0,,,,,,,,,,1.0,1.0,,,,593f105f02d1cc0001071a72,15:10:47,03/04/2024
,"<div style=""font-size: 10rem; color: #0000FF"">J</div>",,ospan,letter,rnRIr4p5h0VjZiHGRo0hFlSMeay1,html-keyboard-response,151,1011009,0.0-46.0-5.0-0.0-1.0-7.0,,,,,,,,,,,,,,,593f105f02d1cc0001071a72,15:10:47,03/04/2024
2775.0,,,ospan,symmetry,rnRIr4p5h0VjZiHGRo0hFlSMeay1,symmetry-judgement-task,152,1017963,0.0-46.0-5.0-0.0-1.0-8.0,,,,,,,,,,1.0,1.0,,,,593f105f02d1cc0001071a72,15:10:47,03/04/2024
,"<div style=""font-size: 10rem; color: #0000FF"">K</div>",,ospan,letter,rnRIr4p5h0VjZiHGRo0hFlSMeay1,html-keyboard-response,153,1018976,0.0-46.0-5.0-0.0-1.0-9.0,,,,,,,,,,,,,,,593f105f02d1cc0001071a72,15:10:47,03/04/2024
1702.0,,,ospan,symmetry,rnRIr4p5h0VjZiHGRo0hFlSMeay1,symmetry-judgement-task,154,1025076,0.0-46.0-5.0-0.0-1.0-10.0,,,,,,,,,,1.0,1.0,,,,593f105f02d1cc0001071a72,15:10:47,03/04/2024
,"<div style=""font-size: 10rem; color: #0000FF"">Y</div>",,ospan,letter,rnRIr4p5h0VjZiHGRo0hFlSMeay1,html-keyboard-response,155,1026086,0.0-46.0-5.0-0.0-1.0-11.0,,,,,,,,,,,,,,,593f105f02d1cc0001071a72,15:10:47,03/04/2024
20662.900000000373,"<div class = numbox><p style=""font-size: 2.4rem"">Please recall the letters you saw to the best of your ability. If you do not remember a particular letter, use the SKIP button.<br><b>(When you are ready to lock in your answer, press ENTER)</b></p><button id = button_1 class = ""square num-button"" onclick = ""recordClick(this)""><div class = content><div class = numbers>C</div></div></button><button id = button_2 class = ""square num-button"" onclick = ""recordClick(this)""><div class = content><div class = numbers>G</div></div></button><button id = button_3 class = ""square num-button"" onclick = ""recordClick(this)""><div class = content><div class = numbers>H</div></div></button><button id = button_4 class = ""square num-button"" onclick = ""recordClick(this)""><div class = content><div class = numbers>J</div></div></button><button id = button_5 class = ""square num-button"" onclick = ""recordClick(this)""><div class = content><div class = numbers>K</div></div></button><button id = button_6 class = ""square num-button"" onclick = ""recordClick(this)""><div class = content><div class = numbers>L</div></div></button><button id = button_7 class = ""square num-button"" onclick = ""recordClick(this)""><div class = content><div class = numbers>N</div></div></button><button id = button_8 class = ""square num-button"" onclick = ""recordClick(this)""><div class = content><div class = numbers>P</div></div></button><button id = button_9 class = ""square num-button"" onclick = ""recordClick(this)""><div class = content><div class = numbers>Q</div></div></button><button id = button_10 class = ""square num-button"" onclick = ""recordClick(this)""><div class = content><div class = numbers>R</div></div></button><button id = button_11 class = ""square num-button"" onclick = ""recordClick(this)""><div class = content><div class = numbers>S</div></div></button><button id = button_12 class = ""square num-button"" onclick = ""recordClick(this)""><div class = content><div class = numbers>Y</div></div></button><button class = clear_button id = ""ClearButton"" onclick = ""clearResponse()"">BACKSPACE</button><button class = blank_button id = ""BlankButton"" onclick = ""blankResponse()"">SKIP</button><p style=""font-size: 2.4rem""><u><b>Current Answer:</b></u></p><br><br><div id=echoed_txt style=""font-size: 5rem; color:blue;""><b></b></div></div>",enter,ospan,retrieval,rnRIr4p5h0VjZiHGRo0hFlSMeay1,html-keyboard-response,156,1047511,0.0-46.0-5.0-0.0-2.0,21,21,21,6.0,"[""C"",""Q"",""G"",""J"",""K"",""Y""]","[""C"",""Q"",""G"",""J"",""K"",""Y""]",1.0,6.0,,,,,,,593f105f02d1cc0001071a72,15:10:47,03/04/2024
1866.2999999998137,[''],0,ospan,feedback,rnRIr4p5h0VjZiHGRo0hFlSMeay1,html-button-response,157,1049892,0.0-46.0-5.0-0.0-3.0,,,,,,,,,,,,90.0,0.0,,593f105f02d1cc0001071a72,15:10:47,03/04/2024
,"<p style=""font-size:75px;"">...</p>",,ospan,iti,rnRIr4p5h0VjZiHGRo0hFlSMeay1,html-keyboard-response,158,1050916,0.0-46.0-5.0-1.0-0.0,,,,,,,,,,,,,,,593f105f02d1cc0001071a72,15:10:47,03/04/2024
3779.0,,,ospan,symmetry,rnRIr4p5h0VjZiHGRo0hFlSMeay1,symmetry-judgement-task,159,1056187,0.0-46.0-5.0-1.0-1.0-0.0,,,,,,,,,,1.0,1.0,,,,593f105f02d1cc0001071a72,15:10:47,03/04/2024
,"<div style=""font-size: 10rem; color: #0000FF"">L</div>",,ospan,letter,rnRIr4p5h0VjZiHGRo0hFlSMeay1,html-keyboard-response,160,1057197,0.0-46.0-5.0-1.0-1.0-1.0,,,,,,,,,,,,,,,593f105f02d1cc0001071a72,15:10:47,03/04/2024
1525.0,,,ospan,symmetry,rnRIr4p5h0VjZiHGRo0hFlSMeay1,symmetry-judgement-task,161,1062956,0.0-46.0-5.0-1.0-1.0-2.0,,,,,,,,,,1.0,1.0,,,,593f105f02d1cc0001071a72,15:10:47,03/04/2024
,"<div style=""font-size: 10rem; color: #0000FF"">Q</div>",,ospan,letter,rnRIr4p5h0VjZiHGRo0hFlSMeay1,html-keyboard-response,162,1063964,0.0-46.0-5.0-1.0-1.0-3.0,,,,,,,,,,,,,,,593f105f02d1cc0001071a72,15:10:47,03/04/2024
2105.0,,,ospan,symmetry,rnRIr4p5h0VjZiHGRo0hFlSMeay1,symmetry-judgement-task,163,1070521,0.0-46.0-5.0-1.0-1.0-4.0,,,,,,,,,,1.0,1.0,,,,593f105f02d1cc0001071a72,15:10:47,03/04/2024
,"<div style=""font-size: 10rem; color: #0000FF"">N</div>",,ospan,letter,rnRIr4p5h0VjZiHGRo0hFlSMeay1,html-keyboard-response,164,1071529,0.0-46.0-5.0-1.0-1.0-5.0,,,,,,,,,,,,,,,593f105f02d1cc0001071a72,15:10:47,03/04/2024
2612.0,,,ospan,symmetry,rnRIr4p5h0VjZiHGRo0hFlSMeay1,symmetry-judgement-task,165,1078647,0.0-46.0-5.0-1.0-1.0-6.0,,,,,,,,,,1.0,1.0,,,,593f105f02d1cc0001071a72,15:10:47,03/04/2024
,"<div style=""font-size: 10rem; color: #0000FF"">G</div>",,ospan,letter,rnRIr4p5h0VjZiHGRo0hFlSMeay1,html-keyboard-response,166,1079661,0.0-46.0-5.0-1.0-1.0-7.0,,,,,,,,,,,,,,,593f105f02d1cc0001071a72,15:10:47,03/04/2024
1978.0,,,ospan,symmetry,rnRIr4p5h0VjZiHGRo0hFlSMeay1,symmetry-judgement-task,167,1085902,0.0-46.0-5.0-1.0-1.0-8.0,,,,,,,,,,1.0,1.0,,,,593f105f02d1cc0001071a72,15:10:47,03/04/2024
,"<div style=""font-size: 10rem; color: #0000FF"">R</div>",,ospan,letter,rnRIr4p5h0VjZiHGRo0hFlSMeay1,html-keyboard-response,168,1086909,0.0-46.0-5.0-1.0-1.0-9.0,,,,,,,,,,,,,,,593f105f02d1cc0001071a72,15:10:47,03/04/2024
1594.0,,,ospan,symmetry,rnRIr4p5h0VjZiHGRo0hFlSMeay1,symmetry-judgement-task,169,1092994,0.0-46.0-5.0-1.0-1.0-10.0,,,,,,,,,,1.0,1.0,,,,593f105f02d1cc0001071a72,15:10:47,03/04/2024
,"<div style=""font-size: 10rem; color: #0000FF"">S</div>",,ospan,letter,rnRIr4p5h0VjZiHGRo0hFlSMeay1,html-keyboard-response,170,1094004,0.0-46.0-5.0-1.0-1.0-11.0,,,,,,,,,,,,,,,593f105f02d1cc0001071a72,15:10:47,03/04/2024
1692.0,,,ospan,symmetry,rnRIr4p5h0VjZiHGRo0hFlSMeay1,symmetry-judgement-task,171,1099785,0.0-46.0-5.0-1.0-1.0-12.0,,,,,,,,,,1.0,1.0,,,,593f105f02d1cc0001071a72,15:10:47,03/04/2024
,"<div style=""font-size: 10rem; color: #0000FF"">C</div>",,ospan,letter,rnRIr4p5h0VjZiHGRo0hFlSMeay1,html-keyboard-response,172,1100805,0.0-46.0-5.0-1.0-1.0-13.0,,,,,,,,,,,,,,,593f105f02d1cc0001071a72,15:10:47,03/04/2024
12589.200000000186,"<div class = numbox><p style=""font-size: 2.4rem"">Please recall the letters you saw to the best of your ability. If you do not remember a particular letter, use the SKIP button.<br><b>(When you are ready to lock in your answer, press ENTER)</b></p><button id = button_1 class = ""square num-button"" onclick = ""recordClick(this)""><div class = content><div class = numbers>C</div></div></button><button id = button_2 class = ""square num-button"" onclick = ""recordClick(this)""><div class = content><div class = numbers>G</div></div></button><button id = button_3 class = ""square num-button"" onclick = ""recordClick(this)""><div class = content><div class = numbers>H</div></div></button><button id = button_4 class = ""square num-button"" onclick = ""recordClick(this)""><div class = content><div class = numbers>J</div></div></button><button id = button_5 class = ""square num-button"" onclick = ""recordClick(this)""><div class = content><div class = numbers>K</div></div></button><button id = button_6 class = ""square num-button"" onclick = ""recordClick(this)""><div class = content><div class = numbers>L</div></div></button><button id = button_7 class = ""square num-button"" onclick = ""recordClick(this)""><div class = content><div class = numbers>N</div></div></button><button id = button_8 class = ""square num-button"" onclick = ""recordClick(this)""><div class = content><div class = numbers>P</div></div></button><button id = button_9 class = ""square num-button"" onclick = ""recordClick(this)""><div class = content><div class = numbers>Q</div></div></button><button id = button_10 class = ""square num-button"" onclick = ""recordClick(this)""><div class = content><div class = numbers>R</div></div></button><button id = button_11 class = ""square num-button"" onclick = ""recordClick(this)""><div class = content><div class = numbers>S</div></div></button><button id = button_12 class = ""square num-button"" onclick = ""recordClick(this)""><div class = content><div class = numbers>Y</div></div></button><button class = clear_button id = ""ClearButton"" onclick = ""clearResponse()"">BACKSPACE</button><button class = blank_button id = ""BlankButton"" onclick = ""blankResponse()"">SKIP</button><p style=""font-size: 2.4rem""><u><b>Current Answer:</b></u></p><br><br><div id=echoed_txt style=""font-size: 5rem; color:blue;""><b></b></div></div>",enter,ospan,retrieval,rnRIr4p5h0VjZiHGRo0hFlSMeay1,html-keyboard-response,173,1114157,0.0-46.0-5.0-1.0-2.0,28,28,28,7.0,"[""L"",""Q"",""N"",""G"",""R"",""S"",""C""]","[""L"",""Q"",""N"",""G"",""R"",""S"",""C""]",1.0,7.0,,,,,,,593f105f02d1cc0001071a72,15:10:47,03/04/2024
4840.0,[''],0,ospan,feedback,rnRIr4p5h0VjZiHGRo0hFlSMeay1,html-button-response,174,1119513,0.0-46.0-5.0-1.0-3.0,,,,,,,,,,,,93.0,0.0,,593f105f02d1cc0001071a72,15:10:47,03/04/2024
,"<p style=""font-size:75px;"">...</p>",,ospan,iti,rnRIr4p5h0VjZiHGRo0hFlSMeay1,html-keyboard-response,175,1120537,0.0-46.0-6.0-0.0-0.0,,,,,,,,,,,,,,,593f105f02d1cc0001071a72,15:10:47,03/04/2024
3968.0,,,ospan,symmetry,rnRIr4p5h0VjZiHGRo0hFlSMeay1,symmetry-judgement-task,176,1128557,0.0-46.0-6.0-0.0-1.0-0.0,,,,,,,,,,1.0,1.0,,,,593f105f02d1cc0001071a72,15:10:47,03/04/2024
,"<div style=""font-size: 10rem; color: #0000FF"">K</div>",,ospan,letter,rnRIr4p5h0VjZiHGRo0hFlSMeay1,html-keyboard-response,177,1129565,0.0-46.0-6.0-0.0-1.0-1.0,,,,,,,,,,,,,,,593f105f02d1cc0001071a72,15:10:47,03/04/2024
2190.0,,,ospan,symmetry,rnRIr4p5h0VjZiHGRo0hFlSMeay1,symmetry-judgement-task,178,1135784,0.0-46.0-6.0-0.0-1.0-2.0,,,,,,,,,,1.0,1.0,,,,593f105f02d1cc0001071a72,15:10:47,03/04/2024
,"<div style=""font-size: 10rem; color: #0000FF"">C</div>",,ospan,letter,rnRIr4p5h0VjZiHGRo0hFlSMeay1,html-keyboard-response,179,1136798,0.0-46.0-6.0-0.0-1.0-3.0,,,,,,,,,,,,,,,593f105f02d1cc0001071a72,15:10:47,03/04/2024
1944.0,,,ospan,symmetry,rnRIr4p5h0VjZiHGRo0hFlSMeay1,symmetry-judgement-task,180,1142755,0.0-46.0-6.0-0.0-1.0-4.0,,,,,,,,,,1.0,1.0,,,,593f105f02d1cc0001071a72,15:10:47,03/04/2024
,"<div style=""font-size: 10rem; color: #0000FF"">L</div>",,ospan,letter,rnRIr4p5h0VjZiHGRo0hFlSMeay1,html-keyboard-response,181,1143763,0.0-46.0-6.0-0.0-1.0-5.0,,,,,,,,,,,,,,,593f105f02d1cc0001071a72,15:10:47,03/04/2024
2263.0,,,ospan,symmetry,rnRIr4p5h0VjZiHGRo0hFlSMeay1,symmetry-judgement-task,182,1150170,0.0-46.0-6.0-0.0-1.0-6.0,,,,,,,,,,1.0,1.0,,,,593f105f02d1cc0001071a72,15:10:47,03/04/2024
,"<div style=""font-size: 10rem; color: #0000FF"">H</div>",,ospan,letter,rnRIr4p5h0VjZiHGRo0hFlSMeay1,html-keyboard-response,183,1151180,0.0-46.0-6.0-0.0-1.0-7.0,,,,,,,,,,,,,,,593f105f02d1cc0001071a72,15:10:47,03/04/2024
2262.0,,,ospan,symmetry,rnRIr4p5h0VjZiHGRo0hFlSMeay1,symmetry-judgement-task,184,1157590,0.0-46.0-6.0-0.0-1.0-8.0,,,,,,,,,,1.0,1.0,,,,593f105f02d1cc0001071a72,15:10:47,03/04/2024
,"<div style=""font-size: 10rem; color: #0000FF"">S</div>",,ospan,letter,rnRIr4p5h0VjZiHGRo0hFlSMeay1,html-keyboard-response,185,1158607,0.0-46.0-6.0-0.0-1.0-9.0,,,,,,,,,,,,,,,593f105f02d1cc0001071a72,15:10:47,03/04/2024
8288.799999999814,"<div class = numbox><p style=""font-size: 2.4rem"">Please recall the letters you saw to the best of your ability. If you do not remember a particular letter, use the SKIP button.<br><b>(When you are ready to lock in your answer, press ENTER)</b></p><button id = button_1 class = ""square num-button"" onclick = ""recordClick(this)""><div class = content><div class = numbers>C</div></div></button><button id = button_2 class = ""square num-button"" onclick = ""recordClick(this)""><div class = content><div class = numbers>G</div></div></button><button id = button_3 class = ""square num-button"" onclick = ""recordClick(this)""><div class = content><div class = numbers>H</div></div></button><button id = button_4 class = ""square num-button"" onclick = ""recordClick(this)""><div class = content><div class = numbers>J</div></div></button><button id = button_5 class = ""square num-button"" onclick = ""recordClick(this)""><div class = content><div class = numbers>K</div></div></button><button id = button_6 class = ""square num-button"" onclick = ""recordClick(this)""><div class = content><div class = numbers>L</div></div></button><button id = button_7 class = ""square num-button"" onclick = ""recordClick(this)""><div class = content><div class = numbers>N</div></div></button><button id = button_8 class = ""square num-button"" onclick = ""recordClick(this)""><div class = content><div class = numbers>P</div></div></button><button id = button_9 class = ""square num-button"" onclick = ""recordClick(this)""><div class = content><div class = numbers>Q</div></div></button><button id = button_10 class = ""square num-button"" onclick = ""recordClick(this)""><div class = content><div class = numbers>R</div></div></button><button id = button_11 class = ""square num-button"" onclick = ""recordClick(this)""><div class = content><div class = numbers>S</div></div></button><button id = button_12 class = ""square num-button"" onclick = ""recordClick(this)""><div class = content><div class = numbers>Y</div></div></button><button class = clear_button id = ""ClearButton"" onclick = ""clearResponse()"">BACKSPACE</button><button class = blank_button id = ""BlankButton"" onclick = ""blankResponse()"">SKIP</button><p style=""font-size: 2.4rem""><u><b>Current Answer:</b></u></p><br><br><div id=echoed_txt style=""font-size: 5rem; color:blue;""><b></b></div></div>",enter,ospan,retrieval,rnRIr4p5h0VjZiHGRo0hFlSMeay1,html-keyboard-response,186,1167655,0.0-46.0-6.0-0.0-2.0,33,33,33,5.0,"[""K"",""C"",""L"",""H"",""S""]","[""K"",""C"",""L"",""H"",""S""]",1.0,5.0,,,,,,,593f105f02d1cc0001071a72,15:10:47,03/04/2024
6414.299999999814,[''],0,ospan,feedback,rnRIr4p5h0VjZiHGRo0hFlSMeay1,html-button-response,187,1174580,0.0-46.0-6.0-0.0-3.0,,,,,,,,,,,,94.0,0.0,,593f105f02d1cc0001071a72,15:10:47,03/04/2024
,"<p style=""font-size:75px;"">...</p>",,ospan,iti,rnRIr4p5h0VjZiHGRo0hFlSMeay1,html-keyboard-response,188,1175597,0.0-46.0-6.0-1.0-0.0,,,,,,,,,,,,,,,593f105f02d1cc0001071a72,15:10:47,03/04/2024
5075.0,,,ospan,symmetry,rnRIr4p5h0VjZiHGRo0hFlSMeay1,symmetry-judgement-task,189,1184050,0.0-46.0-6.0-1.0-1.0-0.0,,,,,,,,,,1.0,1.0,,,,593f105f02d1cc0001071a72,15:10:47,03/04/2024
,"<div style=""font-size: 10rem; color: #0000FF"">P</div>",,ospan,letter,rnRIr4p5h0VjZiHGRo0hFlSMeay1,html-keyboard-response,190,1185056,0.0-46.0-6.0-1.0-1.0-1.0,,,,,,,,,,,,,,,593f105f02d1cc0001071a72,15:10:47,03/04/2024
1717.0,,,ospan,symmetry,rnRIr4p5h0VjZiHGRo0hFlSMeay1,symmetry-judgement-task,191,1190790,0.0-46.0-6.0-1.0-1.0-2.0,,,,,,,,,,1.0,1.0,,,,593f105f02d1cc0001071a72,15:10:47,03/04/2024
,"<div style=""font-size: 10rem; color: #0000FF"">S</div>",,ospan,letter,rnRIr4p5h0VjZiHGRo0hFlSMeay1,html-keyboard-response,192,1191805,0.0-46.0-6.0-1.0-1.0-3.0,,,,,,,,,,,,,,,593f105f02d1cc0001071a72,15:10:47,03/04/2024
1664.0,,,ospan,symmetry,rnRIr4p5h0VjZiHGRo0hFlSMeay1,symmetry-judgement-task,193,1197522,0.0-46.0-6.0-1.0-1.0-4.0,,,,,,,,,,1.0,1.0,,,,593f105f02d1cc0001071a72,15:10:47,03/04/2024
,"<div style=""font-size: 10rem; color: #0000FF"">Q</div>",,ospan,letter,rnRIr4p5h0VjZiHGRo0hFlSMeay1,html-keyboard-response,194,1198531,0.0-46.0-6.0-1.0-1.0-5.0,,,,,,,,,,,,,,,593f105f02d1cc0001071a72,15:10:47,03/04/2024
1798.0,,,ospan,symmetry,rnRIr4p5h0VjZiHGRo0hFlSMeay1,symmetry-judgement-task,195,1204674,0.0-46.0-6.0-1.0-1.0-6.0,,,,,,,,,,1.0,1.0,,,,593f105f02d1cc0001071a72,15:10:47,03/04/2024
,"<div style=""font-size: 10rem; color: #0000FF"">L</div>",,ospan,letter,rnRIr4p5h0VjZiHGRo0hFlSMeay1,html-keyboard-response,196,1205682,0.0-46.0-6.0-1.0-1.0-7.0,,,,,,,,,,,,,,,593f105f02d1cc0001071a72,15:10:47,03/04/2024
1778.0,,,ospan,symmetry,rnRIr4p5h0VjZiHGRo0hFlSMeay1,symmetry-judgement-task,197,1211460,0.0-46.0-6.0-1.0-1.0-8.0,,,,,,,,,,1.0,1.0,,,,593f105f02d1cc0001071a72,15:10:47,03/04/2024
,"<div style=""font-size: 10rem; color: #0000FF"">R</div>",,ospan,letter,rnRIr4p5h0VjZiHGRo0hFlSMeay1,html-keyboard-response,198,1212477,0.0-46.0-6.0-1.0-1.0-9.0,,,,,,,,,,,,,,,593f105f02d1cc0001071a72,15:10:47,03/04/2024
2557.0,,,ospan,symmetry,rnRIr4p5h0VjZiHGRo0hFlSMeay1,symmetry-judgement-task,199,1219279,0.0-46.0-6.0-1.0-1.0-10.0,,,,,,,,,,1.0,1.0,,,,593f105f02d1cc0001071a72,15:10:47,03/04/2024
,"<div style=""font-size: 10rem; color: #0000FF"">C</div>",,ospan,letter,rnRIr4p5h0VjZiHGRo0hFlSMeay1,html-keyboard-response,200,1220291,0.0-46.0-6.0-1.0-1.0-11.0,,,,,,,,,,,,,,,593f105f02d1cc0001071a72,15:10:47,03/04/2024
1975.0,,,ospan,symmetry,rnRIr4p5h0VjZiHGRo0hFlSMeay1,symmetry-judgement-task,201,1226573,0.0-46.0-6.0-1.0-1.0-12.0,,,,,,,,,,1.0,1.0,,,,593f105f02d1cc0001071a72,15:10:47,03/04/2024
,"<div style=""font-size: 10rem; color: #0000FF"">G</div>",,ospan,letter,rnRIr4p5h0VjZiHGRo0hFlSMeay1,html-keyboard-response,202,1227581,0.0-46.0-6.0-1.0-1.0-13.0,,,,,,,,,,,,,,,593f105f02d1cc0001071a72,15:10:47,03/04/2024
1904.0,,,ospan,symmetry,rnRIr4p5h0VjZiHGRo0hFlSMeay1,symmetry-judgement-task,203,1233552,0.0-46.0-6.0-1.0-1.0-14.0,,,,,,,,,,1.0,1.0,,,,593f105f02d1cc0001071a72,15:10:47,03/04/2024
,"<div style=""font-size: 10rem; color: #0000FF"">N</div>",,ospan,letter,rnRIr4p5h0VjZiHGRo0hFlSMeay1,html-keyboard-response,204,1234572,0.0-46.0-6.0-1.0-1.0-15.0,,,,,,,,,,,,,,,593f105f02d1cc0001071a72,15:10:47,03/04/2024
10905.099999999627,"<div class = numbox><p style=""font-size: 2.4rem"">Please recall the letters you saw to the best of your ability. If you do not remember a particular letter, use the SKIP button.<br><b>(When you are ready to lock in your answer, press ENTER)</b></p><button id = button_1 class = ""square num-button"" onclick = ""recordClick(this)""><div class = content><div class = numbers>C</div></div></button><button id = button_2 class = ""square num-button"" onclick = ""recordClick(this)""><div class = content><div class = numbers>G</div></div></button><button id = button_3 class = ""square num-button"" onclick = ""recordClick(this)""><div class = content><div class = numbers>H</div></div></button><button id = button_4 class = ""square num-button"" onclick = ""recordClick(this)""><div class = content><div class = numbers>J</div></div></button><button id = button_5 class = ""square num-button"" onclick = ""recordClick(this)""><div class = content><div class = numbers>K</div></div></button><button id = button_6 class = ""square num-button"" onclick = ""recordClick(this)""><div class = content><div class = numbers>L</div></div></button><button id = button_7 class = ""square num-button"" onclick = ""recordClick(this)""><div class = content><div class = numbers>N</div></div></button><button id = button_8 class = ""square num-button"" onclick = ""recordClick(this)""><div class = content><div class = numbers>P</div></div></button><button id = button_9 class = ""square num-button"" onclick = ""recordClick(this)""><div class = content><div class = numbers>Q</div></div></button><button id = button_10 class = ""square num-button"" onclick = ""recordClick(this)""><div class = content><div class = numbers>R</div></div></button><button id = button_11 class = ""square num-button"" onclick = ""recordClick(this)""><div class = content><div class = numbers>S</div></div></button><button id = button_12 class = ""square num-button"" onclick = ""recordClick(this)""><div class = content><div class = numbers>Y</div></div></button><button class = clear_button id = ""ClearButton"" onclick = ""clearResponse()"">BACKSPACE</button><button class = blank_button id = ""BlankButton"" onclick = ""blankResponse()"">SKIP</button><p style=""font-size: 2.4rem""><u><b>Current Answer:</b></u></p><br><br><div id=echoed_txt style=""font-size: 5rem; color:blue;""><b></b></div></div>",enter,ospan,retrieval,rnRIr4p5h0VjZiHGRo0hFlSMeay1,html-keyboard-response,205,1246243,0.0-46.0-6.0-1.0-2.0,41,41,41,8.0,"[""P"",""S"",""Q"",""L"",""R"",""C"",""G"",""N""]","[""P"",""S"",""Q"",""L"",""R"",""C"",""G"",""N""]",1.0,8.0,,,,,,,593f105f02d1cc0001071a72,15:10:47,03/04/2024
2565.2999999998137,[''],0,ospan,feedback,rnRIr4p5h0VjZiHGRo0hFlSMeay1,html-button-response,206,1249326,0.0-46.0-6.0-1.0-3.0,,,,,,,,,,,,95.0,0.0,,593f105f02d1cc0001071a72,15:10:47,03/04/2024
19753.0,,{'Q0': 'It all went fine.'},ospan,survey_ospan,rnRIr4p5h0VjZiHGRo0hFlSMeay1,lmdlab-survey-text,207,1269860,0.0-46.0-7.0,,,,,,,,,,,,,,rnRIr4p5h0VjZiHGRo0hFlSMeay1,593f105f02d1cc0001071a72,15:10:47,03/04/2024
1991.5999999996275,<p><p style='font-size: 3rem'>Great work!<br><br>This completes the symmetry and memory task.</p><br><br><br>,0,ospan,finish,rnRIr4p5h0VjZiHGRo0hFlSMeay1,html-button-response,208,1271867,0.0-46.0-8.0,41,41,41,,,,,,,,,95.0,,,593f105f02d1cc0001071a72,15:10:47,03/04/2024
