rt,stimulus,response,exp_name,exp_stage,subjectID,trial_type,trial_index,time_elapsed,internal_node_id,ospan_shown,ospan_total,ospan_abs,length,resp_actual,resp_correct,full_correct,num_correct,feedback,accuracy,correct,math_acc,math_warning,databaseID,prolificID,start_time,date
4046.0,<div class = 'left_align' style='font-size: 3.25rem; line-height: 1.3;'><p class = 'center_align'><b>Welcome to the Symmetry and Memory Task</b><br><br><br><br></p>Press 'continue' to show the instructions.<br><br><br><br></div>,0,ospan,instruct,NPudH6V1fhXDi0x1dE3yCieOIvJ2,html-button-response,54,538063,0.0-46.0-0.0-0.0-0.0,,,,,,,,,,,,,,,5c31167d1a964b0001ffcce5,12:26:03,03/04/2024
9380.0,"<div class = 'left_align' style='font-size: 3.25rem; line-height: 1.3;'><p class = 'center_align'><b>Symmetry and Memory Task</b><br><br></p>In this task, you will try to memorize letters you see on the screen<br>while you also view black and white grid pictures.<br><br>In the next few minutes, you will have some practice to get you familiar<br>with how the task works.<br><br>It may be difficult sometimes, but please do not worry about making mistakes!<br><br>We will begin by practicing the letter part of the task.<br><br><br><br></div>",0,ospan,instruct,NPudH6V1fhXDi0x1dE3yCieOIvJ2,html-button-response,55,547697,0.0-46.0-0.0-0.0-1.0,,,,,,,,,,,,,,,5c31167d1a964b0001ffcce5,12:26:03,03/04/2024
8255.0,"<div class = 'left_align' style='font-size: 3.25rem; line-height: 1.3;'>For this practice part, letters will appear on the screen one at a time.<br><br>Try to remember each letter in the order presented.<br><br>After some letters have been shown, you will see a response screen. Your<br>goal is to report the letters you saw <b>in order</b>. If you do not remember<br>a particular letter, you will have the option to leave it blank.<br><br><br><br></div>",0,ospan,instruct,NPudH6V1fhXDi0x1dE3yCieOIvJ2,html-button-response,56,556209,0.0-46.0-0.0-0.0-2.0,,,,,,,,,,,,,,,5c31167d1a964b0001ffcce5,12:26:03,03/04/2024
4708.0,"<div class = 'left_align' style='font-size: 3.25rem; line-height: 1.3;'>Remember, it is very important to get the letters in the same<br>order as you see them.<br><br>When you are ready, you may begin the letter practice.</div><br><br><br><br>",0,ospan,instruct,NPudH6V1fhXDi0x1dE3yCieOIvJ2,html-button-response,57,561176,0.0-46.0-0.0-0.0-3.0,,,,,,,,,,,,,,,5c31167d1a964b0001ffcce5,12:26:03,03/04/2024
,"<p style=""font-size:75px;"">...</p>",,ospan,iti,NPudH6V1fhXDi0x1dE3yCieOIvJ2,html-keyboard-response,58,562434,0.0-46.0-0.0-1.0-0.0,,,,,,,,,,,,,,,5c31167d1a964b0001ffcce5,12:26:03,03/04/2024
,"<div style=""font-size: 10rem; color: #0000FF"">N</div>",,ospan,letter,NPudH6V1fhXDi0x1dE3yCieOIvJ2,html-keyboard-response,59,563443,0.0-46.0-0.0-1.0-1.0,,,,,,,,,,,,,,,5c31167d1a964b0001ffcce5,12:26:03,03/04/2024
,"<div style=""font-size: 10rem; color: #0000FF"">J</div>",,ospan,letter,NPudH6V1fhXDi0x1dE3yCieOIvJ2,html-keyboard-response,60,565208,0.0-46.0-0.0-1.0-2.0,,,,,,,,,,,,,,,5c31167d1a964b0001ffcce5,12:26:03,03/04/2024
7592.0,"<div class = numbox><p style=""font-size: 2.4rem"">Please recall the letters you saw to the best of your ability. If you do not remember a particular letter, use the SKIP button.<br><b>(When you are ready to lock in your answer, press ENTER)</b></p><button id = button_1 class = ""square num-button"" onclick = ""recordClick(this)""><div class = content><div class = numbers>C</div></div></button><button id = button_2 class = ""square num-button"" onclick = ""recordClick(this)""><div class = content><div class = numbers>G</div></div></button><button id = button_3 class = ""square num-button"" onclick = ""recordClick(this)""><div class = content><div class = numbers>H</div></div></button><button id = button_4 class = ""square num-button"" onclick = ""recordClick(this)""><div class = content><div class = numbers>J</div></div></button><button id = button_5 class = ""square num-button"" onclick = ""recordClick(this)""><div class = content><div class = numbers>K</div></div></button><button id = button_6 class = ""square num-button"" onclick = ""recordClick(this)""><div class = content><div class = numbers>L</div></div></button><button id = button_7 class = ""square num-button"" onclick = ""recordClick(this)""><div class = content><div class = numbers>N</div></div></button><button id = button_8 class = ""square num-button"" onclick = ""recordClick(this)""><div class = content><div class = numbers>P</div></div></button><button id = button_9 class = ""square num-button"" onclick = ""recordClick(this)""><div class = content><div class = numbers>Q</div></div></button><button id = button_10 class = ""square num-button"" onclick = ""recordClick(this)""><div class = content><div class = numbers>R</div></div></button><button id = button_11 class = ""square num-button"" onclick = ""recordClick(this)""><div class = content><div class = numbers>S</div></div></button><button id = button_12 class = ""square num-button"" onclick = ""recordClick(this)""><div class = content><div class = numbers>Y</div></div></button><button class = clear_button id = ""ClearButton"" onclick = ""clearResponse()"">BACKSPACE</button><button class = blank_button id = ""BlankButton"" onclick = ""blankResponse()"">SKIP</button><p style=""font-size: 2.4rem""><u><b>Current Answer:</b></u></p><br><br><div id=echoed_txt style=""font-size: 5rem; color:blue;""><b></b></div></div>",enter,ospan,retrieval,NPudH6V1fhXDi0x1dE3yCieOIvJ2,html-keyboard-response,61,573563,0.0-46.0-0.0-1.0-3.0,NA,NA,NA,2.0,"[""N"",""J""]","[""N"",""J""]",1.0,2.0,"['<font color=""green"">N</font>', '<font color=""green"">J</font>']",,,,,,5c31167d1a964b0001ffcce5,12:26:03,03/04/2024
1750.0,"['<p style=""font-size:44px"">Letters:<br><br><br><font color=""green"">N</font> <font color=""green"">J</font></p><br><br>']",0,ospan,practice_feedback,NPudH6V1fhXDi0x1dE3yCieOIvJ2,html-button-response,62,575823,0.0-46.0-0.0-1.0-4.0,,,,,,,,,,,,,,,5c31167d1a964b0001ffcce5,12:26:03,03/04/2024
,"<p style=""font-size:75px;"">...</p>",,ospan,iti,NPudH6V1fhXDi0x1dE3yCieOIvJ2,html-keyboard-response,63,576838,0.0-46.0-0.0-2.0-0.0,,,,,,,,,,,,,,,5c31167d1a964b0001ffcce5,12:26:03,03/04/2024
,"<div style=""font-size: 10rem; color: #0000FF"">S</div>",,ospan,letter,NPudH6V1fhXDi0x1dE3yCieOIvJ2,html-keyboard-response,64,577845,0.0-46.0-0.0-2.0-1.0,,,,,,,,,,,,,,,5c31167d1a964b0001ffcce5,12:26:03,03/04/2024
,"<div style=""font-size: 10rem; color: #0000FF"">R</div>",,ospan,letter,NPudH6V1fhXDi0x1dE3yCieOIvJ2,html-keyboard-response,65,579608,0.0-46.0-0.0-2.0-2.0,,,,,,,,,,,,,,,5c31167d1a964b0001ffcce5,12:26:03,03/04/2024
,"<div style=""font-size: 10rem; color: #0000FF"">G</div>",,ospan,letter,NPudH6V1fhXDi0x1dE3yCieOIvJ2,html-keyboard-response,66,581382,0.0-46.0-0.0-2.0-3.0,,,,,,,,,,,,,,,5c31167d1a964b0001ffcce5,12:26:03,03/04/2024
3343.0,"<div class = numbox><p style=""font-size: 2.4rem"">Please recall the letters you saw to the best of your ability. If you do not remember a particular letter, use the SKIP button.<br><b>(When you are ready to lock in your answer, press ENTER)</b></p><button id = button_1 class = ""square num-button"" onclick = ""recordClick(this)""><div class = content><div class = numbers>C</div></div></button><button id = button_2 class = ""square num-button"" onclick = ""recordClick(this)""><div class = content><div class = numbers>G</div></div></button><button id = button_3 class = ""square num-button"" onclick = ""recordClick(this)""><div class = content><div class = numbers>H</div></div></button><button id = button_4 class = ""square num-button"" onclick = ""recordClick(this)""><div class = content><div class = numbers>J</div></div></button><button id = button_5 class = ""square num-button"" onclick = ""recordClick(this)""><div class = content><div class = numbers>K</div></div></button><button id = button_6 class = ""square num-button"" onclick = ""recordClick(this)""><div class = content><div class = numbers>L</div></div></button><button id = button_7 class = ""square num-button"" onclick = ""recordClick(this)""><div class = content><div class = numbers>N</div></div></button><button id = button_8 class = ""square num-button"" onclick = ""recordClick(this)""><div class = content><div class = numbers>P</div></div></button><button id = button_9 class = ""square num-button"" onclick = ""recordClick(this)""><div class = content><div class = numbers>Q</div></div></button><button id = button_10 class = ""square num-button"" onclick = ""recordClick(this)""><div class = content><div class = numbers>R</div></div></button><button id = button_11 class = ""square num-button"" onclick = ""recordClick(this)""><div class = content><div class = numbers>S</div></div></button><button id = button_12 class = ""square num-button"" onclick = ""recordClick(this)""><div class = content><div class = numbers>Y</div></div></button><button class = clear_button id = ""ClearButton"" onclick = ""clearResponse()"">BACKSPACE</button><button class = blank_button id = ""BlankButton"" onclick = ""blankResponse()"">SKIP</button><p style=""font-size: 2.4rem""><u><b>Current Answer:</b></u></p><br><br><div id=echoed_txt style=""font-size: 5rem; color:blue;""><b></b></div></div>",enter,ospan,retrieval,NPudH6V1fhXDi0x1dE3yCieOIvJ2,html-keyboard-response,67,585483,0.0-46.0-0.0-2.0-4.0,NA,NA,NA,3.0,"[""S"",""R"",""G""]","[""S"",""R"",""G""]",1.0,3.0,"['<font color=""green"">S</font>', '<font color=""green"">R</font>', '<font color=""green"">G</font>']",,,,,,5c31167d1a964b0001ffcce5,12:26:03,03/04/2024
1663.0,"['<p style=""font-size:44px"">Letters:<br><br><br><font color=""green"">S</font> <font color=""green"">R</font> <font color=""green"">G</font></p><br><br>']",0,ospan,practice_feedback,NPudH6V1fhXDi0x1dE3yCieOIvJ2,html-button-response,68,587661,0.0-46.0-0.0-2.0-5.0,,,,,,,,,,,,,,,5c31167d1a964b0001ffcce5,12:26:03,03/04/2024
14860.0,"<div class = 'left_align' style='font-size: 3.25rem; line-height: 1.3;'>Now you will practice doing the <b>symmetry judgment part</b> of the experiment.<br><br>A black and white grid picture will appear on the screen and you have to judge if it is <br>symmetrical or asymetrical.<br><br>A picture is 'mirror' symmetrical if its left half is identical to the right half when flipped.<br>Here are examples of a symmetrical and an asymetrical picture:<br><br><center><img src='Stimuli/img/symm_instructions_extra.png' style='height:420px; width:900'></img></center><br>To judge symmetry, imagine you were to fold each picture down the middle, like a book –<br>would the left half match the right half when folded onto each other?<br><br></div><br>",0,ospan,instruct,NPudH6V1fhXDi0x1dE3yCieOIvJ2,html-button-response,69,602524,0.0-46.0-1.0-0.0-0.0,,,,,,,,,,,,,,,5c31167d1a964b0001ffcce5,12:26:03,03/04/2024
11471.0,"<div class = 'left_align' style='font-size: 3.25rem; line-height: 1.3;'>When you have viewed the picture and determined whether it is symmetrical or not,<br>you can <b>click the Yes or No button</b> below to answer.<br><br>If you take longer than 15 seconds, it will continue automatically<br>and record the answer as an error.</div><br>",0,ospan,instruct,NPudH6V1fhXDi0x1dE3yCieOIvJ2,html-button-response,70,614246,0.0-46.0-1.0-0.0-1.0,,,,,,,,,,,,,,,5c31167d1a964b0001ffcce5,12:26:03,03/04/2024
21181.0,"<div class = 'left_align' style='font-size: 3.25rem; line-height: 1.3;'>It is <b>very</b> important that you make the symmetry judgment correctly.<br><br>It is also important that you try and judge the picture as quickly as you can.<br><br>When you are ready, click on the button below to try some practice problems.</div><br><br><br><br>",0,ospan,instruct,NPudH6V1fhXDi0x1dE3yCieOIvJ2,html-button-response,71,635693,0.0-46.0-1.0-0.0-2.0,,,,,,,,,,,,,,,5c31167d1a964b0001ffcce5,12:26:03,03/04/2024
2425.0,,,ospan,symmetry,NPudH6V1fhXDi0x1dE3yCieOIvJ2,symmetry-judgement-task,72,638946,0.0-46.0-1.0-1.0-0.0,,,,,,,,,,1.0,1.0,,,,5c31167d1a964b0001ffcce5,12:26:03,03/04/2024
,"<p style=""color:green; font-size: 35px"">Correct</p>",,ospan,feedback,NPudH6V1fhXDi0x1dE3yCieOIvJ2,html-keyboard-response,73,639709,0.0-46.0-1.0-1.0-1.0,,,,,,,,,,,,,,,5c31167d1a964b0001ffcce5,12:26:03,03/04/2024
1267.0,,,ospan,symmetry,NPudH6V1fhXDi0x1dE3yCieOIvJ2,symmetry-judgement-task,74,643542,0.0-46.0-1.0-1.0-2.0,,,,,,,,,,1.0,1.0,,,,5c31167d1a964b0001ffcce5,12:26:03,03/04/2024
,"<p style=""color:green; font-size: 35px"">Correct</p>",,ospan,feedback,NPudH6V1fhXDi0x1dE3yCieOIvJ2,html-keyboard-response,75,644301,0.0-46.0-1.0-1.0-3.0,,,,,,,,,,,,,,,5c31167d1a964b0001ffcce5,12:26:03,03/04/2024
908.0,,,ospan,symmetry,NPudH6V1fhXDi0x1dE3yCieOIvJ2,symmetry-judgement-task,76,647783,0.0-46.0-1.0-1.0-4.0,,,,,,,,,,1.0,1.0,,,,5c31167d1a964b0001ffcce5,12:26:03,03/04/2024
,"<p style=""color:green; font-size: 35px"">Correct</p>",,ospan,feedback,NPudH6V1fhXDi0x1dE3yCieOIvJ2,html-keyboard-response,77,648540,0.0-46.0-1.0-1.0-5.0,,,,,,,,,,,,,,,5c31167d1a964b0001ffcce5,12:26:03,03/04/2024
2450.0,"<p style=""font-size: 3rem;"">You responded correctly on 3 of 3 symmetry judgments. Good job!</p><br><br>",0,ospan,practice,NPudH6V1fhXDi0x1dE3yCieOIvJ2,html-button-response,78,652993,0.0-46.0-1.0-2.0,,,,,,,,,,,,,,,5c31167d1a964b0001ffcce5,12:26:03,03/04/2024
11700.0,"<div class = 'left_align' style='font-size: 3.25rem; line-height: 1.3;'>Now you will practice doing both parts of the experiment at the same time.<br><br>In the next practice set, you will be given one grid picture to judge.<br>Then letter will appear on the screen. Try to remember the letter.<br><br>It is <b>very important</b> to make the symmetry judgment as quickly and accurately as possible.<br><br>Just as before, once you have make the symmetry judgment, you can click Yes or No.<br><b>Note that you will no longer see Correct or Incorrect feedback.</div><br><br><br><br>",0,ospan,instruct,NPudH6V1fhXDi0x1dE3yCieOIvJ2,html-button-response,79,664959,0.0-46.0-2.0-0.0-0.0,,,,,,,,,,,,,,,5c31167d1a964b0001ffcce5,12:26:03,03/04/2024
6083.0,"<div class = 'left_align' style='font-size: 3.25rem; line-height: 1.3;'>After the letter goes away, another grid picture will appear, and then<br>another letter.<br><br>At the end of each set of letters and grids, you will recall the letters to the best<br>of your ability. Remember, try your best to get the letters in the correct order.<br><br>It is important to <b>quickly</b> and <b>accurately</b> make the symmetry judgments.</div><br><br><br><br>",0,ospan,instruct,NPudH6V1fhXDi0x1dE3yCieOIvJ2,html-button-response,80,671296,0.0-46.0-2.0-0.0-1.0,,,,,,,,,,,,,,,5c31167d1a964b0001ffcce5,12:26:03,03/04/2024
9873.0,"<div class = 'left_align' style='font-size: 3.25rem; line-height: 1.3;'>On the feedback screen, if you are not doing well at the symmetry judgments,<br>you will also see a warning in the middle. This indicates your percent <br>correct for the grid pictures for the entire experiment.<br><br>It is <b>very</b> important for you to keep accuracy at least at 85%: <u>We can only use<br>data where the participant was at least 85% accurate on the judgments.</u> Therefore,<br> please try your best to perform well on the symmetry judgments, <b>at the same time</b><br>doing your best to recall as many letters as possible.<br><br>Click the button to try some practice problems.</div><br><br><br><br>",0,ospan,instruct,NPudH6V1fhXDi0x1dE3yCieOIvJ2,html-button-response,81,681436,0.0-46.0-2.0-0.0-2.0,,,,,,,,,,,,,,,5c31167d1a964b0001ffcce5,12:26:03,03/04/2024
,"<p style=""font-size:75px;"">...</p>",,ospan,iti,NPudH6V1fhXDi0x1dE3yCieOIvJ2,html-keyboard-response,82,682705,0.0-46.0-2.0-1.0-0.0,,,,,,,,,,,,,,,5c31167d1a964b0001ffcce5,12:26:03,03/04/2024
1069.0,,,ospan,symmetry,NPudH6V1fhXDi0x1dE3yCieOIvJ2,symmetry-judgement-task,83,684849,0.0-46.0-2.0-1.0-1.0-0.0,,,,,,,,,,1.0,1.0,,,,5c31167d1a964b0001ffcce5,12:26:03,03/04/2024
,"<div style=""font-size: 10rem; color: #0000FF"">S</div>",,ospan,letter,NPudH6V1fhXDi0x1dE3yCieOIvJ2,html-keyboard-response,84,685860,0.0-46.0-2.0-1.0-1.0-1.0,,,,,,,,,,,,,,,5c31167d1a964b0001ffcce5,12:26:03,03/04/2024
1628.0,,,ospan,symmetry,NPudH6V1fhXDi0x1dE3yCieOIvJ2,symmetry-judgement-task,85,689311,0.0-46.0-2.0-1.0-1.0-2.0,,,,,,,,,,1.0,1.0,,,,5c31167d1a964b0001ffcce5,12:26:03,03/04/2024
,"<div style=""font-size: 10rem; color: #0000FF"">P</div>",,ospan,letter,NPudH6V1fhXDi0x1dE3yCieOIvJ2,html-keyboard-response,86,690324,0.0-46.0-2.0-1.0-1.0-3.0,,,,,,,,,,,,,,,5c31167d1a964b0001ffcce5,12:26:03,03/04/2024
982.0,,,ospan,symmetry,NPudH6V1fhXDi0x1dE3yCieOIvJ2,symmetry-judgement-task,87,693131,0.0-46.0-2.0-1.0-1.0-4.0,,,,,,,,,,1.0,1.0,,,,5c31167d1a964b0001ffcce5,12:26:03,03/04/2024
,"<div style=""font-size: 10rem; color: #0000FF"">R</div>",,ospan,letter,NPudH6V1fhXDi0x1dE3yCieOIvJ2,html-keyboard-response,88,694144,0.0-46.0-2.0-1.0-1.0-5.0,,,,,,,,,,,,,,,5c31167d1a964b0001ffcce5,12:26:03,03/04/2024
6194.0,"<div class = numbox><p style=""font-size: 2.4rem"">Please recall the letters you saw to the best of your ability. If you do not remember a particular letter, use the SKIP button.<br><b>(When you are ready to lock in your answer, press ENTER)</b></p><button id = button_1 class = ""square num-button"" onclick = ""recordClick(this)""><div class = content><div class = numbers>C</div></div></button><button id = button_2 class = ""square num-button"" onclick = ""recordClick(this)""><div class = content><div class = numbers>G</div></div></button><button id = button_3 class = ""square num-button"" onclick = ""recordClick(this)""><div class = content><div class = numbers>H</div></div></button><button id = button_4 class = ""square num-button"" onclick = ""recordClick(this)""><div class = content><div class = numbers>J</div></div></button><button id = button_5 class = ""square num-button"" onclick = ""recordClick(this)""><div class = content><div class = numbers>K</div></div></button><button id = button_6 class = ""square num-button"" onclick = ""recordClick(this)""><div class = content><div class = numbers>L</div></div></button><button id = button_7 class = ""square num-button"" onclick = ""recordClick(this)""><div class = content><div class = numbers>N</div></div></button><button id = button_8 class = ""square num-button"" onclick = ""recordClick(this)""><div class = content><div class = numbers>P</div></div></button><button id = button_9 class = ""square num-button"" onclick = ""recordClick(this)""><div class = content><div class = numbers>Q</div></div></button><button id = button_10 class = ""square num-button"" onclick = ""recordClick(this)""><div class = content><div class = numbers>R</div></div></button><button id = button_11 class = ""square num-button"" onclick = ""recordClick(this)""><div class = content><div class = numbers>S</div></div></button><button id = button_12 class = ""square num-button"" onclick = ""recordClick(this)""><div class = content><div class = numbers>Y</div></div></button><button class = clear_button id = ""ClearButton"" onclick = ""clearResponse()"">BACKSPACE</button><button class = blank_button id = ""BlankButton"" onclick = ""blankResponse()"">SKIP</button><p style=""font-size: 2.4rem""><u><b>Current Answer:</b></u></p><br><br><div id=echoed_txt style=""font-size: 5rem; color:blue;""><b></b></div></div>",enter,ospan,retrieval,NPudH6V1fhXDi0x1dE3yCieOIvJ2,html-keyboard-response,89,701098,0.0-46.0-2.0-1.0-2.0-0.0,NA,NA,NA,3.0,"[""S"",""P""]","[""S"",""P"",""R""]",0.0,2.0,"['<font color=""green"">S</font>', '<font color=""green"">P</font>', '<font color=""red"">R</font>']",,,,,,5c31167d1a964b0001ffcce5,12:26:03,03/04/2024
1995.0,"['<p style=""font-size:44px"">Letters:<br><br><br><font color=""green"">S</font> <font color=""green"">P</font> <font color=""red"">R</font></p><br><br><p style=""font-size:30px"">Symmetry:<br><br><font color=""green"">100%</font></p><br><br>']",0,ospan,practice_feedback,NPudH6V1fhXDi0x1dE3yCieOIvJ2,html-button-response,90,703601,0.0-46.0-2.0-1.0-2.0-1.0,,,,,,,,,,,,,,,5c31167d1a964b0001ffcce5,12:26:03,03/04/2024
,"<p style=""font-size:75px;"">...</p>",,ospan,iti,NPudH6V1fhXDi0x1dE3yCieOIvJ2,html-keyboard-response,91,704617,0.0-46.0-2.0-2.0-0.0,,,,,,,,,,,,,,,5c31167d1a964b0001ffcce5,12:26:03,03/04/2024
1262.0,,,ospan,symmetry,NPudH6V1fhXDi0x1dE3yCieOIvJ2,symmetry-judgement-task,92,706946,0.0-46.0-2.0-2.0-1.0-0.0,,,,,,,,,,1.0,1.0,,,,5c31167d1a964b0001ffcce5,12:26:03,03/04/2024
,"<div style=""font-size: 10rem; color: #0000FF"">H</div>",,ospan,letter,NPudH6V1fhXDi0x1dE3yCieOIvJ2,html-keyboard-response,93,707952,0.0-46.0-2.0-2.0-1.0-1.0,,,,,,,,,,,,,,,5c31167d1a964b0001ffcce5,12:26:03,03/04/2024
922.0,,,ospan,symmetry,NPudH6V1fhXDi0x1dE3yCieOIvJ2,symmetry-judgement-task,94,710711,0.0-46.0-2.0-2.0-1.0-2.0,,,,,,,,,,1.0,1.0,,,,5c31167d1a964b0001ffcce5,12:26:03,03/04/2024
,"<div style=""font-size: 10rem; color: #0000FF"">Y</div>",,ospan,letter,NPudH6V1fhXDi0x1dE3yCieOIvJ2,html-keyboard-response,95,711721,0.0-46.0-2.0-2.0-1.0-3.0,,,,,,,,,,,,,,,5c31167d1a964b0001ffcce5,12:26:03,03/04/2024
899.0,,,ospan,symmetry,NPudH6V1fhXDi0x1dE3yCieOIvJ2,symmetry-judgement-task,96,714456,0.0-46.0-2.0-2.0-1.0-4.0,,,,,,,,,,1.0,1.0,,,,5c31167d1a964b0001ffcce5,12:26:03,03/04/2024
,"<div style=""font-size: 10rem; color: #0000FF"">J</div>",,ospan,letter,NPudH6V1fhXDi0x1dE3yCieOIvJ2,html-keyboard-response,97,715458,0.0-46.0-2.0-2.0-1.0-5.0,,,,,,,,,,,,,,,5c31167d1a964b0001ffcce5,12:26:03,03/04/2024
3949.0,"<div class = numbox><p style=""font-size: 2.4rem"">Please recall the letters you saw to the best of your ability. If you do not remember a particular letter, use the SKIP button.<br><b>(When you are ready to lock in your answer, press ENTER)</b></p><button id = button_1 class = ""square num-button"" onclick = ""recordClick(this)""><div class = content><div class = numbers>C</div></div></button><button id = button_2 class = ""square num-button"" onclick = ""recordClick(this)""><div class = content><div class = numbers>G</div></div></button><button id = button_3 class = ""square num-button"" onclick = ""recordClick(this)""><div class = content><div class = numbers>H</div></div></button><button id = button_4 class = ""square num-button"" onclick = ""recordClick(this)""><div class = content><div class = numbers>J</div></div></button><button id = button_5 class = ""square num-button"" onclick = ""recordClick(this)""><div class = content><div class = numbers>K</div></div></button><button id = button_6 class = ""square num-button"" onclick = ""recordClick(this)""><div class = content><div class = numbers>L</div></div></button><button id = button_7 class = ""square num-button"" onclick = ""recordClick(this)""><div class = content><div class = numbers>N</div></div></button><button id = button_8 class = ""square num-button"" onclick = ""recordClick(this)""><div class = content><div class = numbers>P</div></div></button><button id = button_9 class = ""square num-button"" onclick = ""recordClick(this)""><div class = content><div class = numbers>Q</div></div></button><button id = button_10 class = ""square num-button"" onclick = ""recordClick(this)""><div class = content><div class = numbers>R</div></div></button><button id = button_11 class = ""square num-button"" onclick = ""recordClick(this)""><div class = content><div class = numbers>S</div></div></button><button id = button_12 class = ""square num-button"" onclick = ""recordClick(this)""><div class = content><div class = numbers>Y</div></div></button><button class = clear_button id = ""ClearButton"" onclick = ""clearResponse()"">BACKSPACE</button><button class = blank_button id = ""BlankButton"" onclick = ""blankResponse()"">SKIP</button><p style=""font-size: 2.4rem""><u><b>Current Answer:</b></u></p><br><br><div id=echoed_txt style=""font-size: 5rem; color:blue;""><b></b></div></div>",enter,ospan,retrieval,NPudH6V1fhXDi0x1dE3yCieOIvJ2,html-keyboard-response,98,720170,0.0-46.0-2.0-2.0-2.0-0.0,NA,NA,NA,3.0,"[""H"",""Y"",""J""]","[""H"",""Y"",""J""]",1.0,3.0,"['<font color=""green"">H</font>', '<font color=""green"">Y</font>', '<font color=""green"">J</font>']",,,,,,5c31167d1a964b0001ffcce5,12:26:03,03/04/2024
1663.0,"['<p style=""font-size:44px"">Letters:<br><br><br><font color=""green"">H</font> <font color=""green"">Y</font> <font color=""green"">J</font></p><br><br><p style=""font-size:30px"">Symmetry:<br><br><font color=""green"">100%</font></p><br><br>']",0,ospan,practice_feedback,NPudH6V1fhXDi0x1dE3yCieOIvJ2,html-button-response,99,722341,0.0-46.0-2.0-2.0-2.0-1.0,,,,,,,,,,,,,,,5c31167d1a964b0001ffcce5,12:26:03,03/04/2024
23456.0,"<div class = 'left_align' style='font-size: 3rem; line-height: 1.3;'><b>Great work! That is the end of practice.</b><br><br>The real trials will look just like the practice trials you just completed.<br><br><u>Here, you will not see feedback</u>. First, you will see an grid picture to judge,<br>then a letter to remember. When the recall screen appears, report the letters in the<br>order presented. If you forget a letter, remember to use the <b>blank</b> button to move to the<br>next letter. Some of the sets will have more symmetry grids and letters than others.<br><br>It is important that you do your best on both the symmetry judgments and the letter recall<br>parts of the experiment. For for the symmetry judgments, try to work as <b>quickly</b> and <br>as <b>accurately</b> as possible. Remember to keep your symmetry accuracy at 85% or above.<br><br><b>For the letters, do NOT use any external aid (e.g., writing on paper, electronic device).</b><br><br>It is <u>very important</u> to our experiment to have a <b>true</b> view of your real performance.<br><br>Do not worry if you miss some when it gets hard! This task is meant to be very challenging!<br><br>Click the button to begin.</div><br><br><br><br>",0,ospan,starting_real_here,NPudH6V1fhXDi0x1dE3yCieOIvJ2,html-button-response,100,745798,0.0-46.0-2.0-3.0,,,,,,,,,,,,,,,5c31167d1a964b0001ffcce5,12:26:03,03/04/2024
,"<p style=""font-size:75px;"">...</p>",,ospan,iti,NPudH6V1fhXDi0x1dE3yCieOIvJ2,html-keyboard-response,101,747064,0.0-46.0-3.0-0.0-0.0,,,,,,,,,,,,,,,5c31167d1a964b0001ffcce5,12:26:03,03/04/2024
1221.0,,,ospan,symmetry,NPudH6V1fhXDi0x1dE3yCieOIvJ2,symmetry-judgement-task,102,749373,0.0-46.0-3.0-0.0-1.0-0.0,,,,,,,,,,1.0,1.0,,,,5c31167d1a964b0001ffcce5,12:26:03,03/04/2024
,"<div style=""font-size: 10rem; color: #0000FF"">N</div>",,ospan,letter,NPudH6V1fhXDi0x1dE3yCieOIvJ2,html-keyboard-response,103,750381,0.0-46.0-3.0-0.0-1.0-1.0,,,,,,,,,,,,,,,5c31167d1a964b0001ffcce5,12:26:03,03/04/2024
935.0,,,ospan,symmetry,NPudH6V1fhXDi0x1dE3yCieOIvJ2,symmetry-judgement-task,104,753142,0.0-46.0-3.0-0.0-1.0-2.0,,,,,,,,,,1.0,1.0,,,,5c31167d1a964b0001ffcce5,12:26:03,03/04/2024
,"<div style=""font-size: 10rem; color: #0000FF"">Y</div>",,ospan,letter,NPudH6V1fhXDi0x1dE3yCieOIvJ2,html-keyboard-response,105,754149,0.0-46.0-3.0-0.0-1.0-3.0,,,,,,,,,,,,,,,5c31167d1a964b0001ffcce5,12:26:03,03/04/2024
869.0,,,ospan,symmetry,NPudH6V1fhXDi0x1dE3yCieOIvJ2,symmetry-judgement-task,106,756846,0.0-46.0-3.0-0.0-1.0-4.0,,,,,,,,,,1.0,1.0,,,,5c31167d1a964b0001ffcce5,12:26:03,03/04/2024
,"<div style=""font-size: 10rem; color: #0000FF"">L</div>",,ospan,letter,NPudH6V1fhXDi0x1dE3yCieOIvJ2,html-keyboard-response,107,757885,0.0-46.0-3.0-0.0-1.0-5.0,,,,,,,,,,,,,,,5c31167d1a964b0001ffcce5,12:26:03,03/04/2024
3186.0,"<div class = numbox><p style=""font-size: 2.4rem"">Please recall the letters you saw to the best of your ability. If you do not remember a particular letter, use the SKIP button.<br><b>(When you are ready to lock in your answer, press ENTER)</b></p><button id = button_1 class = ""square num-button"" onclick = ""recordClick(this)""><div class = content><div class = numbers>C</div></div></button><button id = button_2 class = ""square num-button"" onclick = ""recordClick(this)""><div class = content><div class = numbers>G</div></div></button><button id = button_3 class = ""square num-button"" onclick = ""recordClick(this)""><div class = content><div class = numbers>H</div></div></button><button id = button_4 class = ""square num-button"" onclick = ""recordClick(this)""><div class = content><div class = numbers>J</div></div></button><button id = button_5 class = ""square num-button"" onclick = ""recordClick(this)""><div class = content><div class = numbers>K</div></div></button><button id = button_6 class = ""square num-button"" onclick = ""recordClick(this)""><div class = content><div class = numbers>L</div></div></button><button id = button_7 class = ""square num-button"" onclick = ""recordClick(this)""><div class = content><div class = numbers>N</div></div></button><button id = button_8 class = ""square num-button"" onclick = ""recordClick(this)""><div class = content><div class = numbers>P</div></div></button><button id = button_9 class = ""square num-button"" onclick = ""recordClick(this)""><div class = content><div class = numbers>Q</div></div></button><button id = button_10 class = ""square num-button"" onclick = ""recordClick(this)""><div class = content><div class = numbers>R</div></div></button><button id = button_11 class = ""square num-button"" onclick = ""recordClick(this)""><div class = content><div class = numbers>S</div></div></button><button id = button_12 class = ""square num-button"" onclick = ""recordClick(this)""><div class = content><div class = numbers>Y</div></div></button><button class = clear_button id = ""ClearButton"" onclick = ""clearResponse()"">BACKSPACE</button><button class = blank_button id = ""BlankButton"" onclick = ""blankResponse()"">SKIP</button><p style=""font-size: 2.4rem""><u><b>Current Answer:</b></u></p><br><br><div id=echoed_txt style=""font-size: 5rem; color:blue;""><b></b></div></div>",enter,ospan,retrieval,NPudH6V1fhXDi0x1dE3yCieOIvJ2,html-keyboard-response,108,761835,0.0-46.0-3.0-0.0-2.0,3,3,3,3.0,"[""N"",""Y"",""L""]","[""N"",""Y"",""L""]",1.0,3.0,,,,,,,5c31167d1a964b0001ffcce5,12:26:03,03/04/2024
1011.0,[''],0,ospan,feedback,NPudH6V1fhXDi0x1dE3yCieOIvJ2,html-button-response,109,763353,0.0-46.0-3.0-0.0-3.0,,,,,,,,,,,,100.0,0.0,,5c31167d1a964b0001ffcce5,12:26:03,03/04/2024
,"<p style=""font-size:75px;"">...</p>",,ospan,iti,NPudH6V1fhXDi0x1dE3yCieOIvJ2,html-keyboard-response,110,764367,0.0-46.0-4.0-0.0-0.0,,,,,,,,,,,,,,,5c31167d1a964b0001ffcce5,12:26:03,03/04/2024
936.0,,,ospan,symmetry,NPudH6V1fhXDi0x1dE3yCieOIvJ2,symmetry-judgement-task,111,766376,0.0-46.0-4.0-0.0-1.0-0.0,,,,,,,,,,1.0,1.0,,,,5c31167d1a964b0001ffcce5,12:26:03,03/04/2024
,"<div style=""font-size: 10rem; color: #0000FF"">C</div>",,ospan,letter,NPudH6V1fhXDi0x1dE3yCieOIvJ2,html-keyboard-response,112,767385,0.0-46.0-4.0-0.0-1.0-1.0,,,,,,,,,,,,,,,5c31167d1a964b0001ffcce5,12:26:03,03/04/2024
1010.0,,,ospan,symmetry,NPudH6V1fhXDi0x1dE3yCieOIvJ2,symmetry-judgement-task,113,770219,0.0-46.0-4.0-0.0-1.0-2.0,,,,,,,,,,1.0,1.0,,,,5c31167d1a964b0001ffcce5,12:26:03,03/04/2024
,"<div style=""font-size: 10rem; color: #0000FF"">S</div>",,ospan,letter,NPudH6V1fhXDi0x1dE3yCieOIvJ2,html-keyboard-response,114,771226,0.0-46.0-4.0-0.0-1.0-3.0,,,,,,,,,,,,,,,5c31167d1a964b0001ffcce5,12:26:03,03/04/2024
790.0,,,ospan,symmetry,NPudH6V1fhXDi0x1dE3yCieOIvJ2,symmetry-judgement-task,115,773841,0.0-46.0-4.0-0.0-1.0-4.0,,,,,,,,,,1.0,1.0,,,,5c31167d1a964b0001ffcce5,12:26:03,03/04/2024
,"<div style=""font-size: 10rem; color: #0000FF"">R</div>",,ospan,letter,NPudH6V1fhXDi0x1dE3yCieOIvJ2,html-keyboard-response,116,774847,0.0-46.0-4.0-0.0-1.0-5.0,,,,,,,,,,,,,,,5c31167d1a964b0001ffcce5,12:26:03,03/04/2024
980.0,,,ospan,symmetry,NPudH6V1fhXDi0x1dE3yCieOIvJ2,symmetry-judgement-task,117,777639,0.0-46.0-4.0-0.0-1.0-6.0,,,,,,,,,,1.0,1.0,,,,5c31167d1a964b0001ffcce5,12:26:03,03/04/2024
,"<div style=""font-size: 10rem; color: #0000FF"">H</div>",,ospan,letter,NPudH6V1fhXDi0x1dE3yCieOIvJ2,html-keyboard-response,118,778647,0.0-46.0-4.0-0.0-1.0-7.0,,,,,,,,,,,,,,,5c31167d1a964b0001ffcce5,12:26:03,03/04/2024
4892.0,"<div class = numbox><p style=""font-size: 2.4rem"">Please recall the letters you saw to the best of your ability. If you do not remember a particular letter, use the SKIP button.<br><b>(When you are ready to lock in your answer, press ENTER)</b></p><button id = button_1 class = ""square num-button"" onclick = ""recordClick(this)""><div class = content><div class = numbers>C</div></div></button><button id = button_2 class = ""square num-button"" onclick = ""recordClick(this)""><div class = content><div class = numbers>G</div></div></button><button id = button_3 class = ""square num-button"" onclick = ""recordClick(this)""><div class = content><div class = numbers>H</div></div></button><button id = button_4 class = ""square num-button"" onclick = ""recordClick(this)""><div class = content><div class = numbers>J</div></div></button><button id = button_5 class = ""square num-button"" onclick = ""recordClick(this)""><div class = content><div class = numbers>K</div></div></button><button id = button_6 class = ""square num-button"" onclick = ""recordClick(this)""><div class = content><div class = numbers>L</div></div></button><button id = button_7 class = ""square num-button"" onclick = ""recordClick(this)""><div class = content><div class = numbers>N</div></div></button><button id = button_8 class = ""square num-button"" onclick = ""recordClick(this)""><div class = content><div class = numbers>P</div></div></button><button id = button_9 class = ""square num-button"" onclick = ""recordClick(this)""><div class = content><div class = numbers>Q</div></div></button><button id = button_10 class = ""square num-button"" onclick = ""recordClick(this)""><div class = content><div class = numbers>R</div></div></button><button id = button_11 class = ""square num-button"" onclick = ""recordClick(this)""><div class = content><div class = numbers>S</div></div></button><button id = button_12 class = ""square num-button"" onclick = ""recordClick(this)""><div class = content><div class = numbers>Y</div></div></button><button class = clear_button id = ""ClearButton"" onclick = ""clearResponse()"">BACKSPACE</button><button class = blank_button id = ""BlankButton"" onclick = ""blankResponse()"">SKIP</button><p style=""font-size: 2.4rem""><u><b>Current Answer:</b></u></p><br><br><div id=echoed_txt style=""font-size: 5rem; color:blue;""><b></b></div></div>",enter,ospan,retrieval,NPudH6V1fhXDi0x1dE3yCieOIvJ2,html-keyboard-response,119,784299,0.0-46.0-4.0-0.0-2.0,7,7,7,4.0,"[""C"",""S"",""R"",""H""]","[""C"",""S"",""R"",""H""]",1.0,4.0,,,,,,,5c31167d1a964b0001ffcce5,12:26:03,03/04/2024
1123.0,[''],0,ospan,feedback,NPudH6V1fhXDi0x1dE3yCieOIvJ2,html-button-response,120,785932,0.0-46.0-4.0-0.0-3.0,,,,,,,,,,,,100.0,0.0,,5c31167d1a964b0001ffcce5,12:26:03,03/04/2024
,"<p style=""font-size:75px;"">...</p>",,ospan,iti,NPudH6V1fhXDi0x1dE3yCieOIvJ2,html-keyboard-response,121,786936,0.0-46.0-4.0-1.0-0.0,,,,,,,,,,,,,,,5c31167d1a964b0001ffcce5,12:26:03,03/04/2024
1034.0,,,ospan,symmetry,NPudH6V1fhXDi0x1dE3yCieOIvJ2,symmetry-judgement-task,122,789038,0.0-46.0-4.0-1.0-1.0-0.0,,,,,,,,,,1.0,1.0,,,,5c31167d1a964b0001ffcce5,12:26:03,03/04/2024
,"<div style=""font-size: 10rem; color: #0000FF"">S</div>",,ospan,letter,NPudH6V1fhXDi0x1dE3yCieOIvJ2,html-keyboard-response,123,790048,0.0-46.0-4.0-1.0-1.0-1.0,,,,,,,,,,,,,,,5c31167d1a964b0001ffcce5,12:26:03,03/04/2024
884.0,,,ospan,symmetry,NPudH6V1fhXDi0x1dE3yCieOIvJ2,symmetry-judgement-task,124,792768,0.0-46.0-4.0-1.0-1.0-2.0,,,,,,,,,,1.0,1.0,,,,5c31167d1a964b0001ffcce5,12:26:03,03/04/2024
,"<div style=""font-size: 10rem; color: #0000FF"">Y</div>",,ospan,letter,NPudH6V1fhXDi0x1dE3yCieOIvJ2,html-keyboard-response,125,793776,0.0-46.0-4.0-1.0-1.0-3.0,,,,,,,,,,,,,,,5c31167d1a964b0001ffcce5,12:26:03,03/04/2024
1105.0,,,ospan,symmetry,NPudH6V1fhXDi0x1dE3yCieOIvJ2,symmetry-judgement-task,126,796698,0.0-46.0-4.0-1.0-1.0-4.0,,,,,,,,,,1.0,1.0,,,,5c31167d1a964b0001ffcce5,12:26:03,03/04/2024
,"<div style=""font-size: 10rem; color: #0000FF"">R</div>",,ospan,letter,NPudH6V1fhXDi0x1dE3yCieOIvJ2,html-keyboard-response,127,797702,0.0-46.0-4.0-1.0-1.0-5.0,,,,,,,,,,,,,,,5c31167d1a964b0001ffcce5,12:26:03,03/04/2024
848.0,,,ospan,symmetry,NPudH6V1fhXDi0x1dE3yCieOIvJ2,symmetry-judgement-task,128,800381,0.0-46.0-4.0-1.0-1.0-6.0,,,,,,,,,,1.0,1.0,,,,5c31167d1a964b0001ffcce5,12:26:03,03/04/2024
,"<div style=""font-size: 10rem; color: #0000FF"">Q</div>",,ospan,letter,NPudH6V1fhXDi0x1dE3yCieOIvJ2,html-keyboard-response,129,801387,0.0-46.0-4.0-1.0-1.0-7.0,,,,,,,,,,,,,,,5c31167d1a964b0001ffcce5,12:26:03,03/04/2024
1150.0,,,ospan,symmetry,NPudH6V1fhXDi0x1dE3yCieOIvJ2,symmetry-judgement-task,130,804375,0.0-46.0-4.0-1.0-1.0-8.0,,,,,,,,,,1.0,1.0,,,,5c31167d1a964b0001ffcce5,12:26:03,03/04/2024
,"<div style=""font-size: 10rem; color: #0000FF"">K</div>",,ospan,letter,NPudH6V1fhXDi0x1dE3yCieOIvJ2,html-keyboard-response,131,805386,0.0-46.0-4.0-1.0-1.0-9.0,,,,,,,,,,,,,,,5c31167d1a964b0001ffcce5,12:26:03,03/04/2024
10135.0,"<div class = numbox><p style=""font-size: 2.4rem"">Please recall the letters you saw to the best of your ability. If you do not remember a particular letter, use the SKIP button.<br><b>(When you are ready to lock in your answer, press ENTER)</b></p><button id = button_1 class = ""square num-button"" onclick = ""recordClick(this)""><div class = content><div class = numbers>C</div></div></button><button id = button_2 class = ""square num-button"" onclick = ""recordClick(this)""><div class = content><div class = numbers>G</div></div></button><button id = button_3 class = ""square num-button"" onclick = ""recordClick(this)""><div class = content><div class = numbers>H</div></div></button><button id = button_4 class = ""square num-button"" onclick = ""recordClick(this)""><div class = content><div class = numbers>J</div></div></button><button id = button_5 class = ""square num-button"" onclick = ""recordClick(this)""><div class = content><div class = numbers>K</div></div></button><button id = button_6 class = ""square num-button"" onclick = ""recordClick(this)""><div class = content><div class = numbers>L</div></div></button><button id = button_7 class = ""square num-button"" onclick = ""recordClick(this)""><div class = content><div class = numbers>N</div></div></button><button id = button_8 class = ""square num-button"" onclick = ""recordClick(this)""><div class = content><div class = numbers>P</div></div></button><button id = button_9 class = ""square num-button"" onclick = ""recordClick(this)""><div class = content><div class = numbers>Q</div></div></button><button id = button_10 class = ""square num-button"" onclick = ""recordClick(this)""><div class = content><div class = numbers>R</div></div></button><button id = button_11 class = ""square num-button"" onclick = ""recordClick(this)""><div class = content><div class = numbers>S</div></div></button><button id = button_12 class = ""square num-button"" onclick = ""recordClick(this)""><div class = content><div class = numbers>Y</div></div></button><button class = clear_button id = ""ClearButton"" onclick = ""clearResponse()"">BACKSPACE</button><button class = blank_button id = ""BlankButton"" onclick = ""blankResponse()"">SKIP</button><p style=""font-size: 2.4rem""><u><b>Current Answer:</b></u></p><br><br><div id=echoed_txt style=""font-size: 5rem; color:blue;""><b></b></div></div>",enter,ospan,retrieval,NPudH6V1fhXDi0x1dE3yCieOIvJ2,html-keyboard-response,132,816284,0.0-46.0-4.0-1.0-2.0,12,11,7,5.0,"[""S"",""Y"",""R"",""Q""]","[""S"",""Y"",""R"",""Q"",""K""]",0.0,4.0,,,,,,,5c31167d1a964b0001ffcce5,12:26:03,03/04/2024
1061.0,[''],0,ospan,feedback,NPudH6V1fhXDi0x1dE3yCieOIvJ2,html-button-response,133,817848,0.0-46.0-4.0-1.0-3.0,,,,,,,,,,,,100.0,0.0,,5c31167d1a964b0001ffcce5,12:26:03,03/04/2024
,"<p style=""font-size:75px;"">...</p>",,ospan,iti,NPudH6V1fhXDi0x1dE3yCieOIvJ2,html-keyboard-response,134,818853,0.0-46.0-4.0-2.0-0.0,,,,,,,,,,,,,,,5c31167d1a964b0001ffcce5,12:26:03,03/04/2024
1315.0,,,ospan,symmetry,NPudH6V1fhXDi0x1dE3yCieOIvJ2,symmetry-judgement-task,135,821255,0.0-46.0-4.0-2.0-1.0-0.0,,,,,,,,,,1.0,1.0,,,,5c31167d1a964b0001ffcce5,12:26:03,03/04/2024
,"<div style=""font-size: 10rem; color: #0000FF"">Q</div>",,ospan,letter,NPudH6V1fhXDi0x1dE3yCieOIvJ2,html-keyboard-response,136,822261,0.0-46.0-4.0-2.0-1.0-1.0,,,,,,,,,,,,,,,5c31167d1a964b0001ffcce5,12:26:03,03/04/2024
912.0,,,ospan,symmetry,NPudH6V1fhXDi0x1dE3yCieOIvJ2,symmetry-judgement-task,137,825011,0.0-46.0-4.0-2.0-1.0-2.0,,,,,,,,,,1.0,1.0,,,,5c31167d1a964b0001ffcce5,12:26:03,03/04/2024
,"<div style=""font-size: 10rem; color: #0000FF"">K</div>",,ospan,letter,NPudH6V1fhXDi0x1dE3yCieOIvJ2,html-keyboard-response,138,826017,0.0-46.0-4.0-2.0-1.0-3.0,,,,,,,,,,,,,,,5c31167d1a964b0001ffcce5,12:26:03,03/04/2024
1012.0,,,ospan,symmetry,NPudH6V1fhXDi0x1dE3yCieOIvJ2,symmetry-judgement-task,139,828858,0.0-46.0-4.0-2.0-1.0-4.0,,,,,,,,,,1.0,1.0,,,,5c31167d1a964b0001ffcce5,12:26:03,03/04/2024
,"<div style=""font-size: 10rem; color: #0000FF"">S</div>",,ospan,letter,NPudH6V1fhXDi0x1dE3yCieOIvJ2,html-keyboard-response,140,829870,0.0-46.0-4.0-2.0-1.0-5.0,,,,,,,,,,,,,,,5c31167d1a964b0001ffcce5,12:26:03,03/04/2024
4449.0,"<div class = numbox><p style=""font-size: 2.4rem"">Please recall the letters you saw to the best of your ability. If you do not remember a particular letter, use the SKIP button.<br><b>(When you are ready to lock in your answer, press ENTER)</b></p><button id = button_1 class = ""square num-button"" onclick = ""recordClick(this)""><div class = content><div class = numbers>C</div></div></button><button id = button_2 class = ""square num-button"" onclick = ""recordClick(this)""><div class = content><div class = numbers>G</div></div></button><button id = button_3 class = ""square num-button"" onclick = ""recordClick(this)""><div class = content><div class = numbers>H</div></div></button><button id = button_4 class = ""square num-button"" onclick = ""recordClick(this)""><div class = content><div class = numbers>J</div></div></button><button id = button_5 class = ""square num-button"" onclick = ""recordClick(this)""><div class = content><div class = numbers>K</div></div></button><button id = button_6 class = ""square num-button"" onclick = ""recordClick(this)""><div class = content><div class = numbers>L</div></div></button><button id = button_7 class = ""square num-button"" onclick = ""recordClick(this)""><div class = content><div class = numbers>N</div></div></button><button id = button_8 class = ""square num-button"" onclick = ""recordClick(this)""><div class = content><div class = numbers>P</div></div></button><button id = button_9 class = ""square num-button"" onclick = ""recordClick(this)""><div class = content><div class = numbers>Q</div></div></button><button id = button_10 class = ""square num-button"" onclick = ""recordClick(this)""><div class = content><div class = numbers>R</div></div></button><button id = button_11 class = ""square num-button"" onclick = ""recordClick(this)""><div class = content><div class = numbers>S</div></div></button><button id = button_12 class = ""square num-button"" onclick = ""recordClick(this)""><div class = content><div class = numbers>Y</div></div></button><button class = clear_button id = ""ClearButton"" onclick = ""clearResponse()"">BACKSPACE</button><button class = blank_button id = ""BlankButton"" onclick = ""blankResponse()"">SKIP</button><p style=""font-size: 2.4rem""><u><b>Current Answer:</b></u></p><br><br><div id=echoed_txt style=""font-size: 5rem; color:blue;""><b></b></div></div>",enter,ospan,retrieval,NPudH6V1fhXDi0x1dE3yCieOIvJ2,html-keyboard-response,141,835083,0.0-46.0-4.0-2.0-2.0,15,14,10,3.0,"[""Q"",""K"",""S""]","[""Q"",""K"",""S""]",1.0,3.0,,,,,,,5c31167d1a964b0001ffcce5,12:26:03,03/04/2024
837.0,[''],0,ospan,feedback,NPudH6V1fhXDi0x1dE3yCieOIvJ2,html-button-response,142,836433,0.0-46.0-4.0-2.0-3.0,,,,,,,,,,,,100.0,0.0,,5c31167d1a964b0001ffcce5,12:26:03,03/04/2024
,"<p style=""font-size:75px;"">...</p>",,ospan,iti,NPudH6V1fhXDi0x1dE3yCieOIvJ2,html-keyboard-response,143,837444,0.0-46.0-5.0-0.0-0.0,,,,,,,,,,,,,,,5c31167d1a964b0001ffcce5,12:26:03,03/04/2024
1091.0,,,ospan,symmetry,NPudH6V1fhXDi0x1dE3yCieOIvJ2,symmetry-judgement-task,144,839606,0.0-46.0-5.0-0.0-1.0-0.0,,,,,,,,,,1.0,1.0,,,,5c31167d1a964b0001ffcce5,12:26:03,03/04/2024
,"<div style=""font-size: 10rem; color: #0000FF"">Q</div>",,ospan,letter,NPudH6V1fhXDi0x1dE3yCieOIvJ2,html-keyboard-response,145,840613,0.0-46.0-5.0-0.0-1.0-1.0,,,,,,,,,,,,,,,5c31167d1a964b0001ffcce5,12:26:03,03/04/2024
1182.0,,,ospan,symmetry,NPudH6V1fhXDi0x1dE3yCieOIvJ2,symmetry-judgement-task,146,843627,0.0-46.0-5.0-0.0-1.0-2.0,,,,,,,,,,1.0,1.0,,,,5c31167d1a964b0001ffcce5,12:26:03,03/04/2024
,"<div style=""font-size: 10rem; color: #0000FF"">C</div>",,ospan,letter,NPudH6V1fhXDi0x1dE3yCieOIvJ2,html-keyboard-response,147,844637,0.0-46.0-5.0-0.0-1.0-3.0,,,,,,,,,,,,,,,5c31167d1a964b0001ffcce5,12:26:03,03/04/2024
783.0,,,ospan,symmetry,NPudH6V1fhXDi0x1dE3yCieOIvJ2,symmetry-judgement-task,148,847255,0.0-46.0-5.0-0.0-1.0-4.0,,,,,,,,,,1.0,1.0,,,,5c31167d1a964b0001ffcce5,12:26:03,03/04/2024
,"<div style=""font-size: 10rem; color: #0000FF"">P</div>",,ospan,letter,NPudH6V1fhXDi0x1dE3yCieOIvJ2,html-keyboard-response,149,848259,0.0-46.0-5.0-0.0-1.0-5.0,,,,,,,,,,,,,,,5c31167d1a964b0001ffcce5,12:26:03,03/04/2024
837.0,,,ospan,symmetry,NPudH6V1fhXDi0x1dE3yCieOIvJ2,symmetry-judgement-task,150,850916,0.0-46.0-5.0-0.0-1.0-6.0,,,,,,,,,,1.0,1.0,,,,5c31167d1a964b0001ffcce5,12:26:03,03/04/2024
,"<div style=""font-size: 10rem; color: #0000FF"">L</div>",,ospan,letter,NPudH6V1fhXDi0x1dE3yCieOIvJ2,html-keyboard-response,151,851926,0.0-46.0-5.0-0.0-1.0-7.0,,,,,,,,,,,,,,,5c31167d1a964b0001ffcce5,12:26:03,03/04/2024
1185.0,,,ospan,symmetry,NPudH6V1fhXDi0x1dE3yCieOIvJ2,symmetry-judgement-task,152,854943,0.0-46.0-5.0-0.0-1.0-8.0,,,,,,,,,,1.0,1.0,,,,5c31167d1a964b0001ffcce5,12:26:03,03/04/2024
,"<div style=""font-size: 10rem; color: #0000FF"">N</div>",,ospan,letter,NPudH6V1fhXDi0x1dE3yCieOIvJ2,html-keyboard-response,153,855950,0.0-46.0-5.0-0.0-1.0-9.0,,,,,,,,,,,,,,,5c31167d1a964b0001ffcce5,12:26:03,03/04/2024
824.0,,,ospan,symmetry,NPudH6V1fhXDi0x1dE3yCieOIvJ2,symmetry-judgement-task,154,858594,0.0-46.0-5.0-0.0-1.0-10.0,,,,,,,,,,1.0,1.0,,,,5c31167d1a964b0001ffcce5,12:26:03,03/04/2024
,"<div style=""font-size: 10rem; color: #0000FF"">H</div>",,ospan,letter,NPudH6V1fhXDi0x1dE3yCieOIvJ2,html-keyboard-response,155,859601,0.0-46.0-5.0-0.0-1.0-11.0,,,,,,,,,,,,,,,5c31167d1a964b0001ffcce5,12:26:03,03/04/2024
10388.0,"<div class = numbox><p style=""font-size: 2.4rem"">Please recall the letters you saw to the best of your ability. If you do not remember a particular letter, use the SKIP button.<br><b>(When you are ready to lock in your answer, press ENTER)</b></p><button id = button_1 class = ""square num-button"" onclick = ""recordClick(this)""><div class = content><div class = numbers>C</div></div></button><button id = button_2 class = ""square num-button"" onclick = ""recordClick(this)""><div class = content><div class = numbers>G</div></div></button><button id = button_3 class = ""square num-button"" onclick = ""recordClick(this)""><div class = content><div class = numbers>H</div></div></button><button id = button_4 class = ""square num-button"" onclick = ""recordClick(this)""><div class = content><div class = numbers>J</div></div></button><button id = button_5 class = ""square num-button"" onclick = ""recordClick(this)""><div class = content><div class = numbers>K</div></div></button><button id = button_6 class = ""square num-button"" onclick = ""recordClick(this)""><div class = content><div class = numbers>L</div></div></button><button id = button_7 class = ""square num-button"" onclick = ""recordClick(this)""><div class = content><div class = numbers>N</div></div></button><button id = button_8 class = ""square num-button"" onclick = ""recordClick(this)""><div class = content><div class = numbers>P</div></div></button><button id = button_9 class = ""square num-button"" onclick = ""recordClick(this)""><div class = content><div class = numbers>Q</div></div></button><button id = button_10 class = ""square num-button"" onclick = ""recordClick(this)""><div class = content><div class = numbers>R</div></div></button><button id = button_11 class = ""square num-button"" onclick = ""recordClick(this)""><div class = content><div class = numbers>S</div></div></button><button id = button_12 class = ""square num-button"" onclick = ""recordClick(this)""><div class = content><div class = numbers>Y</div></div></button><button class = clear_button id = ""ClearButton"" onclick = ""clearResponse()"">BACKSPACE</button><button class = blank_button id = ""BlankButton"" onclick = ""blankResponse()"">SKIP</button><p style=""font-size: 2.4rem""><u><b>Current Answer:</b></u></p><br><br><div id=echoed_txt style=""font-size: 5rem; color:blue;""><b></b></div></div>",enter,ospan,retrieval,NPudH6V1fhXDi0x1dE3yCieOIvJ2,html-keyboard-response,156,870747,0.0-46.0-5.0-0.0-2.0,21,18,10,6.0,"[""Q"",""C"",""P"",""L"",""H""]","[""Q"",""C"",""P"",""L"",""N"",""H""]",0.0,4.0,,,,,,,5c31167d1a964b0001ffcce5,12:26:03,03/04/2024
1166.0,[''],0,ospan,feedback,NPudH6V1fhXDi0x1dE3yCieOIvJ2,html-button-response,157,872417,0.0-46.0-5.0-0.0-3.0,,,,,,,,,,,,100.0,0.0,,5c31167d1a964b0001ffcce5,12:26:03,03/04/2024
,"<p style=""font-size:75px;"">...</p>",,ospan,iti,NPudH6V1fhXDi0x1dE3yCieOIvJ2,html-keyboard-response,158,873423,0.0-46.0-5.0-1.0-0.0,,,,,,,,,,,,,,,5c31167d1a964b0001ffcce5,12:26:03,03/04/2024
1096.0,,,ospan,symmetry,NPudH6V1fhXDi0x1dE3yCieOIvJ2,symmetry-judgement-task,159,875595,0.0-46.0-5.0-1.0-1.0-0.0,,,,,,,,,,1.0,1.0,,,,5c31167d1a964b0001ffcce5,12:26:03,03/04/2024
,"<div style=""font-size: 10rem; color: #0000FF"">Q</div>",,ospan,letter,NPudH6V1fhXDi0x1dE3yCieOIvJ2,html-keyboard-response,160,876605,0.0-46.0-5.0-1.0-1.0-1.0,,,,,,,,,,,,,,,5c31167d1a964b0001ffcce5,12:26:03,03/04/2024
978.0,,,ospan,symmetry,NPudH6V1fhXDi0x1dE3yCieOIvJ2,symmetry-judgement-task,161,879410,0.0-46.0-5.0-1.0-1.0-2.0,,,,,,,,,,1.0,1.0,,,,5c31167d1a964b0001ffcce5,12:26:03,03/04/2024
,"<div style=""font-size: 10rem; color: #0000FF"">L</div>",,ospan,letter,NPudH6V1fhXDi0x1dE3yCieOIvJ2,html-keyboard-response,162,880414,0.0-46.0-5.0-1.0-1.0-3.0,,,,,,,,,,,,,,,5c31167d1a964b0001ffcce5,12:26:03,03/04/2024
995.0,,,ospan,symmetry,NPudH6V1fhXDi0x1dE3yCieOIvJ2,symmetry-judgement-task,163,883242,0.0-46.0-5.0-1.0-1.0-4.0,,,,,,,,,,1.0,1.0,,,,5c31167d1a964b0001ffcce5,12:26:03,03/04/2024
,"<div style=""font-size: 10rem; color: #0000FF"">P</div>",,ospan,letter,NPudH6V1fhXDi0x1dE3yCieOIvJ2,html-keyboard-response,164,884251,0.0-46.0-5.0-1.0-1.0-5.0,,,,,,,,,,,,,,,5c31167d1a964b0001ffcce5,12:26:03,03/04/2024
811.0,,,ospan,symmetry,NPudH6V1fhXDi0x1dE3yCieOIvJ2,symmetry-judgement-task,165,886892,0.0-46.0-5.0-1.0-1.0-6.0,,,,,,,,,,1.0,1.0,,,,5c31167d1a964b0001ffcce5,12:26:03,03/04/2024
,"<div style=""font-size: 10rem; color: #0000FF"">Y</div>",,ospan,letter,NPudH6V1fhXDi0x1dE3yCieOIvJ2,html-keyboard-response,166,887897,0.0-46.0-5.0-1.0-1.0-7.0,,,,,,,,,,,,,,,5c31167d1a964b0001ffcce5,12:26:03,03/04/2024
907.0,,,ospan,symmetry,NPudH6V1fhXDi0x1dE3yCieOIvJ2,symmetry-judgement-task,167,890672,0.0-46.0-5.0-1.0-1.0-8.0,,,,,,,,,,1.0,1.0,,,,5c31167d1a964b0001ffcce5,12:26:03,03/04/2024
,"<div style=""font-size: 10rem; color: #0000FF"">K</div>",,ospan,letter,NPudH6V1fhXDi0x1dE3yCieOIvJ2,html-keyboard-response,168,891678,0.0-46.0-5.0-1.0-1.0-9.0,,,,,,,,,,,,,,,5c31167d1a964b0001ffcce5,12:26:03,03/04/2024
753.0,,,ospan,symmetry,NPudH6V1fhXDi0x1dE3yCieOIvJ2,symmetry-judgement-task,169,894273,0.0-46.0-5.0-1.0-1.0-10.0,,,,,,,,,,1.0,1.0,,,,5c31167d1a964b0001ffcce5,12:26:03,03/04/2024
,"<div style=""font-size: 10rem; color: #0000FF"">N</div>",,ospan,letter,NPudH6V1fhXDi0x1dE3yCieOIvJ2,html-keyboard-response,170,895314,0.0-46.0-5.0-1.0-1.0-11.0,,,,,,,,,,,,,,,5c31167d1a964b0001ffcce5,12:26:03,03/04/2024
933.0,,,ospan,symmetry,NPudH6V1fhXDi0x1dE3yCieOIvJ2,symmetry-judgement-task,171,898080,0.0-46.0-5.0-1.0-1.0-12.0,,,,,,,,,,1.0,1.0,,,,5c31167d1a964b0001ffcce5,12:26:03,03/04/2024
,"<div style=""font-size: 10rem; color: #0000FF"">J</div>",,ospan,letter,NPudH6V1fhXDi0x1dE3yCieOIvJ2,html-keyboard-response,172,899087,0.0-46.0-5.0-1.0-1.0-13.0,,,,,,,,,,,,,,,5c31167d1a964b0001ffcce5,12:26:03,03/04/2024
7488.0,"<div class = numbox><p style=""font-size: 2.4rem"">Please recall the letters you saw to the best of your ability. If you do not remember a particular letter, use the SKIP button.<br><b>(When you are ready to lock in your answer, press ENTER)</b></p><button id = button_1 class = ""square num-button"" onclick = ""recordClick(this)""><div class = content><div class = numbers>C</div></div></button><button id = button_2 class = ""square num-button"" onclick = ""recordClick(this)""><div class = content><div class = numbers>G</div></div></button><button id = button_3 class = ""square num-button"" onclick = ""recordClick(this)""><div class = content><div class = numbers>H</div></div></button><button id = button_4 class = ""square num-button"" onclick = ""recordClick(this)""><div class = content><div class = numbers>J</div></div></button><button id = button_5 class = ""square num-button"" onclick = ""recordClick(this)""><div class = content><div class = numbers>K</div></div></button><button id = button_6 class = ""square num-button"" onclick = ""recordClick(this)""><div class = content><div class = numbers>L</div></div></button><button id = button_7 class = ""square num-button"" onclick = ""recordClick(this)""><div class = content><div class = numbers>N</div></div></button><button id = button_8 class = ""square num-button"" onclick = ""recordClick(this)""><div class = content><div class = numbers>P</div></div></button><button id = button_9 class = ""square num-button"" onclick = ""recordClick(this)""><div class = content><div class = numbers>Q</div></div></button><button id = button_10 class = ""square num-button"" onclick = ""recordClick(this)""><div class = content><div class = numbers>R</div></div></button><button id = button_11 class = ""square num-button"" onclick = ""recordClick(this)""><div class = content><div class = numbers>S</div></div></button><button id = button_12 class = ""square num-button"" onclick = ""recordClick(this)""><div class = content><div class = numbers>Y</div></div></button><button class = clear_button id = ""ClearButton"" onclick = ""clearResponse()"">BACKSPACE</button><button class = blank_button id = ""BlankButton"" onclick = ""blankResponse()"">SKIP</button><p style=""font-size: 2.4rem""><u><b>Current Answer:</b></u></p><br><br><div id=echoed_txt style=""font-size: 5rem; color:blue;""><b></b></div></div>",enter,ospan,retrieval,NPudH6V1fhXDi0x1dE3yCieOIvJ2,html-keyboard-response,173,907339,0.0-46.0-5.0-1.0-2.0,28,23,10,7.0,"[""Q"",""L"",""P"",""Y"",""K""]","[""Q"",""L"",""P"",""Y"",""K"",""N"",""J""]",0.0,5.0,,,,,,,5c31167d1a964b0001ffcce5,12:26:03,03/04/2024
934.0,[''],0,ospan,feedback,NPudH6V1fhXDi0x1dE3yCieOIvJ2,html-button-response,174,908786,0.0-46.0-5.0-1.0-3.0,,,,,,,,,,,,100.0,0.0,,5c31167d1a964b0001ffcce5,12:26:03,03/04/2024
,"<p style=""font-size:75px;"">...</p>",,ospan,iti,NPudH6V1fhXDi0x1dE3yCieOIvJ2,html-keyboard-response,175,909796,0.0-46.0-6.0-0.0-0.0,,,,,,,,,,,,,,,5c31167d1a964b0001ffcce5,12:26:03,03/04/2024
1294.0,,,ospan,symmetry,NPudH6V1fhXDi0x1dE3yCieOIvJ2,symmetry-judgement-task,176,912158,0.0-46.0-6.0-0.0-1.0-0.0,,,,,,,,,,1.0,1.0,,,,5c31167d1a964b0001ffcce5,12:26:03,03/04/2024
,"<div style=""font-size: 10rem; color: #0000FF"">P</div>",,ospan,letter,NPudH6V1fhXDi0x1dE3yCieOIvJ2,html-keyboard-response,177,913169,0.0-46.0-6.0-0.0-1.0-1.0,,,,,,,,,,,,,,,5c31167d1a964b0001ffcce5,12:26:03,03/04/2024
1132.0,,,ospan,symmetry,NPudH6V1fhXDi0x1dE3yCieOIvJ2,symmetry-judgement-task,178,916127,0.0-46.0-6.0-0.0-1.0-2.0,,,,,,,,,,1.0,1.0,,,,5c31167d1a964b0001ffcce5,12:26:03,03/04/2024
,"<div style=""font-size: 10rem; color: #0000FF"">Y</div>",,ospan,letter,NPudH6V1fhXDi0x1dE3yCieOIvJ2,html-keyboard-response,179,917137,0.0-46.0-6.0-0.0-1.0-3.0,,,,,,,,,,,,,,,5c31167d1a964b0001ffcce5,12:26:03,03/04/2024
1097.0,,,ospan,symmetry,NPudH6V1fhXDi0x1dE3yCieOIvJ2,symmetry-judgement-task,180,920066,0.0-46.0-6.0-0.0-1.0-4.0,,,,,,,,,,1.0,1.0,,,,5c31167d1a964b0001ffcce5,12:26:03,03/04/2024
,"<div style=""font-size: 10rem; color: #0000FF"">S</div>",,ospan,letter,NPudH6V1fhXDi0x1dE3yCieOIvJ2,html-keyboard-response,181,921072,0.0-46.0-6.0-0.0-1.0-5.0,,,,,,,,,,,,,,,5c31167d1a964b0001ffcce5,12:26:03,03/04/2024
1045.0,,,ospan,symmetry,NPudH6V1fhXDi0x1dE3yCieOIvJ2,symmetry-judgement-task,182,923944,0.0-46.0-6.0-0.0-1.0-6.0,,,,,,,,,,1.0,1.0,,,,5c31167d1a964b0001ffcce5,12:26:03,03/04/2024
,"<div style=""font-size: 10rem; color: #0000FF"">L</div>",,ospan,letter,NPudH6V1fhXDi0x1dE3yCieOIvJ2,html-keyboard-response,183,924950,0.0-46.0-6.0-0.0-1.0-7.0,,,,,,,,,,,,,,,5c31167d1a964b0001ffcce5,12:26:03,03/04/2024
799.0,,,ospan,symmetry,NPudH6V1fhXDi0x1dE3yCieOIvJ2,symmetry-judgement-task,184,927577,0.0-46.0-6.0-0.0-1.0-8.0,,,,,,,,,,1.0,1.0,,,,5c31167d1a964b0001ffcce5,12:26:03,03/04/2024
,"<div style=""font-size: 10rem; color: #0000FF"">G</div>",,ospan,letter,NPudH6V1fhXDi0x1dE3yCieOIvJ2,html-keyboard-response,185,928586,0.0-46.0-6.0-0.0-1.0-9.0,,,,,,,,,,,,,,,5c31167d1a964b0001ffcce5,12:26:03,03/04/2024
5526.0,"<div class = numbox><p style=""font-size: 2.4rem"">Please recall the letters you saw to the best of your ability. If you do not remember a particular letter, use the SKIP button.<br><b>(When you are ready to lock in your answer, press ENTER)</b></p><button id = button_1 class = ""square num-button"" onclick = ""recordClick(this)""><div class = content><div class = numbers>C</div></div></button><button id = button_2 class = ""square num-button"" onclick = ""recordClick(this)""><div class = content><div class = numbers>G</div></div></button><button id = button_3 class = ""square num-button"" onclick = ""recordClick(this)""><div class = content><div class = numbers>H</div></div></button><button id = button_4 class = ""square num-button"" onclick = ""recordClick(this)""><div class = content><div class = numbers>J</div></div></button><button id = button_5 class = ""square num-button"" onclick = ""recordClick(this)""><div class = content><div class = numbers>K</div></div></button><button id = button_6 class = ""square num-button"" onclick = ""recordClick(this)""><div class = content><div class = numbers>L</div></div></button><button id = button_7 class = ""square num-button"" onclick = ""recordClick(this)""><div class = content><div class = numbers>N</div></div></button><button id = button_8 class = ""square num-button"" onclick = ""recordClick(this)""><div class = content><div class = numbers>P</div></div></button><button id = button_9 class = ""square num-button"" onclick = ""recordClick(this)""><div class = content><div class = numbers>Q</div></div></button><button id = button_10 class = ""square num-button"" onclick = ""recordClick(this)""><div class = content><div class = numbers>R</div></div></button><button id = button_11 class = ""square num-button"" onclick = ""recordClick(this)""><div class = content><div class = numbers>S</div></div></button><button id = button_12 class = ""square num-button"" onclick = ""recordClick(this)""><div class = content><div class = numbers>Y</div></div></button><button class = clear_button id = ""ClearButton"" onclick = ""clearResponse()"">BACKSPACE</button><button class = blank_button id = ""BlankButton"" onclick = ""blankResponse()"">SKIP</button><p style=""font-size: 2.4rem""><u><b>Current Answer:</b></u></p><br><br><div id=echoed_txt style=""font-size: 5rem; color:blue;""><b></b></div></div>",enter,ospan,retrieval,NPudH6V1fhXDi0x1dE3yCieOIvJ2,html-keyboard-response,186,934875,0.0-46.0-6.0-0.0-2.0,33,28,15,5.0,"[""P"",""Y"",""S"",""L"",""G""]","[""P"",""Y"",""S"",""L"",""G""]",1.0,5.0,,,,,,,5c31167d1a964b0001ffcce5,12:26:03,03/04/2024
809.0,[''],0,ospan,feedback,NPudH6V1fhXDi0x1dE3yCieOIvJ2,html-button-response,187,936198,0.0-46.0-6.0-0.0-3.0,,,,,,,,,,,,100.0,0.0,,5c31167d1a964b0001ffcce5,12:26:03,03/04/2024
,"<p style=""font-size:75px;"">...</p>",,ospan,iti,NPudH6V1fhXDi0x1dE3yCieOIvJ2,html-keyboard-response,188,937206,0.0-46.0-6.0-1.0-0.0,,,,,,,,,,,,,,,5c31167d1a964b0001ffcce5,12:26:03,03/04/2024
1035.0,,,ospan,symmetry,NPudH6V1fhXDi0x1dE3yCieOIvJ2,symmetry-judgement-task,189,939314,0.0-46.0-6.0-1.0-1.0-0.0,,,,,,,,,,1.0,1.0,,,,5c31167d1a964b0001ffcce5,12:26:03,03/04/2024
,"<div style=""font-size: 10rem; color: #0000FF"">Q</div>",,ospan,letter,NPudH6V1fhXDi0x1dE3yCieOIvJ2,html-keyboard-response,190,940325,0.0-46.0-6.0-1.0-1.0-1.0,,,,,,,,,,,,,,,5c31167d1a964b0001ffcce5,12:26:03,03/04/2024
1687.0,,,ospan,symmetry,NPudH6V1fhXDi0x1dE3yCieOIvJ2,symmetry-judgement-task,191,943839,0.0-46.0-6.0-1.0-1.0-2.0,,,,,,,,,,1.0,1.0,,,,5c31167d1a964b0001ffcce5,12:26:03,03/04/2024
,"<div style=""font-size: 10rem; color: #0000FF"">G</div>",,ospan,letter,NPudH6V1fhXDi0x1dE3yCieOIvJ2,html-keyboard-response,192,944852,0.0-46.0-6.0-1.0-1.0-3.0,,,,,,,,,,,,,,,5c31167d1a964b0001ffcce5,12:26:03,03/04/2024
865.0,,,ospan,symmetry,NPudH6V1fhXDi0x1dE3yCieOIvJ2,symmetry-judgement-task,193,947543,0.0-46.0-6.0-1.0-1.0-4.0,,,,,,,,,,1.0,1.0,,,,5c31167d1a964b0001ffcce5,12:26:03,03/04/2024
,"<div style=""font-size: 10rem; color: #0000FF"">P</div>",,ospan,letter,NPudH6V1fhXDi0x1dE3yCieOIvJ2,html-keyboard-response,194,948553,0.0-46.0-6.0-1.0-1.0-5.0,,,,,,,,,,,,,,,5c31167d1a964b0001ffcce5,12:26:03,03/04/2024
845.0,,,ospan,symmetry,NPudH6V1fhXDi0x1dE3yCieOIvJ2,symmetry-judgement-task,195,951223,0.0-46.0-6.0-1.0-1.0-6.0,,,,,,,,,,1.0,1.0,,,,5c31167d1a964b0001ffcce5,12:26:03,03/04/2024
,"<div style=""font-size: 10rem; color: #0000FF"">R</div>",,ospan,letter,NPudH6V1fhXDi0x1dE3yCieOIvJ2,html-keyboard-response,196,952312,0.0-46.0-6.0-1.0-1.0-7.0,,,,,,,,,,,,,,,5c31167d1a964b0001ffcce5,12:26:03,03/04/2024
861.0,,,ospan,symmetry,NPudH6V1fhXDi0x1dE3yCieOIvJ2,symmetry-judgement-task,197,954996,0.0-46.0-6.0-1.0-1.0-8.0,,,,,,,,,,1.0,1.0,,,,5c31167d1a964b0001ffcce5,12:26:03,03/04/2024
,"<div style=""font-size: 10rem; color: #0000FF"">J</div>",,ospan,letter,NPudH6V1fhXDi0x1dE3yCieOIvJ2,html-keyboard-response,198,956043,0.0-46.0-6.0-1.0-1.0-9.0,,,,,,,,,,,,,,,5c31167d1a964b0001ffcce5,12:26:03,03/04/2024
775.0,,,ospan,symmetry,NPudH6V1fhXDi0x1dE3yCieOIvJ2,symmetry-judgement-task,199,958645,0.0-46.0-6.0-1.0-1.0-10.0,,,,,,,,,,1.0,1.0,,,,5c31167d1a964b0001ffcce5,12:26:03,03/04/2024
,"<div style=""font-size: 10rem; color: #0000FF"">C</div>",,ospan,letter,NPudH6V1fhXDi0x1dE3yCieOIvJ2,html-keyboard-response,200,959657,0.0-46.0-6.0-1.0-1.0-11.0,,,,,,,,,,,,,,,5c31167d1a964b0001ffcce5,12:26:03,03/04/2024
759.0,,,ospan,symmetry,NPudH6V1fhXDi0x1dE3yCieOIvJ2,symmetry-judgement-task,201,962245,0.0-46.0-6.0-1.0-1.0-12.0,,,,,,,,,,1.0,1.0,,,,5c31167d1a964b0001ffcce5,12:26:03,03/04/2024
,"<div style=""font-size: 10rem; color: #0000FF"">L</div>",,ospan,letter,NPudH6V1fhXDi0x1dE3yCieOIvJ2,html-keyboard-response,202,963252,0.0-46.0-6.0-1.0-1.0-13.0,,,,,,,,,,,,,,,5c31167d1a964b0001ffcce5,12:26:03,03/04/2024
1157.0,,,ospan,symmetry,NPudH6V1fhXDi0x1dE3yCieOIvJ2,symmetry-judgement-task,203,966247,0.0-46.0-6.0-1.0-1.0-14.0,,,,,,,,,,1.0,1.0,,,,5c31167d1a964b0001ffcce5,12:26:03,03/04/2024
,"<div style=""font-size: 10rem; color: #0000FF"">K</div>",,ospan,letter,NPudH6V1fhXDi0x1dE3yCieOIvJ2,html-keyboard-response,204,967255,0.0-46.0-6.0-1.0-1.0-15.0,,,,,,,,,,,,,,,5c31167d1a964b0001ffcce5,12:26:03,03/04/2024
6827.0,"<div class = numbox><p style=""font-size: 2.4rem"">Please recall the letters you saw to the best of your ability. If you do not remember a particular letter, use the SKIP button.<br><b>(When you are ready to lock in your answer, press ENTER)</b></p><button id = button_1 class = ""square num-button"" onclick = ""recordClick(this)""><div class = content><div class = numbers>C</div></div></button><button id = button_2 class = ""square num-button"" onclick = ""recordClick(this)""><div class = content><div class = numbers>G</div></div></button><button id = button_3 class = ""square num-button"" onclick = ""recordClick(this)""><div class = content><div class = numbers>H</div></div></button><button id = button_4 class = ""square num-button"" onclick = ""recordClick(this)""><div class = content><div class = numbers>J</div></div></button><button id = button_5 class = ""square num-button"" onclick = ""recordClick(this)""><div class = content><div class = numbers>K</div></div></button><button id = button_6 class = ""square num-button"" onclick = ""recordClick(this)""><div class = content><div class = numbers>L</div></div></button><button id = button_7 class = ""square num-button"" onclick = ""recordClick(this)""><div class = content><div class = numbers>N</div></div></button><button id = button_8 class = ""square num-button"" onclick = ""recordClick(this)""><div class = content><div class = numbers>P</div></div></button><button id = button_9 class = ""square num-button"" onclick = ""recordClick(this)""><div class = content><div class = numbers>Q</div></div></button><button id = button_10 class = ""square num-button"" onclick = ""recordClick(this)""><div class = content><div class = numbers>R</div></div></button><button id = button_11 class = ""square num-button"" onclick = ""recordClick(this)""><div class = content><div class = numbers>S</div></div></button><button id = button_12 class = ""square num-button"" onclick = ""recordClick(this)""><div class = content><div class = numbers>Y</div></div></button><button class = clear_button id = ""ClearButton"" onclick = ""clearResponse()"">BACKSPACE</button><button class = blank_button id = ""BlankButton"" onclick = ""blankResponse()"">SKIP</button><p style=""font-size: 2.4rem""><u><b>Current Answer:</b></u></p><br><br><div id=echoed_txt style=""font-size: 5rem; color:blue;""><b></b></div></div>",enter,ospan,retrieval,NPudH6V1fhXDi0x1dE3yCieOIvJ2,html-keyboard-response,205,974843,0.0-46.0-6.0-1.0-2.0,41,30,15,8.0,"[""Q"",""G"",""C"",""P"",""R"",""J""]","[""Q"",""G"",""P"",""R"",""J"",""C"",""L"",""K""]",0.0,2.0,,,,,,,5c31167d1a964b0001ffcce5,12:26:03,03/04/2024
890.0,[''],0,ospan,feedback,NPudH6V1fhXDi0x1dE3yCieOIvJ2,html-button-response,206,976236,0.0-46.0-6.0-1.0-3.0,,,,,,,,,,,,100.0,0.0,,5c31167d1a964b0001ffcce5,12:26:03,03/04/2024
39192.0,,"{'Q0': 'Nothing to be improved, Task was fun and got my brain working'}",ospan,survey_ospan,NPudH6V1fhXDi0x1dE3yCieOIvJ2,lmdlab-survey-text,207,1016190,0.0-46.0-7.0,,,,,,,,,,,,,,NPudH6V1fhXDi0x1dE3yCieOIvJ2,5c31167d1a964b0001ffcce5,12:26:03,03/04/2024
1390.0,<p><p style='font-size: 3rem'>Great work!<br><br>This completes the symmetry and memory task.</p><br><br><br>,0,ospan,finish,NPudH6V1fhXDi0x1dE3yCieOIvJ2,html-button-response,208,1017583,0.0-46.0-8.0,41,30,15,,,,,,,,,100.0,,,5c31167d1a964b0001ffcce5,12:26:03,03/04/2024
