rt,stimulus,response,exp_name,exp_stage,subjectID,trial_type,trial_index,time_elapsed,internal_node_id,ospan_shown,ospan_total,ospan_abs,length,resp_actual,resp_correct,full_correct,num_correct,feedback,accuracy,correct,math_acc,math_warning,databaseID,prolificID,start_time,date
2874.399999999907,<div class = 'left_align' style='font-size: 3.25rem; line-height: 1.3;'><p class = 'center_align'><b>Welcome to the Symmetry and Memory Task</b><br><br><br><br></p>Press 'continue' to show the instructions.<br><br><br><br></div>,0,ospan,instruct,wH9Gkmpc1OQaVAoPZbj20Dqiunt2,html-button-response,54,661397,0.0-46.0-0.0-0.0-0.0,,,,,,,,,,,,,,,5f32cfa671047605fbb4cee1,12:50:27,03/04/2024
6427.399999999907,"<div class = 'left_align' style='font-size: 3.25rem; line-height: 1.3;'><p class = 'center_align'><b>Symmetry and Memory Task</b><br><br></p>In this task, you will try to memorize letters you see on the screen<br>while you also view black and white grid pictures.<br><br>In the next few minutes, you will have some practice to get you familiar<br>with how the task works.<br><br>It may be difficult sometimes, but please do not worry about making mistakes!<br><br>We will begin by practicing the letter part of the task.<br><br><br><br></div>",0,ospan,instruct,wH9Gkmpc1OQaVAoPZbj20Dqiunt2,html-button-response,55,668078,0.0-46.0-0.0-0.0-1.0,,,,,,,,,,,,,,,5f32cfa671047605fbb4cee1,12:50:27,03/04/2024
1363.2000000001863,"<div class = 'left_align' style='font-size: 3.25rem; line-height: 1.3;'>For this practice part, letters will appear on the screen one at a time.<br><br>Try to remember each letter in the order presented.<br><br>After some letters have been shown, you will see a response screen. Your<br>goal is to report the letters you saw <b>in order</b>. If you do not remember<br>a particular letter, you will have the option to leave it blank.<br><br><br><br></div>",0,ospan,instruct,wH9Gkmpc1OQaVAoPZbj20Dqiunt2,html-button-response,56,669705,0.0-46.0-0.0-0.0-2.0,,,,,,,,,,,,,,,5f32cfa671047605fbb4cee1,12:50:27,03/04/2024
3806.100000000093,"<div class = 'left_align' style='font-size: 3.25rem; line-height: 1.3;'>Remember, it is very important to get the letters in the same<br>order as you see them.<br><br>When you are ready, you may begin the letter practice.</div><br><br><br><br>",0,ospan,instruct,wH9Gkmpc1OQaVAoPZbj20Dqiunt2,html-button-response,57,673777,0.0-46.0-0.0-0.0-3.0,,,,,,,,,,,,,,,5f32cfa671047605fbb4cee1,12:50:27,03/04/2024
,"<p style=""font-size:75px;"">...</p>",,ospan,iti,wH9Gkmpc1OQaVAoPZbj20Dqiunt2,html-keyboard-response,58,675038,0.0-46.0-0.0-1.0-0.0,,,,,,,,,,,,,,,5f32cfa671047605fbb4cee1,12:50:27,03/04/2024
,"<div style=""font-size: 10rem; color: #0000FF"">H</div>",,ospan,letter,wH9Gkmpc1OQaVAoPZbj20Dqiunt2,html-keyboard-response,59,676053,0.0-46.0-0.0-1.0-1.0,,,,,,,,,,,,,,,5f32cfa671047605fbb4cee1,12:50:27,03/04/2024
,"<div style=""font-size: 10rem; color: #0000FF"">Y</div>",,ospan,letter,wH9Gkmpc1OQaVAoPZbj20Dqiunt2,html-keyboard-response,60,677818,0.0-46.0-0.0-1.0-2.0,,,,,,,,,,,,,,,5f32cfa671047605fbb4cee1,12:50:27,03/04/2024
5717.700000000186,"<div class = numbox><p style=""font-size: 2.4rem"">Please recall the letters you saw to the best of your ability. If you do not remember a particular letter, use the SKIP button.<br><b>(When you are ready to lock in your answer, press ENTER)</b></p><button id = button_1 class = ""square num-button"" onclick = ""recordClick(this)""><div class = content><div class = numbers>C</div></div></button><button id = button_2 class = ""square num-button"" onclick = ""recordClick(this)""><div class = content><div class = numbers>G</div></div></button><button id = button_3 class = ""square num-button"" onclick = ""recordClick(this)""><div class = content><div class = numbers>H</div></div></button><button id = button_4 class = ""square num-button"" onclick = ""recordClick(this)""><div class = content><div class = numbers>J</div></div></button><button id = button_5 class = ""square num-button"" onclick = ""recordClick(this)""><div class = content><div class = numbers>K</div></div></button><button id = button_6 class = ""square num-button"" onclick = ""recordClick(this)""><div class = content><div class = numbers>L</div></div></button><button id = button_7 class = ""square num-button"" onclick = ""recordClick(this)""><div class = content><div class = numbers>N</div></div></button><button id = button_8 class = ""square num-button"" onclick = ""recordClick(this)""><div class = content><div class = numbers>P</div></div></button><button id = button_9 class = ""square num-button"" onclick = ""recordClick(this)""><div class = content><div class = numbers>Q</div></div></button><button id = button_10 class = ""square num-button"" onclick = ""recordClick(this)""><div class = content><div class = numbers>R</div></div></button><button id = button_11 class = ""square num-button"" onclick = ""recordClick(this)""><div class = content><div class = numbers>S</div></div></button><button id = button_12 class = ""square num-button"" onclick = ""recordClick(this)""><div class = content><div class = numbers>Y</div></div></button><button class = clear_button id = ""ClearButton"" onclick = ""clearResponse()"">BACKSPACE</button><button class = blank_button id = ""BlankButton"" onclick = ""blankResponse()"">SKIP</button><p style=""font-size: 2.4rem""><u><b>Current Answer:</b></u></p><br><br><div id=echoed_txt style=""font-size: 5rem; color:blue;""><b></b></div></div>",enter,ospan,retrieval,wH9Gkmpc1OQaVAoPZbj20Dqiunt2,html-keyboard-response,61,684294,0.0-46.0-0.0-1.0-3.0,NA,NA,NA,2.0,"[""H"",""Y""]","[""H"",""Y""]",1.0,2.0,"['<font color=""green"">H</font>', '<font color=""green"">Y</font>']",,,,,,5f32cfa671047605fbb4cee1,12:50:27,03/04/2024
1819.1000000000931,"['<p style=""font-size:44px"">Letters:<br><br><br><font color=""green"">H</font> <font color=""green"">Y</font></p><br><br>']",0,ospan,practice_feedback,wH9Gkmpc1OQaVAoPZbj20Dqiunt2,html-button-response,62,686626,0.0-46.0-0.0-1.0-4.0,,,,,,,,,,,,,,,5f32cfa671047605fbb4cee1,12:50:27,03/04/2024
,"<p style=""font-size:75px;"">...</p>",,ospan,iti,wH9Gkmpc1OQaVAoPZbj20Dqiunt2,html-keyboard-response,63,687633,0.0-46.0-0.0-2.0-0.0,,,,,,,,,,,,,,,5f32cfa671047605fbb4cee1,12:50:27,03/04/2024
,"<div style=""font-size: 10rem; color: #0000FF"">N</div>",,ospan,letter,wH9Gkmpc1OQaVAoPZbj20Dqiunt2,html-keyboard-response,64,688638,0.0-46.0-0.0-2.0-1.0,,,,,,,,,,,,,,,5f32cfa671047605fbb4cee1,12:50:27,03/04/2024
,"<div style=""font-size: 10rem; color: #0000FF"">C</div>",,ospan,letter,wH9Gkmpc1OQaVAoPZbj20Dqiunt2,html-keyboard-response,65,690418,0.0-46.0-0.0-2.0-2.0,,,,,,,,,,,,,,,5f32cfa671047605fbb4cee1,12:50:27,03/04/2024
,"<div style=""font-size: 10rem; color: #0000FF"">K</div>",,ospan,letter,wH9Gkmpc1OQaVAoPZbj20Dqiunt2,html-keyboard-response,66,692183,0.0-46.0-0.0-2.0-3.0,,,,,,,,,,,,,,,5f32cfa671047605fbb4cee1,12:50:27,03/04/2024
2652.4000000003725,"<div class = numbox><p style=""font-size: 2.4rem"">Please recall the letters you saw to the best of your ability. If you do not remember a particular letter, use the SKIP button.<br><b>(When you are ready to lock in your answer, press ENTER)</b></p><button id = button_1 class = ""square num-button"" onclick = ""recordClick(this)""><div class = content><div class = numbers>C</div></div></button><button id = button_2 class = ""square num-button"" onclick = ""recordClick(this)""><div class = content><div class = numbers>G</div></div></button><button id = button_3 class = ""square num-button"" onclick = ""recordClick(this)""><div class = content><div class = numbers>H</div></div></button><button id = button_4 class = ""square num-button"" onclick = ""recordClick(this)""><div class = content><div class = numbers>J</div></div></button><button id = button_5 class = ""square num-button"" onclick = ""recordClick(this)""><div class = content><div class = numbers>K</div></div></button><button id = button_6 class = ""square num-button"" onclick = ""recordClick(this)""><div class = content><div class = numbers>L</div></div></button><button id = button_7 class = ""square num-button"" onclick = ""recordClick(this)""><div class = content><div class = numbers>N</div></div></button><button id = button_8 class = ""square num-button"" onclick = ""recordClick(this)""><div class = content><div class = numbers>P</div></div></button><button id = button_9 class = ""square num-button"" onclick = ""recordClick(this)""><div class = content><div class = numbers>Q</div></div></button><button id = button_10 class = ""square num-button"" onclick = ""recordClick(this)""><div class = content><div class = numbers>R</div></div></button><button id = button_11 class = ""square num-button"" onclick = ""recordClick(this)""><div class = content><div class = numbers>S</div></div></button><button id = button_12 class = ""square num-button"" onclick = ""recordClick(this)""><div class = content><div class = numbers>Y</div></div></button><button class = clear_button id = ""ClearButton"" onclick = ""clearResponse()"">BACKSPACE</button><button class = blank_button id = ""BlankButton"" onclick = ""blankResponse()"">SKIP</button><p style=""font-size: 2.4rem""><u><b>Current Answer:</b></u></p><br><br><div id=echoed_txt style=""font-size: 5rem; color:blue;""><b></b></div></div>",enter,ospan,retrieval,wH9Gkmpc1OQaVAoPZbj20Dqiunt2,html-keyboard-response,67,695591,0.0-46.0-0.0-2.0-4.0,NA,NA,NA,3.0,"[""N"",""C"",""K""]","[""N"",""C"",""K""]",1.0,3.0,"['<font color=""green"">N</font>', '<font color=""green"">C</font>', '<font color=""green"">K</font>']",,,,,,5f32cfa671047605fbb4cee1,12:50:27,03/04/2024
1183.1000000000931,"['<p style=""font-size:44px"">Letters:<br><br><br><font color=""green"">N</font> <font color=""green"">C</font> <font color=""green"">K</font></p><br><br>']",0,ospan,practice_feedback,wH9Gkmpc1OQaVAoPZbj20Dqiunt2,html-button-response,68,697281,0.0-46.0-0.0-2.0-5.0,,,,,,,,,,,,,,,5f32cfa671047605fbb4cee1,12:50:27,03/04/2024
9280.899999999907,"<div class = 'left_align' style='font-size: 3.25rem; line-height: 1.3;'>Now you will practice doing the <b>symmetry judgment part</b> of the experiment.<br><br>A black and white grid picture will appear on the screen and you have to judge if it is <br>symmetrical or asymetrical.<br><br>A picture is 'mirror' symmetrical if its left half is identical to the right half when flipped.<br>Here are examples of a symmetrical and an asymetrical picture:<br><br><center><img src='Stimuli/img/symm_instructions_extra.png' style='height:420px; width:900'></img></center><br>To judge symmetry, imagine you were to fold each picture down the middle, like a book –<br>would the left half match the right half when folded onto each other?<br><br></div><br>",0,ospan,instruct,wH9Gkmpc1OQaVAoPZbj20Dqiunt2,html-button-response,69,706564,0.0-46.0-1.0-0.0-0.0,,,,,,,,,,,,,,,5f32cfa671047605fbb4cee1,12:50:27,03/04/2024
4934.600000000093,"<div class = 'left_align' style='font-size: 3.25rem; line-height: 1.3;'>When you have viewed the picture and determined whether it is symmetrical or not,<br>you can <b>click the Yes or No button</b> below to answer.<br><br>If you take longer than 15 seconds, it will continue automatically<br>and record the answer as an error.</div><br>",0,ospan,instruct,wH9Gkmpc1OQaVAoPZbj20Dqiunt2,html-button-response,70,711764,0.0-46.0-1.0-0.0-1.0,,,,,,,,,,,,,,,5f32cfa671047605fbb4cee1,12:50:27,03/04/2024
4280.0,"<div class = 'left_align' style='font-size: 3.25rem; line-height: 1.3;'>It is <b>very</b> important that you make the symmetry judgment correctly.<br><br>It is also important that you try and judge the picture as quickly as you can.<br><br>When you are ready, click on the button below to try some practice problems.</div><br><br><br><br>",0,ospan,instruct,wH9Gkmpc1OQaVAoPZbj20Dqiunt2,html-button-response,71,716301,0.0-46.0-1.0-0.0-2.0,,,,,,,,,,,,,,,5f32cfa671047605fbb4cee1,12:50:27,03/04/2024
2235.0,,,ospan,symmetry,wH9Gkmpc1OQaVAoPZbj20Dqiunt2,symmetry-judgement-task,72,719376,0.0-46.0-1.0-1.0-0.0,,,,,,,,,,1.0,1.0,,,,5f32cfa671047605fbb4cee1,12:50:27,03/04/2024
,"<p style=""color:green; font-size: 35px"">Correct</p>",,ospan,feedback,wH9Gkmpc1OQaVAoPZbj20Dqiunt2,html-keyboard-response,73,720132,0.0-46.0-1.0-1.0-1.0,,,,,,,,,,,,,,,5f32cfa671047605fbb4cee1,12:50:27,03/04/2024
1075.0,,,ospan,symmetry,wH9Gkmpc1OQaVAoPZbj20Dqiunt2,symmetry-judgement-task,74,723892,0.0-46.0-1.0-1.0-2.0,,,,,,,,,,1.0,1.0,,,,5f32cfa671047605fbb4cee1,12:50:27,03/04/2024
,"<p style=""color:green; font-size: 35px"">Correct</p>",,ospan,feedback,wH9Gkmpc1OQaVAoPZbj20Dqiunt2,html-keyboard-response,75,724656,0.0-46.0-1.0-1.0-3.0,,,,,,,,,,,,,,,5f32cfa671047605fbb4cee1,12:50:27,03/04/2024
1760.0,,,ospan,symmetry,wH9Gkmpc1OQaVAoPZbj20Dqiunt2,symmetry-judgement-task,76,729121,0.0-46.0-1.0-1.0-4.0,,,,,,,,,,1.0,1.0,,,,5f32cfa671047605fbb4cee1,12:50:27,03/04/2024
,"<p style=""color:green; font-size: 35px"">Correct</p>",,ospan,feedback,wH9Gkmpc1OQaVAoPZbj20Dqiunt2,html-keyboard-response,77,729886,0.0-46.0-1.0-1.0-5.0,,,,,,,,,,,,,,,5f32cfa671047605fbb4cee1,12:50:27,03/04/2024
2825.5,"<p style=""font-size: 3rem;"">You responded correctly on 3 of 3 symmetry judgments. Good job!</p><br><br>",0,ospan,practice,wH9Gkmpc1OQaVAoPZbj20Dqiunt2,html-button-response,78,734726,0.0-46.0-1.0-2.0,,,,,,,,,,,,,,,5f32cfa671047605fbb4cee1,12:50:27,03/04/2024
7070.5999999996275,"<div class = 'left_align' style='font-size: 3.25rem; line-height: 1.3;'>Now you will practice doing both parts of the experiment at the same time.<br><br>In the next practice set, you will be given one grid picture to judge.<br>Then letter will appear on the screen. Try to remember the letter.<br><br>It is <b>very important</b> to make the symmetry judgment as quickly and accurately as possible.<br><br>Just as before, once you have make the symmetry judgment, you can click Yes or No.<br><b>Note that you will no longer see Correct or Incorrect feedback.</div><br><br><br><br>",0,ospan,instruct,wH9Gkmpc1OQaVAoPZbj20Dqiunt2,html-button-response,79,742051,0.0-46.0-2.0-0.0-0.0,,,,,,,,,,,,,,,5f32cfa671047605fbb4cee1,12:50:27,03/04/2024
5185.199999999721,"<div class = 'left_align' style='font-size: 3.25rem; line-height: 1.3;'>After the letter goes away, another grid picture will appear, and then<br>another letter.<br><br>At the end of each set of letters and grids, you will recall the letters to the best<br>of your ability. Remember, try your best to get the letters in the correct order.<br><br>It is important to <b>quickly</b> and <b>accurately</b> make the symmetry judgments.</div><br><br><br><br>",0,ospan,instruct,wH9Gkmpc1OQaVAoPZbj20Dqiunt2,html-button-response,80,747496,0.0-46.0-2.0-0.0-1.0,,,,,,,,,,,,,,,5f32cfa671047605fbb4cee1,12:50:27,03/04/2024
6329.399999999907,"<div class = 'left_align' style='font-size: 3.25rem; line-height: 1.3;'>On the feedback screen, if you are not doing well at the symmetry judgments,<br>you will also see a warning in the middle. This indicates your percent <br>correct for the grid pictures for the entire experiment.<br><br>It is <b>very</b> important for you to keep accuracy at least at 85%: <u>We can only use<br>data where the participant was at least 85% accurate on the judgments.</u> Therefore,<br> please try your best to perform well on the symmetry judgments, <b>at the same time</b><br>doing your best to recall as many letters as possible.<br><br>Click the button to try some practice problems.</div><br><br><br><br>",0,ospan,instruct,wH9Gkmpc1OQaVAoPZbj20Dqiunt2,html-button-response,81,754080,0.0-46.0-2.0-0.0-2.0,,,,,,,,,,,,,,,5f32cfa671047605fbb4cee1,12:50:27,03/04/2024
,"<p style=""font-size:75px;"">...</p>",,ospan,iti,wH9Gkmpc1OQaVAoPZbj20Dqiunt2,html-keyboard-response,82,755350,0.0-46.0-2.0-1.0-0.0,,,,,,,,,,,,,,,5f32cfa671047605fbb4cee1,12:50:27,03/04/2024
1746.0,,,ospan,symmetry,wH9Gkmpc1OQaVAoPZbj20Dqiunt2,symmetry-judgement-task,83,758289,0.0-46.0-2.0-1.0-1.0-0.0,,,,,,,,,,1.0,1.0,,,,5f32cfa671047605fbb4cee1,12:50:27,03/04/2024
,"<div style=""font-size: 10rem; color: #0000FF"">Y</div>",,ospan,letter,wH9Gkmpc1OQaVAoPZbj20Dqiunt2,html-keyboard-response,84,759306,0.0-46.0-2.0-1.0-1.0-1.0,,,,,,,,,,,,,,,5f32cfa671047605fbb4cee1,12:50:27,03/04/2024
1771.0,,,ospan,symmetry,wH9Gkmpc1OQaVAoPZbj20Dqiunt2,symmetry-judgement-task,85,763030,0.0-46.0-2.0-1.0-1.0-2.0,,,,,,,,,,1.0,1.0,,,,5f32cfa671047605fbb4cee1,12:50:27,03/04/2024
,"<div style=""font-size: 10rem; color: #0000FF"">P</div>",,ospan,letter,wH9Gkmpc1OQaVAoPZbj20Dqiunt2,html-keyboard-response,86,764039,0.0-46.0-2.0-1.0-1.0-3.0,,,,,,,,,,,,,,,5f32cfa671047605fbb4cee1,12:50:27,03/04/2024
1239.0,,,ospan,symmetry,wH9Gkmpc1OQaVAoPZbj20Dqiunt2,symmetry-judgement-task,87,767238,0.0-46.0-2.0-1.0-1.0-4.0,,,,,,,,,,1.0,1.0,,,,5f32cfa671047605fbb4cee1,12:50:27,03/04/2024
,"<div style=""font-size: 10rem; color: #0000FF"">J</div>",,ospan,letter,wH9Gkmpc1OQaVAoPZbj20Dqiunt2,html-keyboard-response,88,768247,0.0-46.0-2.0-1.0-1.0-5.0,,,,,,,,,,,,,,,5f32cfa671047605fbb4cee1,12:50:27,03/04/2024
3165.899999999907,"<div class = numbox><p style=""font-size: 2.4rem"">Please recall the letters you saw to the best of your ability. If you do not remember a particular letter, use the SKIP button.<br><b>(When you are ready to lock in your answer, press ENTER)</b></p><button id = button_1 class = ""square num-button"" onclick = ""recordClick(this)""><div class = content><div class = numbers>C</div></div></button><button id = button_2 class = ""square num-button"" onclick = ""recordClick(this)""><div class = content><div class = numbers>G</div></div></button><button id = button_3 class = ""square num-button"" onclick = ""recordClick(this)""><div class = content><div class = numbers>H</div></div></button><button id = button_4 class = ""square num-button"" onclick = ""recordClick(this)""><div class = content><div class = numbers>J</div></div></button><button id = button_5 class = ""square num-button"" onclick = ""recordClick(this)""><div class = content><div class = numbers>K</div></div></button><button id = button_6 class = ""square num-button"" onclick = ""recordClick(this)""><div class = content><div class = numbers>L</div></div></button><button id = button_7 class = ""square num-button"" onclick = ""recordClick(this)""><div class = content><div class = numbers>N</div></div></button><button id = button_8 class = ""square num-button"" onclick = ""recordClick(this)""><div class = content><div class = numbers>P</div></div></button><button id = button_9 class = ""square num-button"" onclick = ""recordClick(this)""><div class = content><div class = numbers>Q</div></div></button><button id = button_10 class = ""square num-button"" onclick = ""recordClick(this)""><div class = content><div class = numbers>R</div></div></button><button id = button_11 class = ""square num-button"" onclick = ""recordClick(this)""><div class = content><div class = numbers>S</div></div></button><button id = button_12 class = ""square num-button"" onclick = ""recordClick(this)""><div class = content><div class = numbers>Y</div></div></button><button class = clear_button id = ""ClearButton"" onclick = ""clearResponse()"">BACKSPACE</button><button class = blank_button id = ""BlankButton"" onclick = ""blankResponse()"">SKIP</button><p style=""font-size: 2.4rem""><u><b>Current Answer:</b></u></p><br><br><div id=echoed_txt style=""font-size: 5rem; color:blue;""><b></b></div></div>",enter,ospan,retrieval,wH9Gkmpc1OQaVAoPZbj20Dqiunt2,html-keyboard-response,89,772166,0.0-46.0-2.0-1.0-2.0-0.0,NA,NA,NA,3.0,"[""Y"",""P"",""J""]","[""Y"",""P"",""J""]",1.0,3.0,"['<font color=""green"">Y</font>', '<font color=""green"">P</font>', '<font color=""green"">J</font>']",,,,,,5f32cfa671047605fbb4cee1,12:50:27,03/04/2024
1461.0,"['<p style=""font-size:44px"">Letters:<br><br><br><font color=""green"">Y</font> <font color=""green"">P</font> <font color=""green"">J</font></p><br><br><p style=""font-size:30px"">Symmetry:<br><br><font color=""green"">100%</font></p><br><br>']",0,ospan,practice_feedback,wH9Gkmpc1OQaVAoPZbj20Dqiunt2,html-button-response,90,774142,0.0-46.0-2.0-1.0-2.0-1.0,,,,,,,,,,,,,,,5f32cfa671047605fbb4cee1,12:50:27,03/04/2024
,"<p style=""font-size:75px;"">...</p>",,ospan,iti,wH9Gkmpc1OQaVAoPZbj20Dqiunt2,html-keyboard-response,91,775158,0.0-46.0-2.0-2.0-0.0,,,,,,,,,,,,,,,5f32cfa671047605fbb4cee1,12:50:27,03/04/2024
1760.0,,,ospan,symmetry,wH9Gkmpc1OQaVAoPZbj20Dqiunt2,symmetry-judgement-task,92,777996,0.0-46.0-2.0-2.0-1.0-0.0,,,,,,,,,,1.0,1.0,,,,5f32cfa671047605fbb4cee1,12:50:27,03/04/2024
,"<div style=""font-size: 10rem; color: #0000FF"">K</div>",,ospan,letter,wH9Gkmpc1OQaVAoPZbj20Dqiunt2,html-keyboard-response,93,779011,0.0-46.0-2.0-2.0-1.0-1.0,,,,,,,,,,,,,,,5f32cfa671047605fbb4cee1,12:50:27,03/04/2024
1967.0,,,ospan,symmetry,wH9Gkmpc1OQaVAoPZbj20Dqiunt2,symmetry-judgement-task,94,782958,0.0-46.0-2.0-2.0-1.0-2.0,,,,,,,,,,1.0,1.0,,,,5f32cfa671047605fbb4cee1,12:50:27,03/04/2024
,"<div style=""font-size: 10rem; color: #0000FF"">R</div>",,ospan,letter,wH9Gkmpc1OQaVAoPZbj20Dqiunt2,html-keyboard-response,95,783967,0.0-46.0-2.0-2.0-1.0-3.0,,,,,,,,,,,,,,,5f32cfa671047605fbb4cee1,12:50:27,03/04/2024
1292.0,,,ospan,symmetry,wH9Gkmpc1OQaVAoPZbj20Dqiunt2,symmetry-judgement-task,96,787209,0.0-46.0-2.0-2.0-1.0-4.0,,,,,,,,,,1.0,1.0,,,,5f32cfa671047605fbb4cee1,12:50:27,03/04/2024
,"<div style=""font-size: 10rem; color: #0000FF"">C</div>",,ospan,letter,wH9Gkmpc1OQaVAoPZbj20Dqiunt2,html-keyboard-response,97,788211,0.0-46.0-2.0-2.0-1.0-5.0,,,,,,,,,,,,,,,5f32cfa671047605fbb4cee1,12:50:27,03/04/2024
3364.5,"<div class = numbox><p style=""font-size: 2.4rem"">Please recall the letters you saw to the best of your ability. If you do not remember a particular letter, use the SKIP button.<br><b>(When you are ready to lock in your answer, press ENTER)</b></p><button id = button_1 class = ""square num-button"" onclick = ""recordClick(this)""><div class = content><div class = numbers>C</div></div></button><button id = button_2 class = ""square num-button"" onclick = ""recordClick(this)""><div class = content><div class = numbers>G</div></div></button><button id = button_3 class = ""square num-button"" onclick = ""recordClick(this)""><div class = content><div class = numbers>H</div></div></button><button id = button_4 class = ""square num-button"" onclick = ""recordClick(this)""><div class = content><div class = numbers>J</div></div></button><button id = button_5 class = ""square num-button"" onclick = ""recordClick(this)""><div class = content><div class = numbers>K</div></div></button><button id = button_6 class = ""square num-button"" onclick = ""recordClick(this)""><div class = content><div class = numbers>L</div></div></button><button id = button_7 class = ""square num-button"" onclick = ""recordClick(this)""><div class = content><div class = numbers>N</div></div></button><button id = button_8 class = ""square num-button"" onclick = ""recordClick(this)""><div class = content><div class = numbers>P</div></div></button><button id = button_9 class = ""square num-button"" onclick = ""recordClick(this)""><div class = content><div class = numbers>Q</div></div></button><button id = button_10 class = ""square num-button"" onclick = ""recordClick(this)""><div class = content><div class = numbers>R</div></div></button><button id = button_11 class = ""square num-button"" onclick = ""recordClick(this)""><div class = content><div class = numbers>S</div></div></button><button id = button_12 class = ""square num-button"" onclick = ""recordClick(this)""><div class = content><div class = numbers>Y</div></div></button><button class = clear_button id = ""ClearButton"" onclick = ""clearResponse()"">BACKSPACE</button><button class = blank_button id = ""BlankButton"" onclick = ""blankResponse()"">SKIP</button><p style=""font-size: 2.4rem""><u><b>Current Answer:</b></u></p><br><br><div id=echoed_txt style=""font-size: 5rem; color:blue;""><b></b></div></div>",enter,ospan,retrieval,wH9Gkmpc1OQaVAoPZbj20Dqiunt2,html-keyboard-response,98,792336,0.0-46.0-2.0-2.0-2.0-0.0,NA,NA,NA,3.0,"[""K"",""R"",""C""]","[""K"",""R"",""C""]",1.0,3.0,"['<font color=""green"">K</font>', '<font color=""green"">R</font>', '<font color=""green"">C</font>']",,,,,,5f32cfa671047605fbb4cee1,12:50:27,03/04/2024
743.6000000000931,"['<p style=""font-size:44px"">Letters:<br><br><br><font color=""green"">K</font> <font color=""green"">R</font> <font color=""green"">C</font></p><br><br><p style=""font-size:30px"">Symmetry:<br><br><font color=""green"">100%</font></p><br><br>']",0,ospan,practice_feedback,wH9Gkmpc1OQaVAoPZbj20Dqiunt2,html-button-response,99,793591,0.0-46.0-2.0-2.0-2.0-1.0,,,,,,,,,,,,,,,5f32cfa671047605fbb4cee1,12:50:27,03/04/2024
7327.0,"<div class = 'left_align' style='font-size: 3rem; line-height: 1.3;'><b>Great work! That is the end of practice.</b><br><br>The real trials will look just like the practice trials you just completed.<br><br><u>Here, you will not see feedback</u>. First, you will see an grid picture to judge,<br>then a letter to remember. When the recall screen appears, report the letters in the<br>order presented. If you forget a letter, remember to use the <b>blank</b> button to move to the<br>next letter. Some of the sets will have more symmetry grids and letters than others.<br><br>It is important that you do your best on both the symmetry judgments and the letter recall<br>parts of the experiment. For for the symmetry judgments, try to work as <b>quickly</b> and <br>as <b>accurately</b> as possible. Remember to keep your symmetry accuracy at 85% or above.<br><br><b>For the letters, do NOT use any external aid (e.g., writing on paper, electronic device).</b><br><br>It is <u>very important</u> to our experiment to have a <b>true</b> view of your real performance.<br><br>Do not worry if you miss some when it gets hard! This task is meant to be very challenging!<br><br>Click the button to begin.</div><br><br><br><br>",0,ospan,starting_real_here,wH9Gkmpc1OQaVAoPZbj20Dqiunt2,html-button-response,100,800920,0.0-46.0-2.0-3.0,,,,,,,,,,,,,,,5f32cfa671047605fbb4cee1,12:50:27,03/04/2024
,"<p style=""font-size:75px;"">...</p>",,ospan,iti,wH9Gkmpc1OQaVAoPZbj20Dqiunt2,html-keyboard-response,101,802175,0.0-46.0-3.0-0.0-0.0,,,,,,,,,,,,,,,5f32cfa671047605fbb4cee1,12:50:27,03/04/2024
1389.0,,,ospan,symmetry,wH9Gkmpc1OQaVAoPZbj20Dqiunt2,symmetry-judgement-task,102,804758,0.0-46.0-3.0-0.0-1.0-0.0,,,,,,,,,,1.0,1.0,,,,5f32cfa671047605fbb4cee1,12:50:27,03/04/2024
,"<div style=""font-size: 10rem; color: #0000FF"">C</div>",,ospan,letter,wH9Gkmpc1OQaVAoPZbj20Dqiunt2,html-keyboard-response,103,805765,0.0-46.0-3.0-0.0-1.0-1.0,,,,,,,,,,,,,,,5f32cfa671047605fbb4cee1,12:50:27,03/04/2024
1210.0,,,ospan,symmetry,wH9Gkmpc1OQaVAoPZbj20Dqiunt2,symmetry-judgement-task,104,808928,0.0-46.0-3.0-0.0-1.0-2.0,,,,,,,,,,1.0,1.0,,,,5f32cfa671047605fbb4cee1,12:50:27,03/04/2024
,"<div style=""font-size: 10rem; color: #0000FF"">N</div>",,ospan,letter,wH9Gkmpc1OQaVAoPZbj20Dqiunt2,html-keyboard-response,105,809945,0.0-46.0-3.0-0.0-1.0-3.0,,,,,,,,,,,,,,,5f32cfa671047605fbb4cee1,12:50:27,03/04/2024
1200.0,,,ospan,symmetry,wH9Gkmpc1OQaVAoPZbj20Dqiunt2,symmetry-judgement-task,106,813116,0.0-46.0-3.0-0.0-1.0-4.0,,,,,,,,,,1.0,1.0,,,,5f32cfa671047605fbb4cee1,12:50:27,03/04/2024
,"<div style=""font-size: 10rem; color: #0000FF"">Y</div>",,ospan,letter,wH9Gkmpc1OQaVAoPZbj20Dqiunt2,html-keyboard-response,107,814119,0.0-46.0-3.0-0.0-1.0-5.0,,,,,,,,,,,,,,,5f32cfa671047605fbb4cee1,12:50:27,03/04/2024
3634.5,"<div class = numbox><p style=""font-size: 2.4rem"">Please recall the letters you saw to the best of your ability. If you do not remember a particular letter, use the SKIP button.<br><b>(When you are ready to lock in your answer, press ENTER)</b></p><button id = button_1 class = ""square num-button"" onclick = ""recordClick(this)""><div class = content><div class = numbers>C</div></div></button><button id = button_2 class = ""square num-button"" onclick = ""recordClick(this)""><div class = content><div class = numbers>G</div></div></button><button id = button_3 class = ""square num-button"" onclick = ""recordClick(this)""><div class = content><div class = numbers>H</div></div></button><button id = button_4 class = ""square num-button"" onclick = ""recordClick(this)""><div class = content><div class = numbers>J</div></div></button><button id = button_5 class = ""square num-button"" onclick = ""recordClick(this)""><div class = content><div class = numbers>K</div></div></button><button id = button_6 class = ""square num-button"" onclick = ""recordClick(this)""><div class = content><div class = numbers>L</div></div></button><button id = button_7 class = ""square num-button"" onclick = ""recordClick(this)""><div class = content><div class = numbers>N</div></div></button><button id = button_8 class = ""square num-button"" onclick = ""recordClick(this)""><div class = content><div class = numbers>P</div></div></button><button id = button_9 class = ""square num-button"" onclick = ""recordClick(this)""><div class = content><div class = numbers>Q</div></div></button><button id = button_10 class = ""square num-button"" onclick = ""recordClick(this)""><div class = content><div class = numbers>R</div></div></button><button id = button_11 class = ""square num-button"" onclick = ""recordClick(this)""><div class = content><div class = numbers>S</div></div></button><button id = button_12 class = ""square num-button"" onclick = ""recordClick(this)""><div class = content><div class = numbers>Y</div></div></button><button class = clear_button id = ""ClearButton"" onclick = ""clearResponse()"">BACKSPACE</button><button class = blank_button id = ""BlankButton"" onclick = ""blankResponse()"">SKIP</button><p style=""font-size: 2.4rem""><u><b>Current Answer:</b></u></p><br><br><div id=echoed_txt style=""font-size: 5rem; color:blue;""><b></b></div></div>",enter,ospan,retrieval,wH9Gkmpc1OQaVAoPZbj20Dqiunt2,html-keyboard-response,108,818514,0.0-46.0-3.0-0.0-2.0,3,3,3,3.0,"[""C"",""N"",""Y""]","[""C"",""N"",""Y""]",1.0,3.0,,,,,,,5f32cfa671047605fbb4cee1,12:50:27,03/04/2024
856.8999999999069,[''],0,ospan,feedback,wH9Gkmpc1OQaVAoPZbj20Dqiunt2,html-button-response,109,819884,0.0-46.0-3.0-0.0-3.0,,,,,,,,,,,,100.0,0.0,,5f32cfa671047605fbb4cee1,12:50:27,03/04/2024
,"<p style=""font-size:75px;"">...</p>",,ospan,iti,wH9Gkmpc1OQaVAoPZbj20Dqiunt2,html-keyboard-response,110,820896,0.0-46.0-4.0-0.0-0.0,,,,,,,,,,,,,,,5f32cfa671047605fbb4cee1,12:50:27,03/04/2024
1003.0,,,ospan,symmetry,wH9Gkmpc1OQaVAoPZbj20Dqiunt2,symmetry-judgement-task,111,823119,0.0-46.0-4.0-0.0-1.0-0.0,,,,,,,,,,1.0,1.0,,,,5f32cfa671047605fbb4cee1,12:50:27,03/04/2024
,"<div style=""font-size: 10rem; color: #0000FF"">Q</div>",,ospan,letter,wH9Gkmpc1OQaVAoPZbj20Dqiunt2,html-keyboard-response,112,824127,0.0-46.0-4.0-0.0-1.0-1.0,,,,,,,,,,,,,,,5f32cfa671047605fbb4cee1,12:50:27,03/04/2024
1251.0,,,ospan,symmetry,wH9Gkmpc1OQaVAoPZbj20Dqiunt2,symmetry-judgement-task,113,827322,0.0-46.0-4.0-0.0-1.0-2.0,,,,,,,,,,1.0,1.0,,,,5f32cfa671047605fbb4cee1,12:50:27,03/04/2024
,"<div style=""font-size: 10rem; color: #0000FF"">L</div>",,ospan,letter,wH9Gkmpc1OQaVAoPZbj20Dqiunt2,html-keyboard-response,114,828339,0.0-46.0-4.0-0.0-1.0-3.0,,,,,,,,,,,,,,,5f32cfa671047605fbb4cee1,12:50:27,03/04/2024
925.0,,,ospan,symmetry,wH9Gkmpc1OQaVAoPZbj20Dqiunt2,symmetry-judgement-task,115,831213,0.0-46.0-4.0-0.0-1.0-4.0,,,,,,,,,,1.0,1.0,,,,5f32cfa671047605fbb4cee1,12:50:27,03/04/2024
,"<div style=""font-size: 10rem; color: #0000FF"">R</div>",,ospan,letter,wH9Gkmpc1OQaVAoPZbj20Dqiunt2,html-keyboard-response,116,832229,0.0-46.0-4.0-0.0-1.0-5.0,,,,,,,,,,,,,,,5f32cfa671047605fbb4cee1,12:50:27,03/04/2024
1276.0,,,ospan,symmetry,wH9Gkmpc1OQaVAoPZbj20Dqiunt2,symmetry-judgement-task,117,835480,0.0-46.0-4.0-0.0-1.0-6.0,,,,,,,,,,1.0,1.0,,,,5f32cfa671047605fbb4cee1,12:50:27,03/04/2024
,"<div style=""font-size: 10rem; color: #0000FF"">K</div>",,ospan,letter,wH9Gkmpc1OQaVAoPZbj20Dqiunt2,html-keyboard-response,118,836496,0.0-46.0-4.0-0.0-1.0-7.0,,,,,,,,,,,,,,,5f32cfa671047605fbb4cee1,12:50:27,03/04/2024
4402.5,"<div class = numbox><p style=""font-size: 2.4rem"">Please recall the letters you saw to the best of your ability. If you do not remember a particular letter, use the SKIP button.<br><b>(When you are ready to lock in your answer, press ENTER)</b></p><button id = button_1 class = ""square num-button"" onclick = ""recordClick(this)""><div class = content><div class = numbers>C</div></div></button><button id = button_2 class = ""square num-button"" onclick = ""recordClick(this)""><div class = content><div class = numbers>G</div></div></button><button id = button_3 class = ""square num-button"" onclick = ""recordClick(this)""><div class = content><div class = numbers>H</div></div></button><button id = button_4 class = ""square num-button"" onclick = ""recordClick(this)""><div class = content><div class = numbers>J</div></div></button><button id = button_5 class = ""square num-button"" onclick = ""recordClick(this)""><div class = content><div class = numbers>K</div></div></button><button id = button_6 class = ""square num-button"" onclick = ""recordClick(this)""><div class = content><div class = numbers>L</div></div></button><button id = button_7 class = ""square num-button"" onclick = ""recordClick(this)""><div class = content><div class = numbers>N</div></div></button><button id = button_8 class = ""square num-button"" onclick = ""recordClick(this)""><div class = content><div class = numbers>P</div></div></button><button id = button_9 class = ""square num-button"" onclick = ""recordClick(this)""><div class = content><div class = numbers>Q</div></div></button><button id = button_10 class = ""square num-button"" onclick = ""recordClick(this)""><div class = content><div class = numbers>R</div></div></button><button id = button_11 class = ""square num-button"" onclick = ""recordClick(this)""><div class = content><div class = numbers>S</div></div></button><button id = button_12 class = ""square num-button"" onclick = ""recordClick(this)""><div class = content><div class = numbers>Y</div></div></button><button class = clear_button id = ""ClearButton"" onclick = ""clearResponse()"">BACKSPACE</button><button class = blank_button id = ""BlankButton"" onclick = ""blankResponse()"">SKIP</button><p style=""font-size: 2.4rem""><u><b>Current Answer:</b></u></p><br><br><div id=echoed_txt style=""font-size: 5rem; color:blue;""><b></b></div></div>",enter,ospan,retrieval,wH9Gkmpc1OQaVAoPZbj20Dqiunt2,html-keyboard-response,119,841660,0.0-46.0-4.0-0.0-2.0,7,7,7,4.0,"[""Q"",""L"",""R"",""K""]","[""Q"",""L"",""R"",""K""]",1.0,4.0,,,,,,,5f32cfa671047605fbb4cee1,12:50:27,03/04/2024
1050.2999999998137,[''],0,ospan,feedback,wH9Gkmpc1OQaVAoPZbj20Dqiunt2,html-button-response,120,843216,0.0-46.0-4.0-0.0-3.0,,,,,,,,,,,,100.0,0.0,,5f32cfa671047605fbb4cee1,12:50:27,03/04/2024
,"<p style=""font-size:75px;"">...</p>",,ospan,iti,wH9Gkmpc1OQaVAoPZbj20Dqiunt2,html-keyboard-response,121,844224,0.0-46.0-4.0-1.0-0.0,,,,,,,,,,,,,,,5f32cfa671047605fbb4cee1,12:50:27,03/04/2024
907.0,,,ospan,symmetry,wH9Gkmpc1OQaVAoPZbj20Dqiunt2,symmetry-judgement-task,122,846321,0.0-46.0-4.0-1.0-1.0-0.0,,,,,,,,,,1.0,1.0,,,,5f32cfa671047605fbb4cee1,12:50:27,03/04/2024
,"<div style=""font-size: 10rem; color: #0000FF"">R</div>",,ospan,letter,wH9Gkmpc1OQaVAoPZbj20Dqiunt2,html-keyboard-response,123,847334,0.0-46.0-4.0-1.0-1.0-1.0,,,,,,,,,,,,,,,5f32cfa671047605fbb4cee1,12:50:27,03/04/2024
1015.0,,,ospan,symmetry,wH9Gkmpc1OQaVAoPZbj20Dqiunt2,symmetry-judgement-task,124,850338,0.0-46.0-4.0-1.0-1.0-2.0,,,,,,,,,,1.0,1.0,,,,5f32cfa671047605fbb4cee1,12:50:27,03/04/2024
,"<div style=""font-size: 10rem; color: #0000FF"">S</div>",,ospan,letter,wH9Gkmpc1OQaVAoPZbj20Dqiunt2,html-keyboard-response,125,851351,0.0-46.0-4.0-1.0-1.0-3.0,,,,,,,,,,,,,,,5f32cfa671047605fbb4cee1,12:50:27,03/04/2024
913.0,,,ospan,symmetry,wH9Gkmpc1OQaVAoPZbj20Dqiunt2,symmetry-judgement-task,126,854229,0.0-46.0-4.0-1.0-1.0-4.0,,,,,,,,,,1.0,1.0,,,,5f32cfa671047605fbb4cee1,12:50:27,03/04/2024
,"<div style=""font-size: 10rem; color: #0000FF"">J</div>",,ospan,letter,wH9Gkmpc1OQaVAoPZbj20Dqiunt2,html-keyboard-response,127,855245,0.0-46.0-4.0-1.0-1.0-5.0,,,,,,,,,,,,,,,5f32cfa671047605fbb4cee1,12:50:27,03/04/2024
1031.0,,,ospan,symmetry,wH9Gkmpc1OQaVAoPZbj20Dqiunt2,symmetry-judgement-task,128,858244,0.0-46.0-4.0-1.0-1.0-6.0,,,,,,,,,,1.0,1.0,,,,5f32cfa671047605fbb4cee1,12:50:27,03/04/2024
,"<div style=""font-size: 10rem; color: #0000FF"">L</div>",,ospan,letter,wH9Gkmpc1OQaVAoPZbj20Dqiunt2,html-keyboard-response,129,859253,0.0-46.0-4.0-1.0-1.0-7.0,,,,,,,,,,,,,,,5f32cfa671047605fbb4cee1,12:50:27,03/04/2024
1270.0,,,ospan,symmetry,wH9Gkmpc1OQaVAoPZbj20Dqiunt2,symmetry-judgement-task,130,862479,0.0-46.0-4.0-1.0-1.0-8.0,,,,,,,,,,1.0,1.0,,,,5f32cfa671047605fbb4cee1,12:50:27,03/04/2024
,"<div style=""font-size: 10rem; color: #0000FF"">G</div>",,ospan,letter,wH9Gkmpc1OQaVAoPZbj20Dqiunt2,html-keyboard-response,131,863483,0.0-46.0-4.0-1.0-1.0-9.0,,,,,,,,,,,,,,,5f32cfa671047605fbb4cee1,12:50:27,03/04/2024
5417.700000000186,"<div class = numbox><p style=""font-size: 2.4rem"">Please recall the letters you saw to the best of your ability. If you do not remember a particular letter, use the SKIP button.<br><b>(When you are ready to lock in your answer, press ENTER)</b></p><button id = button_1 class = ""square num-button"" onclick = ""recordClick(this)""><div class = content><div class = numbers>C</div></div></button><button id = button_2 class = ""square num-button"" onclick = ""recordClick(this)""><div class = content><div class = numbers>G</div></div></button><button id = button_3 class = ""square num-button"" onclick = ""recordClick(this)""><div class = content><div class = numbers>H</div></div></button><button id = button_4 class = ""square num-button"" onclick = ""recordClick(this)""><div class = content><div class = numbers>J</div></div></button><button id = button_5 class = ""square num-button"" onclick = ""recordClick(this)""><div class = content><div class = numbers>K</div></div></button><button id = button_6 class = ""square num-button"" onclick = ""recordClick(this)""><div class = content><div class = numbers>L</div></div></button><button id = button_7 class = ""square num-button"" onclick = ""recordClick(this)""><div class = content><div class = numbers>N</div></div></button><button id = button_8 class = ""square num-button"" onclick = ""recordClick(this)""><div class = content><div class = numbers>P</div></div></button><button id = button_9 class = ""square num-button"" onclick = ""recordClick(this)""><div class = content><div class = numbers>Q</div></div></button><button id = button_10 class = ""square num-button"" onclick = ""recordClick(this)""><div class = content><div class = numbers>R</div></div></button><button id = button_11 class = ""square num-button"" onclick = ""recordClick(this)""><div class = content><div class = numbers>S</div></div></button><button id = button_12 class = ""square num-button"" onclick = ""recordClick(this)""><div class = content><div class = numbers>Y</div></div></button><button class = clear_button id = ""ClearButton"" onclick = ""clearResponse()"">BACKSPACE</button><button class = blank_button id = ""BlankButton"" onclick = ""blankResponse()"">SKIP</button><p style=""font-size: 2.4rem""><u><b>Current Answer:</b></u></p><br><br><div id=echoed_txt style=""font-size: 5rem; color:blue;""><b></b></div></div>",enter,ospan,retrieval,wH9Gkmpc1OQaVAoPZbj20Dqiunt2,html-keyboard-response,132,869672,0.0-46.0-4.0-1.0-2.0,12,12,12,5.0,"[""R"",""S"",""J"",""L"",""G""]","[""R"",""S"",""J"",""L"",""G""]",1.0,5.0,,,,,,,5f32cfa671047605fbb4cee1,12:50:27,03/04/2024
1003.5999999996275,[''],0,ospan,feedback,wH9Gkmpc1OQaVAoPZbj20Dqiunt2,html-button-response,133,871189,0.0-46.0-4.0-1.0-3.0,,,,,,,,,,,,100.0,0.0,,5f32cfa671047605fbb4cee1,12:50:27,03/04/2024
,"<p style=""font-size:75px;"">...</p>",,ospan,iti,wH9Gkmpc1OQaVAoPZbj20Dqiunt2,html-keyboard-response,134,872195,0.0-46.0-4.0-2.0-0.0,,,,,,,,,,,,,,,5f32cfa671047605fbb4cee1,12:50:27,03/04/2024
1808.0,,,ospan,symmetry,wH9Gkmpc1OQaVAoPZbj20Dqiunt2,symmetry-judgement-task,135,875197,0.0-46.0-4.0-2.0-1.0-0.0,,,,,,,,,,1.0,1.0,,,,5f32cfa671047605fbb4cee1,12:50:27,03/04/2024
,"<div style=""font-size: 10rem; color: #0000FF"">N</div>",,ospan,letter,wH9Gkmpc1OQaVAoPZbj20Dqiunt2,html-keyboard-response,136,876208,0.0-46.0-4.0-2.0-1.0-1.0,,,,,,,,,,,,,,,5f32cfa671047605fbb4cee1,12:50:27,03/04/2024
2621.0,,,ospan,symmetry,wH9Gkmpc1OQaVAoPZbj20Dqiunt2,symmetry-judgement-task,137,880779,0.0-46.0-4.0-2.0-1.0-2.0,,,,,,,,,,1.0,1.0,,,,5f32cfa671047605fbb4cee1,12:50:27,03/04/2024
,"<div style=""font-size: 10rem; color: #0000FF"">G</div>",,ospan,letter,wH9Gkmpc1OQaVAoPZbj20Dqiunt2,html-keyboard-response,138,881795,0.0-46.0-4.0-2.0-1.0-3.0,,,,,,,,,,,,,,,5f32cfa671047605fbb4cee1,12:50:27,03/04/2024
,,,ospan,symmetry,wH9Gkmpc1OQaVAoPZbj20Dqiunt2,symmetry-judgement-task,139,897771,0.0-46.0-4.0-2.0-1.0-4.0,,,,,,,,,,,0.0,,,,5f32cfa671047605fbb4cee1,12:50:27,03/04/2024
,"<div style=""font-size: 10rem; color: #0000FF"">R</div>",,ospan,letter,wH9Gkmpc1OQaVAoPZbj20Dqiunt2,html-keyboard-response,140,898785,0.0-46.0-4.0-2.0-1.0-5.0,,,,,,,,,,,,,,,5f32cfa671047605fbb4cee1,12:50:27,03/04/2024
206813.5,"<div class = numbox><p style=""font-size: 2.4rem"">Please recall the letters you saw to the best of your ability. If you do not remember a particular letter, use the SKIP button.<br><b>(When you are ready to lock in your answer, press ENTER)</b></p><button id = button_1 class = ""square num-button"" onclick = ""recordClick(this)""><div class = content><div class = numbers>C</div></div></button><button id = button_2 class = ""square num-button"" onclick = ""recordClick(this)""><div class = content><div class = numbers>G</div></div></button><button id = button_3 class = ""square num-button"" onclick = ""recordClick(this)""><div class = content><div class = numbers>H</div></div></button><button id = button_4 class = ""square num-button"" onclick = ""recordClick(this)""><div class = content><div class = numbers>J</div></div></button><button id = button_5 class = ""square num-button"" onclick = ""recordClick(this)""><div class = content><div class = numbers>K</div></div></button><button id = button_6 class = ""square num-button"" onclick = ""recordClick(this)""><div class = content><div class = numbers>L</div></div></button><button id = button_7 class = ""square num-button"" onclick = ""recordClick(this)""><div class = content><div class = numbers>N</div></div></button><button id = button_8 class = ""square num-button"" onclick = ""recordClick(this)""><div class = content><div class = numbers>P</div></div></button><button id = button_9 class = ""square num-button"" onclick = ""recordClick(this)""><div class = content><div class = numbers>Q</div></div></button><button id = button_10 class = ""square num-button"" onclick = ""recordClick(this)""><div class = content><div class = numbers>R</div></div></button><button id = button_11 class = ""square num-button"" onclick = ""recordClick(this)""><div class = content><div class = numbers>S</div></div></button><button id = button_12 class = ""square num-button"" onclick = ""recordClick(this)""><div class = content><div class = numbers>Y</div></div></button><button class = clear_button id = ""ClearButton"" onclick = ""clearResponse()"">BACKSPACE</button><button class = blank_button id = ""BlankButton"" onclick = ""blankResponse()"">SKIP</button><p style=""font-size: 2.4rem""><u><b>Current Answer:</b></u></p><br><br><div id=echoed_txt style=""font-size: 5rem; color:blue;""><b></b></div></div>",enter,ospan,retrieval,wH9Gkmpc1OQaVAoPZbj20Dqiunt2,html-keyboard-response,141,1106358,0.0-46.0-4.0-2.0-2.0,15,12,12,3.0,"[""_"",""_"",""_"",""_"",""_""]","[""N"",""G"",""R""]",0.0,0.0,,,,,,,5f32cfa671047605fbb4cee1,12:50:27,03/04/2024
1102.4000000003725,[''],0,ospan,feedback,wH9Gkmpc1OQaVAoPZbj20Dqiunt2,html-button-response,142,1107966,0.0-46.0-4.0-2.0-3.0,,,,,,,,,,,,93.0,0.0,,5f32cfa671047605fbb4cee1,12:50:27,03/04/2024
,"<p style=""font-size:75px;"">...</p>",,ospan,iti,wH9Gkmpc1OQaVAoPZbj20Dqiunt2,html-keyboard-response,143,1108973,0.0-46.0-5.0-0.0-0.0,,,,,,,,,,,,,,,5f32cfa671047605fbb4cee1,12:50:27,03/04/2024
2671.0,,,ospan,symmetry,wH9Gkmpc1OQaVAoPZbj20Dqiunt2,symmetry-judgement-task,144,1112852,0.0-46.0-5.0-0.0-1.0-0.0,,,,,,,,,,0.0,0.0,,,,5f32cfa671047605fbb4cee1,12:50:27,03/04/2024
,"<div style=""font-size: 10rem; color: #0000FF"">Y</div>",,ospan,letter,wH9Gkmpc1OQaVAoPZbj20Dqiunt2,html-keyboard-response,145,1113855,0.0-46.0-5.0-0.0-1.0-1.0,,,,,,,,,,,,,,,5f32cfa671047605fbb4cee1,12:50:27,03/04/2024
1619.0,,,ospan,symmetry,wH9Gkmpc1OQaVAoPZbj20Dqiunt2,symmetry-judgement-task,146,1117470,0.0-46.0-5.0-0.0-1.0-2.0,,,,,,,,,,1.0,1.0,,,,5f32cfa671047605fbb4cee1,12:50:27,03/04/2024
,"<div style=""font-size: 10rem; color: #0000FF"">N</div>",,ospan,letter,wH9Gkmpc1OQaVAoPZbj20Dqiunt2,html-keyboard-response,147,1118475,0.0-46.0-5.0-0.0-1.0-3.0,,,,,,,,,,,,,,,5f32cfa671047605fbb4cee1,12:50:27,03/04/2024
1019.0,,,ospan,symmetry,wH9Gkmpc1OQaVAoPZbj20Dqiunt2,symmetry-judgement-task,148,1121420,0.0-46.0-5.0-0.0-1.0-4.0,,,,,,,,,,1.0,1.0,,,,5f32cfa671047605fbb4cee1,12:50:27,03/04/2024
,"<div style=""font-size: 10rem; color: #0000FF"">P</div>",,ospan,letter,wH9Gkmpc1OQaVAoPZbj20Dqiunt2,html-keyboard-response,149,1122429,0.0-46.0-5.0-0.0-1.0-5.0,,,,,,,,,,,,,,,5f32cfa671047605fbb4cee1,12:50:27,03/04/2024
1041.0,,,ospan,symmetry,wH9Gkmpc1OQaVAoPZbj20Dqiunt2,symmetry-judgement-task,150,1125405,0.0-46.0-5.0-0.0-1.0-6.0,,,,,,,,,,1.0,1.0,,,,5f32cfa671047605fbb4cee1,12:50:27,03/04/2024
,"<div style=""font-size: 10rem; color: #0000FF"">G</div>",,ospan,letter,wH9Gkmpc1OQaVAoPZbj20Dqiunt2,html-keyboard-response,151,1126416,0.0-46.0-5.0-0.0-1.0-7.0,,,,,,,,,,,,,,,5f32cfa671047605fbb4cee1,12:50:27,03/04/2024
1036.0,,,ospan,symmetry,wH9Gkmpc1OQaVAoPZbj20Dqiunt2,symmetry-judgement-task,152,1129268,0.0-46.0-5.0-0.0-1.0-8.0,,,,,,,,,,1.0,1.0,,,,5f32cfa671047605fbb4cee1,12:50:27,03/04/2024
,"<div style=""font-size: 10rem; color: #0000FF"">J</div>",,ospan,letter,wH9Gkmpc1OQaVAoPZbj20Dqiunt2,html-keyboard-response,153,1130284,0.0-46.0-5.0-0.0-1.0-9.0,,,,,,,,,,,,,,,5f32cfa671047605fbb4cee1,12:50:27,03/04/2024
1078.0,,,ospan,symmetry,wH9Gkmpc1OQaVAoPZbj20Dqiunt2,symmetry-judgement-task,154,1133304,0.0-46.0-5.0-0.0-1.0-10.0,,,,,,,,,,1.0,1.0,,,,5f32cfa671047605fbb4cee1,12:50:27,03/04/2024
,"<div style=""font-size: 10rem; color: #0000FF"">C</div>",,ospan,letter,wH9Gkmpc1OQaVAoPZbj20Dqiunt2,html-keyboard-response,155,1134310,0.0-46.0-5.0-0.0-1.0-11.0,,,,,,,,,,,,,,,5f32cfa671047605fbb4cee1,12:50:27,03/04/2024
4786.700000000186,"<div class = numbox><p style=""font-size: 2.4rem"">Please recall the letters you saw to the best of your ability. If you do not remember a particular letter, use the SKIP button.<br><b>(When you are ready to lock in your answer, press ENTER)</b></p><button id = button_1 class = ""square num-button"" onclick = ""recordClick(this)""><div class = content><div class = numbers>C</div></div></button><button id = button_2 class = ""square num-button"" onclick = ""recordClick(this)""><div class = content><div class = numbers>G</div></div></button><button id = button_3 class = ""square num-button"" onclick = ""recordClick(this)""><div class = content><div class = numbers>H</div></div></button><button id = button_4 class = ""square num-button"" onclick = ""recordClick(this)""><div class = content><div class = numbers>J</div></div></button><button id = button_5 class = ""square num-button"" onclick = ""recordClick(this)""><div class = content><div class = numbers>K</div></div></button><button id = button_6 class = ""square num-button"" onclick = ""recordClick(this)""><div class = content><div class = numbers>L</div></div></button><button id = button_7 class = ""square num-button"" onclick = ""recordClick(this)""><div class = content><div class = numbers>N</div></div></button><button id = button_8 class = ""square num-button"" onclick = ""recordClick(this)""><div class = content><div class = numbers>P</div></div></button><button id = button_9 class = ""square num-button"" onclick = ""recordClick(this)""><div class = content><div class = numbers>Q</div></div></button><button id = button_10 class = ""square num-button"" onclick = ""recordClick(this)""><div class = content><div class = numbers>R</div></div></button><button id = button_11 class = ""square num-button"" onclick = ""recordClick(this)""><div class = content><div class = numbers>S</div></div></button><button id = button_12 class = ""square num-button"" onclick = ""recordClick(this)""><div class = content><div class = numbers>Y</div></div></button><button class = clear_button id = ""ClearButton"" onclick = ""clearResponse()"">BACKSPACE</button><button class = blank_button id = ""BlankButton"" onclick = ""blankResponse()"">SKIP</button><p style=""font-size: 2.4rem""><u><b>Current Answer:</b></u></p><br><br><div id=echoed_txt style=""font-size: 5rem; color:blue;""><b></b></div></div>",enter,ospan,retrieval,wH9Gkmpc1OQaVAoPZbj20Dqiunt2,html-keyboard-response,156,1139850,0.0-46.0-5.0-0.0-2.0,21,18,18,6.0,"[""Y"",""N"",""P"",""G"",""J"",""C""]","[""Y"",""N"",""P"",""G"",""J"",""C""]",1.0,6.0,,,,,,,5f32cfa671047605fbb4cee1,12:50:27,03/04/2024
714.7000000001863,[''],0,ospan,feedback,wH9Gkmpc1OQaVAoPZbj20Dqiunt2,html-button-response,157,1141082,0.0-46.0-5.0-0.0-3.0,,,,,,,,,,,,90.0,0.0,,5f32cfa671047605fbb4cee1,12:50:27,03/04/2024
,"<p style=""font-size:75px;"">...</p>",,ospan,iti,wH9Gkmpc1OQaVAoPZbj20Dqiunt2,html-keyboard-response,158,1142100,0.0-46.0-5.0-1.0-0.0,,,,,,,,,,,,,,,5f32cfa671047605fbb4cee1,12:50:27,03/04/2024
1242.0,,,ospan,symmetry,wH9Gkmpc1OQaVAoPZbj20Dqiunt2,symmetry-judgement-task,159,1144515,0.0-46.0-5.0-1.0-1.0-0.0,,,,,,,,,,1.0,1.0,,,,5f32cfa671047605fbb4cee1,12:50:27,03/04/2024
,"<div style=""font-size: 10rem; color: #0000FF"">Q</div>",,ospan,letter,wH9Gkmpc1OQaVAoPZbj20Dqiunt2,html-keyboard-response,160,1145530,0.0-46.0-5.0-1.0-1.0-1.0,,,,,,,,,,,,,,,5f32cfa671047605fbb4cee1,12:50:27,03/04/2024
998.0,,,ospan,symmetry,wH9Gkmpc1OQaVAoPZbj20Dqiunt2,symmetry-judgement-task,161,1148478,0.0-46.0-5.0-1.0-1.0-2.0,,,,,,,,,,1.0,1.0,,,,5f32cfa671047605fbb4cee1,12:50:27,03/04/2024
,"<div style=""font-size: 10rem; color: #0000FF"">S</div>",,ospan,letter,wH9Gkmpc1OQaVAoPZbj20Dqiunt2,html-keyboard-response,162,1149490,0.0-46.0-5.0-1.0-1.0-3.0,,,,,,,,,,,,,,,5f32cfa671047605fbb4cee1,12:50:27,03/04/2024
3417.0,,,ospan,symmetry,wH9Gkmpc1OQaVAoPZbj20Dqiunt2,symmetry-judgement-task,163,1154856,0.0-46.0-5.0-1.0-1.0-4.0,,,,,,,,,,1.0,1.0,,,,5f32cfa671047605fbb4cee1,12:50:27,03/04/2024
,"<div style=""font-size: 10rem; color: #0000FF"">J</div>",,ospan,letter,wH9Gkmpc1OQaVAoPZbj20Dqiunt2,html-keyboard-response,164,1155868,0.0-46.0-5.0-1.0-1.0-5.0,,,,,,,,,,,,,,,5f32cfa671047605fbb4cee1,12:50:27,03/04/2024
3052.0,,,ospan,symmetry,wH9Gkmpc1OQaVAoPZbj20Dqiunt2,symmetry-judgement-task,165,1160887,0.0-46.0-5.0-1.0-1.0-6.0,,,,,,,,,,1.0,1.0,,,,5f32cfa671047605fbb4cee1,12:50:27,03/04/2024
,"<div style=""font-size: 10rem; color: #0000FF"">R</div>",,ospan,letter,wH9Gkmpc1OQaVAoPZbj20Dqiunt2,html-keyboard-response,166,1161904,0.0-46.0-5.0-1.0-1.0-7.0,,,,,,,,,,,,,,,5f32cfa671047605fbb4cee1,12:50:27,03/04/2024
822.0,,,ospan,symmetry,wH9Gkmpc1OQaVAoPZbj20Dqiunt2,symmetry-judgement-task,167,1164692,0.0-46.0-5.0-1.0-1.0-8.0,,,,,,,,,,1.0,1.0,,,,5f32cfa671047605fbb4cee1,12:50:27,03/04/2024
,"<div style=""font-size: 10rem; color: #0000FF"">C</div>",,ospan,letter,wH9Gkmpc1OQaVAoPZbj20Dqiunt2,html-keyboard-response,168,1165700,0.0-46.0-5.0-1.0-1.0-9.0,,,,,,,,,,,,,,,5f32cfa671047605fbb4cee1,12:50:27,03/04/2024
2269.0,,,ospan,symmetry,wH9Gkmpc1OQaVAoPZbj20Dqiunt2,symmetry-judgement-task,169,1169900,0.0-46.0-5.0-1.0-1.0-10.0,,,,,,,,,,1.0,1.0,,,,5f32cfa671047605fbb4cee1,12:50:27,03/04/2024
,"<div style=""font-size: 10rem; color: #0000FF"">G</div>",,ospan,letter,wH9Gkmpc1OQaVAoPZbj20Dqiunt2,html-keyboard-response,170,1170907,0.0-46.0-5.0-1.0-1.0-11.0,,,,,,,,,,,,,,,5f32cfa671047605fbb4cee1,12:50:27,03/04/2024
1238.0,,,ospan,symmetry,wH9Gkmpc1OQaVAoPZbj20Dqiunt2,symmetry-judgement-task,171,1174100,0.0-46.0-5.0-1.0-1.0-12.0,,,,,,,,,,1.0,1.0,,,,5f32cfa671047605fbb4cee1,12:50:27,03/04/2024
,"<div style=""font-size: 10rem; color: #0000FF"">L</div>",,ospan,letter,wH9Gkmpc1OQaVAoPZbj20Dqiunt2,html-keyboard-response,172,1175109,0.0-46.0-5.0-1.0-1.0-13.0,,,,,,,,,,,,,,,5f32cfa671047605fbb4cee1,12:50:27,03/04/2024
10249.30000000028,"<div class = numbox><p style=""font-size: 2.4rem"">Please recall the letters you saw to the best of your ability. If you do not remember a particular letter, use the SKIP button.<br><b>(When you are ready to lock in your answer, press ENTER)</b></p><button id = button_1 class = ""square num-button"" onclick = ""recordClick(this)""><div class = content><div class = numbers>C</div></div></button><button id = button_2 class = ""square num-button"" onclick = ""recordClick(this)""><div class = content><div class = numbers>G</div></div></button><button id = button_3 class = ""square num-button"" onclick = ""recordClick(this)""><div class = content><div class = numbers>H</div></div></button><button id = button_4 class = ""square num-button"" onclick = ""recordClick(this)""><div class = content><div class = numbers>J</div></div></button><button id = button_5 class = ""square num-button"" onclick = ""recordClick(this)""><div class = content><div class = numbers>K</div></div></button><button id = button_6 class = ""square num-button"" onclick = ""recordClick(this)""><div class = content><div class = numbers>L</div></div></button><button id = button_7 class = ""square num-button"" onclick = ""recordClick(this)""><div class = content><div class = numbers>N</div></div></button><button id = button_8 class = ""square num-button"" onclick = ""recordClick(this)""><div class = content><div class = numbers>P</div></div></button><button id = button_9 class = ""square num-button"" onclick = ""recordClick(this)""><div class = content><div class = numbers>Q</div></div></button><button id = button_10 class = ""square num-button"" onclick = ""recordClick(this)""><div class = content><div class = numbers>R</div></div></button><button id = button_11 class = ""square num-button"" onclick = ""recordClick(this)""><div class = content><div class = numbers>S</div></div></button><button id = button_12 class = ""square num-button"" onclick = ""recordClick(this)""><div class = content><div class = numbers>Y</div></div></button><button class = clear_button id = ""ClearButton"" onclick = ""clearResponse()"">BACKSPACE</button><button class = blank_button id = ""BlankButton"" onclick = ""blankResponse()"">SKIP</button><p style=""font-size: 2.4rem""><u><b>Current Answer:</b></u></p><br><br><div id=echoed_txt style=""font-size: 5rem; color:blue;""><b></b></div></div>",enter,ospan,retrieval,wH9Gkmpc1OQaVAoPZbj20Dqiunt2,html-keyboard-response,173,1186118,0.0-46.0-5.0-1.0-2.0,28,25,25,7.0,"[""Q"",""S"",""J"",""R"",""C"",""G"",""L""]","[""Q"",""S"",""J"",""R"",""C"",""G"",""L""]",1.0,7.0,,,,,,,5f32cfa671047605fbb4cee1,12:50:27,03/04/2024
2780.0,[''],0,ospan,feedback,wH9Gkmpc1OQaVAoPZbj20Dqiunt2,html-button-response,174,1189408,0.0-46.0-5.0-1.0-3.0,,,,,,,,,,,,93.0,0.0,,5f32cfa671047605fbb4cee1,12:50:27,03/04/2024
,"<p style=""font-size:75px;"">...</p>",,ospan,iti,wH9Gkmpc1OQaVAoPZbj20Dqiunt2,html-keyboard-response,175,1190419,0.0-46.0-6.0-0.0-0.0,,,,,,,,,,,,,,,5f32cfa671047605fbb4cee1,12:50:27,03/04/2024
1264.0,,,ospan,symmetry,wH9Gkmpc1OQaVAoPZbj20Dqiunt2,symmetry-judgement-task,176,1192875,0.0-46.0-6.0-0.0-1.0-0.0,,,,,,,,,,1.0,1.0,,,,5f32cfa671047605fbb4cee1,12:50:27,03/04/2024
,"<div style=""font-size: 10rem; color: #0000FF"">H</div>",,ospan,letter,wH9Gkmpc1OQaVAoPZbj20Dqiunt2,html-keyboard-response,177,1193881,0.0-46.0-6.0-0.0-1.0-1.0,,,,,,,,,,,,,,,5f32cfa671047605fbb4cee1,12:50:27,03/04/2024
1771.0,,,ospan,symmetry,wH9Gkmpc1OQaVAoPZbj20Dqiunt2,symmetry-judgement-task,178,1197595,0.0-46.0-6.0-0.0-1.0-2.0,,,,,,,,,,1.0,1.0,,,,5f32cfa671047605fbb4cee1,12:50:27,03/04/2024
,"<div style=""font-size: 10rem; color: #0000FF"">C</div>",,ospan,letter,wH9Gkmpc1OQaVAoPZbj20Dqiunt2,html-keyboard-response,179,1198608,0.0-46.0-6.0-0.0-1.0-3.0,,,,,,,,,,,,,,,5f32cfa671047605fbb4cee1,12:50:27,03/04/2024
1135.0,,,ospan,symmetry,wH9Gkmpc1OQaVAoPZbj20Dqiunt2,symmetry-judgement-task,180,1201682,0.0-46.0-6.0-0.0-1.0-4.0,,,,,,,,,,1.0,1.0,,,,5f32cfa671047605fbb4cee1,12:50:27,03/04/2024
,"<div style=""font-size: 10rem; color: #0000FF"">N</div>",,ospan,letter,wH9Gkmpc1OQaVAoPZbj20Dqiunt2,html-keyboard-response,181,1202684,0.0-46.0-6.0-0.0-1.0-5.0,,,,,,,,,,,,,,,5f32cfa671047605fbb4cee1,12:50:27,03/04/2024
1008.0,,,ospan,symmetry,wH9Gkmpc1OQaVAoPZbj20Dqiunt2,symmetry-judgement-task,182,1205642,0.0-46.0-6.0-0.0-1.0-6.0,,,,,,,,,,1.0,1.0,,,,5f32cfa671047605fbb4cee1,12:50:27,03/04/2024
,"<div style=""font-size: 10rem; color: #0000FF"">L</div>",,ospan,letter,wH9Gkmpc1OQaVAoPZbj20Dqiunt2,html-keyboard-response,183,1206655,0.0-46.0-6.0-0.0-1.0-7.0,,,,,,,,,,,,,,,5f32cfa671047605fbb4cee1,12:50:27,03/04/2024
1116.0,,,ospan,symmetry,wH9Gkmpc1OQaVAoPZbj20Dqiunt2,symmetry-judgement-task,184,1209717,0.0-46.0-6.0-0.0-1.0-8.0,,,,,,,,,,1.0,1.0,,,,5f32cfa671047605fbb4cee1,12:50:27,03/04/2024
,"<div style=""font-size: 10rem; color: #0000FF"">P</div>",,ospan,letter,wH9Gkmpc1OQaVAoPZbj20Dqiunt2,html-keyboard-response,185,1210723,0.0-46.0-6.0-0.0-1.0-9.0,,,,,,,,,,,,,,,5f32cfa671047605fbb4cee1,12:50:27,03/04/2024
4469.600000000093,"<div class = numbox><p style=""font-size: 2.4rem"">Please recall the letters you saw to the best of your ability. If you do not remember a particular letter, use the SKIP button.<br><b>(When you are ready to lock in your answer, press ENTER)</b></p><button id = button_1 class = ""square num-button"" onclick = ""recordClick(this)""><div class = content><div class = numbers>C</div></div></button><button id = button_2 class = ""square num-button"" onclick = ""recordClick(this)""><div class = content><div class = numbers>G</div></div></button><button id = button_3 class = ""square num-button"" onclick = ""recordClick(this)""><div class = content><div class = numbers>H</div></div></button><button id = button_4 class = ""square num-button"" onclick = ""recordClick(this)""><div class = content><div class = numbers>J</div></div></button><button id = button_5 class = ""square num-button"" onclick = ""recordClick(this)""><div class = content><div class = numbers>K</div></div></button><button id = button_6 class = ""square num-button"" onclick = ""recordClick(this)""><div class = content><div class = numbers>L</div></div></button><button id = button_7 class = ""square num-button"" onclick = ""recordClick(this)""><div class = content><div class = numbers>N</div></div></button><button id = button_8 class = ""square num-button"" onclick = ""recordClick(this)""><div class = content><div class = numbers>P</div></div></button><button id = button_9 class = ""square num-button"" onclick = ""recordClick(this)""><div class = content><div class = numbers>Q</div></div></button><button id = button_10 class = ""square num-button"" onclick = ""recordClick(this)""><div class = content><div class = numbers>R</div></div></button><button id = button_11 class = ""square num-button"" onclick = ""recordClick(this)""><div class = content><div class = numbers>S</div></div></button><button id = button_12 class = ""square num-button"" onclick = ""recordClick(this)""><div class = content><div class = numbers>Y</div></div></button><button class = clear_button id = ""ClearButton"" onclick = ""clearResponse()"">BACKSPACE</button><button class = blank_button id = ""BlankButton"" onclick = ""blankResponse()"">SKIP</button><p style=""font-size: 2.4rem""><u><b>Current Answer:</b></u></p><br><br><div id=echoed_txt style=""font-size: 5rem; color:blue;""><b></b></div></div>",enter,ospan,retrieval,wH9Gkmpc1OQaVAoPZbj20Dqiunt2,html-keyboard-response,186,1215953,0.0-46.0-6.0-0.0-2.0,33,30,30,5.0,"[""H"",""C"",""N"",""L"",""P""]","[""H"",""C"",""N"",""L"",""P""]",1.0,5.0,,,,,,,5f32cfa671047605fbb4cee1,12:50:27,03/04/2024
1218.7999999998137,[''],0,ospan,feedback,wH9Gkmpc1OQaVAoPZbj20Dqiunt2,html-button-response,187,1217683,0.0-46.0-6.0-0.0-3.0,,,,,,,,,,,,94.0,0.0,,5f32cfa671047605fbb4cee1,12:50:27,03/04/2024
,"<p style=""font-size:75px;"">...</p>",,ospan,iti,wH9Gkmpc1OQaVAoPZbj20Dqiunt2,html-keyboard-response,188,1218686,0.0-46.0-6.0-1.0-0.0,,,,,,,,,,,,,,,5f32cfa671047605fbb4cee1,12:50:27,03/04/2024
1557.0,,,ospan,symmetry,wH9Gkmpc1OQaVAoPZbj20Dqiunt2,symmetry-judgement-task,189,1221438,0.0-46.0-6.0-1.0-1.0-0.0,,,,,,,,,,1.0,1.0,,,,5f32cfa671047605fbb4cee1,12:50:27,03/04/2024
,"<div style=""font-size: 10rem; color: #0000FF"">C</div>",,ospan,letter,wH9Gkmpc1OQaVAoPZbj20Dqiunt2,html-keyboard-response,190,1222445,0.0-46.0-6.0-1.0-1.0-1.0,,,,,,,,,,,,,,,5f32cfa671047605fbb4cee1,12:50:27,03/04/2024
1223.0,,,ospan,symmetry,wH9Gkmpc1OQaVAoPZbj20Dqiunt2,symmetry-judgement-task,191,1225635,0.0-46.0-6.0-1.0-1.0-2.0,,,,,,,,,,1.0,1.0,,,,5f32cfa671047605fbb4cee1,12:50:27,03/04/2024
,"<div style=""font-size: 10rem; color: #0000FF"">P</div>",,ospan,letter,wH9Gkmpc1OQaVAoPZbj20Dqiunt2,html-keyboard-response,192,1226652,0.0-46.0-6.0-1.0-1.0-3.0,,,,,,,,,,,,,,,5f32cfa671047605fbb4cee1,12:50:27,03/04/2024
1205.0,,,ospan,symmetry,wH9Gkmpc1OQaVAoPZbj20Dqiunt2,symmetry-judgement-task,193,1229816,0.0-46.0-6.0-1.0-1.0-4.0,,,,,,,,,,1.0,1.0,,,,5f32cfa671047605fbb4cee1,12:50:27,03/04/2024
,"<div style=""font-size: 10rem; color: #0000FF"">L</div>",,ospan,letter,wH9Gkmpc1OQaVAoPZbj20Dqiunt2,html-keyboard-response,194,1230827,0.0-46.0-6.0-1.0-1.0-5.0,,,,,,,,,,,,,,,5f32cfa671047605fbb4cee1,12:50:27,03/04/2024
1146.0,,,ospan,symmetry,wH9Gkmpc1OQaVAoPZbj20Dqiunt2,symmetry-judgement-task,195,1233911,0.0-46.0-6.0-1.0-1.0-6.0,,,,,,,,,,1.0,1.0,,,,5f32cfa671047605fbb4cee1,12:50:27,03/04/2024
,"<div style=""font-size: 10rem; color: #0000FF"">Q</div>",,ospan,letter,wH9Gkmpc1OQaVAoPZbj20Dqiunt2,html-keyboard-response,196,1234926,0.0-46.0-6.0-1.0-1.0-7.0,,,,,,,,,,,,,,,5f32cfa671047605fbb4cee1,12:50:27,03/04/2024
853.0,,,ospan,symmetry,wH9Gkmpc1OQaVAoPZbj20Dqiunt2,symmetry-judgement-task,197,1237728,0.0-46.0-6.0-1.0-1.0-8.0,,,,,,,,,,1.0,1.0,,,,5f32cfa671047605fbb4cee1,12:50:27,03/04/2024
,"<div style=""font-size: 10rem; color: #0000FF"">J</div>",,ospan,letter,wH9Gkmpc1OQaVAoPZbj20Dqiunt2,html-keyboard-response,198,1238739,0.0-46.0-6.0-1.0-1.0-9.0,,,,,,,,,,,,,,,5f32cfa671047605fbb4cee1,12:50:27,03/04/2024
1379.0,,,ospan,symmetry,wH9Gkmpc1OQaVAoPZbj20Dqiunt2,symmetry-judgement-task,199,1242061,0.0-46.0-6.0-1.0-1.0-10.0,,,,,,,,,,1.0,1.0,,,,5f32cfa671047605fbb4cee1,12:50:27,03/04/2024
,"<div style=""font-size: 10rem; color: #0000FF"">R</div>",,ospan,letter,wH9Gkmpc1OQaVAoPZbj20Dqiunt2,html-keyboard-response,200,1243072,0.0-46.0-6.0-1.0-1.0-11.0,,,,,,,,,,,,,,,5f32cfa671047605fbb4cee1,12:50:27,03/04/2024
1051.0,,,ospan,symmetry,wH9Gkmpc1OQaVAoPZbj20Dqiunt2,symmetry-judgement-task,201,1246079,0.0-46.0-6.0-1.0-1.0-12.0,,,,,,,,,,1.0,1.0,,,,5f32cfa671047605fbb4cee1,12:50:27,03/04/2024
,"<div style=""font-size: 10rem; color: #0000FF"">N</div>",,ospan,letter,wH9Gkmpc1OQaVAoPZbj20Dqiunt2,html-keyboard-response,202,1247093,0.0-46.0-6.0-1.0-1.0-13.0,,,,,,,,,,,,,,,5f32cfa671047605fbb4cee1,12:50:27,03/04/2024
2124.0,,,ospan,symmetry,wH9Gkmpc1OQaVAoPZbj20Dqiunt2,symmetry-judgement-task,203,1251157,0.0-46.0-6.0-1.0-1.0-14.0,,,,,,,,,,1.0,1.0,,,,5f32cfa671047605fbb4cee1,12:50:27,03/04/2024
,"<div style=""font-size: 10rem; color: #0000FF"">Y</div>",,ospan,letter,wH9Gkmpc1OQaVAoPZbj20Dqiunt2,html-keyboard-response,204,1252172,0.0-46.0-6.0-1.0-1.0-15.0,,,,,,,,,,,,,,,5f32cfa671047605fbb4cee1,12:50:27,03/04/2024
12215.80000000028,"<div class = numbox><p style=""font-size: 2.4rem"">Please recall the letters you saw to the best of your ability. If you do not remember a particular letter, use the SKIP button.<br><b>(When you are ready to lock in your answer, press ENTER)</b></p><button id = button_1 class = ""square num-button"" onclick = ""recordClick(this)""><div class = content><div class = numbers>C</div></div></button><button id = button_2 class = ""square num-button"" onclick = ""recordClick(this)""><div class = content><div class = numbers>G</div></div></button><button id = button_3 class = ""square num-button"" onclick = ""recordClick(this)""><div class = content><div class = numbers>H</div></div></button><button id = button_4 class = ""square num-button"" onclick = ""recordClick(this)""><div class = content><div class = numbers>J</div></div></button><button id = button_5 class = ""square num-button"" onclick = ""recordClick(this)""><div class = content><div class = numbers>K</div></div></button><button id = button_6 class = ""square num-button"" onclick = ""recordClick(this)""><div class = content><div class = numbers>L</div></div></button><button id = button_7 class = ""square num-button"" onclick = ""recordClick(this)""><div class = content><div class = numbers>N</div></div></button><button id = button_8 class = ""square num-button"" onclick = ""recordClick(this)""><div class = content><div class = numbers>P</div></div></button><button id = button_9 class = ""square num-button"" onclick = ""recordClick(this)""><div class = content><div class = numbers>Q</div></div></button><button id = button_10 class = ""square num-button"" onclick = ""recordClick(this)""><div class = content><div class = numbers>R</div></div></button><button id = button_11 class = ""square num-button"" onclick = ""recordClick(this)""><div class = content><div class = numbers>S</div></div></button><button id = button_12 class = ""square num-button"" onclick = ""recordClick(this)""><div class = content><div class = numbers>Y</div></div></button><button class = clear_button id = ""ClearButton"" onclick = ""clearResponse()"">BACKSPACE</button><button class = blank_button id = ""BlankButton"" onclick = ""blankResponse()"">SKIP</button><p style=""font-size: 2.4rem""><u><b>Current Answer:</b></u></p><br><br><div id=echoed_txt style=""font-size: 5rem; color:blue;""><b></b></div></div>",enter,ospan,retrieval,wH9Gkmpc1OQaVAoPZbj20Dqiunt2,html-keyboard-response,205,1265150,0.0-46.0-6.0-1.0-2.0,41,38,38,8.0,"[""C"",""P"",""L"",""Q"",""J"",""R"",""N"",""Y""]","[""C"",""P"",""L"",""Q"",""J"",""R"",""N"",""Y""]",1.0,8.0,,,,,,,5f32cfa671047605fbb4cee1,12:50:27,03/04/2024
1721.0,[''],0,ospan,feedback,wH9Gkmpc1OQaVAoPZbj20Dqiunt2,html-button-response,206,1267379,0.0-46.0-6.0-1.0-3.0,,,,,,,,,,,,95.0,0.0,,5f32cfa671047605fbb4cee1,12:50:27,03/04/2024
12742.399999999907,,{'Q0': 'Difficult but fun! All was  clear instructions'},ospan,survey_ospan,wH9Gkmpc1OQaVAoPZbj20Dqiunt2,lmdlab-survey-text,207,1280877,0.0-46.0-7.0,,,,,,,,,,,,,,wH9Gkmpc1OQaVAoPZbj20Dqiunt2,5f32cfa671047605fbb4cee1,12:50:27,03/04/2024
1583.0,<p><p style='font-size: 3rem'>Great work!<br><br>This completes the symmetry and memory task.</p><br><br><br>,0,ospan,finish,wH9Gkmpc1OQaVAoPZbj20Dqiunt2,html-button-response,208,1282463,0.0-46.0-8.0,41,38,38,,,,,,,,,95.0,,,5f32cfa671047605fbb4cee1,12:50:27,03/04/2024
