rt,stimulus,response,exp_name,exp_stage,subjectID,trial_type,trial_index,time_elapsed,internal_node_id,ospan_shown,ospan_total,ospan_abs,length,resp_actual,resp_correct,full_correct,num_correct,feedback,accuracy,correct,math_acc,math_warning,databaseID,prolificID,start_time,date
1890.0,<div class = 'left_align' style='font-size: 3.25rem; line-height: 1.3;'><p class = 'center_align'><b>Welcome to the Symmetry and Memory Task</b><br><br><br><br></p>Press 'continue' to show the instructions.<br><br><br><br></div>,0,ospan,instruct,h9YUrYLpX0VkQVcbQvgpAhO1L0H3,html-button-response,51,489928,0.0-43.0-0.0-0.0-0.0,,,,,,,,,,,,,,,62a12aee913c1c1a20613418,13:37:05,06/03/2024
5853.0,"<div class = 'left_align' style='font-size: 3.25rem; line-height: 1.3;'><p class = 'center_align'><b>Symmetry and Memory Task</b><br><br></p>In this task, you will try to memorize letters you see on the screen<br>while you also view black and white grid pictures.<br><br>In the next few minutes, you will have some practice to get you familiar<br>with how the task works.<br><br>It may be difficult sometimes, but please do not worry about making mistakes!<br><br>We will begin by practicing the letter part of the task.<br><br><br><br></div>",0,ospan,instruct,h9YUrYLpX0VkQVcbQvgpAhO1L0H3,html-button-response,52,496045,0.0-43.0-0.0-0.0-1.0,,,,,,,,,,,,,,,62a12aee913c1c1a20613418,13:37:05,06/03/2024
7903.0,"<div class = 'left_align' style='font-size: 3.25rem; line-height: 1.3;'>For this practice part, letters will appear on the screen one at a time.<br><br>Try to remember each letter in the order presented.<br><br>After some letters have been shown, you will see a response screen. Your<br>goal is to report the letters you saw <b>in order</b>. If you do not remember<br>a particular letter, you will have the option to leave it blank.<br><br><br><br></div>",0,ospan,instruct,h9YUrYLpX0VkQVcbQvgpAhO1L0H3,html-button-response,53,504210,0.0-43.0-0.0-0.0-2.0,,,,,,,,,,,,,,,62a12aee913c1c1a20613418,13:37:05,06/03/2024
2034.0,"<div class = 'left_align' style='font-size: 3.25rem; line-height: 1.3;'>Remember, it is very important to get the letters in the same<br>order as you see them.<br><br>When you are ready, you may begin the letter practice.</div><br><br><br><br>",0,ospan,instruct,h9YUrYLpX0VkQVcbQvgpAhO1L0H3,html-button-response,54,506496,0.0-43.0-0.0-0.0-3.0,,,,,,,,,,,,,,,62a12aee913c1c1a20613418,13:37:05,06/03/2024
,"<p style=""font-size:75px;"">...</p>",,ospan,iti,h9YUrYLpX0VkQVcbQvgpAhO1L0H3,html-keyboard-response,55,507765,0.0-43.0-0.0-1.0-0.0,,,,,,,,,,,,,,,62a12aee913c1c1a20613418,13:37:05,06/03/2024
,"<div style=""font-size: 10rem; color: #0000FF"">P</div>",,ospan,letter,h9YUrYLpX0VkQVcbQvgpAhO1L0H3,html-keyboard-response,56,508781,0.0-43.0-0.0-1.0-1.0,,,,,,,,,,,,,,,62a12aee913c1c1a20613418,13:37:05,06/03/2024
,"<div style=""font-size: 10rem; color: #0000FF"">R</div>",,ospan,letter,h9YUrYLpX0VkQVcbQvgpAhO1L0H3,html-keyboard-response,57,510546,0.0-43.0-0.0-1.0-2.0,,,,,,,,,,,,,,,62a12aee913c1c1a20613418,13:37:05,06/03/2024
5163.0,"<div class = numbox><p style=""font-size: 2.4rem"">Please recall the letters you saw to the best of your ability. If you do not remember a particular letter, use the SKIP button.<br><b>(When you are ready to lock in your answer, press ENTER)</b></p><button id = button_1 class = ""square num-button"" onclick = ""recordClick(this)""><div class = content><div class = numbers>C</div></div></button><button id = button_2 class = ""square num-button"" onclick = ""recordClick(this)""><div class = content><div class = numbers>G</div></div></button><button id = button_3 class = ""square num-button"" onclick = ""recordClick(this)""><div class = content><div class = numbers>H</div></div></button><button id = button_4 class = ""square num-button"" onclick = ""recordClick(this)""><div class = content><div class = numbers>J</div></div></button><button id = button_5 class = ""square num-button"" onclick = ""recordClick(this)""><div class = content><div class = numbers>K</div></div></button><button id = button_6 class = ""square num-button"" onclick = ""recordClick(this)""><div class = content><div class = numbers>L</div></div></button><button id = button_7 class = ""square num-button"" onclick = ""recordClick(this)""><div class = content><div class = numbers>N</div></div></button><button id = button_8 class = ""square num-button"" onclick = ""recordClick(this)""><div class = content><div class = numbers>P</div></div></button><button id = button_9 class = ""square num-button"" onclick = ""recordClick(this)""><div class = content><div class = numbers>Q</div></div></button><button id = button_10 class = ""square num-button"" onclick = ""recordClick(this)""><div class = content><div class = numbers>R</div></div></button><button id = button_11 class = ""square num-button"" onclick = ""recordClick(this)""><div class = content><div class = numbers>S</div></div></button><button id = button_12 class = ""square num-button"" onclick = ""recordClick(this)""><div class = content><div class = numbers>Y</div></div></button><button class = clear_button id = ""ClearButton"" onclick = ""clearResponse()"">BACKSPACE</button><button class = blank_button id = ""BlankButton"" onclick = ""blankResponse()"">SKIP</button><p style=""font-size: 2.4rem""><u><b>Current Answer:</b></u></p><br><br><div id=echoed_txt style=""font-size: 5rem; color:blue;""><b></b></div></div>",enter,ospan,retrieval,h9YUrYLpX0VkQVcbQvgpAhO1L0H3,html-keyboard-response,58,516469,0.0-43.0-0.0-1.0-3.0,NA,NA,NA,2.0,"[""P"",""R""]","[""P"",""R""]",1.0,2.0,"['<font color=""green"">P</font>', '<font color=""green"">R</font>']",,,,,,62a12aee913c1c1a20613418,13:37:05,06/03/2024
1434.0,"['<p style=""font-size:44px"">Letters:<br><br><br><font color=""green"">P</font> <font color=""green"">R</font></p><br><br>']",0,ospan,practice_feedback,h9YUrYLpX0VkQVcbQvgpAhO1L0H3,html-button-response,59,518410,0.0-43.0-0.0-1.0-4.0,,,,,,,,,,,,,,,62a12aee913c1c1a20613418,13:37:05,06/03/2024
,"<p style=""font-size:75px;"">...</p>",,ospan,iti,h9YUrYLpX0VkQVcbQvgpAhO1L0H3,html-keyboard-response,60,519420,0.0-43.0-0.0-2.0-0.0,,,,,,,,,,,,,,,62a12aee913c1c1a20613418,13:37:05,06/03/2024
,"<div style=""font-size: 10rem; color: #0000FF"">N</div>",,ospan,letter,h9YUrYLpX0VkQVcbQvgpAhO1L0H3,html-keyboard-response,61,520434,0.0-43.0-0.0-2.0-1.0,,,,,,,,,,,,,,,62a12aee913c1c1a20613418,13:37:05,06/03/2024
,"<div style=""font-size: 10rem; color: #0000FF"">C</div>",,ospan,letter,h9YUrYLpX0VkQVcbQvgpAhO1L0H3,html-keyboard-response,62,522198,0.0-43.0-0.0-2.0-2.0,,,,,,,,,,,,,,,62a12aee913c1c1a20613418,13:37:05,06/03/2024
,"<div style=""font-size: 10rem; color: #0000FF"">Y</div>",,ospan,letter,h9YUrYLpX0VkQVcbQvgpAhO1L0H3,html-keyboard-response,63,523964,0.0-43.0-0.0-2.0-3.0,,,,,,,,,,,,,,,62a12aee913c1c1a20613418,13:37:05,06/03/2024
6246.0,"<div class = numbox><p style=""font-size: 2.4rem"">Please recall the letters you saw to the best of your ability. If you do not remember a particular letter, use the SKIP button.<br><b>(When you are ready to lock in your answer, press ENTER)</b></p><button id = button_1 class = ""square num-button"" onclick = ""recordClick(this)""><div class = content><div class = numbers>C</div></div></button><button id = button_2 class = ""square num-button"" onclick = ""recordClick(this)""><div class = content><div class = numbers>G</div></div></button><button id = button_3 class = ""square num-button"" onclick = ""recordClick(this)""><div class = content><div class = numbers>H</div></div></button><button id = button_4 class = ""square num-button"" onclick = ""recordClick(this)""><div class = content><div class = numbers>J</div></div></button><button id = button_5 class = ""square num-button"" onclick = ""recordClick(this)""><div class = content><div class = numbers>K</div></div></button><button id = button_6 class = ""square num-button"" onclick = ""recordClick(this)""><div class = content><div class = numbers>L</div></div></button><button id = button_7 class = ""square num-button"" onclick = ""recordClick(this)""><div class = content><div class = numbers>N</div></div></button><button id = button_8 class = ""square num-button"" onclick = ""recordClick(this)""><div class = content><div class = numbers>P</div></div></button><button id = button_9 class = ""square num-button"" onclick = ""recordClick(this)""><div class = content><div class = numbers>Q</div></div></button><button id = button_10 class = ""square num-button"" onclick = ""recordClick(this)""><div class = content><div class = numbers>R</div></div></button><button id = button_11 class = ""square num-button"" onclick = ""recordClick(this)""><div class = content><div class = numbers>S</div></div></button><button id = button_12 class = ""square num-button"" onclick = ""recordClick(this)""><div class = content><div class = numbers>Y</div></div></button><button class = clear_button id = ""ClearButton"" onclick = ""clearResponse()"">BACKSPACE</button><button class = blank_button id = ""BlankButton"" onclick = ""blankResponse()"">SKIP</button><p style=""font-size: 2.4rem""><u><b>Current Answer:</b></u></p><br><br><div id=echoed_txt style=""font-size: 5rem; color:blue;""><b></b></div></div>",enter,ospan,retrieval,h9YUrYLpX0VkQVcbQvgpAhO1L0H3,html-keyboard-response,64,530974,0.0-43.0-0.0-2.0-4.0,NA,NA,NA,3.0,"[""N"",""C"",""Y""]","[""N"",""C"",""Y""]",1.0,3.0,"['<font color=""green"">N</font>', '<font color=""green"">C</font>', '<font color=""green"">Y</font>']",,,,,,62a12aee913c1c1a20613418,13:37:05,06/03/2024
1579.0,"['<p style=""font-size:44px"">Letters:<br><br><br><font color=""green"">N</font> <font color=""green"">C</font> <font color=""green"">Y</font></p><br><br>']",0,ospan,practice_feedback,h9YUrYLpX0VkQVcbQvgpAhO1L0H3,html-button-response,65,533066,0.0-43.0-0.0-2.0-5.0,,,,,,,,,,,,,,,62a12aee913c1c1a20613418,13:37:05,06/03/2024
7981.0,"<div class = 'left_align' style='font-size: 3.25rem; line-height: 1.3;'>Now you will practice doing the <b>symmetry judgment part</b> of the experiment.<br><br>A black and white grid picture will appear on the screen and you have to judge if it is <br>symmetrical or asymetrical.<br><br>A picture is 'mirror' symmetrical if its left half is identical to the right half when flipped.<br>Here are examples of a symmetrical and an asymetrical picture:<br><br><center><img src='Stimuli/img/symm_instructions_extra.png' style='height:420px; width:900'></img></center><br>To judge symmetry, imagine you were to fold each picture down the middle, like a book –<br>would the left half match the right half when folded onto each other?<br><br></div><br>",0,ospan,instruct,h9YUrYLpX0VkQVcbQvgpAhO1L0H3,html-button-response,66,541048,0.0-43.0-1.0-0.0-0.0,,,,,,,,,,,,,,,62a12aee913c1c1a20613418,13:37:05,06/03/2024
6171.0,"<div class = 'left_align' style='font-size: 3.25rem; line-height: 1.3;'>When you have viewed the picture and determined whether it is symmetrical or not,<br>you can <b>click the Yes or No button</b> below to answer.<br><br>If you take longer than 15 seconds, it will continue automatically<br>and record the answer as an error.</div><br>",0,ospan,instruct,h9YUrYLpX0VkQVcbQvgpAhO1L0H3,html-button-response,67,547483,0.0-43.0-1.0-0.0-1.0,,,,,,,,,,,,,,,62a12aee913c1c1a20613418,13:37:05,06/03/2024
3340.0,"<div class = 'left_align' style='font-size: 3.25rem; line-height: 1.3;'>It is <b>very</b> important that you make the symmetry judgment correctly.<br><br>It is also important that you try and judge the picture as quickly as you can.<br><br>When you are ready, click on the button below to try some practice problems.</div><br><br><br><br>",0,ospan,instruct,h9YUrYLpX0VkQVcbQvgpAhO1L0H3,html-button-response,68,551087,0.0-43.0-1.0-0.0-2.0,,,,,,,,,,,,,,,62a12aee913c1c1a20613418,13:37:05,06/03/2024
2506.0,,,ospan,symmetry,h9YUrYLpX0VkQVcbQvgpAhO1L0H3,symmetry-judgement-task,69,554433,0.0-43.0-1.0-1.0-0.0,,,,,,,,,,1.0,1.0,,,,62a12aee913c1c1a20613418,13:37:05,06/03/2024
,"<p style=""color:green; font-size: 35px"">Correct</p>",,ospan,feedback,h9YUrYLpX0VkQVcbQvgpAhO1L0H3,html-keyboard-response,70,555199,0.0-43.0-1.0-1.0-1.0,,,,,,,,,,,,,,,62a12aee913c1c1a20613418,13:37:05,06/03/2024
1430.0,,,ospan,symmetry,h9YUrYLpX0VkQVcbQvgpAhO1L0H3,symmetry-judgement-task,71,559452,0.0-43.0-1.0-1.0-2.0,,,,,,,,,,1.0,1.0,,,,62a12aee913c1c1a20613418,13:37:05,06/03/2024
,"<p style=""color:green; font-size: 35px"">Correct</p>",,ospan,feedback,h9YUrYLpX0VkQVcbQvgpAhO1L0H3,html-keyboard-response,72,560203,0.0-43.0-1.0-1.0-3.0,,,,,,,,,,,,,,,62a12aee913c1c1a20613418,13:37:05,06/03/2024
1840.0,,,ospan,symmetry,h9YUrYLpX0VkQVcbQvgpAhO1L0H3,symmetry-judgement-task,73,564621,0.0-43.0-1.0-1.0-4.0,,,,,,,,,,1.0,1.0,,,,62a12aee913c1c1a20613418,13:37:05,06/03/2024
,"<p style=""color:green; font-size: 35px"">Correct</p>",,ospan,feedback,h9YUrYLpX0VkQVcbQvgpAhO1L0H3,html-keyboard-response,74,565372,0.0-43.0-1.0-1.0-5.0,,,,,,,,,,,,,,,62a12aee913c1c1a20613418,13:37:05,06/03/2024
1704.0,"<p style=""font-size: 3rem;"">You responded correctly on 3 of 3 symmetry judgments. Good job!</p><br><br>",0,ospan,practice,h9YUrYLpX0VkQVcbQvgpAhO1L0H3,html-button-response,75,569092,0.0-43.0-1.0-2.0,,,,,,,,,,,,,,,62a12aee913c1c1a20613418,13:37:05,06/03/2024
6383.0,"<div class = 'left_align' style='font-size: 3.25rem; line-height: 1.3;'>Now you will practice doing both parts of the experiment at the same time.<br><br>In the next practice set, you will be given one grid picture to judge.<br>Then letter will appear on the screen. Try to remember the letter.<br><br>It is <b>very important</b> to make the symmetry judgment as quickly and accurately as possible.<br><br>Just as before, once you have make the symmetry judgment, you can click Yes or No.<br><b>Note that you will no longer see Correct or Incorrect feedback.</div><br><br><br><br>",0,ospan,instruct,h9YUrYLpX0VkQVcbQvgpAhO1L0H3,html-button-response,76,575741,0.0-43.0-2.0-0.0-0.0,,,,,,,,,,,,,,,62a12aee913c1c1a20613418,13:37:05,06/03/2024
5162.0,"<div class = 'left_align' style='font-size: 3.25rem; line-height: 1.3;'>After the letter goes away, another grid picture will appear, and then<br>another letter.<br><br>At the end of each set of letters and grids, you will recall the letters to the best<br>of your ability. Remember, try your best to get the letters in the correct order.<br><br>It is important to <b>quickly</b> and <b>accurately</b> make the symmetry judgments.</div><br><br><br><br>",0,ospan,instruct,h9YUrYLpX0VkQVcbQvgpAhO1L0H3,html-button-response,77,581157,0.0-43.0-2.0-0.0-1.0,,,,,,,,,,,,,,,62a12aee913c1c1a20613418,13:37:05,06/03/2024
6091.0,"<div class = 'left_align' style='font-size: 3.25rem; line-height: 1.3;'>On the feedback screen, if you are not doing well at the symmetry judgments,<br>you will also see a warning in the middle. This indicates your percent <br>correct for the grid pictures for the entire experiment.<br><br>It is <b>very</b> important for you to keep accuracy at least at 85%: <u>We can only use<br>data where the participant was at least 85% accurate on the judgments.</u> Therefore,<br> please try your best to perform well on the symmetry judgments, <b>at the same time</b><br>doing your best to recall as many letters as possible.<br><br>Click the button to try some practice problems.</div><br><br><br><br>",0,ospan,instruct,h9YUrYLpX0VkQVcbQvgpAhO1L0H3,html-button-response,78,587501,0.0-43.0-2.0-0.0-2.0,,,,,,,,,,,,,,,62a12aee913c1c1a20613418,13:37:05,06/03/2024
,"<p style=""font-size:75px;"">...</p>",,ospan,iti,h9YUrYLpX0VkQVcbQvgpAhO1L0H3,html-keyboard-response,79,588777,0.0-43.0-2.0-1.0-0.0,,,,,,,,,,,,,,,62a12aee913c1c1a20613418,13:37:05,06/03/2024
1694.0,,,ospan,symmetry,h9YUrYLpX0VkQVcbQvgpAhO1L0H3,symmetry-judgement-task,80,591781,0.0-43.0-2.0-1.0-1.0-0.0,,,,,,,,,,1.0,1.0,,,,62a12aee913c1c1a20613418,13:37:05,06/03/2024
,"<div style=""font-size: 10rem; color: #0000FF"">N</div>",,ospan,letter,h9YUrYLpX0VkQVcbQvgpAhO1L0H3,html-keyboard-response,81,592796,0.0-43.0-2.0-1.0-1.0-1.0,,,,,,,,,,,,,,,62a12aee913c1c1a20613418,13:37:05,06/03/2024
2455.0,,,ospan,symmetry,h9YUrYLpX0VkQVcbQvgpAhO1L0H3,symmetry-judgement-task,82,597301,0.0-43.0-2.0-1.0-1.0-2.0,,,,,,,,,,1.0,1.0,,,,62a12aee913c1c1a20613418,13:37:05,06/03/2024
,"<div style=""font-size: 10rem; color: #0000FF"">L</div>",,ospan,letter,h9YUrYLpX0VkQVcbQvgpAhO1L0H3,html-keyboard-response,83,598308,0.0-43.0-2.0-1.0-1.0-3.0,,,,,,,,,,,,,,,62a12aee913c1c1a20613418,13:37:05,06/03/2024
1874.0,,,ospan,symmetry,h9YUrYLpX0VkQVcbQvgpAhO1L0H3,symmetry-judgement-task,84,602246,0.0-43.0-2.0-1.0-1.0-4.0,,,,,,,,,,1.0,1.0,,,,62a12aee913c1c1a20613418,13:37:05,06/03/2024
,"<div style=""font-size: 10rem; color: #0000FF"">P</div>",,ospan,letter,h9YUrYLpX0VkQVcbQvgpAhO1L0H3,html-keyboard-response,85,603254,0.0-43.0-2.0-1.0-1.0-5.0,,,,,,,,,,,,,,,62a12aee913c1c1a20613418,13:37:05,06/03/2024
4270.0,"<div class = numbox><p style=""font-size: 2.4rem"">Please recall the letters you saw to the best of your ability. If you do not remember a particular letter, use the SKIP button.<br><b>(When you are ready to lock in your answer, press ENTER)</b></p><button id = button_1 class = ""square num-button"" onclick = ""recordClick(this)""><div class = content><div class = numbers>C</div></div></button><button id = button_2 class = ""square num-button"" onclick = ""recordClick(this)""><div class = content><div class = numbers>G</div></div></button><button id = button_3 class = ""square num-button"" onclick = ""recordClick(this)""><div class = content><div class = numbers>H</div></div></button><button id = button_4 class = ""square num-button"" onclick = ""recordClick(this)""><div class = content><div class = numbers>J</div></div></button><button id = button_5 class = ""square num-button"" onclick = ""recordClick(this)""><div class = content><div class = numbers>K</div></div></button><button id = button_6 class = ""square num-button"" onclick = ""recordClick(this)""><div class = content><div class = numbers>L</div></div></button><button id = button_7 class = ""square num-button"" onclick = ""recordClick(this)""><div class = content><div class = numbers>N</div></div></button><button id = button_8 class = ""square num-button"" onclick = ""recordClick(this)""><div class = content><div class = numbers>P</div></div></button><button id = button_9 class = ""square num-button"" onclick = ""recordClick(this)""><div class = content><div class = numbers>Q</div></div></button><button id = button_10 class = ""square num-button"" onclick = ""recordClick(this)""><div class = content><div class = numbers>R</div></div></button><button id = button_11 class = ""square num-button"" onclick = ""recordClick(this)""><div class = content><div class = numbers>S</div></div></button><button id = button_12 class = ""square num-button"" onclick = ""recordClick(this)""><div class = content><div class = numbers>Y</div></div></button><button class = clear_button id = ""ClearButton"" onclick = ""clearResponse()"">BACKSPACE</button><button class = blank_button id = ""BlankButton"" onclick = ""blankResponse()"">SKIP</button><p style=""font-size: 2.4rem""><u><b>Current Answer:</b></u></p><br><br><div id=echoed_txt style=""font-size: 5rem; color:blue;""><b></b></div></div>",enter,ospan,retrieval,h9YUrYLpX0VkQVcbQvgpAhO1L0H3,html-keyboard-response,86,608278,0.0-43.0-2.0-1.0-2.0-0.0,NA,NA,NA,3.0,"[""N"",""L"",""P""]","[""N"",""L"",""P""]",1.0,3.0,"['<font color=""green"">N</font>', '<font color=""green"">L</font>', '<font color=""green"">P</font>']",,,,,,62a12aee913c1c1a20613418,13:37:05,06/03/2024
1312.0,"['<p style=""font-size:44px"">Letters:<br><br><br><font color=""green"">N</font> <font color=""green"">L</font> <font color=""green"">P</font></p><br><br><p style=""font-size:30px"">Symmetry:<br><br><font color=""green"">100%</font></p><br><br>']",0,ospan,practice_feedback,h9YUrYLpX0VkQVcbQvgpAhO1L0H3,html-button-response,87,610100,0.0-43.0-2.0-1.0-2.0-1.0,,,,,,,,,,,,,,,62a12aee913c1c1a20613418,13:37:05,06/03/2024
,"<p style=""font-size:75px;"">...</p>",,ospan,iti,h9YUrYLpX0VkQVcbQvgpAhO1L0H3,html-keyboard-response,88,611117,0.0-43.0-2.0-2.0-0.0,,,,,,,,,,,,,,,62a12aee913c1c1a20613418,13:37:05,06/03/2024
1396.0,,,ospan,symmetry,h9YUrYLpX0VkQVcbQvgpAhO1L0H3,symmetry-judgement-task,89,613824,0.0-43.0-2.0-2.0-1.0-0.0,,,,,,,,,,1.0,1.0,,,,62a12aee913c1c1a20613418,13:37:05,06/03/2024
,"<div style=""font-size: 10rem; color: #0000FF"">R</div>",,ospan,letter,h9YUrYLpX0VkQVcbQvgpAhO1L0H3,html-keyboard-response,90,614835,0.0-43.0-2.0-2.0-1.0-1.0,,,,,,,,,,,,,,,62a12aee913c1c1a20613418,13:37:05,06/03/2024
1577.0,,,ospan,symmetry,h9YUrYLpX0VkQVcbQvgpAhO1L0H3,symmetry-judgement-task,91,618479,0.0-43.0-2.0-2.0-1.0-2.0,,,,,,,,,,1.0,1.0,,,,62a12aee913c1c1a20613418,13:37:05,06/03/2024
,"<div style=""font-size: 10rem; color: #0000FF"">Q</div>",,ospan,letter,h9YUrYLpX0VkQVcbQvgpAhO1L0H3,html-keyboard-response,92,619495,0.0-43.0-2.0-2.0-1.0-3.0,,,,,,,,,,,,,,,62a12aee913c1c1a20613418,13:37:05,06/03/2024
1304.0,,,ospan,symmetry,h9YUrYLpX0VkQVcbQvgpAhO1L0H3,symmetry-judgement-task,93,622893,0.0-43.0-2.0-2.0-1.0-4.0,,,,,,,,,,1.0,1.0,,,,62a12aee913c1c1a20613418,13:37:05,06/03/2024
,"<div style=""font-size: 10rem; color: #0000FF"">S</div>",,ospan,letter,h9YUrYLpX0VkQVcbQvgpAhO1L0H3,html-keyboard-response,94,623910,0.0-43.0-2.0-2.0-1.0-5.0,,,,,,,,,,,,,,,62a12aee913c1c1a20613418,13:37:05,06/03/2024
4436.0,"<div class = numbox><p style=""font-size: 2.4rem"">Please recall the letters you saw to the best of your ability. If you do not remember a particular letter, use the SKIP button.<br><b>(When you are ready to lock in your answer, press ENTER)</b></p><button id = button_1 class = ""square num-button"" onclick = ""recordClick(this)""><div class = content><div class = numbers>C</div></div></button><button id = button_2 class = ""square num-button"" onclick = ""recordClick(this)""><div class = content><div class = numbers>G</div></div></button><button id = button_3 class = ""square num-button"" onclick = ""recordClick(this)""><div class = content><div class = numbers>H</div></div></button><button id = button_4 class = ""square num-button"" onclick = ""recordClick(this)""><div class = content><div class = numbers>J</div></div></button><button id = button_5 class = ""square num-button"" onclick = ""recordClick(this)""><div class = content><div class = numbers>K</div></div></button><button id = button_6 class = ""square num-button"" onclick = ""recordClick(this)""><div class = content><div class = numbers>L</div></div></button><button id = button_7 class = ""square num-button"" onclick = ""recordClick(this)""><div class = content><div class = numbers>N</div></div></button><button id = button_8 class = ""square num-button"" onclick = ""recordClick(this)""><div class = content><div class = numbers>P</div></div></button><button id = button_9 class = ""square num-button"" onclick = ""recordClick(this)""><div class = content><div class = numbers>Q</div></div></button><button id = button_10 class = ""square num-button"" onclick = ""recordClick(this)""><div class = content><div class = numbers>R</div></div></button><button id = button_11 class = ""square num-button"" onclick = ""recordClick(this)""><div class = content><div class = numbers>S</div></div></button><button id = button_12 class = ""square num-button"" onclick = ""recordClick(this)""><div class = content><div class = numbers>Y</div></div></button><button class = clear_button id = ""ClearButton"" onclick = ""clearResponse()"">BACKSPACE</button><button class = blank_button id = ""BlankButton"" onclick = ""blankResponse()"">SKIP</button><p style=""font-size: 2.4rem""><u><b>Current Answer:</b></u></p><br><br><div id=echoed_txt style=""font-size: 5rem; color:blue;""><b></b></div></div>",enter,ospan,retrieval,h9YUrYLpX0VkQVcbQvgpAhO1L0H3,html-keyboard-response,95,629098,0.0-43.0-2.0-2.0-2.0-0.0,NA,NA,NA,3.0,"[""R"",""Q"",""S""]","[""R"",""Q"",""S""]",1.0,3.0,"['<font color=""green"">R</font>', '<font color=""green"">Q</font>', '<font color=""green"">S</font>']",,,,,,62a12aee913c1c1a20613418,13:37:05,06/03/2024
873.0,"['<p style=""font-size:44px"">Letters:<br><br><br><font color=""green"">R</font> <font color=""green"">Q</font> <font color=""green"">S</font></p><br><br><p style=""font-size:30px"">Symmetry:<br><br><font color=""green"">100%</font></p><br><br>']",0,ospan,practice_feedback,h9YUrYLpX0VkQVcbQvgpAhO1L0H3,html-button-response,96,630474,0.0-43.0-2.0-2.0-2.0-1.0,,,,,,,,,,,,,,,62a12aee913c1c1a20613418,13:37:05,06/03/2024
11702.0,"<div class = 'left_align' style='font-size: 3rem; line-height: 1.3;'><b>Great work! That is the end of practice.</b><br><br>The real trials will look just like the practice trials you just completed.<br><br><u>Here, you will not see feedback</u>. First, you will see an grid picture to judge,<br>then a letter to remember. When the recall screen appears, report the letters in the<br>order presented. If you forget a letter, remember to use the <b>blank</b> button to move to the<br>next letter. Some of the sets will have more symmetry grids and letters than others.<br><br>It is important that you do your best on both the symmetry judgments and the letter recall<br>parts of the experiment. For for the symmetry judgments, try to work as <b>quickly</b> and <br>as <b>accurately</b> as possible. Remember to keep your symmetry accuracy at 85% or above.<br><br><b>For the letters, do NOT use any external aid (e.g., writing on paper, electronic device).</b><br><br>It is <u>very important</u> to our experiment to have a <b>true</b> view of your real performance.<br><br>Do not worry if you miss some when it gets hard! This task is meant to be very challenging!<br><br>Click the button to begin.</div><br><br><br><br>",0,ospan,starting_real_here,h9YUrYLpX0VkQVcbQvgpAhO1L0H3,html-button-response,97,642178,0.0-43.0-2.0-3.0,,,,,,,,,,,,,,,62a12aee913c1c1a20613418,13:37:05,06/03/2024
,"<p style=""font-size:75px;"">...</p>",,ospan,iti,h9YUrYLpX0VkQVcbQvgpAhO1L0H3,html-keyboard-response,98,643441,0.0-43.0-3.0-0.0-0.0,,,,,,,,,,,,,,,62a12aee913c1c1a20613418,13:37:05,06/03/2024
1675.0,,,ospan,symmetry,h9YUrYLpX0VkQVcbQvgpAhO1L0H3,symmetry-judgement-task,99,646460,0.0-43.0-3.0-0.0-1.0-0.0,,,,,,,,,,1.0,1.0,,,,62a12aee913c1c1a20613418,13:37:05,06/03/2024
,"<div style=""font-size: 10rem; color: #0000FF"">C</div>",,ospan,letter,h9YUrYLpX0VkQVcbQvgpAhO1L0H3,html-keyboard-response,100,647462,0.0-43.0-3.0-0.0-1.0-1.0,,,,,,,,,,,,,,,62a12aee913c1c1a20613418,13:37:05,06/03/2024
1209.0,,,ospan,symmetry,h9YUrYLpX0VkQVcbQvgpAhO1L0H3,symmetry-judgement-task,101,650756,0.0-43.0-3.0-0.0-1.0-2.0,,,,,,,,,,1.0,1.0,,,,62a12aee913c1c1a20613418,13:37:05,06/03/2024
,"<div style=""font-size: 10rem; color: #0000FF"">P</div>",,ospan,letter,h9YUrYLpX0VkQVcbQvgpAhO1L0H3,html-keyboard-response,102,651760,0.0-43.0-3.0-0.0-1.0-3.0,,,,,,,,,,,,,,,62a12aee913c1c1a20613418,13:37:05,06/03/2024
1595.0,,,ospan,symmetry,h9YUrYLpX0VkQVcbQvgpAhO1L0H3,symmetry-judgement-task,103,655418,0.0-43.0-3.0-0.0-1.0-4.0,,,,,,,,,,1.0,1.0,,,,62a12aee913c1c1a20613418,13:37:05,06/03/2024
,"<div style=""font-size: 10rem; color: #0000FF"">J</div>",,ospan,letter,h9YUrYLpX0VkQVcbQvgpAhO1L0H3,html-keyboard-response,104,656426,0.0-43.0-3.0-0.0-1.0-5.0,,,,,,,,,,,,,,,62a12aee913c1c1a20613418,13:37:05,06/03/2024
4201.0,"<div class = numbox><p style=""font-size: 2.4rem"">Please recall the letters you saw to the best of your ability. If you do not remember a particular letter, use the SKIP button.<br><b>(When you are ready to lock in your answer, press ENTER)</b></p><button id = button_1 class = ""square num-button"" onclick = ""recordClick(this)""><div class = content><div class = numbers>C</div></div></button><button id = button_2 class = ""square num-button"" onclick = ""recordClick(this)""><div class = content><div class = numbers>G</div></div></button><button id = button_3 class = ""square num-button"" onclick = ""recordClick(this)""><div class = content><div class = numbers>H</div></div></button><button id = button_4 class = ""square num-button"" onclick = ""recordClick(this)""><div class = content><div class = numbers>J</div></div></button><button id = button_5 class = ""square num-button"" onclick = ""recordClick(this)""><div class = content><div class = numbers>K</div></div></button><button id = button_6 class = ""square num-button"" onclick = ""recordClick(this)""><div class = content><div class = numbers>L</div></div></button><button id = button_7 class = ""square num-button"" onclick = ""recordClick(this)""><div class = content><div class = numbers>N</div></div></button><button id = button_8 class = ""square num-button"" onclick = ""recordClick(this)""><div class = content><div class = numbers>P</div></div></button><button id = button_9 class = ""square num-button"" onclick = ""recordClick(this)""><div class = content><div class = numbers>Q</div></div></button><button id = button_10 class = ""square num-button"" onclick = ""recordClick(this)""><div class = content><div class = numbers>R</div></div></button><button id = button_11 class = ""square num-button"" onclick = ""recordClick(this)""><div class = content><div class = numbers>S</div></div></button><button id = button_12 class = ""square num-button"" onclick = ""recordClick(this)""><div class = content><div class = numbers>Y</div></div></button><button class = clear_button id = ""ClearButton"" onclick = ""clearResponse()"">BACKSPACE</button><button class = blank_button id = ""BlankButton"" onclick = ""blankResponse()"">SKIP</button><p style=""font-size: 2.4rem""><u><b>Current Answer:</b></u></p><br><br><div id=echoed_txt style=""font-size: 5rem; color:blue;""><b></b></div></div>",enter,ospan,retrieval,h9YUrYLpX0VkQVcbQvgpAhO1L0H3,html-keyboard-response,105,661379,0.0-43.0-3.0-0.0-2.0,3,3,3,3.0,"[""C"",""P"",""J""]","[""C"",""P"",""J""]",1.0,3.0,,,,,,,62a12aee913c1c1a20613418,13:37:05,06/03/2024
1485.0,[''],0,ospan,feedback,h9YUrYLpX0VkQVcbQvgpAhO1L0H3,html-button-response,106,663380,0.0-43.0-3.0-0.0-3.0,,,,,,,,,,,,100.0,0.0,,62a12aee913c1c1a20613418,13:37:05,06/03/2024
,"<p style=""font-size:75px;"">...</p>",,ospan,iti,h9YUrYLpX0VkQVcbQvgpAhO1L0H3,html-keyboard-response,107,664393,0.0-43.0-4.0-0.0-0.0,,,,,,,,,,,,,,,62a12aee913c1c1a20613418,13:37:05,06/03/2024
2060.0,,,ospan,symmetry,h9YUrYLpX0VkQVcbQvgpAhO1L0H3,symmetry-judgement-task,108,667512,0.0-43.0-4.0-0.0-1.0-0.0,,,,,,,,,,1.0,1.0,,,,62a12aee913c1c1a20613418,13:37:05,06/03/2024
,"<div style=""font-size: 10rem; color: #0000FF"">Q</div>",,ospan,letter,h9YUrYLpX0VkQVcbQvgpAhO1L0H3,html-keyboard-response,109,668520,0.0-43.0-4.0-0.0-1.0-1.0,,,,,,,,,,,,,,,62a12aee913c1c1a20613418,13:37:05,06/03/2024
1265.0,,,ospan,symmetry,h9YUrYLpX0VkQVcbQvgpAhO1L0H3,symmetry-judgement-task,110,671820,0.0-43.0-4.0-0.0-1.0-2.0,,,,,,,,,,1.0,1.0,,,,62a12aee913c1c1a20613418,13:37:05,06/03/2024
,"<div style=""font-size: 10rem; color: #0000FF"">H</div>",,ospan,letter,h9YUrYLpX0VkQVcbQvgpAhO1L0H3,html-keyboard-response,111,672822,0.0-43.0-4.0-0.0-1.0-3.0,,,,,,,,,,,,,,,62a12aee913c1c1a20613418,13:37:05,06/03/2024
1453.0,,,ospan,symmetry,h9YUrYLpX0VkQVcbQvgpAhO1L0H3,symmetry-judgement-task,112,676325,0.0-43.0-4.0-0.0-1.0-4.0,,,,,,,,,,1.0,1.0,,,,62a12aee913c1c1a20613418,13:37:05,06/03/2024
,"<div style=""font-size: 10rem; color: #0000FF"">K</div>",,ospan,letter,h9YUrYLpX0VkQVcbQvgpAhO1L0H3,html-keyboard-response,113,677337,0.0-43.0-4.0-0.0-1.0-5.0,,,,,,,,,,,,,,,62a12aee913c1c1a20613418,13:37:05,06/03/2024
1663.0,,,ospan,symmetry,h9YUrYLpX0VkQVcbQvgpAhO1L0H3,symmetry-judgement-task,114,681080,0.0-43.0-4.0-0.0-1.0-6.0,,,,,,,,,,1.0,1.0,,,,62a12aee913c1c1a20613418,13:37:05,06/03/2024
,"<div style=""font-size: 10rem; color: #0000FF"">G</div>",,ospan,letter,h9YUrYLpX0VkQVcbQvgpAhO1L0H3,html-keyboard-response,115,682090,0.0-43.0-4.0-0.0-1.0-7.0,,,,,,,,,,,,,,,62a12aee913c1c1a20613418,13:37:05,06/03/2024
6419.0,"<div class = numbox><p style=""font-size: 2.4rem"">Please recall the letters you saw to the best of your ability. If you do not remember a particular letter, use the SKIP button.<br><b>(When you are ready to lock in your answer, press ENTER)</b></p><button id = button_1 class = ""square num-button"" onclick = ""recordClick(this)""><div class = content><div class = numbers>C</div></div></button><button id = button_2 class = ""square num-button"" onclick = ""recordClick(this)""><div class = content><div class = numbers>G</div></div></button><button id = button_3 class = ""square num-button"" onclick = ""recordClick(this)""><div class = content><div class = numbers>H</div></div></button><button id = button_4 class = ""square num-button"" onclick = ""recordClick(this)""><div class = content><div class = numbers>J</div></div></button><button id = button_5 class = ""square num-button"" onclick = ""recordClick(this)""><div class = content><div class = numbers>K</div></div></button><button id = button_6 class = ""square num-button"" onclick = ""recordClick(this)""><div class = content><div class = numbers>L</div></div></button><button id = button_7 class = ""square num-button"" onclick = ""recordClick(this)""><div class = content><div class = numbers>N</div></div></button><button id = button_8 class = ""square num-button"" onclick = ""recordClick(this)""><div class = content><div class = numbers>P</div></div></button><button id = button_9 class = ""square num-button"" onclick = ""recordClick(this)""><div class = content><div class = numbers>Q</div></div></button><button id = button_10 class = ""square num-button"" onclick = ""recordClick(this)""><div class = content><div class = numbers>R</div></div></button><button id = button_11 class = ""square num-button"" onclick = ""recordClick(this)""><div class = content><div class = numbers>S</div></div></button><button id = button_12 class = ""square num-button"" onclick = ""recordClick(this)""><div class = content><div class = numbers>Y</div></div></button><button class = clear_button id = ""ClearButton"" onclick = ""clearResponse()"">BACKSPACE</button><button class = blank_button id = ""BlankButton"" onclick = ""blankResponse()"">SKIP</button><p style=""font-size: 2.4rem""><u><b>Current Answer:</b></u></p><br><br><div id=echoed_txt style=""font-size: 5rem; color:blue;""><b></b></div></div>",enter,ospan,retrieval,h9YUrYLpX0VkQVcbQvgpAhO1L0H3,html-keyboard-response,116,689276,0.0-43.0-4.0-0.0-2.0,7,7,7,4.0,"[""Q"",""H"",""K"",""G""]","[""Q"",""H"",""K"",""G""]",1.0,4.0,,,,,,,62a12aee913c1c1a20613418,13:37:05,06/03/2024
1039.0,[''],0,ospan,feedback,h9YUrYLpX0VkQVcbQvgpAhO1L0H3,html-button-response,117,690824,0.0-43.0-4.0-0.0-3.0,,,,,,,,,,,,100.0,0.0,,62a12aee913c1c1a20613418,13:37:05,06/03/2024
,"<p style=""font-size:75px;"">...</p>",,ospan,iti,h9YUrYLpX0VkQVcbQvgpAhO1L0H3,html-keyboard-response,118,691839,0.0-43.0-4.0-1.0-0.0,,,,,,,,,,,,,,,62a12aee913c1c1a20613418,13:37:05,06/03/2024
1428.0,,,ospan,symmetry,h9YUrYLpX0VkQVcbQvgpAhO1L0H3,symmetry-judgement-task,119,694573,0.0-43.0-4.0-1.0-1.0-0.0,,,,,,,,,,1.0,1.0,,,,62a12aee913c1c1a20613418,13:37:05,06/03/2024
,"<div style=""font-size: 10rem; color: #0000FF"">S</div>",,ospan,letter,h9YUrYLpX0VkQVcbQvgpAhO1L0H3,html-keyboard-response,120,695578,0.0-43.0-4.0-1.0-1.0-1.0,,,,,,,,,,,,,,,62a12aee913c1c1a20613418,13:37:05,06/03/2024
1646.0,,,ospan,symmetry,h9YUrYLpX0VkQVcbQvgpAhO1L0H3,symmetry-judgement-task,121,699277,0.0-43.0-4.0-1.0-1.0-2.0,,,,,,,,,,1.0,1.0,,,,62a12aee913c1c1a20613418,13:37:05,06/03/2024
,"<div style=""font-size: 10rem; color: #0000FF"">J</div>",,ospan,letter,h9YUrYLpX0VkQVcbQvgpAhO1L0H3,html-keyboard-response,122,700294,0.0-43.0-4.0-1.0-1.0-3.0,,,,,,,,,,,,,,,62a12aee913c1c1a20613418,13:37:05,06/03/2024
1415.0,,,ospan,symmetry,h9YUrYLpX0VkQVcbQvgpAhO1L0H3,symmetry-judgement-task,123,703796,0.0-43.0-4.0-1.0-1.0-4.0,,,,,,,,,,1.0,1.0,,,,62a12aee913c1c1a20613418,13:37:05,06/03/2024
,"<div style=""font-size: 10rem; color: #0000FF"">G</div>",,ospan,letter,h9YUrYLpX0VkQVcbQvgpAhO1L0H3,html-keyboard-response,124,704813,0.0-43.0-4.0-1.0-1.0-5.0,,,,,,,,,,,,,,,62a12aee913c1c1a20613418,13:37:05,06/03/2024
1401.0,,,ospan,symmetry,h9YUrYLpX0VkQVcbQvgpAhO1L0H3,symmetry-judgement-task,125,708302,0.0-43.0-4.0-1.0-1.0-6.0,,,,,,,,,,1.0,1.0,,,,62a12aee913c1c1a20613418,13:37:05,06/03/2024
,"<div style=""font-size: 10rem; color: #0000FF"">H</div>",,ospan,letter,h9YUrYLpX0VkQVcbQvgpAhO1L0H3,html-keyboard-response,126,709307,0.0-43.0-4.0-1.0-1.0-7.0,,,,,,,,,,,,,,,62a12aee913c1c1a20613418,13:37:05,06/03/2024
1573.0,,,ospan,symmetry,h9YUrYLpX0VkQVcbQvgpAhO1L0H3,symmetry-judgement-task,127,712958,0.0-43.0-4.0-1.0-1.0-8.0,,,,,,,,,,1.0,1.0,,,,62a12aee913c1c1a20613418,13:37:05,06/03/2024
,"<div style=""font-size: 10rem; color: #0000FF"">Y</div>",,ospan,letter,h9YUrYLpX0VkQVcbQvgpAhO1L0H3,html-keyboard-response,128,713965,0.0-43.0-4.0-1.0-1.0-9.0,,,,,,,,,,,,,,,62a12aee913c1c1a20613418,13:37:05,06/03/2024
8977.0,"<div class = numbox><p style=""font-size: 2.4rem"">Please recall the letters you saw to the best of your ability. If you do not remember a particular letter, use the SKIP button.<br><b>(When you are ready to lock in your answer, press ENTER)</b></p><button id = button_1 class = ""square num-button"" onclick = ""recordClick(this)""><div class = content><div class = numbers>C</div></div></button><button id = button_2 class = ""square num-button"" onclick = ""recordClick(this)""><div class = content><div class = numbers>G</div></div></button><button id = button_3 class = ""square num-button"" onclick = ""recordClick(this)""><div class = content><div class = numbers>H</div></div></button><button id = button_4 class = ""square num-button"" onclick = ""recordClick(this)""><div class = content><div class = numbers>J</div></div></button><button id = button_5 class = ""square num-button"" onclick = ""recordClick(this)""><div class = content><div class = numbers>K</div></div></button><button id = button_6 class = ""square num-button"" onclick = ""recordClick(this)""><div class = content><div class = numbers>L</div></div></button><button id = button_7 class = ""square num-button"" onclick = ""recordClick(this)""><div class = content><div class = numbers>N</div></div></button><button id = button_8 class = ""square num-button"" onclick = ""recordClick(this)""><div class = content><div class = numbers>P</div></div></button><button id = button_9 class = ""square num-button"" onclick = ""recordClick(this)""><div class = content><div class = numbers>Q</div></div></button><button id = button_10 class = ""square num-button"" onclick = ""recordClick(this)""><div class = content><div class = numbers>R</div></div></button><button id = button_11 class = ""square num-button"" onclick = ""recordClick(this)""><div class = content><div class = numbers>S</div></div></button><button id = button_12 class = ""square num-button"" onclick = ""recordClick(this)""><div class = content><div class = numbers>Y</div></div></button><button class = clear_button id = ""ClearButton"" onclick = ""clearResponse()"">BACKSPACE</button><button class = blank_button id = ""BlankButton"" onclick = ""blankResponse()"">SKIP</button><p style=""font-size: 2.4rem""><u><b>Current Answer:</b></u></p><br><br><div id=echoed_txt style=""font-size: 5rem; color:blue;""><b></b></div></div>",enter,ospan,retrieval,h9YUrYLpX0VkQVcbQvgpAhO1L0H3,html-keyboard-response,129,723696,0.0-43.0-4.0-1.0-2.0,12,12,12,5.0,"[""S"",""J"",""G"",""H"",""Y""]","[""S"",""J"",""G"",""H"",""Y""]",1.0,5.0,,,,,,,62a12aee913c1c1a20613418,13:37:05,06/03/2024
861.0,[''],0,ospan,feedback,h9YUrYLpX0VkQVcbQvgpAhO1L0H3,html-button-response,130,725068,0.0-43.0-4.0-1.0-3.0,,,,,,,,,,,,100.0,0.0,,62a12aee913c1c1a20613418,13:37:05,06/03/2024
,"<p style=""font-size:75px;"">...</p>",,ospan,iti,h9YUrYLpX0VkQVcbQvgpAhO1L0H3,html-keyboard-response,131,726072,0.0-43.0-4.0-2.0-0.0,,,,,,,,,,,,,,,62a12aee913c1c1a20613418,13:37:05,06/03/2024
1738.0,,,ospan,symmetry,h9YUrYLpX0VkQVcbQvgpAhO1L0H3,symmetry-judgement-task,132,728870,0.0-43.0-4.0-2.0-1.0-0.0,,,,,,,,,,1.0,1.0,,,,62a12aee913c1c1a20613418,13:37:05,06/03/2024
,"<div style=""font-size: 10rem; color: #0000FF"">K</div>",,ospan,letter,h9YUrYLpX0VkQVcbQvgpAhO1L0H3,html-keyboard-response,133,729886,0.0-43.0-4.0-2.0-1.0-1.0,,,,,,,,,,,,,,,62a12aee913c1c1a20613418,13:37:05,06/03/2024
1192.0,,,ospan,symmetry,h9YUrYLpX0VkQVcbQvgpAhO1L0H3,symmetry-judgement-task,134,733138,0.0-43.0-4.0-2.0-1.0-2.0,,,,,,,,,,1.0,1.0,,,,62a12aee913c1c1a20613418,13:37:05,06/03/2024
,"<div style=""font-size: 10rem; color: #0000FF"">S</div>",,ospan,letter,h9YUrYLpX0VkQVcbQvgpAhO1L0H3,html-keyboard-response,135,734148,0.0-43.0-4.0-2.0-1.0-3.0,,,,,,,,,,,,,,,62a12aee913c1c1a20613418,13:37:05,06/03/2024
1175.0,,,ospan,symmetry,h9YUrYLpX0VkQVcbQvgpAhO1L0H3,symmetry-judgement-task,136,737409,0.0-43.0-4.0-2.0-1.0-4.0,,,,,,,,,,1.0,1.0,,,,62a12aee913c1c1a20613418,13:37:05,06/03/2024
,"<div style=""font-size: 10rem; color: #0000FF"">L</div>",,ospan,letter,h9YUrYLpX0VkQVcbQvgpAhO1L0H3,html-keyboard-response,137,738415,0.0-43.0-4.0-2.0-1.0-5.0,,,,,,,,,,,,,,,62a12aee913c1c1a20613418,13:37:05,06/03/2024
4304.0,"<div class = numbox><p style=""font-size: 2.4rem"">Please recall the letters you saw to the best of your ability. If you do not remember a particular letter, use the SKIP button.<br><b>(When you are ready to lock in your answer, press ENTER)</b></p><button id = button_1 class = ""square num-button"" onclick = ""recordClick(this)""><div class = content><div class = numbers>C</div></div></button><button id = button_2 class = ""square num-button"" onclick = ""recordClick(this)""><div class = content><div class = numbers>G</div></div></button><button id = button_3 class = ""square num-button"" onclick = ""recordClick(this)""><div class = content><div class = numbers>H</div></div></button><button id = button_4 class = ""square num-button"" onclick = ""recordClick(this)""><div class = content><div class = numbers>J</div></div></button><button id = button_5 class = ""square num-button"" onclick = ""recordClick(this)""><div class = content><div class = numbers>K</div></div></button><button id = button_6 class = ""square num-button"" onclick = ""recordClick(this)""><div class = content><div class = numbers>L</div></div></button><button id = button_7 class = ""square num-button"" onclick = ""recordClick(this)""><div class = content><div class = numbers>N</div></div></button><button id = button_8 class = ""square num-button"" onclick = ""recordClick(this)""><div class = content><div class = numbers>P</div></div></button><button id = button_9 class = ""square num-button"" onclick = ""recordClick(this)""><div class = content><div class = numbers>Q</div></div></button><button id = button_10 class = ""square num-button"" onclick = ""recordClick(this)""><div class = content><div class = numbers>R</div></div></button><button id = button_11 class = ""square num-button"" onclick = ""recordClick(this)""><div class = content><div class = numbers>S</div></div></button><button id = button_12 class = ""square num-button"" onclick = ""recordClick(this)""><div class = content><div class = numbers>Y</div></div></button><button class = clear_button id = ""ClearButton"" onclick = ""clearResponse()"">BACKSPACE</button><button class = blank_button id = ""BlankButton"" onclick = ""blankResponse()"">SKIP</button><p style=""font-size: 2.4rem""><u><b>Current Answer:</b></u></p><br><br><div id=echoed_txt style=""font-size: 5rem; color:blue;""><b></b></div></div>",enter,ospan,retrieval,h9YUrYLpX0VkQVcbQvgpAhO1L0H3,html-keyboard-response,138,743473,0.0-43.0-4.0-2.0-2.0,15,15,15,3.0,"[""K"",""S"",""L""]","[""K"",""S"",""L""]",1.0,3.0,,,,,,,62a12aee913c1c1a20613418,13:37:05,06/03/2024
1196.0,[''],0,ospan,feedback,h9YUrYLpX0VkQVcbQvgpAhO1L0H3,html-button-response,139,745177,0.0-43.0-4.0-2.0-3.0,,,,,,,,,,,,100.0,0.0,,62a12aee913c1c1a20613418,13:37:05,06/03/2024
,"<p style=""font-size:75px;"">...</p>",,ospan,iti,h9YUrYLpX0VkQVcbQvgpAhO1L0H3,html-keyboard-response,140,746193,0.0-43.0-5.0-0.0-0.0,,,,,,,,,,,,,,,62a12aee913c1c1a20613418,13:37:05,06/03/2024
1148.0,,,ospan,symmetry,h9YUrYLpX0VkQVcbQvgpAhO1L0H3,symmetry-judgement-task,141,748665,0.0-43.0-5.0-0.0-1.0-0.0,,,,,,,,,,1.0,1.0,,,,62a12aee913c1c1a20613418,13:37:05,06/03/2024
,"<div style=""font-size: 10rem; color: #0000FF"">Y</div>",,ospan,letter,h9YUrYLpX0VkQVcbQvgpAhO1L0H3,html-keyboard-response,142,749674,0.0-43.0-5.0-0.0-1.0-1.0,,,,,,,,,,,,,,,62a12aee913c1c1a20613418,13:37:05,06/03/2024
1195.0,,,ospan,symmetry,h9YUrYLpX0VkQVcbQvgpAhO1L0H3,symmetry-judgement-task,143,752961,0.0-43.0-5.0-0.0-1.0-2.0,,,,,,,,,,1.0,1.0,,,,62a12aee913c1c1a20613418,13:37:05,06/03/2024
,"<div style=""font-size: 10rem; color: #0000FF"">S</div>",,ospan,letter,h9YUrYLpX0VkQVcbQvgpAhO1L0H3,html-keyboard-response,144,753971,0.0-43.0-5.0-0.0-1.0-3.0,,,,,,,,,,,,,,,62a12aee913c1c1a20613418,13:37:05,06/03/2024
1280.0,,,ospan,symmetry,h9YUrYLpX0VkQVcbQvgpAhO1L0H3,symmetry-judgement-task,145,757315,0.0-43.0-5.0-0.0-1.0-4.0,,,,,,,,,,1.0,1.0,,,,62a12aee913c1c1a20613418,13:37:05,06/03/2024
,"<div style=""font-size: 10rem; color: #0000FF"">C</div>",,ospan,letter,h9YUrYLpX0VkQVcbQvgpAhO1L0H3,html-keyboard-response,146,758327,0.0-43.0-5.0-0.0-1.0-5.0,,,,,,,,,,,,,,,62a12aee913c1c1a20613418,13:37:05,06/03/2024
1185.0,,,ospan,symmetry,h9YUrYLpX0VkQVcbQvgpAhO1L0H3,symmetry-judgement-task,147,761613,0.0-43.0-5.0-0.0-1.0-6.0,,,,,,,,,,1.0,1.0,,,,62a12aee913c1c1a20613418,13:37:05,06/03/2024
,"<div style=""font-size: 10rem; color: #0000FF"">H</div>",,ospan,letter,h9YUrYLpX0VkQVcbQvgpAhO1L0H3,html-keyboard-response,148,762616,0.0-43.0-5.0-0.0-1.0-7.0,,,,,,,,,,,,,,,62a12aee913c1c1a20613418,13:37:05,06/03/2024
1494.0,,,ospan,symmetry,h9YUrYLpX0VkQVcbQvgpAhO1L0H3,symmetry-judgement-task,149,766198,0.0-43.0-5.0-0.0-1.0-8.0,,,,,,,,,,1.0,1.0,,,,62a12aee913c1c1a20613418,13:37:05,06/03/2024
,"<div style=""font-size: 10rem; color: #0000FF"">Q</div>",,ospan,letter,h9YUrYLpX0VkQVcbQvgpAhO1L0H3,html-keyboard-response,150,767211,0.0-43.0-5.0-0.0-1.0-9.0,,,,,,,,,,,,,,,62a12aee913c1c1a20613418,13:37:05,06/03/2024
1493.0,,,ospan,symmetry,h9YUrYLpX0VkQVcbQvgpAhO1L0H3,symmetry-judgement-task,151,770788,0.0-43.0-5.0-0.0-1.0-10.0,,,,,,,,,,1.0,1.0,,,,62a12aee913c1c1a20613418,13:37:05,06/03/2024
,"<div style=""font-size: 10rem; color: #0000FF"">P</div>",,ospan,letter,h9YUrYLpX0VkQVcbQvgpAhO1L0H3,html-keyboard-response,152,771791,0.0-43.0-5.0-0.0-1.0-11.0,,,,,,,,,,,,,,,62a12aee913c1c1a20613418,13:37:05,06/03/2024
8346.0,"<div class = numbox><p style=""font-size: 2.4rem"">Please recall the letters you saw to the best of your ability. If you do not remember a particular letter, use the SKIP button.<br><b>(When you are ready to lock in your answer, press ENTER)</b></p><button id = button_1 class = ""square num-button"" onclick = ""recordClick(this)""><div class = content><div class = numbers>C</div></div></button><button id = button_2 class = ""square num-button"" onclick = ""recordClick(this)""><div class = content><div class = numbers>G</div></div></button><button id = button_3 class = ""square num-button"" onclick = ""recordClick(this)""><div class = content><div class = numbers>H</div></div></button><button id = button_4 class = ""square num-button"" onclick = ""recordClick(this)""><div class = content><div class = numbers>J</div></div></button><button id = button_5 class = ""square num-button"" onclick = ""recordClick(this)""><div class = content><div class = numbers>K</div></div></button><button id = button_6 class = ""square num-button"" onclick = ""recordClick(this)""><div class = content><div class = numbers>L</div></div></button><button id = button_7 class = ""square num-button"" onclick = ""recordClick(this)""><div class = content><div class = numbers>N</div></div></button><button id = button_8 class = ""square num-button"" onclick = ""recordClick(this)""><div class = content><div class = numbers>P</div></div></button><button id = button_9 class = ""square num-button"" onclick = ""recordClick(this)""><div class = content><div class = numbers>Q</div></div></button><button id = button_10 class = ""square num-button"" onclick = ""recordClick(this)""><div class = content><div class = numbers>R</div></div></button><button id = button_11 class = ""square num-button"" onclick = ""recordClick(this)""><div class = content><div class = numbers>S</div></div></button><button id = button_12 class = ""square num-button"" onclick = ""recordClick(this)""><div class = content><div class = numbers>Y</div></div></button><button class = clear_button id = ""ClearButton"" onclick = ""clearResponse()"">BACKSPACE</button><button class = blank_button id = ""BlankButton"" onclick = ""blankResponse()"">SKIP</button><p style=""font-size: 2.4rem""><u><b>Current Answer:</b></u></p><br><br><div id=echoed_txt style=""font-size: 5rem; color:blue;""><b></b></div></div>",enter,ospan,retrieval,h9YUrYLpX0VkQVcbQvgpAhO1L0H3,html-keyboard-response,153,780900,0.0-43.0-5.0-0.0-2.0,21,21,21,6.0,"[""Y"",""S"",""C"",""H"",""Q"",""P""]","[""Y"",""S"",""C"",""H"",""Q"",""P""]",1.0,6.0,,,,,,,62a12aee913c1c1a20613418,13:37:05,06/03/2024
1118.0,[''],0,ospan,feedback,h9YUrYLpX0VkQVcbQvgpAhO1L0H3,html-button-response,154,782535,0.0-43.0-5.0-0.0-3.0,,,,,,,,,,,,100.0,0.0,,62a12aee913c1c1a20613418,13:37:05,06/03/2024
,"<p style=""font-size:75px;"">...</p>",,ospan,iti,h9YUrYLpX0VkQVcbQvgpAhO1L0H3,html-keyboard-response,155,783551,0.0-43.0-5.0-1.0-0.0,,,,,,,,,,,,,,,62a12aee913c1c1a20613418,13:37:05,06/03/2024
1464.0,,,ospan,symmetry,h9YUrYLpX0VkQVcbQvgpAhO1L0H3,symmetry-judgement-task,156,786080,0.0-43.0-5.0-1.0-1.0-0.0,,,,,,,,,,1.0,1.0,,,,62a12aee913c1c1a20613418,13:37:05,06/03/2024
,"<div style=""font-size: 10rem; color: #0000FF"">Y</div>",,ospan,letter,h9YUrYLpX0VkQVcbQvgpAhO1L0H3,html-keyboard-response,157,787084,0.0-43.0-5.0-1.0-1.0-1.0,,,,,,,,,,,,,,,62a12aee913c1c1a20613418,13:37:05,06/03/2024
1170.0,,,ospan,symmetry,h9YUrYLpX0VkQVcbQvgpAhO1L0H3,symmetry-judgement-task,158,790294,0.0-43.0-5.0-1.0-1.0-2.0,,,,,,,,,,1.0,1.0,,,,62a12aee913c1c1a20613418,13:37:05,06/03/2024
,"<div style=""font-size: 10rem; color: #0000FF"">J</div>",,ospan,letter,h9YUrYLpX0VkQVcbQvgpAhO1L0H3,html-keyboard-response,159,791306,0.0-43.0-5.0-1.0-1.0-3.0,,,,,,,,,,,,,,,62a12aee913c1c1a20613418,13:37:05,06/03/2024
1222.0,,,ospan,symmetry,h9YUrYLpX0VkQVcbQvgpAhO1L0H3,symmetry-judgement-task,160,794597,0.0-43.0-5.0-1.0-1.0-4.0,,,,,,,,,,1.0,1.0,,,,62a12aee913c1c1a20613418,13:37:05,06/03/2024
,"<div style=""font-size: 10rem; color: #0000FF"">R</div>",,ospan,letter,h9YUrYLpX0VkQVcbQvgpAhO1L0H3,html-keyboard-response,161,795603,0.0-43.0-5.0-1.0-1.0-5.0,,,,,,,,,,,,,,,62a12aee913c1c1a20613418,13:37:05,06/03/2024
1207.0,,,ospan,symmetry,h9YUrYLpX0VkQVcbQvgpAhO1L0H3,symmetry-judgement-task,162,798866,0.0-43.0-5.0-1.0-1.0-6.0,,,,,,,,,,1.0,1.0,,,,62a12aee913c1c1a20613418,13:37:05,06/03/2024
,"<div style=""font-size: 10rem; color: #0000FF"">S</div>",,ospan,letter,h9YUrYLpX0VkQVcbQvgpAhO1L0H3,html-keyboard-response,163,799872,0.0-43.0-5.0-1.0-1.0-7.0,,,,,,,,,,,,,,,62a12aee913c1c1a20613418,13:37:05,06/03/2024
1528.0,,,ospan,symmetry,h9YUrYLpX0VkQVcbQvgpAhO1L0H3,symmetry-judgement-task,164,803449,0.0-43.0-5.0-1.0-1.0-8.0,,,,,,,,,,1.0,1.0,,,,62a12aee913c1c1a20613418,13:37:05,06/03/2024
,"<div style=""font-size: 10rem; color: #0000FF"">P</div>",,ospan,letter,h9YUrYLpX0VkQVcbQvgpAhO1L0H3,html-keyboard-response,165,804451,0.0-43.0-5.0-1.0-1.0-9.0,,,,,,,,,,,,,,,62a12aee913c1c1a20613418,13:37:05,06/03/2024
1328.0,,,ospan,symmetry,h9YUrYLpX0VkQVcbQvgpAhO1L0H3,symmetry-judgement-task,166,807856,0.0-43.0-5.0-1.0-1.0-10.0,,,,,,,,,,1.0,1.0,,,,62a12aee913c1c1a20613418,13:37:05,06/03/2024
,"<div style=""font-size: 10rem; color: #0000FF"">C</div>",,ospan,letter,h9YUrYLpX0VkQVcbQvgpAhO1L0H3,html-keyboard-response,167,808868,0.0-43.0-5.0-1.0-1.0-11.0,,,,,,,,,,,,,,,62a12aee913c1c1a20613418,13:37:05,06/03/2024
1271.0,,,ospan,symmetry,h9YUrYLpX0VkQVcbQvgpAhO1L0H3,symmetry-judgement-task,168,812207,0.0-43.0-5.0-1.0-1.0-12.0,,,,,,,,,,1.0,1.0,,,,62a12aee913c1c1a20613418,13:37:05,06/03/2024
,"<div style=""font-size: 10rem; color: #0000FF"">L</div>",,ospan,letter,h9YUrYLpX0VkQVcbQvgpAhO1L0H3,html-keyboard-response,169,813222,0.0-43.0-5.0-1.0-1.0-13.0,,,,,,,,,,,,,,,62a12aee913c1c1a20613418,13:37:05,06/03/2024
6561.0,"<div class = numbox><p style=""font-size: 2.4rem"">Please recall the letters you saw to the best of your ability. If you do not remember a particular letter, use the SKIP button.<br><b>(When you are ready to lock in your answer, press ENTER)</b></p><button id = button_1 class = ""square num-button"" onclick = ""recordClick(this)""><div class = content><div class = numbers>C</div></div></button><button id = button_2 class = ""square num-button"" onclick = ""recordClick(this)""><div class = content><div class = numbers>G</div></div></button><button id = button_3 class = ""square num-button"" onclick = ""recordClick(this)""><div class = content><div class = numbers>H</div></div></button><button id = button_4 class = ""square num-button"" onclick = ""recordClick(this)""><div class = content><div class = numbers>J</div></div></button><button id = button_5 class = ""square num-button"" onclick = ""recordClick(this)""><div class = content><div class = numbers>K</div></div></button><button id = button_6 class = ""square num-button"" onclick = ""recordClick(this)""><div class = content><div class = numbers>L</div></div></button><button id = button_7 class = ""square num-button"" onclick = ""recordClick(this)""><div class = content><div class = numbers>N</div></div></button><button id = button_8 class = ""square num-button"" onclick = ""recordClick(this)""><div class = content><div class = numbers>P</div></div></button><button id = button_9 class = ""square num-button"" onclick = ""recordClick(this)""><div class = content><div class = numbers>Q</div></div></button><button id = button_10 class = ""square num-button"" onclick = ""recordClick(this)""><div class = content><div class = numbers>R</div></div></button><button id = button_11 class = ""square num-button"" onclick = ""recordClick(this)""><div class = content><div class = numbers>S</div></div></button><button id = button_12 class = ""square num-button"" onclick = ""recordClick(this)""><div class = content><div class = numbers>Y</div></div></button><button class = clear_button id = ""ClearButton"" onclick = ""clearResponse()"">BACKSPACE</button><button class = blank_button id = ""BlankButton"" onclick = ""blankResponse()"">SKIP</button><p style=""font-size: 2.4rem""><u><b>Current Answer:</b></u></p><br><br><div id=echoed_txt style=""font-size: 5rem; color:blue;""><b></b></div></div>",enter,ospan,retrieval,h9YUrYLpX0VkQVcbQvgpAhO1L0H3,html-keyboard-response,170,820535,0.0-43.0-5.0-1.0-2.0,28,28,28,7.0,"[""Y"",""J"",""R"",""S"",""P"",""C"",""L""]","[""Y"",""J"",""R"",""S"",""P"",""C"",""L""]",1.0,7.0,,,,,,,62a12aee913c1c1a20613418,13:37:05,06/03/2024
1100.0,[''],0,ospan,feedback,h9YUrYLpX0VkQVcbQvgpAhO1L0H3,html-button-response,171,822146,0.0-43.0-5.0-1.0-3.0,,,,,,,,,,,,100.0,0.0,,62a12aee913c1c1a20613418,13:37:05,06/03/2024
,"<p style=""font-size:75px;"">...</p>",,ospan,iti,h9YUrYLpX0VkQVcbQvgpAhO1L0H3,html-keyboard-response,172,823150,0.0-43.0-6.0-0.0-0.0,,,,,,,,,,,,,,,62a12aee913c1c1a20613418,13:37:05,06/03/2024
1607.0,,,ospan,symmetry,h9YUrYLpX0VkQVcbQvgpAhO1L0H3,symmetry-judgement-task,173,826086,0.0-43.0-6.0-0.0-1.0-0.0,,,,,,,,,,1.0,1.0,,,,62a12aee913c1c1a20613418,13:37:05,06/03/2024
,"<div style=""font-size: 10rem; color: #0000FF"">R</div>",,ospan,letter,h9YUrYLpX0VkQVcbQvgpAhO1L0H3,html-keyboard-response,174,827088,0.0-43.0-6.0-0.0-1.0-1.0,,,,,,,,,,,,,,,62a12aee913c1c1a20613418,13:37:05,06/03/2024
1245.0,,,ospan,symmetry,h9YUrYLpX0VkQVcbQvgpAhO1L0H3,symmetry-judgement-task,175,830401,0.0-43.0-6.0-0.0-1.0-2.0,,,,,,,,,,1.0,1.0,,,,62a12aee913c1c1a20613418,13:37:05,06/03/2024
,"<div style=""font-size: 10rem; color: #0000FF"">J</div>",,ospan,letter,h9YUrYLpX0VkQVcbQvgpAhO1L0H3,html-keyboard-response,176,831415,0.0-43.0-6.0-0.0-1.0-3.0,,,,,,,,,,,,,,,62a12aee913c1c1a20613418,13:37:05,06/03/2024
1192.0,,,ospan,symmetry,h9YUrYLpX0VkQVcbQvgpAhO1L0H3,symmetry-judgement-task,177,834681,0.0-43.0-6.0-0.0-1.0-4.0,,,,,,,,,,1.0,1.0,,,,62a12aee913c1c1a20613418,13:37:05,06/03/2024
,"<div style=""font-size: 10rem; color: #0000FF"">P</div>",,ospan,letter,h9YUrYLpX0VkQVcbQvgpAhO1L0H3,html-keyboard-response,178,835683,0.0-43.0-6.0-0.0-1.0-5.0,,,,,,,,,,,,,,,62a12aee913c1c1a20613418,13:37:05,06/03/2024
1177.0,,,ospan,symmetry,h9YUrYLpX0VkQVcbQvgpAhO1L0H3,symmetry-judgement-task,179,838931,0.0-43.0-6.0-0.0-1.0-6.0,,,,,,,,,,1.0,1.0,,,,62a12aee913c1c1a20613418,13:37:05,06/03/2024
,"<div style=""font-size: 10rem; color: #0000FF"">L</div>",,ospan,letter,h9YUrYLpX0VkQVcbQvgpAhO1L0H3,html-keyboard-response,180,839934,0.0-43.0-6.0-0.0-1.0-7.0,,,,,,,,,,,,,,,62a12aee913c1c1a20613418,13:37:05,06/03/2024
1074.0,,,ospan,symmetry,h9YUrYLpX0VkQVcbQvgpAhO1L0H3,symmetry-judgement-task,181,843071,0.0-43.0-6.0-0.0-1.0-8.0,,,,,,,,,,1.0,1.0,,,,62a12aee913c1c1a20613418,13:37:05,06/03/2024
,"<div style=""font-size: 10rem; color: #0000FF"">K</div>",,ospan,letter,h9YUrYLpX0VkQVcbQvgpAhO1L0H3,html-keyboard-response,182,844073,0.0-43.0-6.0-0.0-1.0-9.0,,,,,,,,,,,,,,,62a12aee913c1c1a20613418,13:37:05,06/03/2024
5368.0,"<div class = numbox><p style=""font-size: 2.4rem"">Please recall the letters you saw to the best of your ability. If you do not remember a particular letter, use the SKIP button.<br><b>(When you are ready to lock in your answer, press ENTER)</b></p><button id = button_1 class = ""square num-button"" onclick = ""recordClick(this)""><div class = content><div class = numbers>C</div></div></button><button id = button_2 class = ""square num-button"" onclick = ""recordClick(this)""><div class = content><div class = numbers>G</div></div></button><button id = button_3 class = ""square num-button"" onclick = ""recordClick(this)""><div class = content><div class = numbers>H</div></div></button><button id = button_4 class = ""square num-button"" onclick = ""recordClick(this)""><div class = content><div class = numbers>J</div></div></button><button id = button_5 class = ""square num-button"" onclick = ""recordClick(this)""><div class = content><div class = numbers>K</div></div></button><button id = button_6 class = ""square num-button"" onclick = ""recordClick(this)""><div class = content><div class = numbers>L</div></div></button><button id = button_7 class = ""square num-button"" onclick = ""recordClick(this)""><div class = content><div class = numbers>N</div></div></button><button id = button_8 class = ""square num-button"" onclick = ""recordClick(this)""><div class = content><div class = numbers>P</div></div></button><button id = button_9 class = ""square num-button"" onclick = ""recordClick(this)""><div class = content><div class = numbers>Q</div></div></button><button id = button_10 class = ""square num-button"" onclick = ""recordClick(this)""><div class = content><div class = numbers>R</div></div></button><button id = button_11 class = ""square num-button"" onclick = ""recordClick(this)""><div class = content><div class = numbers>S</div></div></button><button id = button_12 class = ""square num-button"" onclick = ""recordClick(this)""><div class = content><div class = numbers>Y</div></div></button><button class = clear_button id = ""ClearButton"" onclick = ""clearResponse()"">BACKSPACE</button><button class = blank_button id = ""BlankButton"" onclick = ""blankResponse()"">SKIP</button><p style=""font-size: 2.4rem""><u><b>Current Answer:</b></u></p><br><br><div id=echoed_txt style=""font-size: 5rem; color:blue;""><b></b></div></div>",enter,ospan,retrieval,h9YUrYLpX0VkQVcbQvgpAhO1L0H3,html-keyboard-response,183,850200,0.0-43.0-6.0-0.0-2.0,33,33,33,5.0,"[""R"",""J"",""P"",""L"",""K""]","[""R"",""J"",""P"",""L"",""K""]",1.0,5.0,,,,,,,62a12aee913c1c1a20613418,13:37:05,06/03/2024
1114.0,[''],0,ospan,feedback,h9YUrYLpX0VkQVcbQvgpAhO1L0H3,html-button-response,184,851825,0.0-43.0-6.0-0.0-3.0,,,,,,,,,,,,100.0,0.0,,62a12aee913c1c1a20613418,13:37:05,06/03/2024
,"<p style=""font-size:75px;"">...</p>",,ospan,iti,h9YUrYLpX0VkQVcbQvgpAhO1L0H3,html-keyboard-response,185,852830,0.0-43.0-6.0-1.0-0.0,,,,,,,,,,,,,,,62a12aee913c1c1a20613418,13:37:05,06/03/2024
1377.0,,,ospan,symmetry,h9YUrYLpX0VkQVcbQvgpAhO1L0H3,symmetry-judgement-task,186,855539,0.0-43.0-6.0-1.0-1.0-0.0,,,,,,,,,,1.0,1.0,,,,62a12aee913c1c1a20613418,13:37:05,06/03/2024
,"<div style=""font-size: 10rem; color: #0000FF"">N</div>",,ospan,letter,h9YUrYLpX0VkQVcbQvgpAhO1L0H3,html-keyboard-response,187,856555,0.0-43.0-6.0-1.0-1.0-1.0,,,,,,,,,,,,,,,62a12aee913c1c1a20613418,13:37:05,06/03/2024
1248.0,,,ospan,symmetry,h9YUrYLpX0VkQVcbQvgpAhO1L0H3,symmetry-judgement-task,188,859849,0.0-43.0-6.0-1.0-1.0-2.0,,,,,,,,,,1.0,1.0,,,,62a12aee913c1c1a20613418,13:37:05,06/03/2024
,"<div style=""font-size: 10rem; color: #0000FF"">P</div>",,ospan,letter,h9YUrYLpX0VkQVcbQvgpAhO1L0H3,html-keyboard-response,189,860851,0.0-43.0-6.0-1.0-1.0-3.0,,,,,,,,,,,,,,,62a12aee913c1c1a20613418,13:37:05,06/03/2024
1090.0,,,ospan,symmetry,h9YUrYLpX0VkQVcbQvgpAhO1L0H3,symmetry-judgement-task,190,864018,0.0-43.0-6.0-1.0-1.0-4.0,,,,,,,,,,1.0,1.0,,,,62a12aee913c1c1a20613418,13:37:05,06/03/2024
,"<div style=""font-size: 10rem; color: #0000FF"">L</div>",,ospan,letter,h9YUrYLpX0VkQVcbQvgpAhO1L0H3,html-keyboard-response,191,865026,0.0-43.0-6.0-1.0-1.0-5.0,,,,,,,,,,,,,,,62a12aee913c1c1a20613418,13:37:05,06/03/2024
1174.0,,,ospan,symmetry,h9YUrYLpX0VkQVcbQvgpAhO1L0H3,symmetry-judgement-task,192,868296,0.0-43.0-6.0-1.0-1.0-6.0,,,,,,,,,,1.0,1.0,,,,62a12aee913c1c1a20613418,13:37:05,06/03/2024
,"<div style=""font-size: 10rem; color: #0000FF"">K</div>",,ospan,letter,h9YUrYLpX0VkQVcbQvgpAhO1L0H3,html-keyboard-response,193,869305,0.0-43.0-6.0-1.0-1.0-7.0,,,,,,,,,,,,,,,62a12aee913c1c1a20613418,13:37:05,06/03/2024
994.0,,,ospan,symmetry,h9YUrYLpX0VkQVcbQvgpAhO1L0H3,symmetry-judgement-task,194,872382,0.0-43.0-6.0-1.0-1.0-8.0,,,,,,,,,,1.0,1.0,,,,62a12aee913c1c1a20613418,13:37:05,06/03/2024
,"<div style=""font-size: 10rem; color: #0000FF"">G</div>",,ospan,letter,h9YUrYLpX0VkQVcbQvgpAhO1L0H3,html-keyboard-response,195,873398,0.0-43.0-6.0-1.0-1.0-9.0,,,,,,,,,,,,,,,62a12aee913c1c1a20613418,13:37:05,06/03/2024
1153.0,,,ospan,symmetry,h9YUrYLpX0VkQVcbQvgpAhO1L0H3,symmetry-judgement-task,196,876649,0.0-43.0-6.0-1.0-1.0-10.0,,,,,,,,,,1.0,1.0,,,,62a12aee913c1c1a20613418,13:37:05,06/03/2024
,"<div style=""font-size: 10rem; color: #0000FF"">H</div>",,ospan,letter,h9YUrYLpX0VkQVcbQvgpAhO1L0H3,html-keyboard-response,197,877658,0.0-43.0-6.0-1.0-1.0-11.0,,,,,,,,,,,,,,,62a12aee913c1c1a20613418,13:37:05,06/03/2024
1464.0,,,ospan,symmetry,h9YUrYLpX0VkQVcbQvgpAhO1L0H3,symmetry-judgement-task,198,881214,0.0-43.0-6.0-1.0-1.0-12.0,,,,,,,,,,1.0,1.0,,,,62a12aee913c1c1a20613418,13:37:05,06/03/2024
,"<div style=""font-size: 10rem; color: #0000FF"">Q</div>",,ospan,letter,h9YUrYLpX0VkQVcbQvgpAhO1L0H3,html-keyboard-response,199,882226,0.0-43.0-6.0-1.0-1.0-13.0,,,,,,,,,,,,,,,62a12aee913c1c1a20613418,13:37:05,06/03/2024
1229.0,,,ospan,symmetry,h9YUrYLpX0VkQVcbQvgpAhO1L0H3,symmetry-judgement-task,200,885533,0.0-43.0-6.0-1.0-1.0-14.0,,,,,,,,,,1.0,1.0,,,,62a12aee913c1c1a20613418,13:37:05,06/03/2024
,"<div style=""font-size: 10rem; color: #0000FF"">Y</div>",,ospan,letter,h9YUrYLpX0VkQVcbQvgpAhO1L0H3,html-keyboard-response,201,886550,0.0-43.0-6.0-1.0-1.0-15.0,,,,,,,,,,,,,,,62a12aee913c1c1a20613418,13:37:05,06/03/2024
8695.0,"<div class = numbox><p style=""font-size: 2.4rem"">Please recall the letters you saw to the best of your ability. If you do not remember a particular letter, use the SKIP button.<br><b>(When you are ready to lock in your answer, press ENTER)</b></p><button id = button_1 class = ""square num-button"" onclick = ""recordClick(this)""><div class = content><div class = numbers>C</div></div></button><button id = button_2 class = ""square num-button"" onclick = ""recordClick(this)""><div class = content><div class = numbers>G</div></div></button><button id = button_3 class = ""square num-button"" onclick = ""recordClick(this)""><div class = content><div class = numbers>H</div></div></button><button id = button_4 class = ""square num-button"" onclick = ""recordClick(this)""><div class = content><div class = numbers>J</div></div></button><button id = button_5 class = ""square num-button"" onclick = ""recordClick(this)""><div class = content><div class = numbers>K</div></div></button><button id = button_6 class = ""square num-button"" onclick = ""recordClick(this)""><div class = content><div class = numbers>L</div></div></button><button id = button_7 class = ""square num-button"" onclick = ""recordClick(this)""><div class = content><div class = numbers>N</div></div></button><button id = button_8 class = ""square num-button"" onclick = ""recordClick(this)""><div class = content><div class = numbers>P</div></div></button><button id = button_9 class = ""square num-button"" onclick = ""recordClick(this)""><div class = content><div class = numbers>Q</div></div></button><button id = button_10 class = ""square num-button"" onclick = ""recordClick(this)""><div class = content><div class = numbers>R</div></div></button><button id = button_11 class = ""square num-button"" onclick = ""recordClick(this)""><div class = content><div class = numbers>S</div></div></button><button id = button_12 class = ""square num-button"" onclick = ""recordClick(this)""><div class = content><div class = numbers>Y</div></div></button><button class = clear_button id = ""ClearButton"" onclick = ""clearResponse()"">BACKSPACE</button><button class = blank_button id = ""BlankButton"" onclick = ""blankResponse()"">SKIP</button><p style=""font-size: 2.4rem""><u><b>Current Answer:</b></u></p><br><br><div id=echoed_txt style=""font-size: 5rem; color:blue;""><b></b></div></div>",enter,ospan,retrieval,h9YUrYLpX0VkQVcbQvgpAhO1L0H3,html-keyboard-response,202,896006,0.0-43.0-6.0-1.0-2.0,41,37,33,8.0,"[""N"",""P"",""L"",""H"",""G"",""Q"",""Y""]","[""N"",""P"",""L"",""K"",""G"",""H"",""Q"",""Y""]",0.0,4.0,,,,,,,62a12aee913c1c1a20613418,13:37:05,06/03/2024
985.0,[''],0,ospan,feedback,h9YUrYLpX0VkQVcbQvgpAhO1L0H3,html-button-response,203,897505,0.0-43.0-6.0-1.0-3.0,,,,,,,,,,,,100.0,0.0,,62a12aee913c1c1a20613418,13:37:05,06/03/2024
67002.0,,"{'Q0': 'make the letter entering screen smaller font/closer together, had to scroll the page down each time to see the letters I was inputting and check if they were correct'}",ospan,survey_ospan,h9YUrYLpX0VkQVcbQvgpAhO1L0H3,lmdlab-survey-text,204,965271,0.0-43.0-7.0,,,,,,,,,,,,,,h9YUrYLpX0VkQVcbQvgpAhO1L0H3,62a12aee913c1c1a20613418,13:37:05,06/03/2024
1407.0,<p><p style='font-size: 3rem'>Great work!<br><br>This completes the symmetry and memory task.</p><br><br><br>,0,ospan,finish,h9YUrYLpX0VkQVcbQvgpAhO1L0H3,html-button-response,205,966682,0.0-43.0-8.0,41,37,33,,,,,,,,,100.0,,,62a12aee913c1c1a20613418,13:37:05,06/03/2024
