rt,stimulus,response,exp_name,exp_stage,subjectID,trial_type,trial_index,time_elapsed,internal_node_id,ospan_shown,ospan_total,ospan_abs,length,resp_actual,resp_correct,full_correct,num_correct,feedback,accuracy,correct,math_acc,math_warning,databaseID,prolificID,start_time,date
3416.0,<div class = 'left_align' style='font-size: 3.25rem; line-height: 1.3;'><p class = 'center_align'><b>Welcome to the Symmetry and Memory Task</b><br><br><br><br></p>Press 'continue' to show the instructions.<br><br><br><br></div>,0,ospan,instruct,k06tA1K46mVKhs962UxfoQkO5NE3,html-button-response,51,426700,0.0-43.0-0.0-0.0-0.0,,,,,,,,,,,,,,,62ce9f115a24ca323371d2dc,14:17:10,06/03/2024
14653.0,"<div class = 'left_align' style='font-size: 3.25rem; line-height: 1.3;'><p class = 'center_align'><b>Symmetry and Memory Task</b><br><br></p>In this task, you will try to memorize letters you see on the screen<br>while you also view black and white grid pictures.<br><br>In the next few minutes, you will have some practice to get you familiar<br>with how the task works.<br><br>It may be difficult sometimes, but please do not worry about making mistakes!<br><br>We will begin by practicing the letter part of the task.<br><br><br><br></div>",0,ospan,instruct,k06tA1K46mVKhs962UxfoQkO5NE3,html-button-response,52,441606,0.0-43.0-0.0-0.0-1.0,,,,,,,,,,,,,,,62ce9f115a24ca323371d2dc,14:17:10,06/03/2024
10234.0,"<div class = 'left_align' style='font-size: 3.25rem; line-height: 1.3;'>For this practice part, letters will appear on the screen one at a time.<br><br>Try to remember each letter in the order presented.<br><br>After some letters have been shown, you will see a response screen. Your<br>goal is to report the letters you saw <b>in order</b>. If you do not remember<br>a particular letter, you will have the option to leave it blank.<br><br><br><br></div>",0,ospan,instruct,k06tA1K46mVKhs962UxfoQkO5NE3,html-button-response,53,452094,0.0-43.0-0.0-0.0-2.0,,,,,,,,,,,,,,,62ce9f115a24ca323371d2dc,14:17:10,06/03/2024
2395.0,"<div class = 'left_align' style='font-size: 3.25rem; line-height: 1.3;'>Remember, it is very important to get the letters in the same<br>order as you see them.<br><br>When you are ready, you may begin the letter practice.</div><br><br><br><br>",0,ospan,instruct,k06tA1K46mVKhs962UxfoQkO5NE3,html-button-response,54,454739,0.0-43.0-0.0-0.0-3.0,,,,,,,,,,,,,,,62ce9f115a24ca323371d2dc,14:17:10,06/03/2024
,"<p style=""font-size:75px;"">...</p>",,ospan,iti,k06tA1K46mVKhs962UxfoQkO5NE3,html-keyboard-response,55,455993,0.0-43.0-0.0-1.0-0.0,,,,,,,,,,,,,,,62ce9f115a24ca323371d2dc,14:17:10,06/03/2024
,"<div style=""font-size: 10rem; color: #0000FF"">P</div>",,ospan,letter,k06tA1K46mVKhs962UxfoQkO5NE3,html-keyboard-response,56,456994,0.0-43.0-0.0-1.0-1.0,,,,,,,,,,,,,,,62ce9f115a24ca323371d2dc,14:17:10,06/03/2024
,"<div style=""font-size: 10rem; color: #0000FF"">L</div>",,ospan,letter,k06tA1K46mVKhs962UxfoQkO5NE3,html-keyboard-response,57,458745,0.0-43.0-0.0-1.0-2.0,,,,,,,,,,,,,,,62ce9f115a24ca323371d2dc,14:17:10,06/03/2024
5099.0,"<div class = numbox><p style=""font-size: 2.4rem"">Please recall the letters you saw to the best of your ability. If you do not remember a particular letter, use the SKIP button.<br><b>(When you are ready to lock in your answer, press ENTER)</b></p><button id = button_1 class = ""square num-button"" onclick = ""recordClick(this)""><div class = content><div class = numbers>C</div></div></button><button id = button_2 class = ""square num-button"" onclick = ""recordClick(this)""><div class = content><div class = numbers>G</div></div></button><button id = button_3 class = ""square num-button"" onclick = ""recordClick(this)""><div class = content><div class = numbers>H</div></div></button><button id = button_4 class = ""square num-button"" onclick = ""recordClick(this)""><div class = content><div class = numbers>J</div></div></button><button id = button_5 class = ""square num-button"" onclick = ""recordClick(this)""><div class = content><div class = numbers>K</div></div></button><button id = button_6 class = ""square num-button"" onclick = ""recordClick(this)""><div class = content><div class = numbers>L</div></div></button><button id = button_7 class = ""square num-button"" onclick = ""recordClick(this)""><div class = content><div class = numbers>N</div></div></button><button id = button_8 class = ""square num-button"" onclick = ""recordClick(this)""><div class = content><div class = numbers>P</div></div></button><button id = button_9 class = ""square num-button"" onclick = ""recordClick(this)""><div class = content><div class = numbers>Q</div></div></button><button id = button_10 class = ""square num-button"" onclick = ""recordClick(this)""><div class = content><div class = numbers>R</div></div></button><button id = button_11 class = ""square num-button"" onclick = ""recordClick(this)""><div class = content><div class = numbers>S</div></div></button><button id = button_12 class = ""square num-button"" onclick = ""recordClick(this)""><div class = content><div class = numbers>Y</div></div></button><button class = clear_button id = ""ClearButton"" onclick = ""clearResponse()"">BACKSPACE</button><button class = blank_button id = ""BlankButton"" onclick = ""blankResponse()"">SKIP</button><p style=""font-size: 2.4rem""><u><b>Current Answer:</b></u></p><br><br><div id=echoed_txt style=""font-size: 5rem; color:blue;""><b></b></div></div>",enter,ospan,retrieval,k06tA1K46mVKhs962UxfoQkO5NE3,html-keyboard-response,58,464596,0.0-43.0-0.0-1.0-3.0,NA,NA,NA,2.0,"[""P"",""L""]","[""P"",""L""]",1.0,2.0,"['<font color=""green"">P</font>', '<font color=""green"">L</font>']",,,,,,62ce9f115a24ca323371d2dc,14:17:10,06/03/2024
1646.0,"['<p style=""font-size:44px"">Letters:<br><br><br><font color=""green"">P</font> <font color=""green"">L</font></p><br><br>']",0,ospan,practice_feedback,k06tA1K46mVKhs962UxfoQkO5NE3,html-button-response,59,466745,0.0-43.0-0.0-1.0-4.0,,,,,,,,,,,,,,,62ce9f115a24ca323371d2dc,14:17:10,06/03/2024
,"<p style=""font-size:75px;"">...</p>",,ospan,iti,k06tA1K46mVKhs962UxfoQkO5NE3,html-keyboard-response,60,467747,0.0-43.0-0.0-2.0-0.0,,,,,,,,,,,,,,,62ce9f115a24ca323371d2dc,14:17:10,06/03/2024
,"<div style=""font-size: 10rem; color: #0000FF"">H</div>",,ospan,letter,k06tA1K46mVKhs962UxfoQkO5NE3,html-keyboard-response,61,468749,0.0-43.0-0.0-2.0-1.0,,,,,,,,,,,,,,,62ce9f115a24ca323371d2dc,14:17:10,06/03/2024
,"<div style=""font-size: 10rem; color: #0000FF"">J</div>",,ospan,letter,k06tA1K46mVKhs962UxfoQkO5NE3,html-keyboard-response,62,470502,0.0-43.0-0.0-2.0-2.0,,,,,,,,,,,,,,,62ce9f115a24ca323371d2dc,14:17:10,06/03/2024
,"<div style=""font-size: 10rem; color: #0000FF"">S</div>",,ospan,letter,k06tA1K46mVKhs962UxfoQkO5NE3,html-keyboard-response,63,472253,0.0-43.0-0.0-2.0-3.0,,,,,,,,,,,,,,,62ce9f115a24ca323371d2dc,14:17:10,06/03/2024
5159.0,"<div class = numbox><p style=""font-size: 2.4rem"">Please recall the letters you saw to the best of your ability. If you do not remember a particular letter, use the SKIP button.<br><b>(When you are ready to lock in your answer, press ENTER)</b></p><button id = button_1 class = ""square num-button"" onclick = ""recordClick(this)""><div class = content><div class = numbers>C</div></div></button><button id = button_2 class = ""square num-button"" onclick = ""recordClick(this)""><div class = content><div class = numbers>G</div></div></button><button id = button_3 class = ""square num-button"" onclick = ""recordClick(this)""><div class = content><div class = numbers>H</div></div></button><button id = button_4 class = ""square num-button"" onclick = ""recordClick(this)""><div class = content><div class = numbers>J</div></div></button><button id = button_5 class = ""square num-button"" onclick = ""recordClick(this)""><div class = content><div class = numbers>K</div></div></button><button id = button_6 class = ""square num-button"" onclick = ""recordClick(this)""><div class = content><div class = numbers>L</div></div></button><button id = button_7 class = ""square num-button"" onclick = ""recordClick(this)""><div class = content><div class = numbers>N</div></div></button><button id = button_8 class = ""square num-button"" onclick = ""recordClick(this)""><div class = content><div class = numbers>P</div></div></button><button id = button_9 class = ""square num-button"" onclick = ""recordClick(this)""><div class = content><div class = numbers>Q</div></div></button><button id = button_10 class = ""square num-button"" onclick = ""recordClick(this)""><div class = content><div class = numbers>R</div></div></button><button id = button_11 class = ""square num-button"" onclick = ""recordClick(this)""><div class = content><div class = numbers>S</div></div></button><button id = button_12 class = ""square num-button"" onclick = ""recordClick(this)""><div class = content><div class = numbers>Y</div></div></button><button class = clear_button id = ""ClearButton"" onclick = ""clearResponse()"">BACKSPACE</button><button class = blank_button id = ""BlankButton"" onclick = ""blankResponse()"">SKIP</button><p style=""font-size: 2.4rem""><u><b>Current Answer:</b></u></p><br><br><div id=echoed_txt style=""font-size: 5rem; color:blue;""><b></b></div></div>",enter,ospan,retrieval,k06tA1K46mVKhs962UxfoQkO5NE3,html-keyboard-response,64,478163,0.0-43.0-0.0-2.0-4.0,NA,NA,NA,3.0,"[""H"",""J"",""S""]","[""H"",""J"",""S""]",1.0,3.0,"['<font color=""green"">H</font>', '<font color=""green"">J</font>', '<font color=""green"">S</font>']",,,,,,62ce9f115a24ca323371d2dc,14:17:10,06/03/2024
1267.0,"['<p style=""font-size:44px"">Letters:<br><br><br><font color=""green"">H</font> <font color=""green"">J</font> <font color=""green"">S</font></p><br><br>']",0,ospan,practice_feedback,k06tA1K46mVKhs962UxfoQkO5NE3,html-button-response,65,479934,0.0-43.0-0.0-2.0-5.0,,,,,,,,,,,,,,,62ce9f115a24ca323371d2dc,14:17:10,06/03/2024
6188.0,"<div class = 'left_align' style='font-size: 3.25rem; line-height: 1.3;'>Now you will practice doing the <b>symmetry judgment part</b> of the experiment.<br><br>A black and white grid picture will appear on the screen and you have to judge if it is <br>symmetrical or asymetrical.<br><br>A picture is 'mirror' symmetrical if its left half is identical to the right half when flipped.<br>Here are examples of a symmetrical and an asymetrical picture:<br><br><center><img src='Stimuli/img/symm_instructions_extra.png' style='height:420px; width:900'></img></center><br>To judge symmetry, imagine you were to fold each picture down the middle, like a book –<br>would the left half match the right half when folded onto each other?<br><br></div><br>",0,ospan,instruct,k06tA1K46mVKhs962UxfoQkO5NE3,html-button-response,66,486125,0.0-43.0-1.0-0.0-0.0,,,,,,,,,,,,,,,62ce9f115a24ca323371d2dc,14:17:10,06/03/2024
4770.0,"<div class = 'left_align' style='font-size: 3.25rem; line-height: 1.3;'>When you have viewed the picture and determined whether it is symmetrical or not,<br>you can <b>click the Yes or No button</b> below to answer.<br><br>If you take longer than 15 seconds, it will continue automatically<br>and record the answer as an error.</div><br>",0,ospan,instruct,k06tA1K46mVKhs962UxfoQkO5NE3,html-button-response,67,491146,0.0-43.0-1.0-0.0-1.0,,,,,,,,,,,,,,,62ce9f115a24ca323371d2dc,14:17:10,06/03/2024
5134.0,"<div class = 'left_align' style='font-size: 3.25rem; line-height: 1.3;'>It is <b>very</b> important that you make the symmetry judgment correctly.<br><br>It is also important that you try and judge the picture as quickly as you can.<br><br>When you are ready, click on the button below to try some practice problems.</div><br><br><br><br>",0,ospan,instruct,k06tA1K46mVKhs962UxfoQkO5NE3,html-button-response,68,496533,0.0-43.0-1.0-0.0-2.0,,,,,,,,,,,,,,,62ce9f115a24ca323371d2dc,14:17:10,06/03/2024
3967.0,,,ospan,symmetry,k06tA1K46mVKhs962UxfoQkO5NE3,symmetry-judgement-task,69,501458,0.0-43.0-1.0-1.0-0.0,,,,,,,,,,1.0,1.0,,,,62ce9f115a24ca323371d2dc,14:17:10,06/03/2024
,"<p style=""color:green; font-size: 35px"">Correct</p>",,ospan,feedback,k06tA1K46mVKhs962UxfoQkO5NE3,html-keyboard-response,70,502212,0.0-43.0-1.0-1.0-1.0,,,,,,,,,,,,,,,62ce9f115a24ca323371d2dc,14:17:10,06/03/2024
2236.0,,,ospan,symmetry,k06tA1K46mVKhs962UxfoQkO5NE3,symmetry-judgement-task,71,507351,0.0-43.0-1.0-1.0-2.0,,,,,,,,,,1.0,1.0,,,,62ce9f115a24ca323371d2dc,14:17:10,06/03/2024
,"<p style=""color:green; font-size: 35px"">Correct</p>",,ospan,feedback,k06tA1K46mVKhs962UxfoQkO5NE3,html-keyboard-response,72,508104,0.0-43.0-1.0-1.0-3.0,,,,,,,,,,,,,,,62ce9f115a24ca323371d2dc,14:17:10,06/03/2024
2311.0,,,ospan,symmetry,k06tA1K46mVKhs962UxfoQkO5NE3,symmetry-judgement-task,73,513288,0.0-43.0-1.0-1.0-4.0,,,,,,,,,,1.0,1.0,,,,62ce9f115a24ca323371d2dc,14:17:10,06/03/2024
,"<p style=""color:green; font-size: 35px"">Correct</p>",,ospan,feedback,k06tA1K46mVKhs962UxfoQkO5NE3,html-keyboard-response,74,514040,0.0-43.0-1.0-1.0-5.0,,,,,,,,,,,,,,,62ce9f115a24ca323371d2dc,14:17:10,06/03/2024
10248.0,"<p style=""font-size: 3rem;"">You responded correctly on 3 of 3 symmetry judgments. Good job!</p><br><br>",0,ospan,practice,k06tA1K46mVKhs962UxfoQkO5NE3,html-button-response,75,526292,0.0-43.0-1.0-2.0,,,,,,,,,,,,,,,62ce9f115a24ca323371d2dc,14:17:10,06/03/2024
10380.0,"<div class = 'left_align' style='font-size: 3.25rem; line-height: 1.3;'>Now you will practice doing both parts of the experiment at the same time.<br><br>In the next practice set, you will be given one grid picture to judge.<br>Then letter will appear on the screen. Try to remember the letter.<br><br>It is <b>very important</b> to make the symmetry judgment as quickly and accurately as possible.<br><br>Just as before, once you have make the symmetry judgment, you can click Yes or No.<br><b>Note that you will no longer see Correct or Incorrect feedback.</div><br><br><br><br>",0,ospan,instruct,k06tA1K46mVKhs962UxfoQkO5NE3,html-button-response,76,536924,0.0-43.0-2.0-0.0-0.0,,,,,,,,,,,,,,,62ce9f115a24ca323371d2dc,14:17:10,06/03/2024
4919.0,"<div class = 'left_align' style='font-size: 3.25rem; line-height: 1.3;'>After the letter goes away, another grid picture will appear, and then<br>another letter.<br><br>At the end of each set of letters and grids, you will recall the letters to the best<br>of your ability. Remember, try your best to get the letters in the correct order.<br><br>It is important to <b>quickly</b> and <b>accurately</b> make the symmetry judgments.</div><br><br><br><br>",0,ospan,instruct,k06tA1K46mVKhs962UxfoQkO5NE3,html-button-response,77,542097,0.0-43.0-2.0-0.0-1.0,,,,,,,,,,,,,,,62ce9f115a24ca323371d2dc,14:17:10,06/03/2024
14921.0,"<div class = 'left_align' style='font-size: 3.25rem; line-height: 1.3;'>On the feedback screen, if you are not doing well at the symmetry judgments,<br>you will also see a warning in the middle. This indicates your percent <br>correct for the grid pictures for the entire experiment.<br><br>It is <b>very</b> important for you to keep accuracy at least at 85%: <u>We can only use<br>data where the participant was at least 85% accurate on the judgments.</u> Therefore,<br> please try your best to perform well on the symmetry judgments, <b>at the same time</b><br>doing your best to recall as many letters as possible.<br><br>Click the button to try some practice problems.</div><br><br><br><br>",0,ospan,instruct,k06tA1K46mVKhs962UxfoQkO5NE3,html-button-response,78,557272,0.0-43.0-2.0-0.0-2.0,,,,,,,,,,,,,,,62ce9f115a24ca323371d2dc,14:17:10,06/03/2024
,"<p style=""font-size:75px;"">...</p>",,ospan,iti,k06tA1K46mVKhs962UxfoQkO5NE3,html-keyboard-response,79,558529,0.0-43.0-2.0-1.0-0.0,,,,,,,,,,,,,,,62ce9f115a24ca323371d2dc,14:17:10,06/03/2024
3031.0,,,ospan,symmetry,k06tA1K46mVKhs962UxfoQkO5NE3,symmetry-judgement-task,80,562994,0.0-43.0-2.0-1.0-1.0-0.0,,,,,,,,,,1.0,1.0,,,,62ce9f115a24ca323371d2dc,14:17:10,06/03/2024
,"<div style=""font-size: 10rem; color: #0000FF"">S</div>",,ospan,letter,k06tA1K46mVKhs962UxfoQkO5NE3,html-keyboard-response,81,563997,0.0-43.0-2.0-1.0-1.0-1.0,,,,,,,,,,,,,,,62ce9f115a24ca323371d2dc,14:17:10,06/03/2024
3211.0,,,ospan,symmetry,k06tA1K46mVKhs962UxfoQkO5NE3,symmetry-judgement-task,82,569349,0.0-43.0-2.0-1.0-1.0-2.0,,,,,,,,,,1.0,1.0,,,,62ce9f115a24ca323371d2dc,14:17:10,06/03/2024
,"<div style=""font-size: 10rem; color: #0000FF"">K</div>",,ospan,letter,k06tA1K46mVKhs962UxfoQkO5NE3,html-keyboard-response,83,570352,0.0-43.0-2.0-1.0-1.0-3.0,,,,,,,,,,,,,,,62ce9f115a24ca323371d2dc,14:17:10,06/03/2024
2272.0,,,ospan,symmetry,k06tA1K46mVKhs962UxfoQkO5NE3,symmetry-judgement-task,84,574744,0.0-43.0-2.0-1.0-1.0-4.0,,,,,,,,,,1.0,1.0,,,,62ce9f115a24ca323371d2dc,14:17:10,06/03/2024
,"<div style=""font-size: 10rem; color: #0000FF"">Y</div>",,ospan,letter,k06tA1K46mVKhs962UxfoQkO5NE3,html-keyboard-response,85,575746,0.0-43.0-2.0-1.0-1.0-5.0,,,,,,,,,,,,,,,62ce9f115a24ca323371d2dc,14:17:10,06/03/2024
7894.0,"<div class = numbox><p style=""font-size: 2.4rem"">Please recall the letters you saw to the best of your ability. If you do not remember a particular letter, use the SKIP button.<br><b>(When you are ready to lock in your answer, press ENTER)</b></p><button id = button_1 class = ""square num-button"" onclick = ""recordClick(this)""><div class = content><div class = numbers>C</div></div></button><button id = button_2 class = ""square num-button"" onclick = ""recordClick(this)""><div class = content><div class = numbers>G</div></div></button><button id = button_3 class = ""square num-button"" onclick = ""recordClick(this)""><div class = content><div class = numbers>H</div></div></button><button id = button_4 class = ""square num-button"" onclick = ""recordClick(this)""><div class = content><div class = numbers>J</div></div></button><button id = button_5 class = ""square num-button"" onclick = ""recordClick(this)""><div class = content><div class = numbers>K</div></div></button><button id = button_6 class = ""square num-button"" onclick = ""recordClick(this)""><div class = content><div class = numbers>L</div></div></button><button id = button_7 class = ""square num-button"" onclick = ""recordClick(this)""><div class = content><div class = numbers>N</div></div></button><button id = button_8 class = ""square num-button"" onclick = ""recordClick(this)""><div class = content><div class = numbers>P</div></div></button><button id = button_9 class = ""square num-button"" onclick = ""recordClick(this)""><div class = content><div class = numbers>Q</div></div></button><button id = button_10 class = ""square num-button"" onclick = ""recordClick(this)""><div class = content><div class = numbers>R</div></div></button><button id = button_11 class = ""square num-button"" onclick = ""recordClick(this)""><div class = content><div class = numbers>S</div></div></button><button id = button_12 class = ""square num-button"" onclick = ""recordClick(this)""><div class = content><div class = numbers>Y</div></div></button><button class = clear_button id = ""ClearButton"" onclick = ""clearResponse()"">BACKSPACE</button><button class = blank_button id = ""BlankButton"" onclick = ""blankResponse()"">SKIP</button><p style=""font-size: 2.4rem""><u><b>Current Answer:</b></u></p><br><br><div id=echoed_txt style=""font-size: 5rem; color:blue;""><b></b></div></div>",enter,ospan,retrieval,k06tA1K46mVKhs962UxfoQkO5NE3,html-keyboard-response,86,584393,0.0-43.0-2.0-1.0-2.0-0.0,NA,NA,NA,3.0,"[""S"",""K"",""Y""]","[""S"",""K"",""Y""]",1.0,3.0,"['<font color=""green"">S</font>', '<font color=""green"">K</font>', '<font color=""green"">Y</font>']",,,,,,62ce9f115a24ca323371d2dc,14:17:10,06/03/2024
3634.0,"['<p style=""font-size:44px"">Letters:<br><br><br><font color=""green"">S</font> <font color=""green"">K</font> <font color=""green"">Y</font></p><br><br><p style=""font-size:30px"">Symmetry:<br><br><font color=""green"">100%</font></p><br><br>']",0,ospan,practice_feedback,k06tA1K46mVKhs962UxfoQkO5NE3,html-button-response,87,588533,0.0-43.0-2.0-1.0-2.0-1.0,,,,,,,,,,,,,,,62ce9f115a24ca323371d2dc,14:17:10,06/03/2024
,"<p style=""font-size:75px;"">...</p>",,ospan,iti,k06tA1K46mVKhs962UxfoQkO5NE3,html-keyboard-response,88,589537,0.0-43.0-2.0-2.0-0.0,,,,,,,,,,,,,,,62ce9f115a24ca323371d2dc,14:17:10,06/03/2024
3116.0,,,ospan,symmetry,k06tA1K46mVKhs962UxfoQkO5NE3,symmetry-judgement-task,89,594058,0.0-43.0-2.0-2.0-1.0-0.0,,,,,,,,,,1.0,1.0,,,,62ce9f115a24ca323371d2dc,14:17:10,06/03/2024
,"<div style=""font-size: 10rem; color: #0000FF"">S</div>",,ospan,letter,k06tA1K46mVKhs962UxfoQkO5NE3,html-keyboard-response,90,595060,0.0-43.0-2.0-2.0-1.0-1.0,,,,,,,,,,,,,,,62ce9f115a24ca323371d2dc,14:17:10,06/03/2024
2541.0,,,ospan,symmetry,k06tA1K46mVKhs962UxfoQkO5NE3,symmetry-judgement-task,91,599771,0.0-43.0-2.0-2.0-1.0-2.0,,,,,,,,,,1.0,1.0,,,,62ce9f115a24ca323371d2dc,14:17:10,06/03/2024
,"<div style=""font-size: 10rem; color: #0000FF"">R</div>",,ospan,letter,k06tA1K46mVKhs962UxfoQkO5NE3,html-keyboard-response,92,600773,0.0-43.0-2.0-2.0-1.0-3.0,,,,,,,,,,,,,,,62ce9f115a24ca323371d2dc,14:17:10,06/03/2024
4578.0,,,ospan,symmetry,k06tA1K46mVKhs962UxfoQkO5NE3,symmetry-judgement-task,93,607531,0.0-43.0-2.0-2.0-1.0-4.0,,,,,,,,,,1.0,1.0,,,,62ce9f115a24ca323371d2dc,14:17:10,06/03/2024
,"<div style=""font-size: 10rem; color: #0000FF"">J</div>",,ospan,letter,k06tA1K46mVKhs962UxfoQkO5NE3,html-keyboard-response,94,608534,0.0-43.0-2.0-2.0-1.0-5.0,,,,,,,,,,,,,,,62ce9f115a24ca323371d2dc,14:17:10,06/03/2024
5339.0,"<div class = numbox><p style=""font-size: 2.4rem"">Please recall the letters you saw to the best of your ability. If you do not remember a particular letter, use the SKIP button.<br><b>(When you are ready to lock in your answer, press ENTER)</b></p><button id = button_1 class = ""square num-button"" onclick = ""recordClick(this)""><div class = content><div class = numbers>C</div></div></button><button id = button_2 class = ""square num-button"" onclick = ""recordClick(this)""><div class = content><div class = numbers>G</div></div></button><button id = button_3 class = ""square num-button"" onclick = ""recordClick(this)""><div class = content><div class = numbers>H</div></div></button><button id = button_4 class = ""square num-button"" onclick = ""recordClick(this)""><div class = content><div class = numbers>J</div></div></button><button id = button_5 class = ""square num-button"" onclick = ""recordClick(this)""><div class = content><div class = numbers>K</div></div></button><button id = button_6 class = ""square num-button"" onclick = ""recordClick(this)""><div class = content><div class = numbers>L</div></div></button><button id = button_7 class = ""square num-button"" onclick = ""recordClick(this)""><div class = content><div class = numbers>N</div></div></button><button id = button_8 class = ""square num-button"" onclick = ""recordClick(this)""><div class = content><div class = numbers>P</div></div></button><button id = button_9 class = ""square num-button"" onclick = ""recordClick(this)""><div class = content><div class = numbers>Q</div></div></button><button id = button_10 class = ""square num-button"" onclick = ""recordClick(this)""><div class = content><div class = numbers>R</div></div></button><button id = button_11 class = ""square num-button"" onclick = ""recordClick(this)""><div class = content><div class = numbers>S</div></div></button><button id = button_12 class = ""square num-button"" onclick = ""recordClick(this)""><div class = content><div class = numbers>Y</div></div></button><button class = clear_button id = ""ClearButton"" onclick = ""clearResponse()"">BACKSPACE</button><button class = blank_button id = ""BlankButton"" onclick = ""blankResponse()"">SKIP</button><p style=""font-size: 2.4rem""><u><b>Current Answer:</b></u></p><br><br><div id=echoed_txt style=""font-size: 5rem; color:blue;""><b></b></div></div>",enter,ospan,retrieval,k06tA1K46mVKhs962UxfoQkO5NE3,html-keyboard-response,95,614625,0.0-43.0-2.0-2.0-2.0-0.0,NA,NA,NA,3.0,"[""S"",""R"",""J""]","[""S"",""R"",""J""]",1.0,3.0,"['<font color=""green"">S</font>', '<font color=""green"">R</font>', '<font color=""green"">J</font>']",,,,,,62ce9f115a24ca323371d2dc,14:17:10,06/03/2024
1334.0,"['<p style=""font-size:44px"">Letters:<br><br><br><font color=""green"">S</font> <font color=""green"">R</font> <font color=""green"">J</font></p><br><br><p style=""font-size:30px"">Symmetry:<br><br><font color=""green"">100%</font></p><br><br>']",0,ospan,practice_feedback,k06tA1K46mVKhs962UxfoQkO5NE3,html-button-response,96,616460,0.0-43.0-2.0-2.0-2.0-1.0,,,,,,,,,,,,,,,62ce9f115a24ca323371d2dc,14:17:10,06/03/2024
23136.0,"<div class = 'left_align' style='font-size: 3rem; line-height: 1.3;'><b>Great work! That is the end of practice.</b><br><br>The real trials will look just like the practice trials you just completed.<br><br><u>Here, you will not see feedback</u>. First, you will see an grid picture to judge,<br>then a letter to remember. When the recall screen appears, report the letters in the<br>order presented. If you forget a letter, remember to use the <b>blank</b> button to move to the<br>next letter. Some of the sets will have more symmetry grids and letters than others.<br><br>It is important that you do your best on both the symmetry judgments and the letter recall<br>parts of the experiment. For for the symmetry judgments, try to work as <b>quickly</b> and <br>as <b>accurately</b> as possible. Remember to keep your symmetry accuracy at 85% or above.<br><br><b>For the letters, do NOT use any external aid (e.g., writing on paper, electronic device).</b><br><br>It is <u>very important</u> to our experiment to have a <b>true</b> view of your real performance.<br><br>Do not worry if you miss some when it gets hard! This task is meant to be very challenging!<br><br>Click the button to begin.</div><br><br><br><br>",0,ospan,starting_real_here,k06tA1K46mVKhs962UxfoQkO5NE3,html-button-response,97,639599,0.0-43.0-2.0-3.0,,,,,,,,,,,,,,,62ce9f115a24ca323371d2dc,14:17:10,06/03/2024
,"<p style=""font-size:75px;"">...</p>",,ospan,iti,k06tA1K46mVKhs962UxfoQkO5NE3,html-keyboard-response,98,640857,0.0-43.0-3.0-0.0-0.0,,,,,,,,,,,,,,,62ce9f115a24ca323371d2dc,14:17:10,06/03/2024
2180.0,,,ospan,symmetry,k06tA1K46mVKhs962UxfoQkO5NE3,symmetry-judgement-task,99,644245,0.0-43.0-3.0-0.0-1.0-0.0,,,,,,,,,,1.0,1.0,,,,62ce9f115a24ca323371d2dc,14:17:10,06/03/2024
,"<div style=""font-size: 10rem; color: #0000FF"">S</div>",,ospan,letter,k06tA1K46mVKhs962UxfoQkO5NE3,html-keyboard-response,100,645249,0.0-43.0-3.0-0.0-1.0-1.0,,,,,,,,,,,,,,,62ce9f115a24ca323371d2dc,14:17:10,06/03/2024
1880.0,,,ospan,symmetry,k06tA1K46mVKhs962UxfoQkO5NE3,symmetry-judgement-task,101,649253,0.0-43.0-3.0-0.0-1.0-2.0,,,,,,,,,,1.0,1.0,,,,62ce9f115a24ca323371d2dc,14:17:10,06/03/2024
,"<div style=""font-size: 10rem; color: #0000FF"">C</div>",,ospan,letter,k06tA1K46mVKhs962UxfoQkO5NE3,html-keyboard-response,102,650257,0.0-43.0-3.0-0.0-1.0-3.0,,,,,,,,,,,,,,,62ce9f115a24ca323371d2dc,14:17:10,06/03/2024
2034.0,,,ospan,symmetry,k06tA1K46mVKhs962UxfoQkO5NE3,symmetry-judgement-task,103,654407,0.0-43.0-3.0-0.0-1.0-4.0,,,,,,,,,,1.0,1.0,,,,62ce9f115a24ca323371d2dc,14:17:10,06/03/2024
,"<div style=""font-size: 10rem; color: #0000FF"">K</div>",,ospan,letter,k06tA1K46mVKhs962UxfoQkO5NE3,html-keyboard-response,104,655411,0.0-43.0-3.0-0.0-1.0-5.0,,,,,,,,,,,,,,,62ce9f115a24ca323371d2dc,14:17:10,06/03/2024
6889.0,"<div class = numbox><p style=""font-size: 2.4rem"">Please recall the letters you saw to the best of your ability. If you do not remember a particular letter, use the SKIP button.<br><b>(When you are ready to lock in your answer, press ENTER)</b></p><button id = button_1 class = ""square num-button"" onclick = ""recordClick(this)""><div class = content><div class = numbers>C</div></div></button><button id = button_2 class = ""square num-button"" onclick = ""recordClick(this)""><div class = content><div class = numbers>G</div></div></button><button id = button_3 class = ""square num-button"" onclick = ""recordClick(this)""><div class = content><div class = numbers>H</div></div></button><button id = button_4 class = ""square num-button"" onclick = ""recordClick(this)""><div class = content><div class = numbers>J</div></div></button><button id = button_5 class = ""square num-button"" onclick = ""recordClick(this)""><div class = content><div class = numbers>K</div></div></button><button id = button_6 class = ""square num-button"" onclick = ""recordClick(this)""><div class = content><div class = numbers>L</div></div></button><button id = button_7 class = ""square num-button"" onclick = ""recordClick(this)""><div class = content><div class = numbers>N</div></div></button><button id = button_8 class = ""square num-button"" onclick = ""recordClick(this)""><div class = content><div class = numbers>P</div></div></button><button id = button_9 class = ""square num-button"" onclick = ""recordClick(this)""><div class = content><div class = numbers>Q</div></div></button><button id = button_10 class = ""square num-button"" onclick = ""recordClick(this)""><div class = content><div class = numbers>R</div></div></button><button id = button_11 class = ""square num-button"" onclick = ""recordClick(this)""><div class = content><div class = numbers>S</div></div></button><button id = button_12 class = ""square num-button"" onclick = ""recordClick(this)""><div class = content><div class = numbers>Y</div></div></button><button class = clear_button id = ""ClearButton"" onclick = ""clearResponse()"">BACKSPACE</button><button class = blank_button id = ""BlankButton"" onclick = ""blankResponse()"">SKIP</button><p style=""font-size: 2.4rem""><u><b>Current Answer:</b></u></p><br><br><div id=echoed_txt style=""font-size: 5rem; color:blue;""><b></b></div></div>",enter,ospan,retrieval,k06tA1K46mVKhs962UxfoQkO5NE3,html-keyboard-response,105,663056,0.0-43.0-3.0-0.0-2.0,3,3,3,3.0,"[""S"",""C"",""K""]","[""S"",""C"",""K""]",1.0,3.0,,,,,,,62ce9f115a24ca323371d2dc,14:17:10,06/03/2024
1219.0,[''],0,ospan,feedback,k06tA1K46mVKhs962UxfoQkO5NE3,html-button-response,106,664779,0.0-43.0-3.0-0.0-3.0,,,,,,,,,,,,100.0,0.0,,62ce9f115a24ca323371d2dc,14:17:10,06/03/2024
,"<p style=""font-size:75px;"">...</p>",,ospan,iti,k06tA1K46mVKhs962UxfoQkO5NE3,html-keyboard-response,107,665784,0.0-43.0-4.0-0.0-0.0,,,,,,,,,,,,,,,62ce9f115a24ca323371d2dc,14:17:10,06/03/2024
2639.0,,,ospan,symmetry,k06tA1K46mVKhs962UxfoQkO5NE3,symmetry-judgement-task,108,669821,0.0-43.0-4.0-0.0-1.0-0.0,,,,,,,,,,1.0,1.0,,,,62ce9f115a24ca323371d2dc,14:17:10,06/03/2024
,"<div style=""font-size: 10rem; color: #0000FF"">R</div>",,ospan,letter,k06tA1K46mVKhs962UxfoQkO5NE3,html-keyboard-response,109,670825,0.0-43.0-4.0-0.0-1.0-1.0,,,,,,,,,,,,,,,62ce9f115a24ca323371d2dc,14:17:10,06/03/2024
1751.0,,,ospan,symmetry,k06tA1K46mVKhs962UxfoQkO5NE3,symmetry-judgement-task,110,674701,0.0-43.0-4.0-0.0-1.0-2.0,,,,,,,,,,1.0,1.0,,,,62ce9f115a24ca323371d2dc,14:17:10,06/03/2024
,"<div style=""font-size: 10rem; color: #0000FF"">J</div>",,ospan,letter,k06tA1K46mVKhs962UxfoQkO5NE3,html-keyboard-response,111,675704,0.0-43.0-4.0-0.0-1.0-3.0,,,,,,,,,,,,,,,62ce9f115a24ca323371d2dc,14:17:10,06/03/2024
2749.0,,,ospan,symmetry,k06tA1K46mVKhs962UxfoQkO5NE3,symmetry-judgement-task,112,680573,0.0-43.0-4.0-0.0-1.0-4.0,,,,,,,,,,1.0,1.0,,,,62ce9f115a24ca323371d2dc,14:17:10,06/03/2024
,"<div style=""font-size: 10rem; color: #0000FF"">Q</div>",,ospan,letter,k06tA1K46mVKhs962UxfoQkO5NE3,html-keyboard-response,113,681577,0.0-43.0-4.0-0.0-1.0-5.0,,,,,,,,,,,,,,,62ce9f115a24ca323371d2dc,14:17:10,06/03/2024
1830.0,,,ospan,symmetry,k06tA1K46mVKhs962UxfoQkO5NE3,symmetry-judgement-task,114,685559,0.0-43.0-4.0-0.0-1.0-6.0,,,,,,,,,,1.0,1.0,,,,62ce9f115a24ca323371d2dc,14:17:10,06/03/2024
,"<div style=""font-size: 10rem; color: #0000FF"">C</div>",,ospan,letter,k06tA1K46mVKhs962UxfoQkO5NE3,html-keyboard-response,115,686561,0.0-43.0-4.0-0.0-1.0-7.0,,,,,,,,,,,,,,,62ce9f115a24ca323371d2dc,14:17:10,06/03/2024
5501.0,"<div class = numbox><p style=""font-size: 2.4rem"">Please recall the letters you saw to the best of your ability. If you do not remember a particular letter, use the SKIP button.<br><b>(When you are ready to lock in your answer, press ENTER)</b></p><button id = button_1 class = ""square num-button"" onclick = ""recordClick(this)""><div class = content><div class = numbers>C</div></div></button><button id = button_2 class = ""square num-button"" onclick = ""recordClick(this)""><div class = content><div class = numbers>G</div></div></button><button id = button_3 class = ""square num-button"" onclick = ""recordClick(this)""><div class = content><div class = numbers>H</div></div></button><button id = button_4 class = ""square num-button"" onclick = ""recordClick(this)""><div class = content><div class = numbers>J</div></div></button><button id = button_5 class = ""square num-button"" onclick = ""recordClick(this)""><div class = content><div class = numbers>K</div></div></button><button id = button_6 class = ""square num-button"" onclick = ""recordClick(this)""><div class = content><div class = numbers>L</div></div></button><button id = button_7 class = ""square num-button"" onclick = ""recordClick(this)""><div class = content><div class = numbers>N</div></div></button><button id = button_8 class = ""square num-button"" onclick = ""recordClick(this)""><div class = content><div class = numbers>P</div></div></button><button id = button_9 class = ""square num-button"" onclick = ""recordClick(this)""><div class = content><div class = numbers>Q</div></div></button><button id = button_10 class = ""square num-button"" onclick = ""recordClick(this)""><div class = content><div class = numbers>R</div></div></button><button id = button_11 class = ""square num-button"" onclick = ""recordClick(this)""><div class = content><div class = numbers>S</div></div></button><button id = button_12 class = ""square num-button"" onclick = ""recordClick(this)""><div class = content><div class = numbers>Y</div></div></button><button class = clear_button id = ""ClearButton"" onclick = ""clearResponse()"">BACKSPACE</button><button class = blank_button id = ""BlankButton"" onclick = ""blankResponse()"">SKIP</button><p style=""font-size: 2.4rem""><u><b>Current Answer:</b></u></p><br><br><div id=echoed_txt style=""font-size: 5rem; color:blue;""><b></b></div></div>",enter,ospan,retrieval,k06tA1K46mVKhs962UxfoQkO5NE3,html-keyboard-response,116,692815,0.0-43.0-4.0-0.0-2.0,7,7,7,4.0,"[""R"",""J"",""Q"",""C""]","[""R"",""J"",""Q"",""C""]",1.0,4.0,,,,,,,62ce9f115a24ca323371d2dc,14:17:10,06/03/2024
1705.0,[''],0,ospan,feedback,k06tA1K46mVKhs962UxfoQkO5NE3,html-button-response,117,695023,0.0-43.0-4.0-0.0-3.0,,,,,,,,,,,,100.0,0.0,,62ce9f115a24ca323371d2dc,14:17:10,06/03/2024
,"<p style=""font-size:75px;"">...</p>",,ospan,iti,k06tA1K46mVKhs962UxfoQkO5NE3,html-keyboard-response,118,696025,0.0-43.0-4.0-1.0-0.0,,,,,,,,,,,,,,,62ce9f115a24ca323371d2dc,14:17:10,06/03/2024
1862.0,,,ospan,symmetry,k06tA1K46mVKhs962UxfoQkO5NE3,symmetry-judgement-task,119,699300,0.0-43.0-4.0-1.0-1.0-0.0,,,,,,,,,,1.0,1.0,,,,62ce9f115a24ca323371d2dc,14:17:10,06/03/2024
,"<div style=""font-size: 10rem; color: #0000FF"">K</div>",,ospan,letter,k06tA1K46mVKhs962UxfoQkO5NE3,html-keyboard-response,120,700301,0.0-43.0-4.0-1.0-1.0-1.0,,,,,,,,,,,,,,,62ce9f115a24ca323371d2dc,14:17:10,06/03/2024
1873.0,,,ospan,symmetry,k06tA1K46mVKhs962UxfoQkO5NE3,symmetry-judgement-task,121,704306,0.0-43.0-4.0-1.0-1.0-2.0,,,,,,,,,,1.0,1.0,,,,62ce9f115a24ca323371d2dc,14:17:10,06/03/2024
,"<div style=""font-size: 10rem; color: #0000FF"">N</div>",,ospan,letter,k06tA1K46mVKhs962UxfoQkO5NE3,html-keyboard-response,122,705309,0.0-43.0-4.0-1.0-1.0-3.0,,,,,,,,,,,,,,,62ce9f115a24ca323371d2dc,14:17:10,06/03/2024
1406.0,,,ospan,symmetry,k06tA1K46mVKhs962UxfoQkO5NE3,symmetry-judgement-task,123,708891,0.0-43.0-4.0-1.0-1.0-4.0,,,,,,,,,,1.0,1.0,,,,62ce9f115a24ca323371d2dc,14:17:10,06/03/2024
,"<div style=""font-size: 10rem; color: #0000FF"">C</div>",,ospan,letter,k06tA1K46mVKhs962UxfoQkO5NE3,html-keyboard-response,124,709894,0.0-43.0-4.0-1.0-1.0-5.0,,,,,,,,,,,,,,,62ce9f115a24ca323371d2dc,14:17:10,06/03/2024
1876.0,,,ospan,symmetry,k06tA1K46mVKhs962UxfoQkO5NE3,symmetry-judgement-task,125,713933,0.0-43.0-4.0-1.0-1.0-6.0,,,,,,,,,,1.0,1.0,,,,62ce9f115a24ca323371d2dc,14:17:10,06/03/2024
,"<div style=""font-size: 10rem; color: #0000FF"">Y</div>",,ospan,letter,k06tA1K46mVKhs962UxfoQkO5NE3,html-keyboard-response,126,714935,0.0-43.0-4.0-1.0-1.0-7.0,,,,,,,,,,,,,,,62ce9f115a24ca323371d2dc,14:17:10,06/03/2024
2659.0,,,ospan,symmetry,k06tA1K46mVKhs962UxfoQkO5NE3,symmetry-judgement-task,127,719792,0.0-43.0-4.0-1.0-1.0-8.0,,,,,,,,,,1.0,1.0,,,,62ce9f115a24ca323371d2dc,14:17:10,06/03/2024
,"<div style=""font-size: 10rem; color: #0000FF"">R</div>",,ospan,letter,k06tA1K46mVKhs962UxfoQkO5NE3,html-keyboard-response,128,720794,0.0-43.0-4.0-1.0-1.0-9.0,,,,,,,,,,,,,,,62ce9f115a24ca323371d2dc,14:17:10,06/03/2024
6330.0,"<div class = numbox><p style=""font-size: 2.4rem"">Please recall the letters you saw to the best of your ability. If you do not remember a particular letter, use the SKIP button.<br><b>(When you are ready to lock in your answer, press ENTER)</b></p><button id = button_1 class = ""square num-button"" onclick = ""recordClick(this)""><div class = content><div class = numbers>C</div></div></button><button id = button_2 class = ""square num-button"" onclick = ""recordClick(this)""><div class = content><div class = numbers>G</div></div></button><button id = button_3 class = ""square num-button"" onclick = ""recordClick(this)""><div class = content><div class = numbers>H</div></div></button><button id = button_4 class = ""square num-button"" onclick = ""recordClick(this)""><div class = content><div class = numbers>J</div></div></button><button id = button_5 class = ""square num-button"" onclick = ""recordClick(this)""><div class = content><div class = numbers>K</div></div></button><button id = button_6 class = ""square num-button"" onclick = ""recordClick(this)""><div class = content><div class = numbers>L</div></div></button><button id = button_7 class = ""square num-button"" onclick = ""recordClick(this)""><div class = content><div class = numbers>N</div></div></button><button id = button_8 class = ""square num-button"" onclick = ""recordClick(this)""><div class = content><div class = numbers>P</div></div></button><button id = button_9 class = ""square num-button"" onclick = ""recordClick(this)""><div class = content><div class = numbers>Q</div></div></button><button id = button_10 class = ""square num-button"" onclick = ""recordClick(this)""><div class = content><div class = numbers>R</div></div></button><button id = button_11 class = ""square num-button"" onclick = ""recordClick(this)""><div class = content><div class = numbers>S</div></div></button><button id = button_12 class = ""square num-button"" onclick = ""recordClick(this)""><div class = content><div class = numbers>Y</div></div></button><button class = clear_button id = ""ClearButton"" onclick = ""clearResponse()"">BACKSPACE</button><button class = blank_button id = ""BlankButton"" onclick = ""blankResponse()"">SKIP</button><p style=""font-size: 2.4rem""><u><b>Current Answer:</b></u></p><br><br><div id=echoed_txt style=""font-size: 5rem; color:blue;""><b></b></div></div>",enter,ospan,retrieval,k06tA1K46mVKhs962UxfoQkO5NE3,html-keyboard-response,129,727878,0.0-43.0-4.0-1.0-2.0,12,12,12,5.0,"[""K"",""N"",""C"",""Y"",""R""]","[""K"",""N"",""C"",""Y"",""R""]",1.0,5.0,,,,,,,62ce9f115a24ca323371d2dc,14:17:10,06/03/2024
1045.0,[''],0,ospan,feedback,k06tA1K46mVKhs962UxfoQkO5NE3,html-button-response,130,729427,0.0-43.0-4.0-1.0-3.0,,,,,,,,,,,,100.0,0.0,,62ce9f115a24ca323371d2dc,14:17:10,06/03/2024
,"<p style=""font-size:75px;"">...</p>",,ospan,iti,k06tA1K46mVKhs962UxfoQkO5NE3,html-keyboard-response,131,730430,0.0-43.0-4.0-2.0-0.0,,,,,,,,,,,,,,,62ce9f115a24ca323371d2dc,14:17:10,06/03/2024
1436.0,,,ospan,symmetry,k06tA1K46mVKhs962UxfoQkO5NE3,symmetry-judgement-task,132,733331,0.0-43.0-4.0-2.0-1.0-0.0,,,,,,,,,,1.0,1.0,,,,62ce9f115a24ca323371d2dc,14:17:10,06/03/2024
,"<div style=""font-size: 10rem; color: #0000FF"">K</div>",,ospan,letter,k06tA1K46mVKhs962UxfoQkO5NE3,html-keyboard-response,133,734334,0.0-43.0-4.0-2.0-1.0-1.0,,,,,,,,,,,,,,,62ce9f115a24ca323371d2dc,14:17:10,06/03/2024
1862.0,,,ospan,symmetry,k06tA1K46mVKhs962UxfoQkO5NE3,symmetry-judgement-task,134,738437,0.0-43.0-4.0-2.0-1.0-2.0,,,,,,,,,,1.0,1.0,,,,62ce9f115a24ca323371d2dc,14:17:10,06/03/2024
,"<div style=""font-size: 10rem; color: #0000FF"">L</div>",,ospan,letter,k06tA1K46mVKhs962UxfoQkO5NE3,html-keyboard-response,135,739438,0.0-43.0-4.0-2.0-1.0-3.0,,,,,,,,,,,,,,,62ce9f115a24ca323371d2dc,14:17:10,06/03/2024
1765.0,,,ospan,symmetry,k06tA1K46mVKhs962UxfoQkO5NE3,symmetry-judgement-task,136,743368,0.0-43.0-4.0-2.0-1.0-4.0,,,,,,,,,,1.0,1.0,,,,62ce9f115a24ca323371d2dc,14:17:10,06/03/2024
,"<div style=""font-size: 10rem; color: #0000FF"">J</div>",,ospan,letter,k06tA1K46mVKhs962UxfoQkO5NE3,html-keyboard-response,137,744371,0.0-43.0-4.0-2.0-1.0-5.0,,,,,,,,,,,,,,,62ce9f115a24ca323371d2dc,14:17:10,06/03/2024
5431.0,"<div class = numbox><p style=""font-size: 2.4rem"">Please recall the letters you saw to the best of your ability. If you do not remember a particular letter, use the SKIP button.<br><b>(When you are ready to lock in your answer, press ENTER)</b></p><button id = button_1 class = ""square num-button"" onclick = ""recordClick(this)""><div class = content><div class = numbers>C</div></div></button><button id = button_2 class = ""square num-button"" onclick = ""recordClick(this)""><div class = content><div class = numbers>G</div></div></button><button id = button_3 class = ""square num-button"" onclick = ""recordClick(this)""><div class = content><div class = numbers>H</div></div></button><button id = button_4 class = ""square num-button"" onclick = ""recordClick(this)""><div class = content><div class = numbers>J</div></div></button><button id = button_5 class = ""square num-button"" onclick = ""recordClick(this)""><div class = content><div class = numbers>K</div></div></button><button id = button_6 class = ""square num-button"" onclick = ""recordClick(this)""><div class = content><div class = numbers>L</div></div></button><button id = button_7 class = ""square num-button"" onclick = ""recordClick(this)""><div class = content><div class = numbers>N</div></div></button><button id = button_8 class = ""square num-button"" onclick = ""recordClick(this)""><div class = content><div class = numbers>P</div></div></button><button id = button_9 class = ""square num-button"" onclick = ""recordClick(this)""><div class = content><div class = numbers>Q</div></div></button><button id = button_10 class = ""square num-button"" onclick = ""recordClick(this)""><div class = content><div class = numbers>R</div></div></button><button id = button_11 class = ""square num-button"" onclick = ""recordClick(this)""><div class = content><div class = numbers>S</div></div></button><button id = button_12 class = ""square num-button"" onclick = ""recordClick(this)""><div class = content><div class = numbers>Y</div></div></button><button class = clear_button id = ""ClearButton"" onclick = ""clearResponse()"">BACKSPACE</button><button class = blank_button id = ""BlankButton"" onclick = ""blankResponse()"">SKIP</button><p style=""font-size: 2.4rem""><u><b>Current Answer:</b></u></p><br><br><div id=echoed_txt style=""font-size: 5rem; color:blue;""><b></b></div></div>",enter,ospan,retrieval,k06tA1K46mVKhs962UxfoQkO5NE3,html-keyboard-response,138,750556,0.0-43.0-4.0-2.0-2.0,15,15,15,3.0,"[""K"",""L"",""J""]","[""K"",""L"",""J""]",1.0,3.0,,,,,,,62ce9f115a24ca323371d2dc,14:17:10,06/03/2024
10870.0,[''],0,ospan,feedback,k06tA1K46mVKhs962UxfoQkO5NE3,html-button-response,139,761931,0.0-43.0-4.0-2.0-3.0,,,,,,,,,,,,100.0,0.0,,62ce9f115a24ca323371d2dc,14:17:10,06/03/2024
,"<p style=""font-size:75px;"">...</p>",,ospan,iti,k06tA1K46mVKhs962UxfoQkO5NE3,html-keyboard-response,140,762934,0.0-43.0-5.0-0.0-0.0,,,,,,,,,,,,,,,62ce9f115a24ca323371d2dc,14:17:10,06/03/2024
3795.0,,,ospan,symmetry,k06tA1K46mVKhs962UxfoQkO5NE3,symmetry-judgement-task,141,768145,0.0-43.0-5.0-0.0-1.0-0.0,,,,,,,,,,1.0,1.0,,,,62ce9f115a24ca323371d2dc,14:17:10,06/03/2024
,"<div style=""font-size: 10rem; color: #0000FF"">G</div>",,ospan,letter,k06tA1K46mVKhs962UxfoQkO5NE3,html-keyboard-response,142,769147,0.0-43.0-5.0-0.0-1.0-1.0,,,,,,,,,,,,,,,62ce9f115a24ca323371d2dc,14:17:10,06/03/2024
2062.0,,,ospan,symmetry,k06tA1K46mVKhs962UxfoQkO5NE3,symmetry-judgement-task,143,773424,0.0-43.0-5.0-0.0-1.0-2.0,,,,,,,,,,1.0,1.0,,,,62ce9f115a24ca323371d2dc,14:17:10,06/03/2024
,"<div style=""font-size: 10rem; color: #0000FF"">P</div>",,ospan,letter,k06tA1K46mVKhs962UxfoQkO5NE3,html-keyboard-response,144,774429,0.0-43.0-5.0-0.0-1.0-3.0,,,,,,,,,,,,,,,62ce9f115a24ca323371d2dc,14:17:10,06/03/2024
1470.0,,,ospan,symmetry,k06tA1K46mVKhs962UxfoQkO5NE3,symmetry-judgement-task,145,778082,0.0-43.0-5.0-0.0-1.0-4.0,,,,,,,,,,1.0,1.0,,,,62ce9f115a24ca323371d2dc,14:17:10,06/03/2024
,"<div style=""font-size: 10rem; color: #0000FF"">J</div>",,ospan,letter,k06tA1K46mVKhs962UxfoQkO5NE3,html-keyboard-response,146,779086,0.0-43.0-5.0-0.0-1.0-5.0,,,,,,,,,,,,,,,62ce9f115a24ca323371d2dc,14:17:10,06/03/2024
1475.0,,,ospan,symmetry,k06tA1K46mVKhs962UxfoQkO5NE3,symmetry-judgement-task,147,782713,0.0-43.0-5.0-0.0-1.0-6.0,,,,,,,,,,1.0,1.0,,,,62ce9f115a24ca323371d2dc,14:17:10,06/03/2024
,"<div style=""font-size: 10rem; color: #0000FF"">K</div>",,ospan,letter,k06tA1K46mVKhs962UxfoQkO5NE3,html-keyboard-response,148,783714,0.0-43.0-5.0-0.0-1.0-7.0,,,,,,,,,,,,,,,62ce9f115a24ca323371d2dc,14:17:10,06/03/2024
2655.0,,,ospan,symmetry,k06tA1K46mVKhs962UxfoQkO5NE3,symmetry-judgement-task,149,788527,0.0-43.0-5.0-0.0-1.0-8.0,,,,,,,,,,1.0,1.0,,,,62ce9f115a24ca323371d2dc,14:17:10,06/03/2024
,"<div style=""font-size: 10rem; color: #0000FF"">H</div>",,ospan,letter,k06tA1K46mVKhs962UxfoQkO5NE3,html-keyboard-response,150,789528,0.0-43.0-5.0-0.0-1.0-9.0,,,,,,,,,,,,,,,62ce9f115a24ca323371d2dc,14:17:10,06/03/2024
1968.0,,,ospan,symmetry,k06tA1K46mVKhs962UxfoQkO5NE3,symmetry-judgement-task,151,793687,0.0-43.0-5.0-0.0-1.0-10.0,,,,,,,,,,1.0,1.0,,,,62ce9f115a24ca323371d2dc,14:17:10,06/03/2024
,"<div style=""font-size: 10rem; color: #0000FF"">N</div>",,ospan,letter,k06tA1K46mVKhs962UxfoQkO5NE3,html-keyboard-response,152,794689,0.0-43.0-5.0-0.0-1.0-11.0,,,,,,,,,,,,,,,62ce9f115a24ca323371d2dc,14:17:10,06/03/2024
13338.0,"<div class = numbox><p style=""font-size: 2.4rem"">Please recall the letters you saw to the best of your ability. If you do not remember a particular letter, use the SKIP button.<br><b>(When you are ready to lock in your answer, press ENTER)</b></p><button id = button_1 class = ""square num-button"" onclick = ""recordClick(this)""><div class = content><div class = numbers>C</div></div></button><button id = button_2 class = ""square num-button"" onclick = ""recordClick(this)""><div class = content><div class = numbers>G</div></div></button><button id = button_3 class = ""square num-button"" onclick = ""recordClick(this)""><div class = content><div class = numbers>H</div></div></button><button id = button_4 class = ""square num-button"" onclick = ""recordClick(this)""><div class = content><div class = numbers>J</div></div></button><button id = button_5 class = ""square num-button"" onclick = ""recordClick(this)""><div class = content><div class = numbers>K</div></div></button><button id = button_6 class = ""square num-button"" onclick = ""recordClick(this)""><div class = content><div class = numbers>L</div></div></button><button id = button_7 class = ""square num-button"" onclick = ""recordClick(this)""><div class = content><div class = numbers>N</div></div></button><button id = button_8 class = ""square num-button"" onclick = ""recordClick(this)""><div class = content><div class = numbers>P</div></div></button><button id = button_9 class = ""square num-button"" onclick = ""recordClick(this)""><div class = content><div class = numbers>Q</div></div></button><button id = button_10 class = ""square num-button"" onclick = ""recordClick(this)""><div class = content><div class = numbers>R</div></div></button><button id = button_11 class = ""square num-button"" onclick = ""recordClick(this)""><div class = content><div class = numbers>S</div></div></button><button id = button_12 class = ""square num-button"" onclick = ""recordClick(this)""><div class = content><div class = numbers>Y</div></div></button><button class = clear_button id = ""ClearButton"" onclick = ""clearResponse()"">BACKSPACE</button><button class = blank_button id = ""BlankButton"" onclick = ""blankResponse()"">SKIP</button><p style=""font-size: 2.4rem""><u><b>Current Answer:</b></u></p><br><br><div id=echoed_txt style=""font-size: 5rem; color:blue;""><b></b></div></div>",enter,ospan,retrieval,k06tA1K46mVKhs962UxfoQkO5NE3,html-keyboard-response,153,808780,0.0-43.0-5.0-0.0-2.0,21,21,21,6.0,"[""G"",""P"",""J"",""K"",""H"",""N""]","[""G"",""P"",""J"",""K"",""H"",""N""]",1.0,6.0,,,,,,,62ce9f115a24ca323371d2dc,14:17:10,06/03/2024
1039.0,[''],0,ospan,feedback,k06tA1K46mVKhs962UxfoQkO5NE3,html-button-response,154,810321,0.0-43.0-5.0-0.0-3.0,,,,,,,,,,,,100.0,0.0,,62ce9f115a24ca323371d2dc,14:17:10,06/03/2024
,"<p style=""font-size:75px;"">...</p>",,ospan,iti,k06tA1K46mVKhs962UxfoQkO5NE3,html-keyboard-response,155,811324,0.0-43.0-5.0-1.0-0.0,,,,,,,,,,,,,,,62ce9f115a24ca323371d2dc,14:17:10,06/03/2024
1840.0,,,ospan,symmetry,k06tA1K46mVKhs962UxfoQkO5NE3,symmetry-judgement-task,156,814525,0.0-43.0-5.0-1.0-1.0-0.0,,,,,,,,,,1.0,1.0,,,,62ce9f115a24ca323371d2dc,14:17:10,06/03/2024
,"<div style=""font-size: 10rem; color: #0000FF"">S</div>",,ospan,letter,k06tA1K46mVKhs962UxfoQkO5NE3,html-keyboard-response,157,815528,0.0-43.0-5.0-1.0-1.0-1.0,,,,,,,,,,,,,,,62ce9f115a24ca323371d2dc,14:17:10,06/03/2024
2145.0,,,ospan,symmetry,k06tA1K46mVKhs962UxfoQkO5NE3,symmetry-judgement-task,158,819830,0.0-43.0-5.0-1.0-1.0-2.0,,,,,,,,,,1.0,1.0,,,,62ce9f115a24ca323371d2dc,14:17:10,06/03/2024
,"<div style=""font-size: 10rem; color: #0000FF"">P</div>",,ospan,letter,k06tA1K46mVKhs962UxfoQkO5NE3,html-keyboard-response,159,820831,0.0-43.0-5.0-1.0-1.0-3.0,,,,,,,,,,,,,,,62ce9f115a24ca323371d2dc,14:17:10,06/03/2024
1888.0,,,ospan,symmetry,k06tA1K46mVKhs962UxfoQkO5NE3,symmetry-judgement-task,160,824847,0.0-43.0-5.0-1.0-1.0-4.0,,,,,,,,,,1.0,1.0,,,,62ce9f115a24ca323371d2dc,14:17:10,06/03/2024
,"<div style=""font-size: 10rem; color: #0000FF"">Q</div>",,ospan,letter,k06tA1K46mVKhs962UxfoQkO5NE3,html-keyboard-response,161,825851,0.0-43.0-5.0-1.0-1.0-5.0,,,,,,,,,,,,,,,62ce9f115a24ca323371d2dc,14:17:10,06/03/2024
1615.0,,,ospan,symmetry,k06tA1K46mVKhs962UxfoQkO5NE3,symmetry-judgement-task,162,829595,0.0-43.0-5.0-1.0-1.0-6.0,,,,,,,,,,1.0,1.0,,,,62ce9f115a24ca323371d2dc,14:17:10,06/03/2024
,"<div style=""font-size: 10rem; color: #0000FF"">R</div>",,ospan,letter,k06tA1K46mVKhs962UxfoQkO5NE3,html-keyboard-response,163,830598,0.0-43.0-5.0-1.0-1.0-7.0,,,,,,,,,,,,,,,62ce9f115a24ca323371d2dc,14:17:10,06/03/2024
3000.0,,,ospan,symmetry,k06tA1K46mVKhs962UxfoQkO5NE3,symmetry-judgement-task,164,835745,0.0-43.0-5.0-1.0-1.0-8.0,,,,,,,,,,1.0,1.0,,,,62ce9f115a24ca323371d2dc,14:17:10,06/03/2024
,"<div style=""font-size: 10rem; color: #0000FF"">H</div>",,ospan,letter,k06tA1K46mVKhs962UxfoQkO5NE3,html-keyboard-response,165,836746,0.0-43.0-5.0-1.0-1.0-9.0,,,,,,,,,,,,,,,62ce9f115a24ca323371d2dc,14:17:10,06/03/2024
2029.0,,,ospan,symmetry,k06tA1K46mVKhs962UxfoQkO5NE3,symmetry-judgement-task,166,840920,0.0-43.0-5.0-1.0-1.0-10.0,,,,,,,,,,1.0,1.0,,,,62ce9f115a24ca323371d2dc,14:17:10,06/03/2024
,"<div style=""font-size: 10rem; color: #0000FF"">L</div>",,ospan,letter,k06tA1K46mVKhs962UxfoQkO5NE3,html-keyboard-response,167,841923,0.0-43.0-5.0-1.0-1.0-11.0,,,,,,,,,,,,,,,62ce9f115a24ca323371d2dc,14:17:10,06/03/2024
1294.0,,,ospan,symmetry,k06tA1K46mVKhs962UxfoQkO5NE3,symmetry-judgement-task,168,845357,0.0-43.0-5.0-1.0-1.0-12.0,,,,,,,,,,1.0,1.0,,,,62ce9f115a24ca323371d2dc,14:17:10,06/03/2024
,"<div style=""font-size: 10rem; color: #0000FF"">K</div>",,ospan,letter,k06tA1K46mVKhs962UxfoQkO5NE3,html-keyboard-response,169,846359,0.0-43.0-5.0-1.0-1.0-13.0,,,,,,,,,,,,,,,62ce9f115a24ca323371d2dc,14:17:10,06/03/2024
13114.0,"<div class = numbox><p style=""font-size: 2.4rem"">Please recall the letters you saw to the best of your ability. If you do not remember a particular letter, use the SKIP button.<br><b>(When you are ready to lock in your answer, press ENTER)</b></p><button id = button_1 class = ""square num-button"" onclick = ""recordClick(this)""><div class = content><div class = numbers>C</div></div></button><button id = button_2 class = ""square num-button"" onclick = ""recordClick(this)""><div class = content><div class = numbers>G</div></div></button><button id = button_3 class = ""square num-button"" onclick = ""recordClick(this)""><div class = content><div class = numbers>H</div></div></button><button id = button_4 class = ""square num-button"" onclick = ""recordClick(this)""><div class = content><div class = numbers>J</div></div></button><button id = button_5 class = ""square num-button"" onclick = ""recordClick(this)""><div class = content><div class = numbers>K</div></div></button><button id = button_6 class = ""square num-button"" onclick = ""recordClick(this)""><div class = content><div class = numbers>L</div></div></button><button id = button_7 class = ""square num-button"" onclick = ""recordClick(this)""><div class = content><div class = numbers>N</div></div></button><button id = button_8 class = ""square num-button"" onclick = ""recordClick(this)""><div class = content><div class = numbers>P</div></div></button><button id = button_9 class = ""square num-button"" onclick = ""recordClick(this)""><div class = content><div class = numbers>Q</div></div></button><button id = button_10 class = ""square num-button"" onclick = ""recordClick(this)""><div class = content><div class = numbers>R</div></div></button><button id = button_11 class = ""square num-button"" onclick = ""recordClick(this)""><div class = content><div class = numbers>S</div></div></button><button id = button_12 class = ""square num-button"" onclick = ""recordClick(this)""><div class = content><div class = numbers>Y</div></div></button><button class = clear_button id = ""ClearButton"" onclick = ""clearResponse()"">BACKSPACE</button><button class = blank_button id = ""BlankButton"" onclick = ""blankResponse()"">SKIP</button><p style=""font-size: 2.4rem""><u><b>Current Answer:</b></u></p><br><br><div id=echoed_txt style=""font-size: 5rem; color:blue;""><b></b></div></div>",enter,ospan,retrieval,k06tA1K46mVKhs962UxfoQkO5NE3,html-keyboard-response,170,860227,0.0-43.0-5.0-1.0-2.0,28,28,28,7.0,"[""S"",""P"",""Q"",""R"",""H"",""L"",""K""]","[""S"",""P"",""Q"",""R"",""H"",""L"",""K""]",1.0,7.0,,,,,,,62ce9f115a24ca323371d2dc,14:17:10,06/03/2024
918.0,[''],0,ospan,feedback,k06tA1K46mVKhs962UxfoQkO5NE3,html-button-response,171,861646,0.0-43.0-5.0-1.0-3.0,,,,,,,,,,,,100.0,0.0,,62ce9f115a24ca323371d2dc,14:17:10,06/03/2024
,"<p style=""font-size:75px;"">...</p>",,ospan,iti,k06tA1K46mVKhs962UxfoQkO5NE3,html-keyboard-response,172,862651,0.0-43.0-6.0-0.0-0.0,,,,,,,,,,,,,,,62ce9f115a24ca323371d2dc,14:17:10,06/03/2024
1377.0,,,ospan,symmetry,k06tA1K46mVKhs962UxfoQkO5NE3,symmetry-judgement-task,173,865517,0.0-43.0-6.0-0.0-1.0-0.0,,,,,,,,,,1.0,1.0,,,,62ce9f115a24ca323371d2dc,14:17:10,06/03/2024
,"<div style=""font-size: 10rem; color: #0000FF"">K</div>",,ospan,letter,k06tA1K46mVKhs962UxfoQkO5NE3,html-keyboard-response,174,866521,0.0-43.0-6.0-0.0-1.0-1.0,,,,,,,,,,,,,,,62ce9f115a24ca323371d2dc,14:17:10,06/03/2024
1307.0,,,ospan,symmetry,k06tA1K46mVKhs962UxfoQkO5NE3,symmetry-judgement-task,175,870035,0.0-43.0-6.0-0.0-1.0-2.0,,,,,,,,,,1.0,1.0,,,,62ce9f115a24ca323371d2dc,14:17:10,06/03/2024
,"<div style=""font-size: 10rem; color: #0000FF"">Q</div>",,ospan,letter,k06tA1K46mVKhs962UxfoQkO5NE3,html-keyboard-response,176,871039,0.0-43.0-6.0-0.0-1.0-3.0,,,,,,,,,,,,,,,62ce9f115a24ca323371d2dc,14:17:10,06/03/2024
2435.0,,,ospan,symmetry,k06tA1K46mVKhs962UxfoQkO5NE3,symmetry-judgement-task,177,875605,0.0-43.0-6.0-0.0-1.0-4.0,,,,,,,,,,1.0,1.0,,,,62ce9f115a24ca323371d2dc,14:17:10,06/03/2024
,"<div style=""font-size: 10rem; color: #0000FF"">J</div>",,ospan,letter,k06tA1K46mVKhs962UxfoQkO5NE3,html-keyboard-response,178,876609,0.0-43.0-6.0-0.0-1.0-5.0,,,,,,,,,,,,,,,62ce9f115a24ca323371d2dc,14:17:10,06/03/2024
1180.0,,,ospan,symmetry,k06tA1K46mVKhs962UxfoQkO5NE3,symmetry-judgement-task,179,879909,0.0-43.0-6.0-0.0-1.0-6.0,,,,,,,,,,1.0,1.0,,,,62ce9f115a24ca323371d2dc,14:17:10,06/03/2024
,"<div style=""font-size: 10rem; color: #0000FF"">S</div>",,ospan,letter,k06tA1K46mVKhs962UxfoQkO5NE3,html-keyboard-response,180,880911,0.0-43.0-6.0-0.0-1.0-7.0,,,,,,,,,,,,,,,62ce9f115a24ca323371d2dc,14:17:10,06/03/2024
3220.0,,,ospan,symmetry,k06tA1K46mVKhs962UxfoQkO5NE3,symmetry-judgement-task,181,886273,0.0-43.0-6.0-0.0-1.0-8.0,,,,,,,,,,1.0,1.0,,,,62ce9f115a24ca323371d2dc,14:17:10,06/03/2024
,"<div style=""font-size: 10rem; color: #0000FF"">H</div>",,ospan,letter,k06tA1K46mVKhs962UxfoQkO5NE3,html-keyboard-response,182,887277,0.0-43.0-6.0-0.0-1.0-9.0,,,,,,,,,,,,,,,62ce9f115a24ca323371d2dc,14:17:10,06/03/2024
10020.0,"<div class = numbox><p style=""font-size: 2.4rem"">Please recall the letters you saw to the best of your ability. If you do not remember a particular letter, use the SKIP button.<br><b>(When you are ready to lock in your answer, press ENTER)</b></p><button id = button_1 class = ""square num-button"" onclick = ""recordClick(this)""><div class = content><div class = numbers>C</div></div></button><button id = button_2 class = ""square num-button"" onclick = ""recordClick(this)""><div class = content><div class = numbers>G</div></div></button><button id = button_3 class = ""square num-button"" onclick = ""recordClick(this)""><div class = content><div class = numbers>H</div></div></button><button id = button_4 class = ""square num-button"" onclick = ""recordClick(this)""><div class = content><div class = numbers>J</div></div></button><button id = button_5 class = ""square num-button"" onclick = ""recordClick(this)""><div class = content><div class = numbers>K</div></div></button><button id = button_6 class = ""square num-button"" onclick = ""recordClick(this)""><div class = content><div class = numbers>L</div></div></button><button id = button_7 class = ""square num-button"" onclick = ""recordClick(this)""><div class = content><div class = numbers>N</div></div></button><button id = button_8 class = ""square num-button"" onclick = ""recordClick(this)""><div class = content><div class = numbers>P</div></div></button><button id = button_9 class = ""square num-button"" onclick = ""recordClick(this)""><div class = content><div class = numbers>Q</div></div></button><button id = button_10 class = ""square num-button"" onclick = ""recordClick(this)""><div class = content><div class = numbers>R</div></div></button><button id = button_11 class = ""square num-button"" onclick = ""recordClick(this)""><div class = content><div class = numbers>S</div></div></button><button id = button_12 class = ""square num-button"" onclick = ""recordClick(this)""><div class = content><div class = numbers>Y</div></div></button><button class = clear_button id = ""ClearButton"" onclick = ""clearResponse()"">BACKSPACE</button><button class = blank_button id = ""BlankButton"" onclick = ""blankResponse()"">SKIP</button><p style=""font-size: 2.4rem""><u><b>Current Answer:</b></u></p><br><br><div id=echoed_txt style=""font-size: 5rem; color:blue;""><b></b></div></div>",enter,ospan,retrieval,k06tA1K46mVKhs962UxfoQkO5NE3,html-keyboard-response,183,898051,0.0-43.0-6.0-0.0-2.0,33,31,28,5.0,"[""K"",""Q"",""J"",""H"",""S""]","[""K"",""Q"",""J"",""S"",""H""]",0.0,3.0,,,,,,,62ce9f115a24ca323371d2dc,14:17:10,06/03/2024
1037.0,[''],0,ospan,feedback,k06tA1K46mVKhs962UxfoQkO5NE3,html-button-response,184,899591,0.0-43.0-6.0-0.0-3.0,,,,,,,,,,,,100.0,0.0,,62ce9f115a24ca323371d2dc,14:17:10,06/03/2024
,"<p style=""font-size:75px;"">...</p>",,ospan,iti,k06tA1K46mVKhs962UxfoQkO5NE3,html-keyboard-response,185,900595,0.0-43.0-6.0-1.0-0.0,,,,,,,,,,,,,,,62ce9f115a24ca323371d2dc,14:17:10,06/03/2024
1762.0,,,ospan,symmetry,k06tA1K46mVKhs962UxfoQkO5NE3,symmetry-judgement-task,186,903796,0.0-43.0-6.0-1.0-1.0-0.0,,,,,,,,,,1.0,1.0,,,,62ce9f115a24ca323371d2dc,14:17:10,06/03/2024
,"<div style=""font-size: 10rem; color: #0000FF"">H</div>",,ospan,letter,k06tA1K46mVKhs962UxfoQkO5NE3,html-keyboard-response,187,904797,0.0-43.0-6.0-1.0-1.0-1.0,,,,,,,,,,,,,,,62ce9f115a24ca323371d2dc,14:17:10,06/03/2024
1585.0,,,ospan,symmetry,k06tA1K46mVKhs962UxfoQkO5NE3,symmetry-judgement-task,188,908561,0.0-43.0-6.0-1.0-1.0-2.0,,,,,,,,,,1.0,1.0,,,,62ce9f115a24ca323371d2dc,14:17:10,06/03/2024
,"<div style=""font-size: 10rem; color: #0000FF"">K</div>",,ospan,letter,k06tA1K46mVKhs962UxfoQkO5NE3,html-keyboard-response,189,909564,0.0-43.0-6.0-1.0-1.0-3.0,,,,,,,,,,,,,,,62ce9f115a24ca323371d2dc,14:17:10,06/03/2024
2001.0,,,ospan,symmetry,k06tA1K46mVKhs962UxfoQkO5NE3,symmetry-judgement-task,190,913754,0.0-43.0-6.0-1.0-1.0-4.0,,,,,,,,,,1.0,1.0,,,,62ce9f115a24ca323371d2dc,14:17:10,06/03/2024
,"<div style=""font-size: 10rem; color: #0000FF"">N</div>",,ospan,letter,k06tA1K46mVKhs962UxfoQkO5NE3,html-keyboard-response,191,914758,0.0-43.0-6.0-1.0-1.0-5.0,,,,,,,,,,,,,,,62ce9f115a24ca323371d2dc,14:17:10,06/03/2024
1740.0,,,ospan,symmetry,k06tA1K46mVKhs962UxfoQkO5NE3,symmetry-judgement-task,192,918692,0.0-43.0-6.0-1.0-1.0-6.0,,,,,,,,,,1.0,1.0,,,,62ce9f115a24ca323371d2dc,14:17:10,06/03/2024
,"<div style=""font-size: 10rem; color: #0000FF"">L</div>",,ospan,letter,k06tA1K46mVKhs962UxfoQkO5NE3,html-keyboard-response,193,919693,0.0-43.0-6.0-1.0-1.0-7.0,,,,,,,,,,,,,,,62ce9f115a24ca323371d2dc,14:17:10,06/03/2024
3708.0,,,ospan,symmetry,k06tA1K46mVKhs962UxfoQkO5NE3,symmetry-judgement-task,194,925645,0.0-43.0-6.0-1.0-1.0-8.0,,,,,,,,,,1.0,1.0,,,,62ce9f115a24ca323371d2dc,14:17:10,06/03/2024
,"<div style=""font-size: 10rem; color: #0000FF"">Q</div>",,ospan,letter,k06tA1K46mVKhs962UxfoQkO5NE3,html-keyboard-response,195,926647,0.0-43.0-6.0-1.0-1.0-9.0,,,,,,,,,,,,,,,62ce9f115a24ca323371d2dc,14:17:10,06/03/2024
1857.0,,,ospan,symmetry,k06tA1K46mVKhs962UxfoQkO5NE3,symmetry-judgement-task,196,930713,0.0-43.0-6.0-1.0-1.0-10.0,,,,,,,,,,1.0,1.0,,,,62ce9f115a24ca323371d2dc,14:17:10,06/03/2024
,"<div style=""font-size: 10rem; color: #0000FF"">S</div>",,ospan,letter,k06tA1K46mVKhs962UxfoQkO5NE3,html-keyboard-response,197,931715,0.0-43.0-6.0-1.0-1.0-11.0,,,,,,,,,,,,,,,62ce9f115a24ca323371d2dc,14:17:10,06/03/2024
1717.0,,,ospan,symmetry,k06tA1K46mVKhs962UxfoQkO5NE3,symmetry-judgement-task,198,935641,0.0-43.0-6.0-1.0-1.0-12.0,,,,,,,,,,1.0,1.0,,,,62ce9f115a24ca323371d2dc,14:17:10,06/03/2024
,"<div style=""font-size: 10rem; color: #0000FF"">G</div>",,ospan,letter,k06tA1K46mVKhs962UxfoQkO5NE3,html-keyboard-response,199,936644,0.0-43.0-6.0-1.0-1.0-13.0,,,,,,,,,,,,,,,62ce9f115a24ca323371d2dc,14:17:10,06/03/2024
2014.0,,,ospan,symmetry,k06tA1K46mVKhs962UxfoQkO5NE3,symmetry-judgement-task,200,940791,0.0-43.0-6.0-1.0-1.0-14.0,,,,,,,,,,1.0,1.0,,,,62ce9f115a24ca323371d2dc,14:17:10,06/03/2024
,"<div style=""font-size: 10rem; color: #0000FF"">Y</div>",,ospan,letter,k06tA1K46mVKhs962UxfoQkO5NE3,html-keyboard-response,201,941793,0.0-43.0-6.0-1.0-1.0-15.0,,,,,,,,,,,,,,,62ce9f115a24ca323371d2dc,14:17:10,06/03/2024
17015.0,"<div class = numbox><p style=""font-size: 2.4rem"">Please recall the letters you saw to the best of your ability. If you do not remember a particular letter, use the SKIP button.<br><b>(When you are ready to lock in your answer, press ENTER)</b></p><button id = button_1 class = ""square num-button"" onclick = ""recordClick(this)""><div class = content><div class = numbers>C</div></div></button><button id = button_2 class = ""square num-button"" onclick = ""recordClick(this)""><div class = content><div class = numbers>G</div></div></button><button id = button_3 class = ""square num-button"" onclick = ""recordClick(this)""><div class = content><div class = numbers>H</div></div></button><button id = button_4 class = ""square num-button"" onclick = ""recordClick(this)""><div class = content><div class = numbers>J</div></div></button><button id = button_5 class = ""square num-button"" onclick = ""recordClick(this)""><div class = content><div class = numbers>K</div></div></button><button id = button_6 class = ""square num-button"" onclick = ""recordClick(this)""><div class = content><div class = numbers>L</div></div></button><button id = button_7 class = ""square num-button"" onclick = ""recordClick(this)""><div class = content><div class = numbers>N</div></div></button><button id = button_8 class = ""square num-button"" onclick = ""recordClick(this)""><div class = content><div class = numbers>P</div></div></button><button id = button_9 class = ""square num-button"" onclick = ""recordClick(this)""><div class = content><div class = numbers>Q</div></div></button><button id = button_10 class = ""square num-button"" onclick = ""recordClick(this)""><div class = content><div class = numbers>R</div></div></button><button id = button_11 class = ""square num-button"" onclick = ""recordClick(this)""><div class = content><div class = numbers>S</div></div></button><button id = button_12 class = ""square num-button"" onclick = ""recordClick(this)""><div class = content><div class = numbers>Y</div></div></button><button class = clear_button id = ""ClearButton"" onclick = ""clearResponse()"">BACKSPACE</button><button class = blank_button id = ""BlankButton"" onclick = ""blankResponse()"">SKIP</button><p style=""font-size: 2.4rem""><u><b>Current Answer:</b></u></p><br><br><div id=echoed_txt style=""font-size: 5rem; color:blue;""><b></b></div></div>",enter,ospan,retrieval,k06tA1K46mVKhs962UxfoQkO5NE3,html-keyboard-response,202,959561,0.0-43.0-6.0-1.0-2.0,41,39,36,8.0,"[""H"",""K"",""N"",""L"",""Q"",""S"",""G"",""Y""]","[""H"",""K"",""N"",""L"",""Q"",""S"",""G"",""Y""]",1.0,8.0,,,,,,,62ce9f115a24ca323371d2dc,14:17:10,06/03/2024
927.0,[''],0,ospan,feedback,k06tA1K46mVKhs962UxfoQkO5NE3,html-button-response,203,960991,0.0-43.0-6.0-1.0-3.0,,,,,,,,,,,,100.0,0.0,,62ce9f115a24ca323371d2dc,14:17:10,06/03/2024
13570.0,,{'Q0': 'This was difficult'},ospan,survey_ospan,k06tA1K46mVKhs962UxfoQkO5NE3,lmdlab-survey-text,204,975315,0.0-43.0-7.0,,,,,,,,,,,,,,k06tA1K46mVKhs962UxfoQkO5NE3,62ce9f115a24ca323371d2dc,14:17:10,06/03/2024
1145.0,<p><p style='font-size: 3rem'>Great work!<br><br>This completes the symmetry and memory task.</p><br><br><br>,0,ospan,finish,k06tA1K46mVKhs962UxfoQkO5NE3,html-button-response,205,976463,0.0-43.0-8.0,41,39,36,,,,,,,,,100.0,,,62ce9f115a24ca323371d2dc,14:17:10,06/03/2024
