rt,stimulus,response,exp_name,exp_stage,subjectID,trial_type,trial_index,time_elapsed,internal_node_id,ospan_shown,ospan_total,ospan_abs,length,resp_actual,resp_correct,full_correct,num_correct,feedback,accuracy,correct,math_acc,math_warning,databaseID,prolificID,start_time,date
2426.7999999523163,<div class = 'left_align' style='font-size: 3.25rem; line-height: 1.3;'><p class = 'center_align'><b>Welcome to the Symmetry and Memory Task</b><br><br><br><br></p>Press 'continue' to show the instructions.<br><br><br><br></div>,0,ospan,instruct,0UrXbrB7TzYyM4TmNd0VK0ijxVf1,html-button-response,51,487822,0.0-43.0-0.0-0.0-0.0,,,,,,,,,,,,,,,654ceaf9bea6ff323bef327c,13:50:58,06/03/2024
9031.599999904633,"<div class = 'left_align' style='font-size: 3.25rem; line-height: 1.3;'><p class = 'center_align'><b>Symmetry and Memory Task</b><br><br></p>In this task, you will try to memorize letters you see on the screen<br>while you also view black and white grid pictures.<br><br>In the next few minutes, you will have some practice to get you familiar<br>with how the task works.<br><br>It may be difficult sometimes, but please do not worry about making mistakes!<br><br>We will begin by practicing the letter part of the task.<br><br><br><br></div>",0,ospan,instruct,0UrXbrB7TzYyM4TmNd0VK0ijxVf1,html-button-response,52,497111,0.0-43.0-0.0-0.0-1.0,,,,,,,,,,,,,,,654ceaf9bea6ff323bef327c,13:50:58,06/03/2024
11528.5,"<div class = 'left_align' style='font-size: 3.25rem; line-height: 1.3;'>For this practice part, letters will appear on the screen one at a time.<br><br>Try to remember each letter in the order presented.<br><br>After some letters have been shown, you will see a response screen. Your<br>goal is to report the letters you saw <b>in order</b>. If you do not remember<br>a particular letter, you will have the option to leave it blank.<br><br><br><br></div>",0,ospan,instruct,0UrXbrB7TzYyM4TmNd0VK0ijxVf1,html-button-response,53,508899,0.0-43.0-0.0-0.0-2.0,,,,,,,,,,,,,,,654ceaf9bea6ff323bef327c,13:50:58,06/03/2024
4623.900000095367,"<div class = 'left_align' style='font-size: 3.25rem; line-height: 1.3;'>Remember, it is very important to get the letters in the same<br>order as you see them.<br><br>When you are ready, you may begin the letter practice.</div><br><br><br><br>",0,ospan,instruct,0UrXbrB7TzYyM4TmNd0VK0ijxVf1,html-button-response,54,513784,0.0-43.0-0.0-0.0-3.0,,,,,,,,,,,,,,,654ceaf9bea6ff323bef327c,13:50:58,06/03/2024
,"<p style=""font-size:75px;"">...</p>",,ospan,iti,0UrXbrB7TzYyM4TmNd0VK0ijxVf1,html-keyboard-response,55,515068,0.0-43.0-0.0-1.0-0.0,,,,,,,,,,,,,,,654ceaf9bea6ff323bef327c,13:50:58,06/03/2024
,"<div style=""font-size: 10rem; color: #0000FF"">S</div>",,ospan,letter,0UrXbrB7TzYyM4TmNd0VK0ijxVf1,html-keyboard-response,56,516082,0.0-43.0-0.0-1.0-1.0,,,,,,,,,,,,,,,654ceaf9bea6ff323bef327c,13:50:58,06/03/2024
,"<div style=""font-size: 10rem; color: #0000FF"">H</div>",,ospan,letter,0UrXbrB7TzYyM4TmNd0VK0ijxVf1,html-keyboard-response,57,517857,0.0-43.0-0.0-1.0-2.0,,,,,,,,,,,,,,,654ceaf9bea6ff323bef327c,13:50:58,06/03/2024
23426.700000047684,"<div class = numbox><p style=""font-size: 2.4rem"">Please recall the letters you saw to the best of your ability. If you do not remember a particular letter, use the SKIP button.<br><b>(When you are ready to lock in your answer, press ENTER)</b></p><button id = button_1 class = ""square num-button"" onclick = ""recordClick(this)""><div class = content><div class = numbers>C</div></div></button><button id = button_2 class = ""square num-button"" onclick = ""recordClick(this)""><div class = content><div class = numbers>G</div></div></button><button id = button_3 class = ""square num-button"" onclick = ""recordClick(this)""><div class = content><div class = numbers>H</div></div></button><button id = button_4 class = ""square num-button"" onclick = ""recordClick(this)""><div class = content><div class = numbers>J</div></div></button><button id = button_5 class = ""square num-button"" onclick = ""recordClick(this)""><div class = content><div class = numbers>K</div></div></button><button id = button_6 class = ""square num-button"" onclick = ""recordClick(this)""><div class = content><div class = numbers>L</div></div></button><button id = button_7 class = ""square num-button"" onclick = ""recordClick(this)""><div class = content><div class = numbers>N</div></div></button><button id = button_8 class = ""square num-button"" onclick = ""recordClick(this)""><div class = content><div class = numbers>P</div></div></button><button id = button_9 class = ""square num-button"" onclick = ""recordClick(this)""><div class = content><div class = numbers>Q</div></div></button><button id = button_10 class = ""square num-button"" onclick = ""recordClick(this)""><div class = content><div class = numbers>R</div></div></button><button id = button_11 class = ""square num-button"" onclick = ""recordClick(this)""><div class = content><div class = numbers>S</div></div></button><button id = button_12 class = ""square num-button"" onclick = ""recordClick(this)""><div class = content><div class = numbers>Y</div></div></button><button class = clear_button id = ""ClearButton"" onclick = ""clearResponse()"">BACKSPACE</button><button class = blank_button id = ""BlankButton"" onclick = ""blankResponse()"">SKIP</button><p style=""font-size: 2.4rem""><u><b>Current Answer:</b></u></p><br><br><div id=echoed_txt style=""font-size: 5rem; color:blue;""><b></b></div></div>",enter,ospan,retrieval,0UrXbrB7TzYyM4TmNd0VK0ijxVf1,html-keyboard-response,58,542061,0.0-43.0-0.0-1.0-3.0,NA,NA,NA,2.0,"[""S"",""H""]","[""S"",""H""]",1.0,2.0,"['<font color=""green"">S</font>', '<font color=""green"">H</font>']",,,,,,654ceaf9bea6ff323bef327c,13:50:58,06/03/2024
1642.7000000476837,"['<p style=""font-size:44px"">Letters:<br><br><br><font color=""green"">S</font> <font color=""green"">H</font></p><br><br>']",0,ospan,practice_feedback,0UrXbrB7TzYyM4TmNd0VK0ijxVf1,html-button-response,59,544213,0.0-43.0-0.0-1.0-4.0,,,,,,,,,,,,,,,654ceaf9bea6ff323bef327c,13:50:58,06/03/2024
,"<p style=""font-size:75px;"">...</p>",,ospan,iti,0UrXbrB7TzYyM4TmNd0VK0ijxVf1,html-keyboard-response,60,545220,0.0-43.0-0.0-2.0-0.0,,,,,,,,,,,,,,,654ceaf9bea6ff323bef327c,13:50:58,06/03/2024
,"<div style=""font-size: 10rem; color: #0000FF"">K</div>",,ospan,letter,0UrXbrB7TzYyM4TmNd0VK0ijxVf1,html-keyboard-response,61,546234,0.0-43.0-0.0-2.0-1.0,,,,,,,,,,,,,,,654ceaf9bea6ff323bef327c,13:50:58,06/03/2024
,"<div style=""font-size: 10rem; color: #0000FF"">R</div>",,ospan,letter,0UrXbrB7TzYyM4TmNd0VK0ijxVf1,html-keyboard-response,62,548039,0.0-43.0-0.0-2.0-2.0,,,,,,,,,,,,,,,654ceaf9bea6ff323bef327c,13:50:58,06/03/2024
,"<div style=""font-size: 10rem; color: #0000FF"">H</div>",,ospan,letter,0UrXbrB7TzYyM4TmNd0VK0ijxVf1,html-keyboard-response,63,549828,0.0-43.0-0.0-2.0-3.0,,,,,,,,,,,,,,,654ceaf9bea6ff323bef327c,13:50:58,06/03/2024
4466.5,"<div class = numbox><p style=""font-size: 2.4rem"">Please recall the letters you saw to the best of your ability. If you do not remember a particular letter, use the SKIP button.<br><b>(When you are ready to lock in your answer, press ENTER)</b></p><button id = button_1 class = ""square num-button"" onclick = ""recordClick(this)""><div class = content><div class = numbers>C</div></div></button><button id = button_2 class = ""square num-button"" onclick = ""recordClick(this)""><div class = content><div class = numbers>G</div></div></button><button id = button_3 class = ""square num-button"" onclick = ""recordClick(this)""><div class = content><div class = numbers>H</div></div></button><button id = button_4 class = ""square num-button"" onclick = ""recordClick(this)""><div class = content><div class = numbers>J</div></div></button><button id = button_5 class = ""square num-button"" onclick = ""recordClick(this)""><div class = content><div class = numbers>K</div></div></button><button id = button_6 class = ""square num-button"" onclick = ""recordClick(this)""><div class = content><div class = numbers>L</div></div></button><button id = button_7 class = ""square num-button"" onclick = ""recordClick(this)""><div class = content><div class = numbers>N</div></div></button><button id = button_8 class = ""square num-button"" onclick = ""recordClick(this)""><div class = content><div class = numbers>P</div></div></button><button id = button_9 class = ""square num-button"" onclick = ""recordClick(this)""><div class = content><div class = numbers>Q</div></div></button><button id = button_10 class = ""square num-button"" onclick = ""recordClick(this)""><div class = content><div class = numbers>R</div></div></button><button id = button_11 class = ""square num-button"" onclick = ""recordClick(this)""><div class = content><div class = numbers>S</div></div></button><button id = button_12 class = ""square num-button"" onclick = ""recordClick(this)""><div class = content><div class = numbers>Y</div></div></button><button class = clear_button id = ""ClearButton"" onclick = ""clearResponse()"">BACKSPACE</button><button class = blank_button id = ""BlankButton"" onclick = ""blankResponse()"">SKIP</button><p style=""font-size: 2.4rem""><u><b>Current Answer:</b></u></p><br><br><div id=echoed_txt style=""font-size: 5rem; color:blue;""><b></b></div></div>",enter,ospan,retrieval,0UrXbrB7TzYyM4TmNd0VK0ijxVf1,html-keyboard-response,64,555057,0.0-43.0-0.0-2.0-4.0,NA,NA,NA,3.0,"[""K"",""H""]","[""K"",""R"",""H""]",0.0,1.0,"['<font color=""green"">K</font>', '<font color=""red"">R</font>', '<font color=""red"">H</font>']",,,,,,654ceaf9bea6ff323bef327c,13:50:58,06/03/2024
2431.2999999523163,"['<p style=""font-size:44px"">Letters:<br><br><br><font color=""green"">K</font> <font color=""red"">R</font> <font color=""red"">H</font></p><br><br>']",0,ospan,practice_feedback,0UrXbrB7TzYyM4TmNd0VK0ijxVf1,html-button-response,65,558008,0.0-43.0-0.0-2.0-5.0,,,,,,,,,,,,,,,654ceaf9bea6ff323bef327c,13:50:58,06/03/2024
27000.299999952316,"<div class = 'left_align' style='font-size: 3.25rem; line-height: 1.3;'>Now you will practice doing the <b>symmetry judgment part</b> of the experiment.<br><br>A black and white grid picture will appear on the screen and you have to judge if it is <br>symmetrical or asymetrical.<br><br>A picture is 'mirror' symmetrical if its left half is identical to the right half when flipped.<br>Here are examples of a symmetrical and an asymetrical picture:<br><br><center><img src='Stimuli/img/symm_instructions_extra.png' style='height:420px; width:900'></img></center><br>To judge symmetry, imagine you were to fold each picture down the middle, like a book –<br>would the left half match the right half when folded onto each other?<br><br></div><br>",0,ospan,instruct,0UrXbrB7TzYyM4TmNd0VK0ijxVf1,html-button-response,66,585015,0.0-43.0-1.0-0.0-0.0,,,,,,,,,,,,,,,654ceaf9bea6ff323bef327c,13:50:58,06/03/2024
5138.299999952316,"<div class = 'left_align' style='font-size: 3.25rem; line-height: 1.3;'>When you have viewed the picture and determined whether it is symmetrical or not,<br>you can <b>click the Yes or No button</b> below to answer.<br><br>If you take longer than 15 seconds, it will continue automatically<br>and record the answer as an error.</div><br>",0,ospan,instruct,0UrXbrB7TzYyM4TmNd0VK0ijxVf1,html-button-response,67,590417,0.0-43.0-1.0-0.0-1.0,,,,,,,,,,,,,,,654ceaf9bea6ff323bef327c,13:50:58,06/03/2024
1588.4000000953674,"<div class = 'left_align' style='font-size: 3.25rem; line-height: 1.3;'>It is <b>very</b> important that you make the symmetry judgment correctly.<br><br>It is also important that you try and judge the picture as quickly as you can.<br><br>When you are ready, click on the button below to try some practice problems.</div><br><br><br><br>",0,ospan,instruct,0UrXbrB7TzYyM4TmNd0VK0ijxVf1,html-button-response,68,592268,0.0-43.0-1.0-0.0-2.0,,,,,,,,,,,,,,,654ceaf9bea6ff323bef327c,13:50:58,06/03/2024
4347.0,,,ospan,symmetry,0UrXbrB7TzYyM4TmNd0VK0ijxVf1,symmetry-judgement-task,69,597532,0.0-43.0-1.0-1.0-0.0,,,,,,,,,,0.0,0.0,,,,654ceaf9bea6ff323bef327c,13:50:58,06/03/2024
,"<p style=""color:red; font-size: 35px"">Incorrect</p>",,ospan,feedback,0UrXbrB7TzYyM4TmNd0VK0ijxVf1,html-keyboard-response,70,598298,0.0-43.0-1.0-1.0-1.0,,,,,,,,,,,,,,,654ceaf9bea6ff323bef327c,13:50:58,06/03/2024
5620.0,,,ospan,symmetry,0UrXbrB7TzYyM4TmNd0VK0ijxVf1,symmetry-judgement-task,71,607026,0.0-43.0-1.0-1.0-2.0,,,,,,,,,,1.0,1.0,,,,654ceaf9bea6ff323bef327c,13:50:58,06/03/2024
,"<p style=""color:green; font-size: 35px"">Correct</p>",,ospan,feedback,0UrXbrB7TzYyM4TmNd0VK0ijxVf1,html-keyboard-response,72,607780,0.0-43.0-1.0-1.0-3.0,,,,,,,,,,,,,,,654ceaf9bea6ff323bef327c,13:50:58,06/03/2024
4528.0,,,ospan,symmetry,0UrXbrB7TzYyM4TmNd0VK0ijxVf1,symmetry-judgement-task,73,615398,0.0-43.0-1.0-1.0-4.0,,,,,,,,,,1.0,1.0,,,,654ceaf9bea6ff323bef327c,13:50:58,06/03/2024
,"<p style=""color:green; font-size: 35px"">Correct</p>",,ospan,feedback,0UrXbrB7TzYyM4TmNd0VK0ijxVf1,html-keyboard-response,74,616160,0.0-43.0-1.0-1.0-5.0,,,,,,,,,,,,,,,654ceaf9bea6ff323bef327c,13:50:58,06/03/2024
3176.399999856949,"<p style=""font-size: 3rem;"">You only responded correctly on 2 of 3 symmetry judgments.<br><br><b>In the main task, you must try harder to answer accurately.</b></p><br><br>",0,ospan,practice,0UrXbrB7TzYyM4TmNd0VK0ijxVf1,html-button-response,75,621342,0.0-43.0-1.0-2.0,,,,,,,,,,,,,,,654ceaf9bea6ff323bef327c,13:50:58,06/03/2024
2079.7999999523163,"<div class = 'left_align' style='font-size: 3.25rem; line-height: 1.3;'>Now you will practice doing both parts of the experiment at the same time.<br><br>In the next practice set, you will be given one grid picture to judge.<br>Then letter will appear on the screen. Try to remember the letter.<br><br>It is <b>very important</b> to make the symmetry judgment as quickly and accurately as possible.<br><br>Just as before, once you have make the symmetry judgment, you can click Yes or No.<br><b>Note that you will no longer see Correct or Incorrect feedback.</div><br><br><br><br>",0,ospan,instruct,0UrXbrB7TzYyM4TmNd0VK0ijxVf1,html-button-response,76,623682,0.0-43.0-2.0-0.0-0.0,,,,,,,,,,,,,,,654ceaf9bea6ff323bef327c,13:50:58,06/03/2024
1935.5999999046326,"<div class = 'left_align' style='font-size: 3.25rem; line-height: 1.3;'>After the letter goes away, another grid picture will appear, and then<br>another letter.<br><br>At the end of each set of letters and grids, you will recall the letters to the best<br>of your ability. Remember, try your best to get the letters in the correct order.<br><br>It is important to <b>quickly</b> and <b>accurately</b> make the symmetry judgments.</div><br><br><br><br>",0,ospan,instruct,0UrXbrB7TzYyM4TmNd0VK0ijxVf1,html-button-response,77,625892,0.0-43.0-2.0-0.0-1.0,,,,,,,,,,,,,,,654ceaf9bea6ff323bef327c,13:50:58,06/03/2024
2140.0,"<div class = 'left_align' style='font-size: 3.25rem; line-height: 1.3;'>On the feedback screen, if you are not doing well at the symmetry judgments,<br>you will also see a warning in the middle. This indicates your percent <br>correct for the grid pictures for the entire experiment.<br><br>It is <b>very</b> important for you to keep accuracy at least at 85%: <u>We can only use<br>data where the participant was at least 85% accurate on the judgments.</u> Therefore,<br> please try your best to perform well on the symmetry judgments, <b>at the same time</b><br>doing your best to recall as many letters as possible.<br><br>Click the button to try some practice problems.</div><br><br><br><br>",0,ospan,instruct,0UrXbrB7TzYyM4TmNd0VK0ijxVf1,html-button-response,78,628299,0.0-43.0-2.0-0.0-2.0,,,,,,,,,,,,,,,654ceaf9bea6ff323bef327c,13:50:58,06/03/2024
,"<p style=""font-size:75px;"">...</p>",,ospan,iti,0UrXbrB7TzYyM4TmNd0VK0ijxVf1,html-keyboard-response,79,629566,0.0-43.0-2.0-1.0-0.0,,,,,,,,,,,,,,,654ceaf9bea6ff323bef327c,13:50:58,06/03/2024
4249.0,,,ospan,symmetry,0UrXbrB7TzYyM4TmNd0VK0ijxVf1,symmetry-judgement-task,80,635323,0.0-43.0-2.0-1.0-1.0-0.0,,,,,,,,,,1.0,1.0,,,,654ceaf9bea6ff323bef327c,13:50:58,06/03/2024
,"<div style=""font-size: 10rem; color: #0000FF"">K</div>",,ospan,letter,0UrXbrB7TzYyM4TmNd0VK0ijxVf1,html-keyboard-response,81,636333,0.0-43.0-2.0-1.0-1.0-1.0,,,,,,,,,,,,,,,654ceaf9bea6ff323bef327c,13:50:58,06/03/2024
4230.0,,,ospan,symmetry,0UrXbrB7TzYyM4TmNd0VK0ijxVf1,symmetry-judgement-task,82,642967,0.0-43.0-2.0-1.0-1.0-2.0,,,,,,,,,,0.0,0.0,,,,654ceaf9bea6ff323bef327c,13:50:58,06/03/2024
,"<div style=""font-size: 10rem; color: #0000FF"">Q</div>",,ospan,letter,0UrXbrB7TzYyM4TmNd0VK0ijxVf1,html-keyboard-response,83,643972,0.0-43.0-2.0-1.0-1.0-3.0,,,,,,,,,,,,,,,654ceaf9bea6ff323bef327c,13:50:58,06/03/2024
4079.0,,,ospan,symmetry,0UrXbrB7TzYyM4TmNd0VK0ijxVf1,symmetry-judgement-task,84,650449,0.0-43.0-2.0-1.0-1.0-4.0,,,,,,,,,,1.0,1.0,,,,654ceaf9bea6ff323bef327c,13:50:58,06/03/2024
978.2999999523163,"<div style=""font-size: 10rem; color: #0000FF"">S</div>",s,ospan,letter,0UrXbrB7TzYyM4TmNd0VK0ijxVf1,html-keyboard-response,85,651432,0.0-43.0-2.0-1.0-1.0-5.0,,,,,,,,,,,,,,,654ceaf9bea6ff323bef327c,13:50:58,06/03/2024
5385.099999904633,"<div class = numbox><p style=""font-size: 2.4rem"">Please recall the letters you saw to the best of your ability. If you do not remember a particular letter, use the SKIP button.<br><b>(When you are ready to lock in your answer, press ENTER)</b></p><button id = button_1 class = ""square num-button"" onclick = ""recordClick(this)""><div class = content><div class = numbers>C</div></div></button><button id = button_2 class = ""square num-button"" onclick = ""recordClick(this)""><div class = content><div class = numbers>G</div></div></button><button id = button_3 class = ""square num-button"" onclick = ""recordClick(this)""><div class = content><div class = numbers>H</div></div></button><button id = button_4 class = ""square num-button"" onclick = ""recordClick(this)""><div class = content><div class = numbers>J</div></div></button><button id = button_5 class = ""square num-button"" onclick = ""recordClick(this)""><div class = content><div class = numbers>K</div></div></button><button id = button_6 class = ""square num-button"" onclick = ""recordClick(this)""><div class = content><div class = numbers>L</div></div></button><button id = button_7 class = ""square num-button"" onclick = ""recordClick(this)""><div class = content><div class = numbers>N</div></div></button><button id = button_8 class = ""square num-button"" onclick = ""recordClick(this)""><div class = content><div class = numbers>P</div></div></button><button id = button_9 class = ""square num-button"" onclick = ""recordClick(this)""><div class = content><div class = numbers>Q</div></div></button><button id = button_10 class = ""square num-button"" onclick = ""recordClick(this)""><div class = content><div class = numbers>R</div></div></button><button id = button_11 class = ""square num-button"" onclick = ""recordClick(this)""><div class = content><div class = numbers>S</div></div></button><button id = button_12 class = ""square num-button"" onclick = ""recordClick(this)""><div class = content><div class = numbers>Y</div></div></button><button class = clear_button id = ""ClearButton"" onclick = ""clearResponse()"">BACKSPACE</button><button class = blank_button id = ""BlankButton"" onclick = ""blankResponse()"">SKIP</button><p style=""font-size: 2.4rem""><u><b>Current Answer:</b></u></p><br><br><div id=echoed_txt style=""font-size: 5rem; color:blue;""><b></b></div></div>",enter,ospan,retrieval,0UrXbrB7TzYyM4TmNd0VK0ijxVf1,html-keyboard-response,86,657579,0.0-43.0-2.0-1.0-2.0-0.0,NA,NA,NA,3.0,"[""K"",""H"",""S""]","[""K"",""Q"",""S""]",0.0,2.0,"['<font color=""green"">K</font>', '<font color=""red"">Q</font>', '<font color=""green"">S</font>']",,,,,,654ceaf9bea6ff323bef327c,13:50:58,06/03/2024
1714.0,"['<p style=""font-size:44px"">Letters:<br><br><br><font color=""green"">K</font> <font color=""red"">Q</font> <font color=""green"">S</font></p><br><br><p style=""font-size:30px"">Symmetry:<br><br><font color=""red"">67%</font></p><br><br>']",0,ospan,practice_feedback,0UrXbrB7TzYyM4TmNd0VK0ijxVf1,html-button-response,87,659805,0.0-43.0-2.0-1.0-2.0-1.0,,,,,,,,,,,,,,,654ceaf9bea6ff323bef327c,13:50:58,06/03/2024
,"<p style=""font-size:75px;"">...</p>",,ospan,iti,0UrXbrB7TzYyM4TmNd0VK0ijxVf1,html-keyboard-response,88,660824,0.0-43.0-2.0-2.0-0.0,,,,,,,,,,,,,,,654ceaf9bea6ff323bef327c,13:50:58,06/03/2024
2768.0,,,ospan,symmetry,0UrXbrB7TzYyM4TmNd0VK0ijxVf1,symmetry-judgement-task,89,665200,0.0-43.0-2.0-2.0-1.0-0.0,,,,,,,,,,1.0,1.0,,,,654ceaf9bea6ff323bef327c,13:50:58,06/03/2024
,"<div style=""font-size: 10rem; color: #0000FF"">P</div>",,ospan,letter,0UrXbrB7TzYyM4TmNd0VK0ijxVf1,html-keyboard-response,90,666239,0.0-43.0-2.0-2.0-1.0-1.0,,,,,,,,,,,,,,,654ceaf9bea6ff323bef327c,13:50:58,06/03/2024
2867.0,,,ospan,symmetry,0UrXbrB7TzYyM4TmNd0VK0ijxVf1,symmetry-judgement-task,91,671400,0.0-43.0-2.0-2.0-1.0-2.0,,,,,,,,,,1.0,1.0,,,,654ceaf9bea6ff323bef327c,13:50:58,06/03/2024
,"<div style=""font-size: 10rem; color: #0000FF"">G</div>",,ospan,letter,0UrXbrB7TzYyM4TmNd0VK0ijxVf1,html-keyboard-response,92,672409,0.0-43.0-2.0-2.0-1.0-3.0,,,,,,,,,,,,,,,654ceaf9bea6ff323bef327c,13:50:58,06/03/2024
4413.0,,,ospan,symmetry,0UrXbrB7TzYyM4TmNd0VK0ijxVf1,symmetry-judgement-task,93,679171,0.0-43.0-2.0-2.0-1.0-4.0,,,,,,,,,,1.0,1.0,,,,654ceaf9bea6ff323bef327c,13:50:58,06/03/2024
,"<div style=""font-size: 10rem; color: #0000FF"">Y</div>",,ospan,letter,0UrXbrB7TzYyM4TmNd0VK0ijxVf1,html-keyboard-response,94,680181,0.0-43.0-2.0-2.0-1.0-5.0,,,,,,,,,,,,,,,654ceaf9bea6ff323bef327c,13:50:58,06/03/2024
5250.200000047684,"<div class = numbox><p style=""font-size: 2.4rem"">Please recall the letters you saw to the best of your ability. If you do not remember a particular letter, use the SKIP button.<br><b>(When you are ready to lock in your answer, press ENTER)</b></p><button id = button_1 class = ""square num-button"" onclick = ""recordClick(this)""><div class = content><div class = numbers>C</div></div></button><button id = button_2 class = ""square num-button"" onclick = ""recordClick(this)""><div class = content><div class = numbers>G</div></div></button><button id = button_3 class = ""square num-button"" onclick = ""recordClick(this)""><div class = content><div class = numbers>H</div></div></button><button id = button_4 class = ""square num-button"" onclick = ""recordClick(this)""><div class = content><div class = numbers>J</div></div></button><button id = button_5 class = ""square num-button"" onclick = ""recordClick(this)""><div class = content><div class = numbers>K</div></div></button><button id = button_6 class = ""square num-button"" onclick = ""recordClick(this)""><div class = content><div class = numbers>L</div></div></button><button id = button_7 class = ""square num-button"" onclick = ""recordClick(this)""><div class = content><div class = numbers>N</div></div></button><button id = button_8 class = ""square num-button"" onclick = ""recordClick(this)""><div class = content><div class = numbers>P</div></div></button><button id = button_9 class = ""square num-button"" onclick = ""recordClick(this)""><div class = content><div class = numbers>Q</div></div></button><button id = button_10 class = ""square num-button"" onclick = ""recordClick(this)""><div class = content><div class = numbers>R</div></div></button><button id = button_11 class = ""square num-button"" onclick = ""recordClick(this)""><div class = content><div class = numbers>S</div></div></button><button id = button_12 class = ""square num-button"" onclick = ""recordClick(this)""><div class = content><div class = numbers>Y</div></div></button><button class = clear_button id = ""ClearButton"" onclick = ""clearResponse()"">BACKSPACE</button><button class = blank_button id = ""BlankButton"" onclick = ""blankResponse()"">SKIP</button><p style=""font-size: 2.4rem""><u><b>Current Answer:</b></u></p><br><br><div id=echoed_txt style=""font-size: 5rem; color:blue;""><b></b></div></div>",enter,ospan,retrieval,0UrXbrB7TzYyM4TmNd0VK0ijxVf1,html-keyboard-response,95,686195,0.0-43.0-2.0-2.0-2.0-0.0,NA,NA,NA,3.0,"[""P"",""G"",""Y""]","[""P"",""G"",""Y""]",1.0,3.0,"['<font color=""green"">P</font>', '<font color=""green"">G</font>', '<font color=""green"">Y</font>']",,,,,,654ceaf9bea6ff323bef327c,13:50:58,06/03/2024
1250.8000001907349,"['<p style=""font-size:44px"">Letters:<br><br><br><font color=""green"">P</font> <font color=""green"">G</font> <font color=""green"">Y</font></p><br><br><p style=""font-size:30px"">Symmetry:<br><br><font color=""red"">83%</font></p><br><br>']",0,ospan,practice_feedback,0UrXbrB7TzYyM4TmNd0VK0ijxVf1,html-button-response,96,687966,0.0-43.0-2.0-2.0-2.0-1.0,,,,,,,,,,,,,,,654ceaf9bea6ff323bef327c,13:50:58,06/03/2024
4689.5,"<div class = 'left_align' style='font-size: 3rem; line-height: 1.3;'><b>Great work! That is the end of practice.</b><br><br>The real trials will look just like the practice trials you just completed.<br><br><u>Here, you will not see feedback</u>. First, you will see an grid picture to judge,<br>then a letter to remember. When the recall screen appears, report the letters in the<br>order presented. If you forget a letter, remember to use the <b>blank</b> button to move to the<br>next letter. Some of the sets will have more symmetry grids and letters than others.<br><br>It is important that you do your best on both the symmetry judgments and the letter recall<br>parts of the experiment. For for the symmetry judgments, try to work as <b>quickly</b> and <br>as <b>accurately</b> as possible. Remember to keep your symmetry accuracy at 85% or above.<br><br><b>For the letters, do NOT use any external aid (e.g., writing on paper, electronic device).</b><br><br>It is <u>very important</u> to our experiment to have a <b>true</b> view of your real performance.<br><br>Do not worry if you miss some when it gets hard! This task is meant to be very challenging!<br><br>Click the button to begin.</div><br><br><br><br>",0,ospan,starting_real_here,0UrXbrB7TzYyM4TmNd0VK0ijxVf1,html-button-response,97,692666,0.0-43.0-2.0-3.0,,,,,,,,,,,,,,,654ceaf9bea6ff323bef327c,13:50:58,06/03/2024
,"<p style=""font-size:75px;"">...</p>",,ospan,iti,0UrXbrB7TzYyM4TmNd0VK0ijxVf1,html-keyboard-response,98,693935,0.0-43.0-3.0-0.0-0.0,,,,,,,,,,,,,,,654ceaf9bea6ff323bef327c,13:50:58,06/03/2024
4813.0,,,ospan,symmetry,0UrXbrB7TzYyM4TmNd0VK0ijxVf1,symmetry-judgement-task,99,700203,0.0-43.0-3.0-0.0-1.0-0.0,,,,,,,,,,1.0,1.0,,,,654ceaf9bea6ff323bef327c,13:50:58,06/03/2024
,"<div style=""font-size: 10rem; color: #0000FF"">C</div>",,ospan,letter,0UrXbrB7TzYyM4TmNd0VK0ijxVf1,html-keyboard-response,100,701216,0.0-43.0-3.0-0.0-1.0-1.0,,,,,,,,,,,,,,,654ceaf9bea6ff323bef327c,13:50:58,06/03/2024
4725.0,,,ospan,symmetry,0UrXbrB7TzYyM4TmNd0VK0ijxVf1,symmetry-judgement-task,101,708181,0.0-43.0-3.0-0.0-1.0-2.0,,,,,,,,,,1.0,1.0,,,,654ceaf9bea6ff323bef327c,13:50:58,06/03/2024
,"<div style=""font-size: 10rem; color: #0000FF"">L</div>",,ospan,letter,0UrXbrB7TzYyM4TmNd0VK0ijxVf1,html-keyboard-response,102,709204,0.0-43.0-3.0-0.0-1.0-3.0,,,,,,,,,,,,,,,654ceaf9bea6ff323bef327c,13:50:58,06/03/2024
3882.0,,,ospan,symmetry,0UrXbrB7TzYyM4TmNd0VK0ijxVf1,symmetry-judgement-task,103,715395,0.0-43.0-3.0-0.0-1.0-4.0,,,,,,,,,,1.0,1.0,,,,654ceaf9bea6ff323bef327c,13:50:58,06/03/2024
,"<div style=""font-size: 10rem; color: #0000FF"">J</div>",,ospan,letter,0UrXbrB7TzYyM4TmNd0VK0ijxVf1,html-keyboard-response,104,716418,0.0-43.0-3.0-0.0-1.0-5.0,,,,,,,,,,,,,,,654ceaf9bea6ff323bef327c,13:50:58,06/03/2024
5474.0,"<div class = numbox><p style=""font-size: 2.4rem"">Please recall the letters you saw to the best of your ability. If you do not remember a particular letter, use the SKIP button.<br><b>(When you are ready to lock in your answer, press ENTER)</b></p><button id = button_1 class = ""square num-button"" onclick = ""recordClick(this)""><div class = content><div class = numbers>C</div></div></button><button id = button_2 class = ""square num-button"" onclick = ""recordClick(this)""><div class = content><div class = numbers>G</div></div></button><button id = button_3 class = ""square num-button"" onclick = ""recordClick(this)""><div class = content><div class = numbers>H</div></div></button><button id = button_4 class = ""square num-button"" onclick = ""recordClick(this)""><div class = content><div class = numbers>J</div></div></button><button id = button_5 class = ""square num-button"" onclick = ""recordClick(this)""><div class = content><div class = numbers>K</div></div></button><button id = button_6 class = ""square num-button"" onclick = ""recordClick(this)""><div class = content><div class = numbers>L</div></div></button><button id = button_7 class = ""square num-button"" onclick = ""recordClick(this)""><div class = content><div class = numbers>N</div></div></button><button id = button_8 class = ""square num-button"" onclick = ""recordClick(this)""><div class = content><div class = numbers>P</div></div></button><button id = button_9 class = ""square num-button"" onclick = ""recordClick(this)""><div class = content><div class = numbers>Q</div></div></button><button id = button_10 class = ""square num-button"" onclick = ""recordClick(this)""><div class = content><div class = numbers>R</div></div></button><button id = button_11 class = ""square num-button"" onclick = ""recordClick(this)""><div class = content><div class = numbers>S</div></div></button><button id = button_12 class = ""square num-button"" onclick = ""recordClick(this)""><div class = content><div class = numbers>Y</div></div></button><button class = clear_button id = ""ClearButton"" onclick = ""clearResponse()"">BACKSPACE</button><button class = blank_button id = ""BlankButton"" onclick = ""blankResponse()"">SKIP</button><p style=""font-size: 2.4rem""><u><b>Current Answer:</b></u></p><br><br><div id=echoed_txt style=""font-size: 5rem; color:blue;""><b></b></div></div>",enter,ospan,retrieval,0UrXbrB7TzYyM4TmNd0VK0ijxVf1,html-keyboard-response,105,722659,0.0-43.0-3.0-0.0-2.0,3,1,0,3.0,"[""C"",""J""]","[""C"",""L"",""J""]",0.0,1.0,,,,,,,654ceaf9bea6ff323bef327c,13:50:58,06/03/2024
1740.5,[''],0,ospan,feedback,0UrXbrB7TzYyM4TmNd0VK0ijxVf1,html-button-response,106,724916,0.0-43.0-3.0-0.0-3.0,,,,,,,,,,,,100.0,0.0,,654ceaf9bea6ff323bef327c,13:50:58,06/03/2024
,"<p style=""font-size:75px;"">...</p>",,ospan,iti,0UrXbrB7TzYyM4TmNd0VK0ijxVf1,html-keyboard-response,107,725936,0.0-43.0-4.0-0.0-0.0,,,,,,,,,,,,,,,654ceaf9bea6ff323bef327c,13:50:58,06/03/2024
2014.0,,,ospan,symmetry,0UrXbrB7TzYyM4TmNd0VK0ijxVf1,symmetry-judgement-task,108,729543,0.0-43.0-4.0-0.0-1.0-0.0,,,,,,,,,,1.0,1.0,,,,654ceaf9bea6ff323bef327c,13:50:58,06/03/2024
,"<div style=""font-size: 10rem; color: #0000FF"">S</div>",,ospan,letter,0UrXbrB7TzYyM4TmNd0VK0ijxVf1,html-keyboard-response,109,730553,0.0-43.0-4.0-0.0-1.0-1.0,,,,,,,,,,,,,,,654ceaf9bea6ff323bef327c,13:50:58,06/03/2024
1923.0,,,ospan,symmetry,0UrXbrB7TzYyM4TmNd0VK0ijxVf1,symmetry-judgement-task,110,734867,0.0-43.0-4.0-0.0-1.0-2.0,,,,,,,,,,1.0,1.0,,,,654ceaf9bea6ff323bef327c,13:50:58,06/03/2024
,"<div style=""font-size: 10rem; color: #0000FF"">N</div>",,ospan,letter,0UrXbrB7TzYyM4TmNd0VK0ijxVf1,html-keyboard-response,111,735878,0.0-43.0-4.0-0.0-1.0-3.0,,,,,,,,,,,,,,,654ceaf9bea6ff323bef327c,13:50:58,06/03/2024
4193.0,,,ospan,symmetry,0UrXbrB7TzYyM4TmNd0VK0ijxVf1,symmetry-judgement-task,112,742421,0.0-43.0-4.0-0.0-1.0-4.0,,,,,,,,,,1.0,1.0,,,,654ceaf9bea6ff323bef327c,13:50:58,06/03/2024
,"<div style=""font-size: 10rem; color: #0000FF"">Q</div>",,ospan,letter,0UrXbrB7TzYyM4TmNd0VK0ijxVf1,html-keyboard-response,113,743429,0.0-43.0-4.0-0.0-1.0-5.0,,,,,,,,,,,,,,,654ceaf9bea6ff323bef327c,13:50:58,06/03/2024
5770.0,,,ospan,symmetry,0UrXbrB7TzYyM4TmNd0VK0ijxVf1,symmetry-judgement-task,114,751476,0.0-43.0-4.0-0.0-1.0-6.0,,,,,,,,,,1.0,1.0,,,,654ceaf9bea6ff323bef327c,13:50:58,06/03/2024
,"<div style=""font-size: 10rem; color: #0000FF"">Y</div>",,ospan,letter,0UrXbrB7TzYyM4TmNd0VK0ijxVf1,html-keyboard-response,115,752488,0.0-43.0-4.0-0.0-1.0-7.0,,,,,,,,,,,,,,,654ceaf9bea6ff323bef327c,13:50:58,06/03/2024
5840.700000047684,"<div class = numbox><p style=""font-size: 2.4rem"">Please recall the letters you saw to the best of your ability. If you do not remember a particular letter, use the SKIP button.<br><b>(When you are ready to lock in your answer, press ENTER)</b></p><button id = button_1 class = ""square num-button"" onclick = ""recordClick(this)""><div class = content><div class = numbers>C</div></div></button><button id = button_2 class = ""square num-button"" onclick = ""recordClick(this)""><div class = content><div class = numbers>G</div></div></button><button id = button_3 class = ""square num-button"" onclick = ""recordClick(this)""><div class = content><div class = numbers>H</div></div></button><button id = button_4 class = ""square num-button"" onclick = ""recordClick(this)""><div class = content><div class = numbers>J</div></div></button><button id = button_5 class = ""square num-button"" onclick = ""recordClick(this)""><div class = content><div class = numbers>K</div></div></button><button id = button_6 class = ""square num-button"" onclick = ""recordClick(this)""><div class = content><div class = numbers>L</div></div></button><button id = button_7 class = ""square num-button"" onclick = ""recordClick(this)""><div class = content><div class = numbers>N</div></div></button><button id = button_8 class = ""square num-button"" onclick = ""recordClick(this)""><div class = content><div class = numbers>P</div></div></button><button id = button_9 class = ""square num-button"" onclick = ""recordClick(this)""><div class = content><div class = numbers>Q</div></div></button><button id = button_10 class = ""square num-button"" onclick = ""recordClick(this)""><div class = content><div class = numbers>R</div></div></button><button id = button_11 class = ""square num-button"" onclick = ""recordClick(this)""><div class = content><div class = numbers>S</div></div></button><button id = button_12 class = ""square num-button"" onclick = ""recordClick(this)""><div class = content><div class = numbers>Y</div></div></button><button class = clear_button id = ""ClearButton"" onclick = ""clearResponse()"">BACKSPACE</button><button class = blank_button id = ""BlankButton"" onclick = ""blankResponse()"">SKIP</button><p style=""font-size: 2.4rem""><u><b>Current Answer:</b></u></p><br><br><div id=echoed_txt style=""font-size: 5rem; color:blue;""><b></b></div></div>",enter,ospan,retrieval,0UrXbrB7TzYyM4TmNd0VK0ijxVf1,html-keyboard-response,116,759096,0.0-43.0-4.0-0.0-2.0,7,3,0,4.0,"[""S"",""N"",""Y""]","[""S"",""N"",""Q"",""Y""]",0.0,2.0,,,,,,,654ceaf9bea6ff323bef327c,13:50:58,06/03/2024
1479.9000000953674,[''],0,ospan,feedback,0UrXbrB7TzYyM4TmNd0VK0ijxVf1,html-button-response,117,761084,0.0-43.0-4.0-0.0-3.0,,,,,,,,,,,,100.0,0.0,,654ceaf9bea6ff323bef327c,13:50:58,06/03/2024
,"<p style=""font-size:75px;"">...</p>",,ospan,iti,0UrXbrB7TzYyM4TmNd0VK0ijxVf1,html-keyboard-response,118,762110,0.0-43.0-4.0-1.0-0.0,,,,,,,,,,,,,,,654ceaf9bea6ff323bef327c,13:50:58,06/03/2024
2977.0,,,ospan,symmetry,0UrXbrB7TzYyM4TmNd0VK0ijxVf1,symmetry-judgement-task,119,766647,0.0-43.0-4.0-1.0-1.0-0.0,,,,,,,,,,1.0,1.0,,,,654ceaf9bea6ff323bef327c,13:50:58,06/03/2024
,"<div style=""font-size: 10rem; color: #0000FF"">Y</div>",,ospan,letter,0UrXbrB7TzYyM4TmNd0VK0ijxVf1,html-keyboard-response,120,767655,0.0-43.0-4.0-1.0-1.0-1.0,,,,,,,,,,,,,,,654ceaf9bea6ff323bef327c,13:50:58,06/03/2024
4042.0,,,ospan,symmetry,0UrXbrB7TzYyM4TmNd0VK0ijxVf1,symmetry-judgement-task,121,773964,0.0-43.0-4.0-1.0-1.0-2.0,,,,,,,,,,1.0,1.0,,,,654ceaf9bea6ff323bef327c,13:50:58,06/03/2024
,"<div style=""font-size: 10rem; color: #0000FF"">K</div>",,ospan,letter,0UrXbrB7TzYyM4TmNd0VK0ijxVf1,html-keyboard-response,122,774988,0.0-43.0-4.0-1.0-1.0-3.0,,,,,,,,,,,,,,,654ceaf9bea6ff323bef327c,13:50:58,06/03/2024
1650.0,,,ospan,symmetry,0UrXbrB7TzYyM4TmNd0VK0ijxVf1,symmetry-judgement-task,123,778914,0.0-43.0-4.0-1.0-1.0-4.0,,,,,,,,,,1.0,1.0,,,,654ceaf9bea6ff323bef327c,13:50:58,06/03/2024
,"<div style=""font-size: 10rem; color: #0000FF"">N</div>",,ospan,letter,0UrXbrB7TzYyM4TmNd0VK0ijxVf1,html-keyboard-response,124,779933,0.0-43.0-4.0-1.0-1.0-5.0,,,,,,,,,,,,,,,654ceaf9bea6ff323bef327c,13:50:58,06/03/2024
2517.0,,,ospan,symmetry,0UrXbrB7TzYyM4TmNd0VK0ijxVf1,symmetry-judgement-task,125,784896,0.0-43.0-4.0-1.0-1.0-6.0,,,,,,,,,,1.0,1.0,,,,654ceaf9bea6ff323bef327c,13:50:58,06/03/2024
,"<div style=""font-size: 10rem; color: #0000FF"">H</div>",,ospan,letter,0UrXbrB7TzYyM4TmNd0VK0ijxVf1,html-keyboard-response,126,785906,0.0-43.0-4.0-1.0-1.0-7.0,,,,,,,,,,,,,,,654ceaf9bea6ff323bef327c,13:50:58,06/03/2024
3772.0,,,ospan,symmetry,0UrXbrB7TzYyM4TmNd0VK0ijxVf1,symmetry-judgement-task,127,791974,0.0-43.0-4.0-1.0-1.0-8.0,,,,,,,,,,1.0,1.0,,,,654ceaf9bea6ff323bef327c,13:50:58,06/03/2024
,"<div style=""font-size: 10rem; color: #0000FF"">P</div>",,ospan,letter,0UrXbrB7TzYyM4TmNd0VK0ijxVf1,html-keyboard-response,128,792990,0.0-43.0-4.0-1.0-1.0-9.0,,,,,,,,,,,,,,,654ceaf9bea6ff323bef327c,13:50:58,06/03/2024
10412.900000095367,"<div class = numbox><p style=""font-size: 2.4rem"">Please recall the letters you saw to the best of your ability. If you do not remember a particular letter, use the SKIP button.<br><b>(When you are ready to lock in your answer, press ENTER)</b></p><button id = button_1 class = ""square num-button"" onclick = ""recordClick(this)""><div class = content><div class = numbers>C</div></div></button><button id = button_2 class = ""square num-button"" onclick = ""recordClick(this)""><div class = content><div class = numbers>G</div></div></button><button id = button_3 class = ""square num-button"" onclick = ""recordClick(this)""><div class = content><div class = numbers>H</div></div></button><button id = button_4 class = ""square num-button"" onclick = ""recordClick(this)""><div class = content><div class = numbers>J</div></div></button><button id = button_5 class = ""square num-button"" onclick = ""recordClick(this)""><div class = content><div class = numbers>K</div></div></button><button id = button_6 class = ""square num-button"" onclick = ""recordClick(this)""><div class = content><div class = numbers>L</div></div></button><button id = button_7 class = ""square num-button"" onclick = ""recordClick(this)""><div class = content><div class = numbers>N</div></div></button><button id = button_8 class = ""square num-button"" onclick = ""recordClick(this)""><div class = content><div class = numbers>P</div></div></button><button id = button_9 class = ""square num-button"" onclick = ""recordClick(this)""><div class = content><div class = numbers>Q</div></div></button><button id = button_10 class = ""square num-button"" onclick = ""recordClick(this)""><div class = content><div class = numbers>R</div></div></button><button id = button_11 class = ""square num-button"" onclick = ""recordClick(this)""><div class = content><div class = numbers>S</div></div></button><button id = button_12 class = ""square num-button"" onclick = ""recordClick(this)""><div class = content><div class = numbers>Y</div></div></button><button class = clear_button id = ""ClearButton"" onclick = ""clearResponse()"">BACKSPACE</button><button class = blank_button id = ""BlankButton"" onclick = ""blankResponse()"">SKIP</button><p style=""font-size: 2.4rem""><u><b>Current Answer:</b></u></p><br><br><div id=echoed_txt style=""font-size: 5rem; color:blue;""><b></b></div></div>",enter,ospan,retrieval,0UrXbrB7TzYyM4TmNd0VK0ijxVf1,html-keyboard-response,129,804170,0.0-43.0-4.0-1.0-2.0,12,5,0,5.0,"[""Y"",""K"",""P""]","[""Y"",""K"",""N"",""H"",""P""]",0.0,2.0,,,,,,,654ceaf9bea6ff323bef327c,13:50:58,06/03/2024
2516.2999999523163,[''],0,ospan,feedback,0UrXbrB7TzYyM4TmNd0VK0ijxVf1,html-button-response,130,807213,0.0-43.0-4.0-1.0-3.0,,,,,,,,,,,,100.0,0.0,,654ceaf9bea6ff323bef327c,13:50:58,06/03/2024
,"<p style=""font-size:75px;"">...</p>",,ospan,iti,0UrXbrB7TzYyM4TmNd0VK0ijxVf1,html-keyboard-response,131,808234,0.0-43.0-4.0-2.0-0.0,,,,,,,,,,,,,,,654ceaf9bea6ff323bef327c,13:50:58,06/03/2024
7195.0,,,ospan,symmetry,0UrXbrB7TzYyM4TmNd0VK0ijxVf1,symmetry-judgement-task,132,816543,0.0-43.0-4.0-2.0-1.0-0.0,,,,,,,,,,1.0,1.0,,,,654ceaf9bea6ff323bef327c,13:50:58,06/03/2024
,"<div style=""font-size: 10rem; color: #0000FF"">P</div>",,ospan,letter,0UrXbrB7TzYyM4TmNd0VK0ijxVf1,html-keyboard-response,133,817550,0.0-43.0-4.0-2.0-1.0-1.0,,,,,,,,,,,,,,,654ceaf9bea6ff323bef327c,13:50:58,06/03/2024
3235.0,,,ospan,symmetry,0UrXbrB7TzYyM4TmNd0VK0ijxVf1,symmetry-judgement-task,134,823035,0.0-43.0-4.0-2.0-1.0-2.0,,,,,,,,,,0.0,0.0,,,,654ceaf9bea6ff323bef327c,13:50:58,06/03/2024
,"<div style=""font-size: 10rem; color: #0000FF"">H</div>",,ospan,letter,0UrXbrB7TzYyM4TmNd0VK0ijxVf1,html-keyboard-response,135,824047,0.0-43.0-4.0-2.0-1.0-3.0,,,,,,,,,,,,,,,654ceaf9bea6ff323bef327c,13:50:58,06/03/2024
2378.0,,,ospan,symmetry,0UrXbrB7TzYyM4TmNd0VK0ijxVf1,symmetry-judgement-task,136,828883,0.0-43.0-4.0-2.0-1.0-4.0,,,,,,,,,,1.0,1.0,,,,654ceaf9bea6ff323bef327c,13:50:58,06/03/2024
,"<div style=""font-size: 10rem; color: #0000FF"">G</div>",,ospan,letter,0UrXbrB7TzYyM4TmNd0VK0ijxVf1,html-keyboard-response,137,829899,0.0-43.0-4.0-2.0-1.0-5.0,,,,,,,,,,,,,,,654ceaf9bea6ff323bef327c,13:50:58,06/03/2024
18534.39999985695,"<div class = numbox><p style=""font-size: 2.4rem"">Please recall the letters you saw to the best of your ability. If you do not remember a particular letter, use the SKIP button.<br><b>(When you are ready to lock in your answer, press ENTER)</b></p><button id = button_1 class = ""square num-button"" onclick = ""recordClick(this)""><div class = content><div class = numbers>C</div></div></button><button id = button_2 class = ""square num-button"" onclick = ""recordClick(this)""><div class = content><div class = numbers>G</div></div></button><button id = button_3 class = ""square num-button"" onclick = ""recordClick(this)""><div class = content><div class = numbers>H</div></div></button><button id = button_4 class = ""square num-button"" onclick = ""recordClick(this)""><div class = content><div class = numbers>J</div></div></button><button id = button_5 class = ""square num-button"" onclick = ""recordClick(this)""><div class = content><div class = numbers>K</div></div></button><button id = button_6 class = ""square num-button"" onclick = ""recordClick(this)""><div class = content><div class = numbers>L</div></div></button><button id = button_7 class = ""square num-button"" onclick = ""recordClick(this)""><div class = content><div class = numbers>N</div></div></button><button id = button_8 class = ""square num-button"" onclick = ""recordClick(this)""><div class = content><div class = numbers>P</div></div></button><button id = button_9 class = ""square num-button"" onclick = ""recordClick(this)""><div class = content><div class = numbers>Q</div></div></button><button id = button_10 class = ""square num-button"" onclick = ""recordClick(this)""><div class = content><div class = numbers>R</div></div></button><button id = button_11 class = ""square num-button"" onclick = ""recordClick(this)""><div class = content><div class = numbers>S</div></div></button><button id = button_12 class = ""square num-button"" onclick = ""recordClick(this)""><div class = content><div class = numbers>Y</div></div></button><button class = clear_button id = ""ClearButton"" onclick = ""clearResponse()"">BACKSPACE</button><button class = blank_button id = ""BlankButton"" onclick = ""blankResponse()"">SKIP</button><p style=""font-size: 2.4rem""><u><b>Current Answer:</b></u></p><br><br><div id=echoed_txt style=""font-size: 5rem; color:blue;""><b></b></div></div>",enter,ospan,retrieval,0UrXbrB7TzYyM4TmNd0VK0ijxVf1,html-keyboard-response,138,849198,0.0-43.0-4.0-2.0-2.0,15,5,0,3.0,"[""H"",""_"",""_"",""_"",""H""]","[""P"",""H"",""G""]",0.0,0.0,,,,,,,654ceaf9bea6ff323bef327c,13:50:58,06/03/2024
8677.400000095367,[''],0,ospan,feedback,0UrXbrB7TzYyM4TmNd0VK0ijxVf1,html-button-response,139,858396,0.0-43.0-4.0-2.0-3.0,,,,,,,,,,,,93.0,0.0,,654ceaf9bea6ff323bef327c,13:50:58,06/03/2024
965.0999999046326,"<p style=""font-size:75px;"">...</p>",audiovolumedown,ospan,iti,0UrXbrB7TzYyM4TmNd0VK0ijxVf1,html-keyboard-response,140,859367,0.0-43.0-5.0-0.0-0.0,,,,,,,,,,,,,,,654ceaf9bea6ff323bef327c,13:50:58,06/03/2024
,,,ospan,symmetry,0UrXbrB7TzYyM4TmNd0VK0ijxVf1,symmetry-judgement-task,141,874882,0.0-43.0-5.0-0.0-1.0-0.0,,,,,,,,,,,0.0,,,,654ceaf9bea6ff323bef327c,13:50:58,06/03/2024
,"<div style=""font-size: 10rem; color: #0000FF"">L</div>",,ospan,letter,0UrXbrB7TzYyM4TmNd0VK0ijxVf1,html-keyboard-response,142,875908,0.0-43.0-5.0-0.0-1.0-1.0,,,,,,,,,,,,,,,654ceaf9bea6ff323bef327c,13:50:58,06/03/2024
,,,ospan,symmetry,0UrXbrB7TzYyM4TmNd0VK0ijxVf1,symmetry-judgement-task,143,892193,0.0-43.0-5.0-0.0-1.0-2.0,,,,,,,,,,,0.0,,,,654ceaf9bea6ff323bef327c,13:50:58,06/03/2024
,"<div style=""font-size: 10rem; color: #0000FF"">S</div>",,ospan,letter,0UrXbrB7TzYyM4TmNd0VK0ijxVf1,html-keyboard-response,144,893200,0.0-43.0-5.0-0.0-1.0-3.0,,,,,,,,,,,,,,,654ceaf9bea6ff323bef327c,13:50:58,06/03/2024
7640.0,,,ospan,symmetry,0UrXbrB7TzYyM4TmNd0VK0ijxVf1,symmetry-judgement-task,145,904207,0.0-43.0-5.0-0.0-1.0-4.0,,,,,,,,,,1.0,1.0,,,,654ceaf9bea6ff323bef327c,13:50:58,06/03/2024
,"<div style=""font-size: 10rem; color: #0000FF"">R</div>",,ospan,letter,0UrXbrB7TzYyM4TmNd0VK0ijxVf1,html-keyboard-response,146,905217,0.0-43.0-5.0-0.0-1.0-5.0,,,,,,,,,,,,,,,654ceaf9bea6ff323bef327c,13:50:58,06/03/2024
,,,ospan,symmetry,0UrXbrB7TzYyM4TmNd0VK0ijxVf1,symmetry-judgement-task,147,921503,0.0-43.0-5.0-0.0-1.0-6.0,,,,,,,,,,,0.0,,,,654ceaf9bea6ff323bef327c,13:50:58,06/03/2024
,"<div style=""font-size: 10rem; color: #0000FF"">K</div>",,ospan,letter,0UrXbrB7TzYyM4TmNd0VK0ijxVf1,html-keyboard-response,148,922534,0.0-43.0-5.0-0.0-1.0-7.0,,,,,,,,,,,,,,,654ceaf9bea6ff323bef327c,13:50:58,06/03/2024
11069.0,,,ospan,symmetry,0UrXbrB7TzYyM4TmNd0VK0ijxVf1,symmetry-judgement-task,149,935911,0.0-43.0-5.0-0.0-1.0-8.0,,,,,,,,,,1.0,1.0,,,,654ceaf9bea6ff323bef327c,13:50:58,06/03/2024
,"<div style=""font-size: 10rem; color: #0000FF"">G</div>",,ospan,letter,0UrXbrB7TzYyM4TmNd0VK0ijxVf1,html-keyboard-response,150,936919,0.0-43.0-5.0-0.0-1.0-9.0,,,,,,,,,,,,,,,654ceaf9bea6ff323bef327c,13:50:58,06/03/2024
,,,ospan,symmetry,0UrXbrB7TzYyM4TmNd0VK0ijxVf1,symmetry-judgement-task,151,953282,0.0-43.0-5.0-0.0-1.0-10.0,,,,,,,,,,,0.0,,,,654ceaf9bea6ff323bef327c,13:50:58,06/03/2024
,"<div style=""font-size: 10rem; color: #0000FF"">H</div>",,ospan,letter,0UrXbrB7TzYyM4TmNd0VK0ijxVf1,html-keyboard-response,152,954292,0.0-43.0-5.0-0.0-1.0-11.0,,,,,,,,,,,,,,,654ceaf9bea6ff323bef327c,13:50:58,06/03/2024
24622.200000047684,"<div class = numbox><p style=""font-size: 2.4rem"">Please recall the letters you saw to the best of your ability. If you do not remember a particular letter, use the SKIP button.<br><b>(When you are ready to lock in your answer, press ENTER)</b></p><button id = button_1 class = ""square num-button"" onclick = ""recordClick(this)""><div class = content><div class = numbers>C</div></div></button><button id = button_2 class = ""square num-button"" onclick = ""recordClick(this)""><div class = content><div class = numbers>G</div></div></button><button id = button_3 class = ""square num-button"" onclick = ""recordClick(this)""><div class = content><div class = numbers>H</div></div></button><button id = button_4 class = ""square num-button"" onclick = ""recordClick(this)""><div class = content><div class = numbers>J</div></div></button><button id = button_5 class = ""square num-button"" onclick = ""recordClick(this)""><div class = content><div class = numbers>K</div></div></button><button id = button_6 class = ""square num-button"" onclick = ""recordClick(this)""><div class = content><div class = numbers>L</div></div></button><button id = button_7 class = ""square num-button"" onclick = ""recordClick(this)""><div class = content><div class = numbers>N</div></div></button><button id = button_8 class = ""square num-button"" onclick = ""recordClick(this)""><div class = content><div class = numbers>P</div></div></button><button id = button_9 class = ""square num-button"" onclick = ""recordClick(this)""><div class = content><div class = numbers>Q</div></div></button><button id = button_10 class = ""square num-button"" onclick = ""recordClick(this)""><div class = content><div class = numbers>R</div></div></button><button id = button_11 class = ""square num-button"" onclick = ""recordClick(this)""><div class = content><div class = numbers>S</div></div></button><button id = button_12 class = ""square num-button"" onclick = ""recordClick(this)""><div class = content><div class = numbers>Y</div></div></button><button class = clear_button id = ""ClearButton"" onclick = ""clearResponse()"">BACKSPACE</button><button class = blank_button id = ""BlankButton"" onclick = ""blankResponse()"">SKIP</button><p style=""font-size: 2.4rem""><u><b>Current Answer:</b></u></p><br><br><div id=echoed_txt style=""font-size: 5rem; color:blue;""><b></b></div></div>",enter,ospan,retrieval,0UrXbrB7TzYyM4TmNd0VK0ijxVf1,html-keyboard-response,153,979679,0.0-43.0-5.0-0.0-2.0,21,5,0,6.0,"[""_"",""_""]","[""L"",""S"",""R"",""K"",""G"",""H""]",0.0,0.0,,,,,,,654ceaf9bea6ff323bef327c,13:50:58,06/03/2024
6128.899999856949,"['<p style=""font-size: 3.75rem"">Low symmetry accuracy!<br><br><br><font color=""red"">76%</font><br><br></p>']",0,ospan,feedback,0UrXbrB7TzYyM4TmNd0VK0ijxVf1,html-button-response,154,986322,0.0-43.0-5.0-0.0-3.0,,,,,,,,,,,,76.0,1.0,,654ceaf9bea6ff323bef327c,13:50:58,06/03/2024
,"<p style=""font-size:75px;"">...</p>",,ospan,iti,0UrXbrB7TzYyM4TmNd0VK0ijxVf1,html-keyboard-response,155,987339,0.0-43.0-5.0-1.0-0.0,,,,,,,,,,,,,,,654ceaf9bea6ff323bef327c,13:50:58,06/03/2024
,,,ospan,symmetry,0UrXbrB7TzYyM4TmNd0VK0ijxVf1,symmetry-judgement-task,156,1002852,0.0-43.0-5.0-1.0-1.0-0.0,,,,,,,,,,,0.0,,,,654ceaf9bea6ff323bef327c,13:50:58,06/03/2024
,"<div style=""font-size: 10rem; color: #0000FF"">Q</div>",,ospan,letter,0UrXbrB7TzYyM4TmNd0VK0ijxVf1,html-keyboard-response,157,1003880,0.0-43.0-5.0-1.0-1.0-1.0,,,,,,,,,,,,,,,654ceaf9bea6ff323bef327c,13:50:58,06/03/2024
1883.0,,,ospan,symmetry,0UrXbrB7TzYyM4TmNd0VK0ijxVf1,symmetry-judgement-task,158,1008100,0.0-43.0-5.0-1.0-1.0-2.0,,,,,,,,,,1.0,1.0,,,,654ceaf9bea6ff323bef327c,13:50:58,06/03/2024
,"<div style=""font-size: 10rem; color: #0000FF"">G</div>",,ospan,letter,0UrXbrB7TzYyM4TmNd0VK0ijxVf1,html-keyboard-response,159,1009114,0.0-43.0-5.0-1.0-1.0-3.0,,,,,,,,,,,,,,,654ceaf9bea6ff323bef327c,13:50:58,06/03/2024
13220.0,,,ospan,symmetry,0UrXbrB7TzYyM4TmNd0VK0ijxVf1,symmetry-judgement-task,160,1024672,0.0-43.0-5.0-1.0-1.0-4.0,,,,,,,,,,1.0,1.0,,,,654ceaf9bea6ff323bef327c,13:50:58,06/03/2024
,"<div style=""font-size: 10rem; color: #0000FF"">C</div>",,ospan,letter,0UrXbrB7TzYyM4TmNd0VK0ijxVf1,html-keyboard-response,161,1025699,0.0-43.0-5.0-1.0-1.0-5.0,,,,,,,,,,,,,,,654ceaf9bea6ff323bef327c,13:50:58,06/03/2024
10871.0,,,ospan,symmetry,0UrXbrB7TzYyM4TmNd0VK0ijxVf1,symmetry-judgement-task,162,1038930,0.0-43.0-5.0-1.0-1.0-6.0,,,,,,,,,,0.0,0.0,,,,654ceaf9bea6ff323bef327c,13:50:58,06/03/2024
,"<div style=""font-size: 10rem; color: #0000FF"">P</div>",,ospan,letter,0UrXbrB7TzYyM4TmNd0VK0ijxVf1,html-keyboard-response,163,1039945,0.0-43.0-5.0-1.0-1.0-7.0,,,,,,,,,,,,,,,654ceaf9bea6ff323bef327c,13:50:58,06/03/2024
1950.0,,,ospan,symmetry,0UrXbrB7TzYyM4TmNd0VK0ijxVf1,symmetry-judgement-task,164,1044270,0.0-43.0-5.0-1.0-1.0-8.0,,,,,,,,,,0.0,0.0,,,,654ceaf9bea6ff323bef327c,13:50:58,06/03/2024
,"<div style=""font-size: 10rem; color: #0000FF"">Y</div>",,ospan,letter,0UrXbrB7TzYyM4TmNd0VK0ijxVf1,html-keyboard-response,165,1045280,0.0-43.0-5.0-1.0-1.0-9.0,,,,,,,,,,,,,,,654ceaf9bea6ff323bef327c,13:50:58,06/03/2024
3336.0,,,ospan,symmetry,0UrXbrB7TzYyM4TmNd0VK0ijxVf1,symmetry-judgement-task,166,1050868,0.0-43.0-5.0-1.0-1.0-10.0,,,,,,,,,,1.0,1.0,,,,654ceaf9bea6ff323bef327c,13:50:58,06/03/2024
,"<div style=""font-size: 10rem; color: #0000FF"">R</div>",,ospan,letter,0UrXbrB7TzYyM4TmNd0VK0ijxVf1,html-keyboard-response,167,1051874,0.0-43.0-5.0-1.0-1.0-11.0,,,,,,,,,,,,,,,654ceaf9bea6ff323bef327c,13:50:58,06/03/2024
2579.0,,,ospan,symmetry,0UrXbrB7TzYyM4TmNd0VK0ijxVf1,symmetry-judgement-task,168,1056803,0.0-43.0-5.0-1.0-1.0-12.0,,,,,,,,,,1.0,1.0,,,,654ceaf9bea6ff323bef327c,13:50:58,06/03/2024
,"<div style=""font-size: 10rem; color: #0000FF"">L</div>",,ospan,letter,0UrXbrB7TzYyM4TmNd0VK0ijxVf1,html-keyboard-response,169,1057827,0.0-43.0-5.0-1.0-1.0-13.0,,,,,,,,,,,,,,,654ceaf9bea6ff323bef327c,13:50:58,06/03/2024
6273.799999952316,"<div class = numbox><p style=""font-size: 2.4rem"">Please recall the letters you saw to the best of your ability. If you do not remember a particular letter, use the SKIP button.<br><b>(When you are ready to lock in your answer, press ENTER)</b></p><button id = button_1 class = ""square num-button"" onclick = ""recordClick(this)""><div class = content><div class = numbers>C</div></div></button><button id = button_2 class = ""square num-button"" onclick = ""recordClick(this)""><div class = content><div class = numbers>G</div></div></button><button id = button_3 class = ""square num-button"" onclick = ""recordClick(this)""><div class = content><div class = numbers>H</div></div></button><button id = button_4 class = ""square num-button"" onclick = ""recordClick(this)""><div class = content><div class = numbers>J</div></div></button><button id = button_5 class = ""square num-button"" onclick = ""recordClick(this)""><div class = content><div class = numbers>K</div></div></button><button id = button_6 class = ""square num-button"" onclick = ""recordClick(this)""><div class = content><div class = numbers>L</div></div></button><button id = button_7 class = ""square num-button"" onclick = ""recordClick(this)""><div class = content><div class = numbers>N</div></div></button><button id = button_8 class = ""square num-button"" onclick = ""recordClick(this)""><div class = content><div class = numbers>P</div></div></button><button id = button_9 class = ""square num-button"" onclick = ""recordClick(this)""><div class = content><div class = numbers>Q</div></div></button><button id = button_10 class = ""square num-button"" onclick = ""recordClick(this)""><div class = content><div class = numbers>R</div></div></button><button id = button_11 class = ""square num-button"" onclick = ""recordClick(this)""><div class = content><div class = numbers>S</div></div></button><button id = button_12 class = ""square num-button"" onclick = ""recordClick(this)""><div class = content><div class = numbers>Y</div></div></button><button class = clear_button id = ""ClearButton"" onclick = ""clearResponse()"">BACKSPACE</button><button class = blank_button id = ""BlankButton"" onclick = ""blankResponse()"">SKIP</button><p style=""font-size: 2.4rem""><u><b>Current Answer:</b></u></p><br><br><div id=echoed_txt style=""font-size: 5rem; color:blue;""><b></b></div></div>",enter,ospan,retrieval,0UrXbrB7TzYyM4TmNd0VK0ijxVf1,html-keyboard-response,170,1064862,0.0-43.0-5.0-1.0-2.0,28,7,0,7.0,"[""Q"",""G""]","[""Q"",""G"",""C"",""P"",""Y"",""R"",""L""]",0.0,2.0,,,,,,,654ceaf9bea6ff323bef327c,13:50:58,06/03/2024
1560.3000001907349,"['<p style=""font-size: 3.75rem"">Low symmetry accuracy!<br><br><br><font color=""red"">71%</font><br><br></p>']",0,ospan,feedback,0UrXbrB7TzYyM4TmNd0VK0ijxVf1,html-button-response,171,1066931,0.0-43.0-5.0-1.0-3.0,,,,,,,,,,,,71.0,1.0,,654ceaf9bea6ff323bef327c,13:50:58,06/03/2024
,"<p style=""font-size:75px;"">...</p>",,ospan,iti,0UrXbrB7TzYyM4TmNd0VK0ijxVf1,html-keyboard-response,172,1067950,0.0-43.0-6.0-0.0-0.0,,,,,,,,,,,,,,,654ceaf9bea6ff323bef327c,13:50:58,06/03/2024
2485.0,,,ospan,symmetry,0UrXbrB7TzYyM4TmNd0VK0ijxVf1,symmetry-judgement-task,173,1071597,0.0-43.0-6.0-0.0-1.0-0.0,,,,,,,,,,1.0,1.0,,,,654ceaf9bea6ff323bef327c,13:50:58,06/03/2024
,"<div style=""font-size: 10rem; color: #0000FF"">Q</div>",,ospan,letter,0UrXbrB7TzYyM4TmNd0VK0ijxVf1,html-keyboard-response,174,1072622,0.0-43.0-6.0-0.0-1.0-1.0,,,,,,,,,,,,,,,654ceaf9bea6ff323bef327c,13:50:58,06/03/2024
2368.0,,,ospan,symmetry,0UrXbrB7TzYyM4TmNd0VK0ijxVf1,symmetry-judgement-task,175,1077370,0.0-43.0-6.0-0.0-1.0-2.0,,,,,,,,,,1.0,1.0,,,,654ceaf9bea6ff323bef327c,13:50:58,06/03/2024
,"<div style=""font-size: 10rem; color: #0000FF"">G</div>",,ospan,letter,0UrXbrB7TzYyM4TmNd0VK0ijxVf1,html-keyboard-response,176,1078380,0.0-43.0-6.0-0.0-1.0-3.0,,,,,,,,,,,,,,,654ceaf9bea6ff323bef327c,13:50:58,06/03/2024
1984.0,,,ospan,symmetry,0UrXbrB7TzYyM4TmNd0VK0ijxVf1,symmetry-judgement-task,177,1082651,0.0-43.0-6.0-0.0-1.0-4.0,,,,,,,,,,1.0,1.0,,,,654ceaf9bea6ff323bef327c,13:50:58,06/03/2024
,"<div style=""font-size: 10rem; color: #0000FF"">Y</div>",,ospan,letter,0UrXbrB7TzYyM4TmNd0VK0ijxVf1,html-keyboard-response,178,1083673,0.0-43.0-6.0-0.0-1.0-5.0,,,,,,,,,,,,,,,654ceaf9bea6ff323bef327c,13:50:58,06/03/2024
2435.0,,,ospan,symmetry,0UrXbrB7TzYyM4TmNd0VK0ijxVf1,symmetry-judgement-task,179,1088424,0.0-43.0-6.0-0.0-1.0-6.0,,,,,,,,,,1.0,1.0,,,,654ceaf9bea6ff323bef327c,13:50:58,06/03/2024
,"<div style=""font-size: 10rem; color: #0000FF"">N</div>",,ospan,letter,0UrXbrB7TzYyM4TmNd0VK0ijxVf1,html-keyboard-response,180,1089431,0.0-43.0-6.0-0.0-1.0-7.0,,,,,,,,,,,,,,,654ceaf9bea6ff323bef327c,13:50:58,06/03/2024
2242.0,,,ospan,symmetry,0UrXbrB7TzYyM4TmNd0VK0ijxVf1,symmetry-judgement-task,181,1094093,0.0-43.0-6.0-0.0-1.0-8.0,,,,,,,,,,1.0,1.0,,,,654ceaf9bea6ff323bef327c,13:50:58,06/03/2024
,"<div style=""font-size: 10rem; color: #0000FF"">R</div>",,ospan,letter,0UrXbrB7TzYyM4TmNd0VK0ijxVf1,html-keyboard-response,182,1095107,0.0-43.0-6.0-0.0-1.0-9.0,,,,,,,,,,,,,,,654ceaf9bea6ff323bef327c,13:50:58,06/03/2024
7138.399999856949,"<div class = numbox><p style=""font-size: 2.4rem"">Please recall the letters you saw to the best of your ability. If you do not remember a particular letter, use the SKIP button.<br><b>(When you are ready to lock in your answer, press ENTER)</b></p><button id = button_1 class = ""square num-button"" onclick = ""recordClick(this)""><div class = content><div class = numbers>C</div></div></button><button id = button_2 class = ""square num-button"" onclick = ""recordClick(this)""><div class = content><div class = numbers>G</div></div></button><button id = button_3 class = ""square num-button"" onclick = ""recordClick(this)""><div class = content><div class = numbers>H</div></div></button><button id = button_4 class = ""square num-button"" onclick = ""recordClick(this)""><div class = content><div class = numbers>J</div></div></button><button id = button_5 class = ""square num-button"" onclick = ""recordClick(this)""><div class = content><div class = numbers>K</div></div></button><button id = button_6 class = ""square num-button"" onclick = ""recordClick(this)""><div class = content><div class = numbers>L</div></div></button><button id = button_7 class = ""square num-button"" onclick = ""recordClick(this)""><div class = content><div class = numbers>N</div></div></button><button id = button_8 class = ""square num-button"" onclick = ""recordClick(this)""><div class = content><div class = numbers>P</div></div></button><button id = button_9 class = ""square num-button"" onclick = ""recordClick(this)""><div class = content><div class = numbers>Q</div></div></button><button id = button_10 class = ""square num-button"" onclick = ""recordClick(this)""><div class = content><div class = numbers>R</div></div></button><button id = button_11 class = ""square num-button"" onclick = ""recordClick(this)""><div class = content><div class = numbers>S</div></div></button><button id = button_12 class = ""square num-button"" onclick = ""recordClick(this)""><div class = content><div class = numbers>Y</div></div></button><button class = clear_button id = ""ClearButton"" onclick = ""clearResponse()"">BACKSPACE</button><button class = blank_button id = ""BlankButton"" onclick = ""blankResponse()"">SKIP</button><p style=""font-size: 2.4rem""><u><b>Current Answer:</b></u></p><br><br><div id=echoed_txt style=""font-size: 5rem; color:blue;""><b></b></div></div>",enter,ospan,retrieval,0UrXbrB7TzYyM4TmNd0VK0ijxVf1,html-keyboard-response,183,1103006,0.0-43.0-6.0-0.0-2.0,33,11,0,5.0,"[""Q"",""G"",""Y"",""N""]","[""Q"",""G"",""Y"",""N"",""R""]",0.0,4.0,,,,,,,654ceaf9bea6ff323bef327c,13:50:58,06/03/2024
5446.799999952316,"['<p style=""font-size: 3.75rem"">Low symmetry accuracy!<br><br><br><font color=""red"">76%</font><br><br></p>']",0,ospan,feedback,0UrXbrB7TzYyM4TmNd0VK0ijxVf1,html-button-response,184,1108961,0.0-43.0-6.0-0.0-3.0,,,,,,,,,,,,76.0,1.0,,654ceaf9bea6ff323bef327c,13:50:58,06/03/2024
,"<p style=""font-size:75px;"">...</p>",,ospan,iti,0UrXbrB7TzYyM4TmNd0VK0ijxVf1,html-keyboard-response,185,1109981,0.0-43.0-6.0-1.0-0.0,,,,,,,,,,,,,,,654ceaf9bea6ff323bef327c,13:50:58,06/03/2024
2155.0,,,ospan,symmetry,0UrXbrB7TzYyM4TmNd0VK0ijxVf1,symmetry-judgement-task,186,1113637,0.0-43.0-6.0-1.0-1.0-0.0,,,,,,,,,,1.0,1.0,,,,654ceaf9bea6ff323bef327c,13:50:58,06/03/2024
,"<div style=""font-size: 10rem; color: #0000FF"">S</div>",,ospan,letter,0UrXbrB7TzYyM4TmNd0VK0ijxVf1,html-keyboard-response,187,1114679,0.0-43.0-6.0-1.0-1.0-1.0,,,,,,,,,,,,,,,654ceaf9bea6ff323bef327c,13:50:58,06/03/2024
3693.0,,,ospan,symmetry,0UrXbrB7TzYyM4TmNd0VK0ijxVf1,symmetry-judgement-task,188,1120929,0.0-43.0-6.0-1.0-1.0-2.0,,,,,,,,,,1.0,1.0,,,,654ceaf9bea6ff323bef327c,13:50:58,06/03/2024
,"<div style=""font-size: 10rem; color: #0000FF"">Y</div>",,ospan,letter,0UrXbrB7TzYyM4TmNd0VK0ijxVf1,html-keyboard-response,189,1121937,0.0-43.0-6.0-1.0-1.0-3.0,,,,,,,,,,,,,,,654ceaf9bea6ff323bef327c,13:50:58,06/03/2024
3420.0,,,ospan,symmetry,0UrXbrB7TzYyM4TmNd0VK0ijxVf1,symmetry-judgement-task,190,1127611,0.0-43.0-6.0-1.0-1.0-4.0,,,,,,,,,,1.0,1.0,,,,654ceaf9bea6ff323bef327c,13:50:58,06/03/2024
,"<div style=""font-size: 10rem; color: #0000FF"">Q</div>",,ospan,letter,0UrXbrB7TzYyM4TmNd0VK0ijxVf1,html-keyboard-response,191,1128624,0.0-43.0-6.0-1.0-1.0-5.0,,,,,,,,,,,,,,,654ceaf9bea6ff323bef327c,13:50:58,06/03/2024
2255.0,,,ospan,symmetry,0UrXbrB7TzYyM4TmNd0VK0ijxVf1,symmetry-judgement-task,192,1133211,0.0-43.0-6.0-1.0-1.0-6.0,,,,,,,,,,1.0,1.0,,,,654ceaf9bea6ff323bef327c,13:50:58,06/03/2024
,"<div style=""font-size: 10rem; color: #0000FF"">C</div>",,ospan,letter,0UrXbrB7TzYyM4TmNd0VK0ijxVf1,html-keyboard-response,193,1134223,0.0-43.0-6.0-1.0-1.0-7.0,,,,,,,,,,,,,,,654ceaf9bea6ff323bef327c,13:50:58,06/03/2024
1946.0,,,ospan,symmetry,0UrXbrB7TzYyM4TmNd0VK0ijxVf1,symmetry-judgement-task,194,1138537,0.0-43.0-6.0-1.0-1.0-8.0,,,,,,,,,,1.0,1.0,,,,654ceaf9bea6ff323bef327c,13:50:58,06/03/2024
,"<div style=""font-size: 10rem; color: #0000FF"">L</div>",,ospan,letter,0UrXbrB7TzYyM4TmNd0VK0ijxVf1,html-keyboard-response,195,1139546,0.0-43.0-6.0-1.0-1.0-9.0,,,,,,,,,,,,,,,654ceaf9bea6ff323bef327c,13:50:58,06/03/2024
3419.0,,,ospan,symmetry,0UrXbrB7TzYyM4TmNd0VK0ijxVf1,symmetry-judgement-task,196,1145211,0.0-43.0-6.0-1.0-1.0-10.0,,,,,,,,,,1.0,1.0,,,,654ceaf9bea6ff323bef327c,13:50:58,06/03/2024
,"<div style=""font-size: 10rem; color: #0000FF"">K</div>",,ospan,letter,0UrXbrB7TzYyM4TmNd0VK0ijxVf1,html-keyboard-response,197,1146219,0.0-43.0-6.0-1.0-1.0-11.0,,,,,,,,,,,,,,,654ceaf9bea6ff323bef327c,13:50:58,06/03/2024
2262.0,,,ospan,symmetry,0UrXbrB7TzYyM4TmNd0VK0ijxVf1,symmetry-judgement-task,198,1150841,0.0-43.0-6.0-1.0-1.0-12.0,,,,,,,,,,1.0,1.0,,,,654ceaf9bea6ff323bef327c,13:50:58,06/03/2024
,"<div style=""font-size: 10rem; color: #0000FF"">P</div>",,ospan,letter,0UrXbrB7TzYyM4TmNd0VK0ijxVf1,html-keyboard-response,199,1151848,0.0-43.0-6.0-1.0-1.0-13.0,,,,,,,,,,,,,,,654ceaf9bea6ff323bef327c,13:50:58,06/03/2024
1718.0,,,ospan,symmetry,0UrXbrB7TzYyM4TmNd0VK0ijxVf1,symmetry-judgement-task,200,1155863,0.0-43.0-6.0-1.0-1.0-14.0,,,,,,,,,,1.0,1.0,,,,654ceaf9bea6ff323bef327c,13:50:58,06/03/2024
,"<div style=""font-size: 10rem; color: #0000FF"">R</div>",,ospan,letter,0UrXbrB7TzYyM4TmNd0VK0ijxVf1,html-keyboard-response,201,1156874,0.0-43.0-6.0-1.0-1.0-15.0,,,,,,,,,,,,,,,654ceaf9bea6ff323bef327c,13:50:58,06/03/2024
13096.799999952316,"<div class = numbox><p style=""font-size: 2.4rem"">Please recall the letters you saw to the best of your ability. If you do not remember a particular letter, use the SKIP button.<br><b>(When you are ready to lock in your answer, press ENTER)</b></p><button id = button_1 class = ""square num-button"" onclick = ""recordClick(this)""><div class = content><div class = numbers>C</div></div></button><button id = button_2 class = ""square num-button"" onclick = ""recordClick(this)""><div class = content><div class = numbers>G</div></div></button><button id = button_3 class = ""square num-button"" onclick = ""recordClick(this)""><div class = content><div class = numbers>H</div></div></button><button id = button_4 class = ""square num-button"" onclick = ""recordClick(this)""><div class = content><div class = numbers>J</div></div></button><button id = button_5 class = ""square num-button"" onclick = ""recordClick(this)""><div class = content><div class = numbers>K</div></div></button><button id = button_6 class = ""square num-button"" onclick = ""recordClick(this)""><div class = content><div class = numbers>L</div></div></button><button id = button_7 class = ""square num-button"" onclick = ""recordClick(this)""><div class = content><div class = numbers>N</div></div></button><button id = button_8 class = ""square num-button"" onclick = ""recordClick(this)""><div class = content><div class = numbers>P</div></div></button><button id = button_9 class = ""square num-button"" onclick = ""recordClick(this)""><div class = content><div class = numbers>Q</div></div></button><button id = button_10 class = ""square num-button"" onclick = ""recordClick(this)""><div class = content><div class = numbers>R</div></div></button><button id = button_11 class = ""square num-button"" onclick = ""recordClick(this)""><div class = content><div class = numbers>S</div></div></button><button id = button_12 class = ""square num-button"" onclick = ""recordClick(this)""><div class = content><div class = numbers>Y</div></div></button><button class = clear_button id = ""ClearButton"" onclick = ""clearResponse()"">BACKSPACE</button><button class = blank_button id = ""BlankButton"" onclick = ""blankResponse()"">SKIP</button><p style=""font-size: 2.4rem""><u><b>Current Answer:</b></u></p><br><br><div id=echoed_txt style=""font-size: 5rem; color:blue;""><b></b></div></div>",enter,ospan,retrieval,0UrXbrB7TzYyM4TmNd0VK0ijxVf1,html-keyboard-response,202,1170739,0.0-43.0-6.0-1.0-2.0,41,15,0,8.0,"[""S"",""Y"",""Q"",""C"",""N"",""S""]","[""S"",""Y"",""Q"",""C"",""L"",""K"",""P"",""R""]",0.0,4.0,,,,,,,654ceaf9bea6ff323bef327c,13:50:58,06/03/2024
1643.2000000476837,"['<p style=""font-size: 3.75rem"">Low symmetry accuracy!<br><br><br><font color=""purple"">80%</font><br><br></p>']",0,ospan,feedback,0UrXbrB7TzYyM4TmNd0VK0ijxVf1,html-button-response,203,1172890,0.0-43.0-6.0-1.0-3.0,,,,,,,,,,,,80.0,1.0,,654ceaf9bea6ff323bef327c,13:50:58,06/03/2024
152450.59999990463,,{'Q0': 'love the process'},ospan,survey_ospan,0UrXbrB7TzYyM4TmNd0VK0ijxVf1,lmdlab-survey-text,204,1326139,0.0-43.0-7.0,,,,,,,,,,,,,,0UrXbrB7TzYyM4TmNd0VK0ijxVf1,654ceaf9bea6ff323bef327c,13:50:58,06/03/2024
1428.4000000953674,<p><p style='font-size: 3rem'>Great work!<br><br>This completes the symmetry and memory task.</p><br><br><br>,0,ospan,finish,0UrXbrB7TzYyM4TmNd0VK0ijxVf1,html-button-response,205,1327578,0.0-43.0-8.0,41,15,0,,,,,,,,,80.0,,,654ceaf9bea6ff323bef327c,13:50:58,06/03/2024
