rt,stimulus,response,exp_name,exp_stage,subjectID,trial_type,trial_index,time_elapsed,internal_node_id,ospan_shown,ospan_total,ospan_abs,length,resp_actual,resp_correct,full_correct,num_correct,feedback,accuracy,correct,math_acc,math_warning,databaseID,prolificID,start_time,date
2701.699999988079,<div class = 'left_align' style='font-size: 3.25rem; line-height: 1.3;'><p class = 'center_align'><b>Welcome to the Symmetry and Memory Task</b><br><br><br><br></p>Press 'continue' to show the instructions.<br><br><br><br></div>,0,ospan,instruct,SDbP781iPAX4NCveADLEu5hSV7G2,html-button-response,54,525912,0.0-46.0-0.0-0.0-0.0,,,,,,,,,,,,,,,5eb85799cc3ea50a5f3591ad,09:23:23,03/04/2024
22139.399999976158,"<div class = 'left_align' style='font-size: 3.25rem; line-height: 1.3;'><p class = 'center_align'><b>Symmetry and Memory Task</b><br><br></p>In this task, you will try to memorize letters you see on the screen<br>while you also view black and white grid pictures.<br><br>In the next few minutes, you will have some practice to get you familiar<br>with how the task works.<br><br>It may be difficult sometimes, but please do not worry about making mistakes!<br><br>We will begin by practicing the letter part of the task.<br><br><br><br></div>",0,ospan,instruct,SDbP781iPAX4NCveADLEu5hSV7G2,html-button-response,55,548303,0.0-46.0-0.0-0.0-1.0,,,,,,,,,,,,,,,5eb85799cc3ea50a5f3591ad,09:23:23,03/04/2024
12377.099999964237,"<div class = 'left_align' style='font-size: 3.25rem; line-height: 1.3;'>For this practice part, letters will appear on the screen one at a time.<br><br>Try to remember each letter in the order presented.<br><br>After some letters have been shown, you will see a response screen. Your<br>goal is to report the letters you saw <b>in order</b>. If you do not remember<br>a particular letter, you will have the option to leave it blank.<br><br><br><br></div>",0,ospan,instruct,SDbP781iPAX4NCveADLEu5hSV7G2,html-button-response,56,560932,0.0-46.0-0.0-0.0-2.0,,,,,,,,,,,,,,,5eb85799cc3ea50a5f3591ad,09:23:23,03/04/2024
2115.099999964237,"<div class = 'left_align' style='font-size: 3.25rem; line-height: 1.3;'>Remember, it is very important to get the letters in the same<br>order as you see them.<br><br>When you are ready, you may begin the letter practice.</div><br><br><br><br>",0,ospan,instruct,SDbP781iPAX4NCveADLEu5hSV7G2,html-button-response,57,563300,0.0-46.0-0.0-0.0-3.0,,,,,,,,,,,,,,,5eb85799cc3ea50a5f3591ad,09:23:23,03/04/2024
,"<p style=""font-size:75px;"">...</p>",,ospan,iti,SDbP781iPAX4NCveADLEu5hSV7G2,html-keyboard-response,58,564553,0.0-46.0-0.0-1.0-0.0,,,,,,,,,,,,,,,5eb85799cc3ea50a5f3591ad,09:23:23,03/04/2024
,"<div style=""font-size: 10rem; color: #0000FF"">H</div>",,ospan,letter,SDbP781iPAX4NCveADLEu5hSV7G2,html-keyboard-response,59,565555,0.0-46.0-0.0-1.0-1.0,,,,,,,,,,,,,,,5eb85799cc3ea50a5f3591ad,09:23:23,03/04/2024
,"<div style=""font-size: 10rem; color: #0000FF"">R</div>",,ospan,letter,SDbP781iPAX4NCveADLEu5hSV7G2,html-keyboard-response,60,567308,0.0-46.0-0.0-1.0-2.0,,,,,,,,,,,,,,,5eb85799cc3ea50a5f3591ad,09:23:23,03/04/2024
5224.5,"<div class = numbox><p style=""font-size: 2.4rem"">Please recall the letters you saw to the best of your ability. If you do not remember a particular letter, use the SKIP button.<br><b>(When you are ready to lock in your answer, press ENTER)</b></p><button id = button_1 class = ""square num-button"" onclick = ""recordClick(this)""><div class = content><div class = numbers>C</div></div></button><button id = button_2 class = ""square num-button"" onclick = ""recordClick(this)""><div class = content><div class = numbers>G</div></div></button><button id = button_3 class = ""square num-button"" onclick = ""recordClick(this)""><div class = content><div class = numbers>H</div></div></button><button id = button_4 class = ""square num-button"" onclick = ""recordClick(this)""><div class = content><div class = numbers>J</div></div></button><button id = button_5 class = ""square num-button"" onclick = ""recordClick(this)""><div class = content><div class = numbers>K</div></div></button><button id = button_6 class = ""square num-button"" onclick = ""recordClick(this)""><div class = content><div class = numbers>L</div></div></button><button id = button_7 class = ""square num-button"" onclick = ""recordClick(this)""><div class = content><div class = numbers>N</div></div></button><button id = button_8 class = ""square num-button"" onclick = ""recordClick(this)""><div class = content><div class = numbers>P</div></div></button><button id = button_9 class = ""square num-button"" onclick = ""recordClick(this)""><div class = content><div class = numbers>Q</div></div></button><button id = button_10 class = ""square num-button"" onclick = ""recordClick(this)""><div class = content><div class = numbers>R</div></div></button><button id = button_11 class = ""square num-button"" onclick = ""recordClick(this)""><div class = content><div class = numbers>S</div></div></button><button id = button_12 class = ""square num-button"" onclick = ""recordClick(this)""><div class = content><div class = numbers>Y</div></div></button><button class = clear_button id = ""ClearButton"" onclick = ""clearResponse()"">BACKSPACE</button><button class = blank_button id = ""BlankButton"" onclick = ""blankResponse()"">SKIP</button><p style=""font-size: 2.4rem""><u><b>Current Answer:</b></u></p><br><br><div id=echoed_txt style=""font-size: 5rem; color:blue;""><b></b></div></div>",enter,ospan,retrieval,SDbP781iPAX4NCveADLEu5hSV7G2,html-keyboard-response,61,573285,0.0-46.0-0.0-1.0-3.0,NA,NA,NA,2.0,"[""H"",""R""]","[""H"",""R""]",1.0,2.0,"['<font color=""green"">H</font>', '<font color=""green"">R</font>']",,,,,,5eb85799cc3ea50a5f3591ad,09:23:23,03/04/2024
1329.7999999523163,"['<p style=""font-size:44px"">Letters:<br><br><br><font color=""green"">H</font> <font color=""green"">R</font></p><br><br>']",0,ospan,practice_feedback,SDbP781iPAX4NCveADLEu5hSV7G2,html-button-response,62,575118,0.0-46.0-0.0-1.0-4.0,,,,,,,,,,,,,,,5eb85799cc3ea50a5f3591ad,09:23:23,03/04/2024
,"<p style=""font-size:75px;"">...</p>",,ospan,iti,SDbP781iPAX4NCveADLEu5hSV7G2,html-keyboard-response,63,576121,0.0-46.0-0.0-2.0-0.0,,,,,,,,,,,,,,,5eb85799cc3ea50a5f3591ad,09:23:23,03/04/2024
,"<div style=""font-size: 10rem; color: #0000FF"">L</div>",,ospan,letter,SDbP781iPAX4NCveADLEu5hSV7G2,html-keyboard-response,64,577123,0.0-46.0-0.0-2.0-1.0,,,,,,,,,,,,,,,5eb85799cc3ea50a5f3591ad,09:23:23,03/04/2024
,"<div style=""font-size: 10rem; color: #0000FF"">C</div>",,ospan,letter,SDbP781iPAX4NCveADLEu5hSV7G2,html-keyboard-response,65,578876,0.0-46.0-0.0-2.0-2.0,,,,,,,,,,,,,,,5eb85799cc3ea50a5f3591ad,09:23:23,03/04/2024
,"<div style=""font-size: 10rem; color: #0000FF"">P</div>",,ospan,letter,SDbP781iPAX4NCveADLEu5hSV7G2,html-keyboard-response,66,580629,0.0-46.0-0.0-2.0-3.0,,,,,,,,,,,,,,,5eb85799cc3ea50a5f3591ad,09:23:23,03/04/2024
3502.399999976158,"<div class = numbox><p style=""font-size: 2.4rem"">Please recall the letters you saw to the best of your ability. If you do not remember a particular letter, use the SKIP button.<br><b>(When you are ready to lock in your answer, press ENTER)</b></p><button id = button_1 class = ""square num-button"" onclick = ""recordClick(this)""><div class = content><div class = numbers>C</div></div></button><button id = button_2 class = ""square num-button"" onclick = ""recordClick(this)""><div class = content><div class = numbers>G</div></div></button><button id = button_3 class = ""square num-button"" onclick = ""recordClick(this)""><div class = content><div class = numbers>H</div></div></button><button id = button_4 class = ""square num-button"" onclick = ""recordClick(this)""><div class = content><div class = numbers>J</div></div></button><button id = button_5 class = ""square num-button"" onclick = ""recordClick(this)""><div class = content><div class = numbers>K</div></div></button><button id = button_6 class = ""square num-button"" onclick = ""recordClick(this)""><div class = content><div class = numbers>L</div></div></button><button id = button_7 class = ""square num-button"" onclick = ""recordClick(this)""><div class = content><div class = numbers>N</div></div></button><button id = button_8 class = ""square num-button"" onclick = ""recordClick(this)""><div class = content><div class = numbers>P</div></div></button><button id = button_9 class = ""square num-button"" onclick = ""recordClick(this)""><div class = content><div class = numbers>Q</div></div></button><button id = button_10 class = ""square num-button"" onclick = ""recordClick(this)""><div class = content><div class = numbers>R</div></div></button><button id = button_11 class = ""square num-button"" onclick = ""recordClick(this)""><div class = content><div class = numbers>S</div></div></button><button id = button_12 class = ""square num-button"" onclick = ""recordClick(this)""><div class = content><div class = numbers>Y</div></div></button><button class = clear_button id = ""ClearButton"" onclick = ""clearResponse()"">BACKSPACE</button><button class = blank_button id = ""BlankButton"" onclick = ""blankResponse()"">SKIP</button><p style=""font-size: 2.4rem""><u><b>Current Answer:</b></u></p><br><br><div id=echoed_txt style=""font-size: 5rem; color:blue;""><b></b></div></div>",enter,ospan,retrieval,SDbP781iPAX4NCveADLEu5hSV7G2,html-keyboard-response,67,584883,0.0-46.0-0.0-2.0-4.0,NA,NA,NA,3.0,"[""L"",""C"",""P""]","[""L"",""C"",""P""]",1.0,3.0,"['<font color=""green"">L</font>', '<font color=""green"">C</font>', '<font color=""green"">P</font>']",,,,,,5eb85799cc3ea50a5f3591ad,09:23:23,03/04/2024
995.9000000357628,"['<p style=""font-size:44px"">Letters:<br><br><br><font color=""green"">L</font> <font color=""green"">C</font> <font color=""green"">P</font></p><br><br>']",0,ospan,practice_feedback,SDbP781iPAX4NCveADLEu5hSV7G2,html-button-response,68,586382,0.0-46.0-0.0-2.0-5.0,,,,,,,,,,,,,,,5eb85799cc3ea50a5f3591ad,09:23:23,03/04/2024
22366.200000047684,"<div class = 'left_align' style='font-size: 3.25rem; line-height: 1.3;'>Now you will practice doing the <b>symmetry judgment part</b> of the experiment.<br><br>A black and white grid picture will appear on the screen and you have to judge if it is <br>symmetrical or asymetrical.<br><br>A picture is 'mirror' symmetrical if its left half is identical to the right half when flipped.<br>Here are examples of a symmetrical and an asymetrical picture:<br><br><center><img src='Stimuli/img/symm_instructions_extra.png' style='height:420px; width:900'></img></center><br>To judge symmetry, imagine you were to fold each picture down the middle, like a book –<br>would the left half match the right half when folded onto each other?<br><br></div><br>",0,ospan,instruct,SDbP781iPAX4NCveADLEu5hSV7G2,html-button-response,69,608749,0.0-46.0-1.0-0.0-0.0,,,,,,,,,,,,,,,5eb85799cc3ea50a5f3591ad,09:23:23,03/04/2024
6534.799999952316,"<div class = 'left_align' style='font-size: 3.25rem; line-height: 1.3;'>When you have viewed the picture and determined whether it is symmetrical or not,<br>you can <b>click the Yes or No button</b> below to answer.<br><br>If you take longer than 15 seconds, it will continue automatically<br>and record the answer as an error.</div><br>",0,ospan,instruct,SDbP781iPAX4NCveADLEu5hSV7G2,html-button-response,70,615536,0.0-46.0-1.0-0.0-1.0,,,,,,,,,,,,,,,5eb85799cc3ea50a5f3591ad,09:23:23,03/04/2024
4555.300000011921,"<div class = 'left_align' style='font-size: 3.25rem; line-height: 1.3;'>It is <b>very</b> important that you make the symmetry judgment correctly.<br><br>It is also important that you try and judge the picture as quickly as you can.<br><br>When you are ready, click on the button below to try some practice problems.</div><br><br><br><br>",0,ospan,instruct,SDbP781iPAX4NCveADLEu5hSV7G2,html-button-response,71,620343,0.0-46.0-1.0-0.0-2.0,,,,,,,,,,,,,,,5eb85799cc3ea50a5f3591ad,09:23:23,03/04/2024
2806.0,,,ospan,symmetry,SDbP781iPAX4NCveADLEu5hSV7G2,symmetry-judgement-task,72,623969,0.0-46.0-1.0-1.0-0.0,,,,,,,,,,1.0,1.0,,,,5eb85799cc3ea50a5f3591ad,09:23:23,03/04/2024
,"<p style=""color:green; font-size: 35px"">Correct</p>",,ospan,feedback,SDbP781iPAX4NCveADLEu5hSV7G2,html-keyboard-response,73,624721,0.0-46.0-1.0-1.0-1.0,,,,,,,,,,,,,,,5eb85799cc3ea50a5f3591ad,09:23:23,03/04/2024
2557.0,,,ospan,symmetry,SDbP781iPAX4NCveADLEu5hSV7G2,symmetry-judgement-task,74,629993,0.0-46.0-1.0-1.0-2.0,,,,,,,,,,1.0,1.0,,,,5eb85799cc3ea50a5f3591ad,09:23:23,03/04/2024
,"<p style=""color:green; font-size: 35px"">Correct</p>",,ospan,feedback,SDbP781iPAX4NCveADLEu5hSV7G2,html-keyboard-response,75,630747,0.0-46.0-1.0-1.0-3.0,,,,,,,,,,,,,,,5eb85799cc3ea50a5f3591ad,09:23:23,03/04/2024
4159.0,,,ospan,symmetry,SDbP781iPAX4NCveADLEu5hSV7G2,symmetry-judgement-task,76,637616,0.0-46.0-1.0-1.0-4.0,,,,,,,,,,1.0,1.0,,,,5eb85799cc3ea50a5f3591ad,09:23:23,03/04/2024
,"<p style=""color:green; font-size: 35px"">Correct</p>",,ospan,feedback,SDbP781iPAX4NCveADLEu5hSV7G2,html-keyboard-response,77,638369,0.0-46.0-1.0-1.0-5.0,,,,,,,,,,,,,,,5eb85799cc3ea50a5f3591ad,09:23:23,03/04/2024
1753.300000011921,"<p style=""font-size: 3rem;"">You responded correctly on 3 of 3 symmetry judgments. Good job!</p><br><br>",0,ospan,practice,SDbP781iPAX4NCveADLEu5hSV7G2,html-button-response,78,642126,0.0-46.0-1.0-2.0,,,,,,,,,,,,,,,5eb85799cc3ea50a5f3591ad,09:23:23,03/04/2024
5004.5,"<div class = 'left_align' style='font-size: 3.25rem; line-height: 1.3;'>Now you will practice doing both parts of the experiment at the same time.<br><br>In the next practice set, you will be given one grid picture to judge.<br>Then letter will appear on the screen. Try to remember the letter.<br><br>It is <b>very important</b> to make the symmetry judgment as quickly and accurately as possible.<br><br>Just as before, once you have make the symmetry judgment, you can click Yes or No.<br><b>Note that you will no longer see Correct or Incorrect feedback.</div><br><br><br><br>",0,ospan,instruct,SDbP781iPAX4NCveADLEu5hSV7G2,html-button-response,79,647382,0.0-46.0-2.0-0.0-0.0,,,,,,,,,,,,,,,5eb85799cc3ea50a5f3591ad,09:23:23,03/04/2024
6011.099999964237,"<div class = 'left_align' style='font-size: 3.25rem; line-height: 1.3;'>After the letter goes away, another grid picture will appear, and then<br>another letter.<br><br>At the end of each set of letters and grids, you will recall the letters to the best<br>of your ability. Remember, try your best to get the letters in the correct order.<br><br>It is important to <b>quickly</b> and <b>accurately</b> make the symmetry judgments.</div><br><br><br><br>",0,ospan,instruct,SDbP781iPAX4NCveADLEu5hSV7G2,html-button-response,80,653645,0.0-46.0-2.0-0.0-1.0,,,,,,,,,,,,,,,5eb85799cc3ea50a5f3591ad,09:23:23,03/04/2024
22896.400000035763,"<div class = 'left_align' style='font-size: 3.25rem; line-height: 1.3;'>On the feedback screen, if you are not doing well at the symmetry judgments,<br>you will also see a warning in the middle. This indicates your percent <br>correct for the grid pictures for the entire experiment.<br><br>It is <b>very</b> important for you to keep accuracy at least at 85%: <u>We can only use<br>data where the participant was at least 85% accurate on the judgments.</u> Therefore,<br> please try your best to perform well on the symmetry judgments, <b>at the same time</b><br>doing your best to recall as many letters as possible.<br><br>Click the button to try some practice problems.</div><br><br><br><br>",0,ospan,instruct,SDbP781iPAX4NCveADLEu5hSV7G2,html-button-response,81,676793,0.0-46.0-2.0-0.0-2.0,,,,,,,,,,,,,,,5eb85799cc3ea50a5f3591ad,09:23:23,03/04/2024
,"<p style=""font-size:75px;"">...</p>",,ospan,iti,SDbP781iPAX4NCveADLEu5hSV7G2,html-keyboard-response,82,678047,0.0-46.0-2.0-1.0-0.0,,,,,,,,,,,,,,,5eb85799cc3ea50a5f3591ad,09:23:23,03/04/2024
2208.0,,,ospan,symmetry,SDbP781iPAX4NCveADLEu5hSV7G2,symmetry-judgement-task,83,681465,0.0-46.0-2.0-1.0-1.0-0.0,,,,,,,,,,1.0,1.0,,,,5eb85799cc3ea50a5f3591ad,09:23:23,03/04/2024
,"<div style=""font-size: 10rem; color: #0000FF"">L</div>",,ospan,letter,SDbP781iPAX4NCveADLEu5hSV7G2,html-keyboard-response,84,682467,0.0-46.0-2.0-1.0-1.0-1.0,,,,,,,,,,,,,,,5eb85799cc3ea50a5f3591ad,09:23:23,03/04/2024
3926.0,,,ospan,symmetry,SDbP781iPAX4NCveADLEu5hSV7G2,symmetry-judgement-task,85,688336,0.0-46.0-2.0-1.0-1.0-2.0,,,,,,,,,,1.0,1.0,,,,5eb85799cc3ea50a5f3591ad,09:23:23,03/04/2024
,"<div style=""font-size: 10rem; color: #0000FF"">S</div>",,ospan,letter,SDbP781iPAX4NCveADLEu5hSV7G2,html-keyboard-response,86,689339,0.0-46.0-2.0-1.0-1.0-3.0,,,,,,,,,,,,,,,5eb85799cc3ea50a5f3591ad,09:23:23,03/04/2024
3043.0,,,ospan,symmetry,SDbP781iPAX4NCveADLEu5hSV7G2,symmetry-judgement-task,87,694352,0.0-46.0-2.0-1.0-1.0-4.0,,,,,,,,,,1.0,1.0,,,,5eb85799cc3ea50a5f3591ad,09:23:23,03/04/2024
,"<div style=""font-size: 10rem; color: #0000FF"">K</div>",,ospan,letter,SDbP781iPAX4NCveADLEu5hSV7G2,html-keyboard-response,88,695354,0.0-46.0-2.0-1.0-1.0-5.0,,,,,,,,,,,,,,,5eb85799cc3ea50a5f3591ad,09:23:23,03/04/2024
4404.5,"<div class = numbox><p style=""font-size: 2.4rem"">Please recall the letters you saw to the best of your ability. If you do not remember a particular letter, use the SKIP button.<br><b>(When you are ready to lock in your answer, press ENTER)</b></p><button id = button_1 class = ""square num-button"" onclick = ""recordClick(this)""><div class = content><div class = numbers>C</div></div></button><button id = button_2 class = ""square num-button"" onclick = ""recordClick(this)""><div class = content><div class = numbers>G</div></div></button><button id = button_3 class = ""square num-button"" onclick = ""recordClick(this)""><div class = content><div class = numbers>H</div></div></button><button id = button_4 class = ""square num-button"" onclick = ""recordClick(this)""><div class = content><div class = numbers>J</div></div></button><button id = button_5 class = ""square num-button"" onclick = ""recordClick(this)""><div class = content><div class = numbers>K</div></div></button><button id = button_6 class = ""square num-button"" onclick = ""recordClick(this)""><div class = content><div class = numbers>L</div></div></button><button id = button_7 class = ""square num-button"" onclick = ""recordClick(this)""><div class = content><div class = numbers>N</div></div></button><button id = button_8 class = ""square num-button"" onclick = ""recordClick(this)""><div class = content><div class = numbers>P</div></div></button><button id = button_9 class = ""square num-button"" onclick = ""recordClick(this)""><div class = content><div class = numbers>Q</div></div></button><button id = button_10 class = ""square num-button"" onclick = ""recordClick(this)""><div class = content><div class = numbers>R</div></div></button><button id = button_11 class = ""square num-button"" onclick = ""recordClick(this)""><div class = content><div class = numbers>S</div></div></button><button id = button_12 class = ""square num-button"" onclick = ""recordClick(this)""><div class = content><div class = numbers>Y</div></div></button><button class = clear_button id = ""ClearButton"" onclick = ""clearResponse()"">BACKSPACE</button><button class = blank_button id = ""BlankButton"" onclick = ""blankResponse()"">SKIP</button><p style=""font-size: 2.4rem""><u><b>Current Answer:</b></u></p><br><br><div id=echoed_txt style=""font-size: 5rem; color:blue;""><b></b></div></div>",enter,ospan,retrieval,SDbP781iPAX4NCveADLEu5hSV7G2,html-keyboard-response,89,700510,0.0-46.0-2.0-1.0-2.0-0.0,NA,NA,NA,3.0,"[""L"",""S"",""K""]","[""L"",""S"",""K""]",1.0,3.0,"['<font color=""green"">L</font>', '<font color=""green"">S</font>', '<font color=""green"">K</font>']",,,,,,5eb85799cc3ea50a5f3591ad,09:23:23,03/04/2024
1745.5,"['<p style=""font-size:44px"">Letters:<br><br><br><font color=""green"">L</font> <font color=""green"">S</font> <font color=""green"">K</font></p><br><br><p style=""font-size:30px"">Symmetry:<br><br><font color=""green"">100%</font></p><br><br>']",0,ospan,practice_feedback,SDbP781iPAX4NCveADLEu5hSV7G2,html-button-response,90,702758,0.0-46.0-2.0-1.0-2.0-1.0,,,,,,,,,,,,,,,5eb85799cc3ea50a5f3591ad,09:23:23,03/04/2024
,"<p style=""font-size:75px;"">...</p>",,ospan,iti,SDbP781iPAX4NCveADLEu5hSV7G2,html-keyboard-response,91,703760,0.0-46.0-2.0-2.0-0.0,,,,,,,,,,,,,,,5eb85799cc3ea50a5f3591ad,09:23:23,03/04/2024
3075.0,,,ospan,symmetry,SDbP781iPAX4NCveADLEu5hSV7G2,symmetry-judgement-task,92,707929,0.0-46.0-2.0-2.0-1.0-0.0,,,,,,,,,,1.0,1.0,,,,5eb85799cc3ea50a5f3591ad,09:23:23,03/04/2024
,"<div style=""font-size: 10rem; color: #0000FF"">G</div>",,ospan,letter,SDbP781iPAX4NCveADLEu5hSV7G2,html-keyboard-response,93,708931,0.0-46.0-2.0-2.0-1.0-1.0,,,,,,,,,,,,,,,5eb85799cc3ea50a5f3591ad,09:23:23,03/04/2024
2002.0,,,ospan,symmetry,SDbP781iPAX4NCveADLEu5hSV7G2,symmetry-judgement-task,94,712901,0.0-46.0-2.0-2.0-1.0-2.0,,,,,,,,,,1.0,1.0,,,,5eb85799cc3ea50a5f3591ad,09:23:23,03/04/2024
,"<div style=""font-size: 10rem; color: #0000FF"">N</div>",,ospan,letter,SDbP781iPAX4NCveADLEu5hSV7G2,html-keyboard-response,95,713905,0.0-46.0-2.0-2.0-1.0-3.0,,,,,,,,,,,,,,,5eb85799cc3ea50a5f3591ad,09:23:23,03/04/2024
2595.0,,,ospan,symmetry,SDbP781iPAX4NCveADLEu5hSV7G2,symmetry-judgement-task,96,718452,0.0-46.0-2.0-2.0-1.0-4.0,,,,,,,,,,1.0,1.0,,,,5eb85799cc3ea50a5f3591ad,09:23:23,03/04/2024
,"<div style=""font-size: 10rem; color: #0000FF"">Q</div>",,ospan,letter,SDbP781iPAX4NCveADLEu5hSV7G2,html-keyboard-response,97,719454,0.0-46.0-2.0-2.0-1.0-5.0,,,,,,,,,,,,,,,5eb85799cc3ea50a5f3591ad,09:23:23,03/04/2024
3769.800000011921,"<div class = numbox><p style=""font-size: 2.4rem"">Please recall the letters you saw to the best of your ability. If you do not remember a particular letter, use the SKIP button.<br><b>(When you are ready to lock in your answer, press ENTER)</b></p><button id = button_1 class = ""square num-button"" onclick = ""recordClick(this)""><div class = content><div class = numbers>C</div></div></button><button id = button_2 class = ""square num-button"" onclick = ""recordClick(this)""><div class = content><div class = numbers>G</div></div></button><button id = button_3 class = ""square num-button"" onclick = ""recordClick(this)""><div class = content><div class = numbers>H</div></div></button><button id = button_4 class = ""square num-button"" onclick = ""recordClick(this)""><div class = content><div class = numbers>J</div></div></button><button id = button_5 class = ""square num-button"" onclick = ""recordClick(this)""><div class = content><div class = numbers>K</div></div></button><button id = button_6 class = ""square num-button"" onclick = ""recordClick(this)""><div class = content><div class = numbers>L</div></div></button><button id = button_7 class = ""square num-button"" onclick = ""recordClick(this)""><div class = content><div class = numbers>N</div></div></button><button id = button_8 class = ""square num-button"" onclick = ""recordClick(this)""><div class = content><div class = numbers>P</div></div></button><button id = button_9 class = ""square num-button"" onclick = ""recordClick(this)""><div class = content><div class = numbers>Q</div></div></button><button id = button_10 class = ""square num-button"" onclick = ""recordClick(this)""><div class = content><div class = numbers>R</div></div></button><button id = button_11 class = ""square num-button"" onclick = ""recordClick(this)""><div class = content><div class = numbers>S</div></div></button><button id = button_12 class = ""square num-button"" onclick = ""recordClick(this)""><div class = content><div class = numbers>Y</div></div></button><button class = clear_button id = ""ClearButton"" onclick = ""clearResponse()"">BACKSPACE</button><button class = blank_button id = ""BlankButton"" onclick = ""blankResponse()"">SKIP</button><p style=""font-size: 2.4rem""><u><b>Current Answer:</b></u></p><br><br><div id=echoed_txt style=""font-size: 5rem; color:blue;""><b></b></div></div>",enter,ospan,retrieval,SDbP781iPAX4NCveADLEu5hSV7G2,html-keyboard-response,98,723976,0.0-46.0-2.0-2.0-2.0-0.0,NA,NA,NA,3.0,"[""G"",""N"",""Q""]","[""G"",""N"",""Q""]",1.0,3.0,"['<font color=""green"">G</font>', '<font color=""green"">N</font>', '<font color=""green"">Q</font>']",,,,,,5eb85799cc3ea50a5f3591ad,09:23:23,03/04/2024
1302.300000011921,"['<p style=""font-size:44px"">Letters:<br><br><br><font color=""green"">G</font> <font color=""green"">N</font> <font color=""green"">Q</font></p><br><br><p style=""font-size:30px"">Symmetry:<br><br><font color=""green"">100%</font></p><br><br>']",0,ospan,practice_feedback,SDbP781iPAX4NCveADLEu5hSV7G2,html-button-response,99,725780,0.0-46.0-2.0-2.0-2.0-1.0,,,,,,,,,,,,,,,5eb85799cc3ea50a5f3591ad,09:23:23,03/04/2024
13164.200000047684,"<div class = 'left_align' style='font-size: 3rem; line-height: 1.3;'><b>Great work! That is the end of practice.</b><br><br>The real trials will look just like the practice trials you just completed.<br><br><u>Here, you will not see feedback</u>. First, you will see an grid picture to judge,<br>then a letter to remember. When the recall screen appears, report the letters in the<br>order presented. If you forget a letter, remember to use the <b>blank</b> button to move to the<br>next letter. Some of the sets will have more symmetry grids and letters than others.<br><br>It is important that you do your best on both the symmetry judgments and the letter recall<br>parts of the experiment. For for the symmetry judgments, try to work as <b>quickly</b> and <br>as <b>accurately</b> as possible. Remember to keep your symmetry accuracy at 85% or above.<br><br><b>For the letters, do NOT use any external aid (e.g., writing on paper, electronic device).</b><br><br>It is <u>very important</u> to our experiment to have a <b>true</b> view of your real performance.<br><br>Do not worry if you miss some when it gets hard! This task is meant to be very challenging!<br><br>Click the button to begin.</div><br><br><br><br>",0,ospan,starting_real_here,SDbP781iPAX4NCveADLEu5hSV7G2,html-button-response,100,738945,0.0-46.0-2.0-3.0,,,,,,,,,,,,,,,5eb85799cc3ea50a5f3591ad,09:23:23,03/04/2024
,"<p style=""font-size:75px;"">...</p>",,ospan,iti,SDbP781iPAX4NCveADLEu5hSV7G2,html-keyboard-response,101,740199,0.0-46.0-3.0-0.0-0.0,,,,,,,,,,,,,,,5eb85799cc3ea50a5f3591ad,09:23:23,03/04/2024
1777.0,,,ospan,symmetry,SDbP781iPAX4NCveADLEu5hSV7G2,symmetry-judgement-task,102,743046,0.0-46.0-3.0-0.0-1.0-0.0,,,,,,,,,,1.0,1.0,,,,5eb85799cc3ea50a5f3591ad,09:23:23,03/04/2024
,"<div style=""font-size: 10rem; color: #0000FF"">C</div>",,ospan,letter,SDbP781iPAX4NCveADLEu5hSV7G2,html-keyboard-response,103,744048,0.0-46.0-3.0-0.0-1.0-1.0,,,,,,,,,,,,,,,5eb85799cc3ea50a5f3591ad,09:23:23,03/04/2024
1777.0,,,ospan,symmetry,SDbP781iPAX4NCveADLEu5hSV7G2,symmetry-judgement-task,104,747796,0.0-46.0-3.0-0.0-1.0-2.0,,,,,,,,,,1.0,1.0,,,,5eb85799cc3ea50a5f3591ad,09:23:23,03/04/2024
,"<div style=""font-size: 10rem; color: #0000FF"">N</div>",,ospan,letter,SDbP781iPAX4NCveADLEu5hSV7G2,html-keyboard-response,105,748800,0.0-46.0-3.0-0.0-1.0-3.0,,,,,,,,,,,,,,,5eb85799cc3ea50a5f3591ad,09:23:23,03/04/2024
3814.0,,,ospan,symmetry,SDbP781iPAX4NCveADLEu5hSV7G2,symmetry-judgement-task,106,754578,0.0-46.0-3.0-0.0-1.0-4.0,,,,,,,,,,1.0,1.0,,,,5eb85799cc3ea50a5f3591ad,09:23:23,03/04/2024
,"<div style=""font-size: 10rem; color: #0000FF"">Y</div>",,ospan,letter,SDbP781iPAX4NCveADLEu5hSV7G2,html-keyboard-response,107,755580,0.0-46.0-3.0-0.0-1.0-5.0,,,,,,,,,,,,,,,5eb85799cc3ea50a5f3591ad,09:23:23,03/04/2024
4314.899999976158,"<div class = numbox><p style=""font-size: 2.4rem"">Please recall the letters you saw to the best of your ability. If you do not remember a particular letter, use the SKIP button.<br><b>(When you are ready to lock in your answer, press ENTER)</b></p><button id = button_1 class = ""square num-button"" onclick = ""recordClick(this)""><div class = content><div class = numbers>C</div></div></button><button id = button_2 class = ""square num-button"" onclick = ""recordClick(this)""><div class = content><div class = numbers>G</div></div></button><button id = button_3 class = ""square num-button"" onclick = ""recordClick(this)""><div class = content><div class = numbers>H</div></div></button><button id = button_4 class = ""square num-button"" onclick = ""recordClick(this)""><div class = content><div class = numbers>J</div></div></button><button id = button_5 class = ""square num-button"" onclick = ""recordClick(this)""><div class = content><div class = numbers>K</div></div></button><button id = button_6 class = ""square num-button"" onclick = ""recordClick(this)""><div class = content><div class = numbers>L</div></div></button><button id = button_7 class = ""square num-button"" onclick = ""recordClick(this)""><div class = content><div class = numbers>N</div></div></button><button id = button_8 class = ""square num-button"" onclick = ""recordClick(this)""><div class = content><div class = numbers>P</div></div></button><button id = button_9 class = ""square num-button"" onclick = ""recordClick(this)""><div class = content><div class = numbers>Q</div></div></button><button id = button_10 class = ""square num-button"" onclick = ""recordClick(this)""><div class = content><div class = numbers>R</div></div></button><button id = button_11 class = ""square num-button"" onclick = ""recordClick(this)""><div class = content><div class = numbers>S</div></div></button><button id = button_12 class = ""square num-button"" onclick = ""recordClick(this)""><div class = content><div class = numbers>Y</div></div></button><button class = clear_button id = ""ClearButton"" onclick = ""clearResponse()"">BACKSPACE</button><button class = blank_button id = ""BlankButton"" onclick = ""blankResponse()"">SKIP</button><p style=""font-size: 2.4rem""><u><b>Current Answer:</b></u></p><br><br><div id=echoed_txt style=""font-size: 5rem; color:blue;""><b></b></div></div>",enter,ospan,retrieval,SDbP781iPAX4NCveADLEu5hSV7G2,html-keyboard-response,108,760647,0.0-46.0-3.0-0.0-2.0,3,3,3,3.0,"[""C"",""N"",""Y""]","[""C"",""N"",""Y""]",1.0,3.0,,,,,,,5eb85799cc3ea50a5f3591ad,09:23:23,03/04/2024
1018.1000000238419,[''],0,ospan,feedback,SDbP781iPAX4NCveADLEu5hSV7G2,html-button-response,109,762167,0.0-46.0-3.0-0.0-3.0,,,,,,,,,,,,100.0,0.0,,5eb85799cc3ea50a5f3591ad,09:23:23,03/04/2024
,"<p style=""font-size:75px;"">...</p>",,ospan,iti,SDbP781iPAX4NCveADLEu5hSV7G2,html-keyboard-response,110,763170,0.0-46.0-4.0-0.0-0.0,,,,,,,,,,,,,,,5eb85799cc3ea50a5f3591ad,09:23:23,03/04/2024
2271.0,,,ospan,symmetry,SDbP781iPAX4NCveADLEu5hSV7G2,symmetry-judgement-task,111,766514,0.0-46.0-4.0-0.0-1.0-0.0,,,,,,,,,,1.0,1.0,,,,5eb85799cc3ea50a5f3591ad,09:23:23,03/04/2024
,"<div style=""font-size: 10rem; color: #0000FF"">C</div>",,ospan,letter,SDbP781iPAX4NCveADLEu5hSV7G2,html-keyboard-response,112,767517,0.0-46.0-4.0-0.0-1.0-1.0,,,,,,,,,,,,,,,5eb85799cc3ea50a5f3591ad,09:23:23,03/04/2024
1286.0,,,ospan,symmetry,SDbP781iPAX4NCveADLEu5hSV7G2,symmetry-judgement-task,113,770761,0.0-46.0-4.0-0.0-1.0-2.0,,,,,,,,,,1.0,1.0,,,,5eb85799cc3ea50a5f3591ad,09:23:23,03/04/2024
,"<div style=""font-size: 10rem; color: #0000FF"">H</div>",,ospan,letter,SDbP781iPAX4NCveADLEu5hSV7G2,html-keyboard-response,114,771764,0.0-46.0-4.0-0.0-1.0-3.0,,,,,,,,,,,,,,,5eb85799cc3ea50a5f3591ad,09:23:23,03/04/2024
4031.0,,,ospan,symmetry,SDbP781iPAX4NCveADLEu5hSV7G2,symmetry-judgement-task,115,777755,0.0-46.0-4.0-0.0-1.0-4.0,,,,,,,,,,1.0,1.0,,,,5eb85799cc3ea50a5f3591ad,09:23:23,03/04/2024
,"<div style=""font-size: 10rem; color: #0000FF"">N</div>",,ospan,letter,SDbP781iPAX4NCveADLEu5hSV7G2,html-keyboard-response,116,778757,0.0-46.0-4.0-0.0-1.0-5.0,,,,,,,,,,,,,,,5eb85799cc3ea50a5f3591ad,09:23:23,03/04/2024
2683.0,,,ospan,symmetry,SDbP781iPAX4NCveADLEu5hSV7G2,symmetry-judgement-task,117,783471,0.0-46.0-4.0-0.0-1.0-6.0,,,,,,,,,,1.0,1.0,,,,5eb85799cc3ea50a5f3591ad,09:23:23,03/04/2024
,"<div style=""font-size: 10rem; color: #0000FF"">P</div>",,ospan,letter,SDbP781iPAX4NCveADLEu5hSV7G2,html-keyboard-response,118,784473,0.0-46.0-4.0-0.0-1.0-7.0,,,,,,,,,,,,,,,5eb85799cc3ea50a5f3591ad,09:23:23,03/04/2024
4615.0,"<div class = numbox><p style=""font-size: 2.4rem"">Please recall the letters you saw to the best of your ability. If you do not remember a particular letter, use the SKIP button.<br><b>(When you are ready to lock in your answer, press ENTER)</b></p><button id = button_1 class = ""square num-button"" onclick = ""recordClick(this)""><div class = content><div class = numbers>C</div></div></button><button id = button_2 class = ""square num-button"" onclick = ""recordClick(this)""><div class = content><div class = numbers>G</div></div></button><button id = button_3 class = ""square num-button"" onclick = ""recordClick(this)""><div class = content><div class = numbers>H</div></div></button><button id = button_4 class = ""square num-button"" onclick = ""recordClick(this)""><div class = content><div class = numbers>J</div></div></button><button id = button_5 class = ""square num-button"" onclick = ""recordClick(this)""><div class = content><div class = numbers>K</div></div></button><button id = button_6 class = ""square num-button"" onclick = ""recordClick(this)""><div class = content><div class = numbers>L</div></div></button><button id = button_7 class = ""square num-button"" onclick = ""recordClick(this)""><div class = content><div class = numbers>N</div></div></button><button id = button_8 class = ""square num-button"" onclick = ""recordClick(this)""><div class = content><div class = numbers>P</div></div></button><button id = button_9 class = ""square num-button"" onclick = ""recordClick(this)""><div class = content><div class = numbers>Q</div></div></button><button id = button_10 class = ""square num-button"" onclick = ""recordClick(this)""><div class = content><div class = numbers>R</div></div></button><button id = button_11 class = ""square num-button"" onclick = ""recordClick(this)""><div class = content><div class = numbers>S</div></div></button><button id = button_12 class = ""square num-button"" onclick = ""recordClick(this)""><div class = content><div class = numbers>Y</div></div></button><button class = clear_button id = ""ClearButton"" onclick = ""clearResponse()"">BACKSPACE</button><button class = blank_button id = ""BlankButton"" onclick = ""blankResponse()"">SKIP</button><p style=""font-size: 2.4rem""><u><b>Current Answer:</b></u></p><br><br><div id=echoed_txt style=""font-size: 5rem; color:blue;""><b></b></div></div>",enter,ospan,retrieval,SDbP781iPAX4NCveADLEu5hSV7G2,html-keyboard-response,119,789840,0.0-46.0-4.0-0.0-2.0,7,7,7,4.0,"[""C"",""H"",""N"",""P""]","[""C"",""H"",""N"",""P""]",1.0,4.0,,,,,,,5eb85799cc3ea50a5f3591ad,09:23:23,03/04/2024
904.2999999523163,[''],0,ospan,feedback,SDbP781iPAX4NCveADLEu5hSV7G2,html-button-response,120,791247,0.0-46.0-4.0-0.0-3.0,,,,,,,,,,,,100.0,0.0,,5eb85799cc3ea50a5f3591ad,09:23:23,03/04/2024
,"<p style=""font-size:75px;"">...</p>",,ospan,iti,SDbP781iPAX4NCveADLEu5hSV7G2,html-keyboard-response,121,792248,0.0-46.0-4.0-1.0-0.0,,,,,,,,,,,,,,,5eb85799cc3ea50a5f3591ad,09:23:23,03/04/2024
3419.0,,,ospan,symmetry,SDbP781iPAX4NCveADLEu5hSV7G2,symmetry-judgement-task,122,796878,0.0-46.0-4.0-1.0-1.0-0.0,,,,,,,,,,1.0,1.0,,,,5eb85799cc3ea50a5f3591ad,09:23:23,03/04/2024
,"<div style=""font-size: 10rem; color: #0000FF"">C</div>",,ospan,letter,SDbP781iPAX4NCveADLEu5hSV7G2,html-keyboard-response,123,797879,0.0-46.0-4.0-1.0-1.0-1.0,,,,,,,,,,,,,,,5eb85799cc3ea50a5f3591ad,09:23:23,03/04/2024
1687.0,,,ospan,symmetry,SDbP781iPAX4NCveADLEu5hSV7G2,symmetry-judgement-task,124,801529,0.0-46.0-4.0-1.0-1.0-2.0,,,,,,,,,,1.0,1.0,,,,5eb85799cc3ea50a5f3591ad,09:23:23,03/04/2024
,"<div style=""font-size: 10rem; color: #0000FF"">H</div>",,ospan,letter,SDbP781iPAX4NCveADLEu5hSV7G2,html-keyboard-response,125,802534,0.0-46.0-4.0-1.0-1.0-3.0,,,,,,,,,,,,,,,5eb85799cc3ea50a5f3591ad,09:23:23,03/04/2024
2056.0,,,ospan,symmetry,SDbP781iPAX4NCveADLEu5hSV7G2,symmetry-judgement-task,126,806558,0.0-46.0-4.0-1.0-1.0-4.0,,,,,,,,,,1.0,1.0,,,,5eb85799cc3ea50a5f3591ad,09:23:23,03/04/2024
,"<div style=""font-size: 10rem; color: #0000FF"">Q</div>",,ospan,letter,SDbP781iPAX4NCveADLEu5hSV7G2,html-keyboard-response,127,807559,0.0-46.0-4.0-1.0-1.0-5.0,,,,,,,,,,,,,,,5eb85799cc3ea50a5f3591ad,09:23:23,03/04/2024
4558.0,,,ospan,symmetry,SDbP781iPAX4NCveADLEu5hSV7G2,symmetry-judgement-task,128,814093,0.0-46.0-4.0-1.0-1.0-6.0,,,,,,,,,,1.0,1.0,,,,5eb85799cc3ea50a5f3591ad,09:23:23,03/04/2024
,"<div style=""font-size: 10rem; color: #0000FF"">P</div>",,ospan,letter,SDbP781iPAX4NCveADLEu5hSV7G2,html-keyboard-response,129,815096,0.0-46.0-4.0-1.0-1.0-7.0,,,,,,,,,,,,,,,5eb85799cc3ea50a5f3591ad,09:23:23,03/04/2024
2789.0,,,ospan,symmetry,SDbP781iPAX4NCveADLEu5hSV7G2,symmetry-judgement-task,130,819853,0.0-46.0-4.0-1.0-1.0-8.0,,,,,,,,,,1.0,1.0,,,,5eb85799cc3ea50a5f3591ad,09:23:23,03/04/2024
,"<div style=""font-size: 10rem; color: #0000FF"">K</div>",,ospan,letter,SDbP781iPAX4NCveADLEu5hSV7G2,html-keyboard-response,131,820855,0.0-46.0-4.0-1.0-1.0-9.0,,,,,,,,,,,,,,,5eb85799cc3ea50a5f3591ad,09:23:23,03/04/2024
6209.0,"<div class = numbox><p style=""font-size: 2.4rem"">Please recall the letters you saw to the best of your ability. If you do not remember a particular letter, use the SKIP button.<br><b>(When you are ready to lock in your answer, press ENTER)</b></p><button id = button_1 class = ""square num-button"" onclick = ""recordClick(this)""><div class = content><div class = numbers>C</div></div></button><button id = button_2 class = ""square num-button"" onclick = ""recordClick(this)""><div class = content><div class = numbers>G</div></div></button><button id = button_3 class = ""square num-button"" onclick = ""recordClick(this)""><div class = content><div class = numbers>H</div></div></button><button id = button_4 class = ""square num-button"" onclick = ""recordClick(this)""><div class = content><div class = numbers>J</div></div></button><button id = button_5 class = ""square num-button"" onclick = ""recordClick(this)""><div class = content><div class = numbers>K</div></div></button><button id = button_6 class = ""square num-button"" onclick = ""recordClick(this)""><div class = content><div class = numbers>L</div></div></button><button id = button_7 class = ""square num-button"" onclick = ""recordClick(this)""><div class = content><div class = numbers>N</div></div></button><button id = button_8 class = ""square num-button"" onclick = ""recordClick(this)""><div class = content><div class = numbers>P</div></div></button><button id = button_9 class = ""square num-button"" onclick = ""recordClick(this)""><div class = content><div class = numbers>Q</div></div></button><button id = button_10 class = ""square num-button"" onclick = ""recordClick(this)""><div class = content><div class = numbers>R</div></div></button><button id = button_11 class = ""square num-button"" onclick = ""recordClick(this)""><div class = content><div class = numbers>S</div></div></button><button id = button_12 class = ""square num-button"" onclick = ""recordClick(this)""><div class = content><div class = numbers>Y</div></div></button><button class = clear_button id = ""ClearButton"" onclick = ""clearResponse()"">BACKSPACE</button><button class = blank_button id = ""BlankButton"" onclick = ""blankResponse()"">SKIP</button><p style=""font-size: 2.4rem""><u><b>Current Answer:</b></u></p><br><br><div id=echoed_txt style=""font-size: 5rem; color:blue;""><b></b></div></div>",enter,ospan,retrieval,SDbP781iPAX4NCveADLEu5hSV7G2,html-keyboard-response,132,827816,0.0-46.0-4.0-1.0-2.0,12,12,12,5.0,"[""C"",""H"",""Q"",""P"",""K""]","[""C"",""H"",""Q"",""P"",""K""]",1.0,5.0,,,,,,,5eb85799cc3ea50a5f3591ad,09:23:23,03/04/2024
1535.6000000238419,[''],0,ospan,feedback,SDbP781iPAX4NCveADLEu5hSV7G2,html-button-response,133,829854,0.0-46.0-4.0-1.0-3.0,,,,,,,,,,,,100.0,0.0,,5eb85799cc3ea50a5f3591ad,09:23:23,03/04/2024
,"<p style=""font-size:75px;"">...</p>",,ospan,iti,SDbP781iPAX4NCveADLEu5hSV7G2,html-keyboard-response,134,830856,0.0-46.0-4.0-2.0-0.0,,,,,,,,,,,,,,,5eb85799cc3ea50a5f3591ad,09:23:23,03/04/2024
2247.0,,,ospan,symmetry,SDbP781iPAX4NCveADLEu5hSV7G2,symmetry-judgement-task,135,834308,0.0-46.0-4.0-2.0-1.0-0.0,,,,,,,,,,1.0,1.0,,,,5eb85799cc3ea50a5f3591ad,09:23:23,03/04/2024
,"<div style=""font-size: 10rem; color: #0000FF"">Y</div>",,ospan,letter,SDbP781iPAX4NCveADLEu5hSV7G2,html-keyboard-response,136,835314,0.0-46.0-4.0-2.0-1.0-1.0,,,,,,,,,,,,,,,5eb85799cc3ea50a5f3591ad,09:23:23,03/04/2024
1536.0,,,ospan,symmetry,SDbP781iPAX4NCveADLEu5hSV7G2,symmetry-judgement-task,137,838801,0.0-46.0-4.0-2.0-1.0-2.0,,,,,,,,,,1.0,1.0,,,,5eb85799cc3ea50a5f3591ad,09:23:23,03/04/2024
,"<div style=""font-size: 10rem; color: #0000FF"">N</div>",,ospan,letter,SDbP781iPAX4NCveADLEu5hSV7G2,html-keyboard-response,138,839804,0.0-46.0-4.0-2.0-1.0-3.0,,,,,,,,,,,,,,,5eb85799cc3ea50a5f3591ad,09:23:23,03/04/2024
1410.0,,,ospan,symmetry,SDbP781iPAX4NCveADLEu5hSV7G2,symmetry-judgement-task,139,843183,0.0-46.0-4.0-2.0-1.0-4.0,,,,,,,,,,1.0,1.0,,,,5eb85799cc3ea50a5f3591ad,09:23:23,03/04/2024
,"<div style=""font-size: 10rem; color: #0000FF"">C</div>",,ospan,letter,SDbP781iPAX4NCveADLEu5hSV7G2,html-keyboard-response,140,844186,0.0-46.0-4.0-2.0-1.0-5.0,,,,,,,,,,,,,,,5eb85799cc3ea50a5f3591ad,09:23:23,03/04/2024
4673.600000023842,"<div class = numbox><p style=""font-size: 2.4rem"">Please recall the letters you saw to the best of your ability. If you do not remember a particular letter, use the SKIP button.<br><b>(When you are ready to lock in your answer, press ENTER)</b></p><button id = button_1 class = ""square num-button"" onclick = ""recordClick(this)""><div class = content><div class = numbers>C</div></div></button><button id = button_2 class = ""square num-button"" onclick = ""recordClick(this)""><div class = content><div class = numbers>G</div></div></button><button id = button_3 class = ""square num-button"" onclick = ""recordClick(this)""><div class = content><div class = numbers>H</div></div></button><button id = button_4 class = ""square num-button"" onclick = ""recordClick(this)""><div class = content><div class = numbers>J</div></div></button><button id = button_5 class = ""square num-button"" onclick = ""recordClick(this)""><div class = content><div class = numbers>K</div></div></button><button id = button_6 class = ""square num-button"" onclick = ""recordClick(this)""><div class = content><div class = numbers>L</div></div></button><button id = button_7 class = ""square num-button"" onclick = ""recordClick(this)""><div class = content><div class = numbers>N</div></div></button><button id = button_8 class = ""square num-button"" onclick = ""recordClick(this)""><div class = content><div class = numbers>P</div></div></button><button id = button_9 class = ""square num-button"" onclick = ""recordClick(this)""><div class = content><div class = numbers>Q</div></div></button><button id = button_10 class = ""square num-button"" onclick = ""recordClick(this)""><div class = content><div class = numbers>R</div></div></button><button id = button_11 class = ""square num-button"" onclick = ""recordClick(this)""><div class = content><div class = numbers>S</div></div></button><button id = button_12 class = ""square num-button"" onclick = ""recordClick(this)""><div class = content><div class = numbers>Y</div></div></button><button class = clear_button id = ""ClearButton"" onclick = ""clearResponse()"">BACKSPACE</button><button class = blank_button id = ""BlankButton"" onclick = ""blankResponse()"">SKIP</button><p style=""font-size: 2.4rem""><u><b>Current Answer:</b></u></p><br><br><div id=echoed_txt style=""font-size: 5rem; color:blue;""><b></b></div></div>",enter,ospan,retrieval,SDbP781iPAX4NCveADLEu5hSV7G2,html-keyboard-response,141,849614,0.0-46.0-4.0-2.0-2.0,15,15,15,3.0,"[""Y"",""N"",""C""]","[""Y"",""N"",""C""]",1.0,3.0,,,,,,,5eb85799cc3ea50a5f3591ad,09:23:23,03/04/2024
941.8000000119209,[''],0,ospan,feedback,SDbP781iPAX4NCveADLEu5hSV7G2,html-button-response,142,851058,0.0-46.0-4.0-2.0-3.0,,,,,,,,,,,,100.0,0.0,,5eb85799cc3ea50a5f3591ad,09:23:23,03/04/2024
,"<p style=""font-size:75px;"">...</p>",,ospan,iti,SDbP781iPAX4NCveADLEu5hSV7G2,html-keyboard-response,143,852061,0.0-46.0-5.0-0.0-0.0,,,,,,,,,,,,,,,5eb85799cc3ea50a5f3591ad,09:23:23,03/04/2024
1677.0,,,ospan,symmetry,SDbP781iPAX4NCveADLEu5hSV7G2,symmetry-judgement-task,144,854810,0.0-46.0-5.0-0.0-1.0-0.0,,,,,,,,,,1.0,1.0,,,,5eb85799cc3ea50a5f3591ad,09:23:23,03/04/2024
,"<div style=""font-size: 10rem; color: #0000FF"">H</div>",,ospan,letter,SDbP781iPAX4NCveADLEu5hSV7G2,html-keyboard-response,145,855812,0.0-46.0-5.0-0.0-1.0-1.0,,,,,,,,,,,,,,,5eb85799cc3ea50a5f3591ad,09:23:23,03/04/2024
1240.0,,,ospan,symmetry,SDbP781iPAX4NCveADLEu5hSV7G2,symmetry-judgement-task,146,859023,0.0-46.0-5.0-0.0-1.0-2.0,,,,,,,,,,1.0,1.0,,,,5eb85799cc3ea50a5f3591ad,09:23:23,03/04/2024
,"<div style=""font-size: 10rem; color: #0000FF"">Q</div>",,ospan,letter,SDbP781iPAX4NCveADLEu5hSV7G2,html-keyboard-response,147,860026,0.0-46.0-5.0-0.0-1.0-3.0,,,,,,,,,,,,,,,5eb85799cc3ea50a5f3591ad,09:23:23,03/04/2024
2345.0,,,ospan,symmetry,SDbP781iPAX4NCveADLEu5hSV7G2,symmetry-judgement-task,148,864336,0.0-46.0-5.0-0.0-1.0-4.0,,,,,,,,,,1.0,1.0,,,,5eb85799cc3ea50a5f3591ad,09:23:23,03/04/2024
,"<div style=""font-size: 10rem; color: #0000FF"">C</div>",,ospan,letter,SDbP781iPAX4NCveADLEu5hSV7G2,html-keyboard-response,149,865340,0.0-46.0-5.0-0.0-1.0-5.0,,,,,,,,,,,,,,,5eb85799cc3ea50a5f3591ad,09:23:23,03/04/2024
1315.0,,,ospan,symmetry,SDbP781iPAX4NCveADLEu5hSV7G2,symmetry-judgement-task,150,868617,0.0-46.0-5.0-0.0-1.0-6.0,,,,,,,,,,1.0,1.0,,,,5eb85799cc3ea50a5f3591ad,09:23:23,03/04/2024
,"<div style=""font-size: 10rem; color: #0000FF"">N</div>",,ospan,letter,SDbP781iPAX4NCveADLEu5hSV7G2,html-keyboard-response,151,869619,0.0-46.0-5.0-0.0-1.0-7.0,,,,,,,,,,,,,,,5eb85799cc3ea50a5f3591ad,09:23:23,03/04/2024
4881.0,,,ospan,symmetry,SDbP781iPAX4NCveADLEu5hSV7G2,symmetry-judgement-task,152,876325,0.0-46.0-5.0-0.0-1.0-8.0,,,,,,,,,,1.0,1.0,,,,5eb85799cc3ea50a5f3591ad,09:23:23,03/04/2024
,"<div style=""font-size: 10rem; color: #0000FF"">G</div>",,ospan,letter,SDbP781iPAX4NCveADLEu5hSV7G2,html-keyboard-response,153,877327,0.0-46.0-5.0-0.0-1.0-9.0,,,,,,,,,,,,,,,5eb85799cc3ea50a5f3591ad,09:23:23,03/04/2024
5303.0,,,ospan,symmetry,SDbP781iPAX4NCveADLEu5hSV7G2,symmetry-judgement-task,154,884595,0.0-46.0-5.0-0.0-1.0-10.0,,,,,,,,,,1.0,1.0,,,,5eb85799cc3ea50a5f3591ad,09:23:23,03/04/2024
,"<div style=""font-size: 10rem; color: #0000FF"">L</div>",,ospan,letter,SDbP781iPAX4NCveADLEu5hSV7G2,html-keyboard-response,155,885597,0.0-46.0-5.0-0.0-1.0-11.0,,,,,,,,,,,,,,,5eb85799cc3ea50a5f3591ad,09:23:23,03/04/2024
7093.300000011921,"<div class = numbox><p style=""font-size: 2.4rem"">Please recall the letters you saw to the best of your ability. If you do not remember a particular letter, use the SKIP button.<br><b>(When you are ready to lock in your answer, press ENTER)</b></p><button id = button_1 class = ""square num-button"" onclick = ""recordClick(this)""><div class = content><div class = numbers>C</div></div></button><button id = button_2 class = ""square num-button"" onclick = ""recordClick(this)""><div class = content><div class = numbers>G</div></div></button><button id = button_3 class = ""square num-button"" onclick = ""recordClick(this)""><div class = content><div class = numbers>H</div></div></button><button id = button_4 class = ""square num-button"" onclick = ""recordClick(this)""><div class = content><div class = numbers>J</div></div></button><button id = button_5 class = ""square num-button"" onclick = ""recordClick(this)""><div class = content><div class = numbers>K</div></div></button><button id = button_6 class = ""square num-button"" onclick = ""recordClick(this)""><div class = content><div class = numbers>L</div></div></button><button id = button_7 class = ""square num-button"" onclick = ""recordClick(this)""><div class = content><div class = numbers>N</div></div></button><button id = button_8 class = ""square num-button"" onclick = ""recordClick(this)""><div class = content><div class = numbers>P</div></div></button><button id = button_9 class = ""square num-button"" onclick = ""recordClick(this)""><div class = content><div class = numbers>Q</div></div></button><button id = button_10 class = ""square num-button"" onclick = ""recordClick(this)""><div class = content><div class = numbers>R</div></div></button><button id = button_11 class = ""square num-button"" onclick = ""recordClick(this)""><div class = content><div class = numbers>S</div></div></button><button id = button_12 class = ""square num-button"" onclick = ""recordClick(this)""><div class = content><div class = numbers>Y</div></div></button><button class = clear_button id = ""ClearButton"" onclick = ""clearResponse()"">BACKSPACE</button><button class = blank_button id = ""BlankButton"" onclick = ""blankResponse()"">SKIP</button><p style=""font-size: 2.4rem""><u><b>Current Answer:</b></u></p><br><br><div id=echoed_txt style=""font-size: 5rem; color:blue;""><b></b></div></div>",enter,ospan,retrieval,SDbP781iPAX4NCveADLEu5hSV7G2,html-keyboard-response,156,893443,0.0-46.0-5.0-0.0-2.0,21,21,21,6.0,"[""H"",""Q"",""C"",""N"",""G"",""L""]","[""H"",""Q"",""C"",""N"",""G"",""L""]",1.0,6.0,,,,,,,5eb85799cc3ea50a5f3591ad,09:23:23,03/04/2024
819.0999999642372,[''],0,ospan,feedback,SDbP781iPAX4NCveADLEu5hSV7G2,html-button-response,157,894765,0.0-46.0-5.0-0.0-3.0,,,,,,,,,,,,100.0,0.0,,5eb85799cc3ea50a5f3591ad,09:23:23,03/04/2024
,"<p style=""font-size:75px;"">...</p>",,ospan,iti,SDbP781iPAX4NCveADLEu5hSV7G2,html-keyboard-response,158,895768,0.0-46.0-5.0-1.0-0.0,,,,,,,,,,,,,,,5eb85799cc3ea50a5f3591ad,09:23:23,03/04/2024
1634.0,,,ospan,symmetry,SDbP781iPAX4NCveADLEu5hSV7G2,symmetry-judgement-task,159,898609,0.0-46.0-5.0-1.0-1.0-0.0,,,,,,,,,,1.0,1.0,,,,5eb85799cc3ea50a5f3591ad,09:23:23,03/04/2024
,"<div style=""font-size: 10rem; color: #0000FF"">Q</div>",,ospan,letter,SDbP781iPAX4NCveADLEu5hSV7G2,html-keyboard-response,160,899611,0.0-46.0-5.0-1.0-1.0-1.0,,,,,,,,,,,,,,,5eb85799cc3ea50a5f3591ad,09:23:23,03/04/2024
4622.0,,,ospan,symmetry,SDbP781iPAX4NCveADLEu5hSV7G2,symmetry-judgement-task,161,906196,0.0-46.0-5.0-1.0-1.0-2.0,,,,,,,,,,1.0,1.0,,,,5eb85799cc3ea50a5f3591ad,09:23:23,03/04/2024
,"<div style=""font-size: 10rem; color: #0000FF"">L</div>",,ospan,letter,SDbP781iPAX4NCveADLEu5hSV7G2,html-keyboard-response,162,907200,0.0-46.0-5.0-1.0-1.0-3.0,,,,,,,,,,,,,,,5eb85799cc3ea50a5f3591ad,09:23:23,03/04/2024
5644.0,,,ospan,symmetry,SDbP781iPAX4NCveADLEu5hSV7G2,symmetry-judgement-task,163,914814,0.0-46.0-5.0-1.0-1.0-4.0,,,,,,,,,,1.0,1.0,,,,5eb85799cc3ea50a5f3591ad,09:23:23,03/04/2024
,"<div style=""font-size: 10rem; color: #0000FF"">P</div>",,ospan,letter,SDbP781iPAX4NCveADLEu5hSV7G2,html-keyboard-response,164,915817,0.0-46.0-5.0-1.0-1.0-5.0,,,,,,,,,,,,,,,5eb85799cc3ea50a5f3591ad,09:23:23,03/04/2024
2585.0,,,ospan,symmetry,SDbP781iPAX4NCveADLEu5hSV7G2,symmetry-judgement-task,165,920362,0.0-46.0-5.0-1.0-1.0-6.0,,,,,,,,,,1.0,1.0,,,,5eb85799cc3ea50a5f3591ad,09:23:23,03/04/2024
,"<div style=""font-size: 10rem; color: #0000FF"">G</div>",,ospan,letter,SDbP781iPAX4NCveADLEu5hSV7G2,html-keyboard-response,166,921366,0.0-46.0-5.0-1.0-1.0-7.0,,,,,,,,,,,,,,,5eb85799cc3ea50a5f3591ad,09:23:23,03/04/2024
2685.0,,,ospan,symmetry,SDbP781iPAX4NCveADLEu5hSV7G2,symmetry-judgement-task,167,926016,0.0-46.0-5.0-1.0-1.0-8.0,,,,,,,,,,1.0,1.0,,,,5eb85799cc3ea50a5f3591ad,09:23:23,03/04/2024
,"<div style=""font-size: 10rem; color: #0000FF"">Y</div>",,ospan,letter,SDbP781iPAX4NCveADLEu5hSV7G2,html-keyboard-response,168,927019,0.0-46.0-5.0-1.0-1.0-9.0,,,,,,,,,,,,,,,5eb85799cc3ea50a5f3591ad,09:23:23,03/04/2024
2285.0,,,ospan,symmetry,SDbP781iPAX4NCveADLEu5hSV7G2,symmetry-judgement-task,169,931265,0.0-46.0-5.0-1.0-1.0-10.0,,,,,,,,,,1.0,1.0,,,,5eb85799cc3ea50a5f3591ad,09:23:23,03/04/2024
,"<div style=""font-size: 10rem; color: #0000FF"">S</div>",,ospan,letter,SDbP781iPAX4NCveADLEu5hSV7G2,html-keyboard-response,170,932267,0.0-46.0-5.0-1.0-1.0-11.0,,,,,,,,,,,,,,,5eb85799cc3ea50a5f3591ad,09:23:23,03/04/2024
5097.0,,,ospan,symmetry,SDbP781iPAX4NCveADLEu5hSV7G2,symmetry-judgement-task,171,939338,0.0-46.0-5.0-1.0-1.0-12.0,,,,,,,,,,1.0,1.0,,,,5eb85799cc3ea50a5f3591ad,09:23:23,03/04/2024
,"<div style=""font-size: 10rem; color: #0000FF"">H</div>",,ospan,letter,SDbP781iPAX4NCveADLEu5hSV7G2,html-keyboard-response,172,940341,0.0-46.0-5.0-1.0-1.0-13.0,,,,,,,,,,,,,,,5eb85799cc3ea50a5f3591ad,09:23:23,03/04/2024
9159.300000011921,"<div class = numbox><p style=""font-size: 2.4rem"">Please recall the letters you saw to the best of your ability. If you do not remember a particular letter, use the SKIP button.<br><b>(When you are ready to lock in your answer, press ENTER)</b></p><button id = button_1 class = ""square num-button"" onclick = ""recordClick(this)""><div class = content><div class = numbers>C</div></div></button><button id = button_2 class = ""square num-button"" onclick = ""recordClick(this)""><div class = content><div class = numbers>G</div></div></button><button id = button_3 class = ""square num-button"" onclick = ""recordClick(this)""><div class = content><div class = numbers>H</div></div></button><button id = button_4 class = ""square num-button"" onclick = ""recordClick(this)""><div class = content><div class = numbers>J</div></div></button><button id = button_5 class = ""square num-button"" onclick = ""recordClick(this)""><div class = content><div class = numbers>K</div></div></button><button id = button_6 class = ""square num-button"" onclick = ""recordClick(this)""><div class = content><div class = numbers>L</div></div></button><button id = button_7 class = ""square num-button"" onclick = ""recordClick(this)""><div class = content><div class = numbers>N</div></div></button><button id = button_8 class = ""square num-button"" onclick = ""recordClick(this)""><div class = content><div class = numbers>P</div></div></button><button id = button_9 class = ""square num-button"" onclick = ""recordClick(this)""><div class = content><div class = numbers>Q</div></div></button><button id = button_10 class = ""square num-button"" onclick = ""recordClick(this)""><div class = content><div class = numbers>R</div></div></button><button id = button_11 class = ""square num-button"" onclick = ""recordClick(this)""><div class = content><div class = numbers>S</div></div></button><button id = button_12 class = ""square num-button"" onclick = ""recordClick(this)""><div class = content><div class = numbers>Y</div></div></button><button class = clear_button id = ""ClearButton"" onclick = ""clearResponse()"">BACKSPACE</button><button class = blank_button id = ""BlankButton"" onclick = ""blankResponse()"">SKIP</button><p style=""font-size: 2.4rem""><u><b>Current Answer:</b></u></p><br><br><div id=echoed_txt style=""font-size: 5rem; color:blue;""><b></b></div></div>",enter,ospan,retrieval,SDbP781iPAX4NCveADLEu5hSV7G2,html-keyboard-response,173,950253,0.0-46.0-5.0-1.0-2.0,28,25,21,7.0,"[""Q"",""L"",""P"",""G"",""S"",""H""]","[""Q"",""L"",""P"",""G"",""Y"",""S"",""H""]",0.0,4.0,,,,,,,5eb85799cc3ea50a5f3591ad,09:23:23,03/04/2024
1135.2999999523163,[''],0,ospan,feedback,SDbP781iPAX4NCveADLEu5hSV7G2,html-button-response,174,951890,0.0-46.0-5.0-1.0-3.0,,,,,,,,,,,,100.0,0.0,,5eb85799cc3ea50a5f3591ad,09:23:23,03/04/2024
,"<p style=""font-size:75px;"">...</p>",,ospan,iti,SDbP781iPAX4NCveADLEu5hSV7G2,html-keyboard-response,175,952894,0.0-46.0-6.0-0.0-0.0,,,,,,,,,,,,,,,5eb85799cc3ea50a5f3591ad,09:23:23,03/04/2024
2108.0,,,ospan,symmetry,SDbP781iPAX4NCveADLEu5hSV7G2,symmetry-judgement-task,176,956221,0.0-46.0-6.0-0.0-1.0-0.0,,,,,,,,,,1.0,1.0,,,,5eb85799cc3ea50a5f3591ad,09:23:23,03/04/2024
,"<div style=""font-size: 10rem; color: #0000FF"">L</div>",,ospan,letter,SDbP781iPAX4NCveADLEu5hSV7G2,html-keyboard-response,177,957223,0.0-46.0-6.0-0.0-1.0-1.0,,,,,,,,,,,,,,,5eb85799cc3ea50a5f3591ad,09:23:23,03/04/2024
2471.0,,,ospan,symmetry,SDbP781iPAX4NCveADLEu5hSV7G2,symmetry-judgement-task,178,961676,0.0-46.0-6.0-0.0-1.0-2.0,,,,,,,,,,1.0,1.0,,,,5eb85799cc3ea50a5f3591ad,09:23:23,03/04/2024
,"<div style=""font-size: 10rem; color: #0000FF"">H</div>",,ospan,letter,SDbP781iPAX4NCveADLEu5hSV7G2,html-keyboard-response,179,962679,0.0-46.0-6.0-0.0-1.0-3.0,,,,,,,,,,,,,,,5eb85799cc3ea50a5f3591ad,09:23:23,03/04/2024
1610.0,,,ospan,symmetry,SDbP781iPAX4NCveADLEu5hSV7G2,symmetry-judgement-task,180,966263,0.0-46.0-6.0-0.0-1.0-4.0,,,,,,,,,,1.0,1.0,,,,5eb85799cc3ea50a5f3591ad,09:23:23,03/04/2024
,"<div style=""font-size: 10rem; color: #0000FF"">R</div>",,ospan,letter,SDbP781iPAX4NCveADLEu5hSV7G2,html-keyboard-response,181,967266,0.0-46.0-6.0-0.0-1.0-5.0,,,,,,,,,,,,,,,5eb85799cc3ea50a5f3591ad,09:23:23,03/04/2024
1989.0,,,ospan,symmetry,SDbP781iPAX4NCveADLEu5hSV7G2,symmetry-judgement-task,182,971283,0.0-46.0-6.0-0.0-1.0-6.0,,,,,,,,,,1.0,1.0,,,,5eb85799cc3ea50a5f3591ad,09:23:23,03/04/2024
,"<div style=""font-size: 10rem; color: #0000FF"">N</div>",,ospan,letter,SDbP781iPAX4NCveADLEu5hSV7G2,html-keyboard-response,183,972286,0.0-46.0-6.0-0.0-1.0-7.0,,,,,,,,,,,,,,,5eb85799cc3ea50a5f3591ad,09:23:23,03/04/2024
2368.0,,,ospan,symmetry,SDbP781iPAX4NCveADLEu5hSV7G2,symmetry-judgement-task,184,976624,0.0-46.0-6.0-0.0-1.0-8.0,,,,,,,,,,1.0,1.0,,,,5eb85799cc3ea50a5f3591ad,09:23:23,03/04/2024
,"<div style=""font-size: 10rem; color: #0000FF"">J</div>",,ospan,letter,SDbP781iPAX4NCveADLEu5hSV7G2,html-keyboard-response,185,977628,0.0-46.0-6.0-0.0-1.0-9.0,,,,,,,,,,,,,,,5eb85799cc3ea50a5f3591ad,09:23:23,03/04/2024
7072.599999964237,"<div class = numbox><p style=""font-size: 2.4rem"">Please recall the letters you saw to the best of your ability. If you do not remember a particular letter, use the SKIP button.<br><b>(When you are ready to lock in your answer, press ENTER)</b></p><button id = button_1 class = ""square num-button"" onclick = ""recordClick(this)""><div class = content><div class = numbers>C</div></div></button><button id = button_2 class = ""square num-button"" onclick = ""recordClick(this)""><div class = content><div class = numbers>G</div></div></button><button id = button_3 class = ""square num-button"" onclick = ""recordClick(this)""><div class = content><div class = numbers>H</div></div></button><button id = button_4 class = ""square num-button"" onclick = ""recordClick(this)""><div class = content><div class = numbers>J</div></div></button><button id = button_5 class = ""square num-button"" onclick = ""recordClick(this)""><div class = content><div class = numbers>K</div></div></button><button id = button_6 class = ""square num-button"" onclick = ""recordClick(this)""><div class = content><div class = numbers>L</div></div></button><button id = button_7 class = ""square num-button"" onclick = ""recordClick(this)""><div class = content><div class = numbers>N</div></div></button><button id = button_8 class = ""square num-button"" onclick = ""recordClick(this)""><div class = content><div class = numbers>P</div></div></button><button id = button_9 class = ""square num-button"" onclick = ""recordClick(this)""><div class = content><div class = numbers>Q</div></div></button><button id = button_10 class = ""square num-button"" onclick = ""recordClick(this)""><div class = content><div class = numbers>R</div></div></button><button id = button_11 class = ""square num-button"" onclick = ""recordClick(this)""><div class = content><div class = numbers>S</div></div></button><button id = button_12 class = ""square num-button"" onclick = ""recordClick(this)""><div class = content><div class = numbers>Y</div></div></button><button class = clear_button id = ""ClearButton"" onclick = ""clearResponse()"">BACKSPACE</button><button class = blank_button id = ""BlankButton"" onclick = ""blankResponse()"">SKIP</button><p style=""font-size: 2.4rem""><u><b>Current Answer:</b></u></p><br><br><div id=echoed_txt style=""font-size: 5rem; color:blue;""><b></b></div></div>",enter,ospan,retrieval,SDbP781iPAX4NCveADLEu5hSV7G2,html-keyboard-response,186,985453,0.0-46.0-6.0-0.0-2.0,33,30,26,5.0,"[""L"",""H"",""R"",""N"",""J""]","[""L"",""H"",""R"",""N"",""J""]",1.0,5.0,,,,,,,5eb85799cc3ea50a5f3591ad,09:23:23,03/04/2024
1205.699999988079,[''],0,ospan,feedback,SDbP781iPAX4NCveADLEu5hSV7G2,html-button-response,187,987161,0.0-46.0-6.0-0.0-3.0,,,,,,,,,,,,100.0,0.0,,5eb85799cc3ea50a5f3591ad,09:23:23,03/04/2024
,"<p style=""font-size:75px;"">...</p>",,ospan,iti,SDbP781iPAX4NCveADLEu5hSV7G2,html-keyboard-response,188,988164,0.0-46.0-6.0-1.0-0.0,,,,,,,,,,,,,,,5eb85799cc3ea50a5f3591ad,09:23:23,03/04/2024
2798.0,,,ospan,symmetry,SDbP781iPAX4NCveADLEu5hSV7G2,symmetry-judgement-task,189,992174,0.0-46.0-6.0-1.0-1.0-0.0,,,,,,,,,,1.0,1.0,,,,5eb85799cc3ea50a5f3591ad,09:23:23,03/04/2024
,"<div style=""font-size: 10rem; color: #0000FF"">Y</div>",,ospan,letter,SDbP781iPAX4NCveADLEu5hSV7G2,html-keyboard-response,190,993178,0.0-46.0-6.0-1.0-1.0-1.0,,,,,,,,,,,,,,,5eb85799cc3ea50a5f3591ad,09:23:23,03/04/2024
3122.0,,,ospan,symmetry,SDbP781iPAX4NCveADLEu5hSV7G2,symmetry-judgement-task,191,998253,0.0-46.0-6.0-1.0-1.0-2.0,,,,,,,,,,1.0,1.0,,,,5eb85799cc3ea50a5f3591ad,09:23:23,03/04/2024
,"<div style=""font-size: 10rem; color: #0000FF"">N</div>",,ospan,letter,SDbP781iPAX4NCveADLEu5hSV7G2,html-keyboard-response,192,999257,0.0-46.0-6.0-1.0-1.0-3.0,,,,,,,,,,,,,,,5eb85799cc3ea50a5f3591ad,09:23:23,03/04/2024
2050.0,,,ospan,symmetry,SDbP781iPAX4NCveADLEu5hSV7G2,symmetry-judgement-task,193,1003297,0.0-46.0-6.0-1.0-1.0-4.0,,,,,,,,,,1.0,1.0,,,,5eb85799cc3ea50a5f3591ad,09:23:23,03/04/2024
,"<div style=""font-size: 10rem; color: #0000FF"">G</div>",,ospan,letter,SDbP781iPAX4NCveADLEu5hSV7G2,html-keyboard-response,194,1004302,0.0-46.0-6.0-1.0-1.0-5.0,,,,,,,,,,,,,,,5eb85799cc3ea50a5f3591ad,09:23:23,03/04/2024
1994.0,,,ospan,symmetry,SDbP781iPAX4NCveADLEu5hSV7G2,symmetry-judgement-task,195,1008260,0.0-46.0-6.0-1.0-1.0-6.0,,,,,,,,,,1.0,1.0,,,,5eb85799cc3ea50a5f3591ad,09:23:23,03/04/2024
,"<div style=""font-size: 10rem; color: #0000FF"">C</div>",,ospan,letter,SDbP781iPAX4NCveADLEu5hSV7G2,html-keyboard-response,196,1009262,0.0-46.0-6.0-1.0-1.0-7.0,,,,,,,,,,,,,,,5eb85799cc3ea50a5f3591ad,09:23:23,03/04/2024
1923.0,,,ospan,symmetry,SDbP781iPAX4NCveADLEu5hSV7G2,symmetry-judgement-task,197,1013143,0.0-46.0-6.0-1.0-1.0-8.0,,,,,,,,,,1.0,1.0,,,,5eb85799cc3ea50a5f3591ad,09:23:23,03/04/2024
,"<div style=""font-size: 10rem; color: #0000FF"">H</div>",,ospan,letter,SDbP781iPAX4NCveADLEu5hSV7G2,html-keyboard-response,198,1014147,0.0-46.0-6.0-1.0-1.0-9.0,,,,,,,,,,,,,,,5eb85799cc3ea50a5f3591ad,09:23:23,03/04/2024
3417.0,,,ospan,symmetry,SDbP781iPAX4NCveADLEu5hSV7G2,symmetry-judgement-task,199,1019521,0.0-46.0-6.0-1.0-1.0-10.0,,,,,,,,,,1.0,1.0,,,,5eb85799cc3ea50a5f3591ad,09:23:23,03/04/2024
,"<div style=""font-size: 10rem; color: #0000FF"">R</div>",,ospan,letter,SDbP781iPAX4NCveADLEu5hSV7G2,html-keyboard-response,200,1020523,0.0-46.0-6.0-1.0-1.0-11.0,,,,,,,,,,,,,,,5eb85799cc3ea50a5f3591ad,09:23:23,03/04/2024
3668.0,,,ospan,symmetry,SDbP781iPAX4NCveADLEu5hSV7G2,symmetry-judgement-task,201,1026152,0.0-46.0-6.0-1.0-1.0-12.0,,,,,,,,,,1.0,1.0,,,,5eb85799cc3ea50a5f3591ad,09:23:23,03/04/2024
,"<div style=""font-size: 10rem; color: #0000FF"">J</div>",,ospan,letter,SDbP781iPAX4NCveADLEu5hSV7G2,html-keyboard-response,202,1027154,0.0-46.0-6.0-1.0-1.0-13.0,,,,,,,,,,,,,,,5eb85799cc3ea50a5f3591ad,09:23:23,03/04/2024
2383.0,,,ospan,symmetry,SDbP781iPAX4NCveADLEu5hSV7G2,symmetry-judgement-task,203,1031496,0.0-46.0-6.0-1.0-1.0-14.0,,,,,,,,,,1.0,1.0,,,,5eb85799cc3ea50a5f3591ad,09:23:23,03/04/2024
,"<div style=""font-size: 10rem; color: #0000FF"">Q</div>",,ospan,letter,SDbP781iPAX4NCveADLEu5hSV7G2,html-keyboard-response,204,1032500,0.0-46.0-6.0-1.0-1.0-15.0,,,,,,,,,,,,,,,5eb85799cc3ea50a5f3591ad,09:23:23,03/04/2024
15673.900000035763,"<div class = numbox><p style=""font-size: 2.4rem"">Please recall the letters you saw to the best of your ability. If you do not remember a particular letter, use the SKIP button.<br><b>(When you are ready to lock in your answer, press ENTER)</b></p><button id = button_1 class = ""square num-button"" onclick = ""recordClick(this)""><div class = content><div class = numbers>C</div></div></button><button id = button_2 class = ""square num-button"" onclick = ""recordClick(this)""><div class = content><div class = numbers>G</div></div></button><button id = button_3 class = ""square num-button"" onclick = ""recordClick(this)""><div class = content><div class = numbers>H</div></div></button><button id = button_4 class = ""square num-button"" onclick = ""recordClick(this)""><div class = content><div class = numbers>J</div></div></button><button id = button_5 class = ""square num-button"" onclick = ""recordClick(this)""><div class = content><div class = numbers>K</div></div></button><button id = button_6 class = ""square num-button"" onclick = ""recordClick(this)""><div class = content><div class = numbers>L</div></div></button><button id = button_7 class = ""square num-button"" onclick = ""recordClick(this)""><div class = content><div class = numbers>N</div></div></button><button id = button_8 class = ""square num-button"" onclick = ""recordClick(this)""><div class = content><div class = numbers>P</div></div></button><button id = button_9 class = ""square num-button"" onclick = ""recordClick(this)""><div class = content><div class = numbers>Q</div></div></button><button id = button_10 class = ""square num-button"" onclick = ""recordClick(this)""><div class = content><div class = numbers>R</div></div></button><button id = button_11 class = ""square num-button"" onclick = ""recordClick(this)""><div class = content><div class = numbers>S</div></div></button><button id = button_12 class = ""square num-button"" onclick = ""recordClick(this)""><div class = content><div class = numbers>Y</div></div></button><button class = clear_button id = ""ClearButton"" onclick = ""clearResponse()"">BACKSPACE</button><button class = blank_button id = ""BlankButton"" onclick = ""blankResponse()"">SKIP</button><p style=""font-size: 2.4rem""><u><b>Current Answer:</b></u></p><br><br><div id=echoed_txt style=""font-size: 5rem; color:blue;""><b></b></div></div>",enter,ospan,retrieval,SDbP781iPAX4NCveADLEu5hSV7G2,html-keyboard-response,205,1048927,0.0-46.0-6.0-1.0-2.0,41,34,26,8.0,"[""R"",""N"",""G"",""C"",""H"",""Q""]","[""Y"",""N"",""G"",""C"",""H"",""R"",""J"",""Q""]",0.0,4.0,,,,,,,5eb85799cc3ea50a5f3591ad,09:23:23,03/04/2024
1866.6000000238419,[''],0,ospan,feedback,SDbP781iPAX4NCveADLEu5hSV7G2,html-button-response,206,1051295,0.0-46.0-6.0-1.0-3.0,,,,,,,,,,,,100.0,0.0,,5eb85799cc3ea50a5f3591ad,09:23:23,03/04/2024
26998.600000023842,,{'Q0': 'enjoyed this one! got a bit stressful when lots of letters where involved'},ospan,survey_ospan,SDbP781iPAX4NCveADLEu5hSV7G2,lmdlab-survey-text,207,1079046,0.0-46.0-7.0,,,,,,,,,,,,,,SDbP781iPAX4NCveADLEu5hSV7G2,5eb85799cc3ea50a5f3591ad,09:23:23,03/04/2024
1298.3999999761581,<p><p style='font-size: 3rem'>Great work!<br><br>This completes the symmetry and memory task.</p><br><br><br>,0,ospan,finish,SDbP781iPAX4NCveADLEu5hSV7G2,html-button-response,208,1080348,0.0-46.0-8.0,41,34,26,,,,,,,,,100.0,,,5eb85799cc3ea50a5f3591ad,09:23:23,03/04/2024
