rt,stimulus,response,exp_name,exp_stage,subjectID,trial_type,trial_index,time_elapsed,internal_node_id,ospan_shown,ospan_total,ospan_abs,length,resp_actual,resp_correct,full_correct,num_correct,feedback,accuracy,correct,math_acc,math_warning,databaseID,prolificID,start_time,date
1238.0999999940395,<div class = 'left_align' style='font-size: 3.25rem; line-height: 1.3;'><p class = 'center_align'><b>Welcome to the Symmetry and Memory Task</b><br><br><br><br></p>Press 'continue' to show the instructions.<br><br><br><br></div>,0,ospan,instruct,NPWzWCgPU1bqa3e7Gt7bwehbh8q1,html-button-response,51,367702,0.0-43.0-0.0-0.0-0.0,,,,,,,,,,,,,,,5e85f667db8aa41f74436a9f,11:08:40,04/03/2024
5800.299999982119,"<div class = 'left_align' style='font-size: 3.25rem; line-height: 1.3;'><p class = 'center_align'><b>Symmetry and Memory Task</b><br><br></p>In this task, you will try to memorize letters you see on the screen<br>while you also view black and white grid pictures.<br><br>In the next few minutes, you will have some practice to get you familiar<br>with how the task works.<br><br>It may be difficult sometimes, but please do not worry about making mistakes!<br><br>We will begin by practicing the letter part of the task.<br><br><br><br></div>",0,ospan,instruct,NPWzWCgPU1bqa3e7Gt7bwehbh8q1,html-button-response,52,373755,0.0-43.0-0.0-0.0-1.0,,,,,,,,,,,,,,,5e85f667db8aa41f74436a9f,11:08:40,04/03/2024
4901.699999988079,"<div class = 'left_align' style='font-size: 3.25rem; line-height: 1.3;'>For this practice part, letters will appear on the screen one at a time.<br><br>Try to remember each letter in the order presented.<br><br>After some letters have been shown, you will see a response screen. Your<br>goal is to report the letters you saw <b>in order</b>. If you do not remember<br>a particular letter, you will have the option to leave it blank.<br><br><br><br></div>",0,ospan,instruct,NPWzWCgPU1bqa3e7Gt7bwehbh8q1,html-button-response,53,378913,0.0-43.0-0.0-0.0-2.0,,,,,,,,,,,,,,,5e85f667db8aa41f74436a9f,11:08:40,04/03/2024
2214.2999999821186,"<div class = 'left_align' style='font-size: 3.25rem; line-height: 1.3;'>Remember, it is very important to get the letters in the same<br>order as you see them.<br><br>When you are ready, you may begin the letter practice.</div><br><br><br><br>",0,ospan,instruct,NPWzWCgPU1bqa3e7Gt7bwehbh8q1,html-button-response,54,381384,0.0-43.0-0.0-0.0-3.0,,,,,,,,,,,,,,,5e85f667db8aa41f74436a9f,11:08:40,04/03/2024
,"<p style=""font-size:75px;"">...</p>",,ospan,iti,NPWzWCgPU1bqa3e7Gt7bwehbh8q1,html-keyboard-response,55,382641,0.0-43.0-0.0-1.0-0.0,,,,,,,,,,,,,,,5e85f667db8aa41f74436a9f,11:08:40,04/03/2024
,"<div style=""font-size: 10rem; color: #0000FF"">N</div>",,ospan,letter,NPWzWCgPU1bqa3e7Gt7bwehbh8q1,html-keyboard-response,56,383648,0.0-43.0-0.0-1.0-1.0,,,,,,,,,,,,,,,5e85f667db8aa41f74436a9f,11:08:40,04/03/2024
,"<div style=""font-size: 10rem; color: #0000FF"">H</div>",,ospan,letter,NPWzWCgPU1bqa3e7Gt7bwehbh8q1,html-keyboard-response,57,385404,0.0-43.0-0.0-1.0-2.0,,,,,,,,,,,,,,,5e85f667db8aa41f74436a9f,11:08:40,04/03/2024
5659.4000000059605,"<div class = numbox><p style=""font-size: 2.4rem"">Please recall the letters you saw to the best of your ability. If you do not remember a particular letter, use the SKIP button.<br><b>(When you are ready to lock in your answer, press ENTER)</b></p><button id = button_1 class = ""square num-button"" onclick = ""recordClick(this)""><div class = content><div class = numbers>C</div></div></button><button id = button_2 class = ""square num-button"" onclick = ""recordClick(this)""><div class = content><div class = numbers>G</div></div></button><button id = button_3 class = ""square num-button"" onclick = ""recordClick(this)""><div class = content><div class = numbers>H</div></div></button><button id = button_4 class = ""square num-button"" onclick = ""recordClick(this)""><div class = content><div class = numbers>J</div></div></button><button id = button_5 class = ""square num-button"" onclick = ""recordClick(this)""><div class = content><div class = numbers>K</div></div></button><button id = button_6 class = ""square num-button"" onclick = ""recordClick(this)""><div class = content><div class = numbers>L</div></div></button><button id = button_7 class = ""square num-button"" onclick = ""recordClick(this)""><div class = content><div class = numbers>N</div></div></button><button id = button_8 class = ""square num-button"" onclick = ""recordClick(this)""><div class = content><div class = numbers>P</div></div></button><button id = button_9 class = ""square num-button"" onclick = ""recordClick(this)""><div class = content><div class = numbers>Q</div></div></button><button id = button_10 class = ""square num-button"" onclick = ""recordClick(this)""><div class = content><div class = numbers>R</div></div></button><button id = button_11 class = ""square num-button"" onclick = ""recordClick(this)""><div class = content><div class = numbers>S</div></div></button><button id = button_12 class = ""square num-button"" onclick = ""recordClick(this)""><div class = content><div class = numbers>Y</div></div></button><button class = clear_button id = ""ClearButton"" onclick = ""clearResponse()"">BACKSPACE</button><button class = blank_button id = ""BlankButton"" onclick = ""blankResponse()"">SKIP</button><p style=""font-size: 2.4rem""><u><b>Current Answer:</b></u></p><br><br><div id=echoed_txt style=""font-size: 5rem; color:blue;""><b></b></div></div>",enter,ospan,retrieval,NPWzWCgPU1bqa3e7Gt7bwehbh8q1,html-keyboard-response,58,391818,0.0-43.0-0.0-1.0-3.0,NA,NA,NA,2.0,"[""N"",""H""]","[""N"",""H""]",1.0,2.0,"['<font color=""green"">N</font>', '<font color=""green"">H</font>']",,,,,,5e85f667db8aa41f74436a9f,11:08:40,04/03/2024
1972.2000000178814,"['<p style=""font-size:44px"">Letters:<br><br><br><font color=""green"">N</font> <font color=""green"">H</font></p><br><br>']",0,ospan,practice_feedback,NPWzWCgPU1bqa3e7Gt7bwehbh8q1,html-button-response,59,394295,0.0-43.0-0.0-1.0-4.0,,,,,,,,,,,,,,,5e85f667db8aa41f74436a9f,11:08:40,04/03/2024
,"<p style=""font-size:75px;"">...</p>",,ospan,iti,NPWzWCgPU1bqa3e7Gt7bwehbh8q1,html-keyboard-response,60,395300,0.0-43.0-0.0-2.0-0.0,,,,,,,,,,,,,,,5e85f667db8aa41f74436a9f,11:08:40,04/03/2024
,"<div style=""font-size: 10rem; color: #0000FF"">L</div>",,ospan,letter,NPWzWCgPU1bqa3e7Gt7bwehbh8q1,html-keyboard-response,61,396302,0.0-43.0-0.0-2.0-1.0,,,,,,,,,,,,,,,5e85f667db8aa41f74436a9f,11:08:40,04/03/2024
,"<div style=""font-size: 10rem; color: #0000FF"">Y</div>",,ospan,letter,NPWzWCgPU1bqa3e7Gt7bwehbh8q1,html-keyboard-response,62,398057,0.0-43.0-0.0-2.0-2.0,,,,,,,,,,,,,,,5e85f667db8aa41f74436a9f,11:08:40,04/03/2024
,"<div style=""font-size: 10rem; color: #0000FF"">G</div>",,ospan,letter,NPWzWCgPU1bqa3e7Gt7bwehbh8q1,html-keyboard-response,63,399809,0.0-43.0-0.0-2.0-3.0,,,,,,,,,,,,,,,5e85f667db8aa41f74436a9f,11:08:40,04/03/2024
5375.699999988079,"<div class = numbox><p style=""font-size: 2.4rem"">Please recall the letters you saw to the best of your ability. If you do not remember a particular letter, use the SKIP button.<br><b>(When you are ready to lock in your answer, press ENTER)</b></p><button id = button_1 class = ""square num-button"" onclick = ""recordClick(this)""><div class = content><div class = numbers>C</div></div></button><button id = button_2 class = ""square num-button"" onclick = ""recordClick(this)""><div class = content><div class = numbers>G</div></div></button><button id = button_3 class = ""square num-button"" onclick = ""recordClick(this)""><div class = content><div class = numbers>H</div></div></button><button id = button_4 class = ""square num-button"" onclick = ""recordClick(this)""><div class = content><div class = numbers>J</div></div></button><button id = button_5 class = ""square num-button"" onclick = ""recordClick(this)""><div class = content><div class = numbers>K</div></div></button><button id = button_6 class = ""square num-button"" onclick = ""recordClick(this)""><div class = content><div class = numbers>L</div></div></button><button id = button_7 class = ""square num-button"" onclick = ""recordClick(this)""><div class = content><div class = numbers>N</div></div></button><button id = button_8 class = ""square num-button"" onclick = ""recordClick(this)""><div class = content><div class = numbers>P</div></div></button><button id = button_9 class = ""square num-button"" onclick = ""recordClick(this)""><div class = content><div class = numbers>Q</div></div></button><button id = button_10 class = ""square num-button"" onclick = ""recordClick(this)""><div class = content><div class = numbers>R</div></div></button><button id = button_11 class = ""square num-button"" onclick = ""recordClick(this)""><div class = content><div class = numbers>S</div></div></button><button id = button_12 class = ""square num-button"" onclick = ""recordClick(this)""><div class = content><div class = numbers>Y</div></div></button><button class = clear_button id = ""ClearButton"" onclick = ""clearResponse()"">BACKSPACE</button><button class = blank_button id = ""BlankButton"" onclick = ""blankResponse()"">SKIP</button><p style=""font-size: 2.4rem""><u><b>Current Answer:</b></u></p><br><br><div id=echoed_txt style=""font-size: 5rem; color:blue;""><b></b></div></div>",enter,ospan,retrieval,NPWzWCgPU1bqa3e7Gt7bwehbh8q1,html-keyboard-response,64,405939,0.0-43.0-0.0-2.0-4.0,NA,NA,NA,3.0,"[""L"",""Y"",""G""]","[""L"",""Y"",""G""]",1.0,3.0,"['<font color=""green"">L</font>', '<font color=""green"">Y</font>', '<font color=""green"">G</font>']",,,,,,5e85f667db8aa41f74436a9f,11:08:40,04/03/2024
3170.0,"['<p style=""font-size:44px"">Letters:<br><br><br><font color=""green"">L</font> <font color=""green"">Y</font> <font color=""green"">G</font></p><br><br>']",0,ospan,practice_feedback,NPWzWCgPU1bqa3e7Gt7bwehbh8q1,html-button-response,65,409614,0.0-43.0-0.0-2.0-5.0,,,,,,,,,,,,,,,5e85f667db8aa41f74436a9f,11:08:40,04/03/2024
10560.300000011921,"<div class = 'left_align' style='font-size: 3.25rem; line-height: 1.3;'>Now you will practice doing the <b>symmetry judgment part</b> of the experiment.<br><br>A black and white grid picture will appear on the screen and you have to judge if it is <br>symmetrical or asymetrical.<br><br>A picture is 'mirror' symmetrical if its left half is identical to the right half when flipped.<br>Here are examples of a symmetrical and an asymetrical picture:<br><br><center><img src='Stimuli/img/symm_instructions_extra.png' style='height:420px; width:900'></img></center><br>To judge symmetry, imagine you were to fold each picture down the middle, like a book –<br>would the left half match the right half when folded onto each other?<br><br></div><br>",0,ospan,instruct,NPWzWCgPU1bqa3e7Gt7bwehbh8q1,html-button-response,66,420176,0.0-43.0-1.0-0.0-0.0,,,,,,,,,,,,,,,5e85f667db8aa41f74436a9f,11:08:40,04/03/2024
6969.199999988079,"<div class = 'left_align' style='font-size: 3.25rem; line-height: 1.3;'>When you have viewed the picture and determined whether it is symmetrical or not,<br>you can <b>click the Yes or No button</b> below to answer.<br><br>If you take longer than 15 seconds, it will continue automatically<br>and record the answer as an error.</div><br>",0,ospan,instruct,NPWzWCgPU1bqa3e7Gt7bwehbh8q1,html-button-response,67,427399,0.0-43.0-1.0-0.0-1.0,,,,,,,,,,,,,,,5e85f667db8aa41f74436a9f,11:08:40,04/03/2024
1407.300000011921,"<div class = 'left_align' style='font-size: 3.25rem; line-height: 1.3;'>It is <b>very</b> important that you make the symmetry judgment correctly.<br><br>It is also important that you try and judge the picture as quickly as you can.<br><br>When you are ready, click on the button below to try some practice problems.</div><br><br><br><br>",0,ospan,instruct,NPWzWCgPU1bqa3e7Gt7bwehbh8q1,html-button-response,68,429060,0.0-43.0-1.0-0.0-2.0,,,,,,,,,,,,,,,5e85f667db8aa41f74436a9f,11:08:40,04/03/2024
2227.0,,,ospan,symmetry,NPWzWCgPU1bqa3e7Gt7bwehbh8q1,symmetry-judgement-task,69,432086,0.0-43.0-1.0-1.0-0.0,,,,,,,,,,1.0,1.0,,,,5e85f667db8aa41f74436a9f,11:08:40,04/03/2024
,"<p style=""color:green; font-size: 35px"">Correct</p>",,ospan,feedback,NPWzWCgPU1bqa3e7Gt7bwehbh8q1,html-keyboard-response,70,432840,0.0-43.0-1.0-1.0-1.0,,,,,,,,,,,,,,,5e85f667db8aa41f74436a9f,11:08:40,04/03/2024
962.0,,,ospan,symmetry,NPWzWCgPU1bqa3e7Gt7bwehbh8q1,symmetry-judgement-task,71,436462,0.0-43.0-1.0-1.0-2.0,,,,,,,,,,1.0,1.0,,,,5e85f667db8aa41f74436a9f,11:08:40,04/03/2024
,"<p style=""color:green; font-size: 35px"">Correct</p>",,ospan,feedback,NPWzWCgPU1bqa3e7Gt7bwehbh8q1,html-keyboard-response,72,437214,0.0-43.0-1.0-1.0-3.0,,,,,,,,,,,,,,,5e85f667db8aa41f74436a9f,11:08:40,04/03/2024
998.0,,,ospan,symmetry,NPWzWCgPU1bqa3e7Gt7bwehbh8q1,symmetry-judgement-task,73,440749,0.0-43.0-1.0-1.0-4.0,,,,,,,,,,1.0,1.0,,,,5e85f667db8aa41f74436a9f,11:08:40,04/03/2024
,"<p style=""color:green; font-size: 35px"">Correct</p>",,ospan,feedback,NPWzWCgPU1bqa3e7Gt7bwehbh8q1,html-keyboard-response,74,441503,0.0-43.0-1.0-1.0-5.0,,,,,,,,,,,,,,,5e85f667db8aa41f74436a9f,11:08:40,04/03/2024
1149.8999999761581,"<p style=""font-size: 3rem;"">You responded correctly on 3 of 3 symmetry judgments. Good job!</p><br><br>",0,ospan,practice,NPWzWCgPU1bqa3e7Gt7bwehbh8q1,html-button-response,75,444655,0.0-43.0-1.0-2.0,,,,,,,,,,,,,,,5e85f667db8aa41f74436a9f,11:08:40,04/03/2024
3509.100000023842,"<div class = 'left_align' style='font-size: 3.25rem; line-height: 1.3;'>Now you will practice doing both parts of the experiment at the same time.<br><br>In the next practice set, you will be given one grid picture to judge.<br>Then letter will appear on the screen. Try to remember the letter.<br><br>It is <b>very important</b> to make the symmetry judgment as quickly and accurately as possible.<br><br>Just as before, once you have make the symmetry judgment, you can click Yes or No.<br><b>Note that you will no longer see Correct or Incorrect feedback.</div><br><br><br><br>",0,ospan,instruct,NPWzWCgPU1bqa3e7Gt7bwehbh8q1,html-button-response,76,448420,0.0-43.0-2.0-0.0-0.0,,,,,,,,,,,,,,,5e85f667db8aa41f74436a9f,11:08:40,04/03/2024
3757.2000000178814,"<div class = 'left_align' style='font-size: 3.25rem; line-height: 1.3;'>After the letter goes away, another grid picture will appear, and then<br>another letter.<br><br>At the end of each set of letters and grids, you will recall the letters to the best<br>of your ability. Remember, try your best to get the letters in the correct order.<br><br>It is important to <b>quickly</b> and <b>accurately</b> make the symmetry judgments.</div><br><br><br><br>",0,ospan,instruct,NPWzWCgPU1bqa3e7Gt7bwehbh8q1,html-button-response,77,452430,0.0-43.0-2.0-0.0-1.0,,,,,,,,,,,,,,,5e85f667db8aa41f74436a9f,11:08:40,04/03/2024
8409.700000017881,"<div class = 'left_align' style='font-size: 3.25rem; line-height: 1.3;'>On the feedback screen, if you are not doing well at the symmetry judgments,<br>you will also see a warning in the middle. This indicates your percent <br>correct for the grid pictures for the entire experiment.<br><br>It is <b>very</b> important for you to keep accuracy at least at 85%: <u>We can only use<br>data where the participant was at least 85% accurate on the judgments.</u> Therefore,<br> please try your best to perform well on the symmetry judgments, <b>at the same time</b><br>doing your best to recall as many letters as possible.<br><br>Click the button to try some practice problems.</div><br><br><br><br>",0,ospan,instruct,NPWzWCgPU1bqa3e7Gt7bwehbh8q1,html-button-response,78,461097,0.0-43.0-2.0-0.0-2.0,,,,,,,,,,,,,,,5e85f667db8aa41f74436a9f,11:08:40,04/03/2024
,"<p style=""font-size:75px;"">...</p>",,ospan,iti,NPWzWCgPU1bqa3e7Gt7bwehbh8q1,html-keyboard-response,79,462350,0.0-43.0-2.0-1.0-0.0,,,,,,,,,,,,,,,5e85f667db8aa41f74436a9f,11:08:40,04/03/2024
1771.0,,,ospan,symmetry,NPWzWCgPU1bqa3e7Gt7bwehbh8q1,symmetry-judgement-task,80,465160,0.0-43.0-2.0-1.0-1.0-0.0,,,,,,,,,,1.0,1.0,,,,5e85f667db8aa41f74436a9f,11:08:40,04/03/2024
,"<div style=""font-size: 10rem; color: #0000FF"">N</div>",,ospan,letter,NPWzWCgPU1bqa3e7Gt7bwehbh8q1,html-keyboard-response,81,466166,0.0-43.0-2.0-1.0-1.0-1.0,,,,,,,,,,,,,,,5e85f667db8aa41f74436a9f,11:08:40,04/03/2024
1387.0,,,ospan,symmetry,NPWzWCgPU1bqa3e7Gt7bwehbh8q1,symmetry-judgement-task,82,469465,0.0-43.0-2.0-1.0-1.0-2.0,,,,,,,,,,1.0,1.0,,,,5e85f667db8aa41f74436a9f,11:08:40,04/03/2024
,"<div style=""font-size: 10rem; color: #0000FF"">S</div>",,ospan,letter,NPWzWCgPU1bqa3e7Gt7bwehbh8q1,html-keyboard-response,83,470469,0.0-43.0-2.0-1.0-1.0-3.0,,,,,,,,,,,,,,,5e85f667db8aa41f74436a9f,11:08:40,04/03/2024
1373.0,,,ospan,symmetry,NPWzWCgPU1bqa3e7Gt7bwehbh8q1,symmetry-judgement-task,84,473747,0.0-43.0-2.0-1.0-1.0-4.0,,,,,,,,,,1.0,1.0,,,,5e85f667db8aa41f74436a9f,11:08:40,04/03/2024
,"<div style=""font-size: 10rem; color: #0000FF"">Q</div>",,ospan,letter,NPWzWCgPU1bqa3e7Gt7bwehbh8q1,html-keyboard-response,85,474751,0.0-43.0-2.0-1.0-1.0-5.0,,,,,,,,,,,,,,,5e85f667db8aa41f74436a9f,11:08:40,04/03/2024
2947.4000000059605,"<div class = numbox><p style=""font-size: 2.4rem"">Please recall the letters you saw to the best of your ability. If you do not remember a particular letter, use the SKIP button.<br><b>(When you are ready to lock in your answer, press ENTER)</b></p><button id = button_1 class = ""square num-button"" onclick = ""recordClick(this)""><div class = content><div class = numbers>C</div></div></button><button id = button_2 class = ""square num-button"" onclick = ""recordClick(this)""><div class = content><div class = numbers>G</div></div></button><button id = button_3 class = ""square num-button"" onclick = ""recordClick(this)""><div class = content><div class = numbers>H</div></div></button><button id = button_4 class = ""square num-button"" onclick = ""recordClick(this)""><div class = content><div class = numbers>J</div></div></button><button id = button_5 class = ""square num-button"" onclick = ""recordClick(this)""><div class = content><div class = numbers>K</div></div></button><button id = button_6 class = ""square num-button"" onclick = ""recordClick(this)""><div class = content><div class = numbers>L</div></div></button><button id = button_7 class = ""square num-button"" onclick = ""recordClick(this)""><div class = content><div class = numbers>N</div></div></button><button id = button_8 class = ""square num-button"" onclick = ""recordClick(this)""><div class = content><div class = numbers>P</div></div></button><button id = button_9 class = ""square num-button"" onclick = ""recordClick(this)""><div class = content><div class = numbers>Q</div></div></button><button id = button_10 class = ""square num-button"" onclick = ""recordClick(this)""><div class = content><div class = numbers>R</div></div></button><button id = button_11 class = ""square num-button"" onclick = ""recordClick(this)""><div class = content><div class = numbers>S</div></div></button><button id = button_12 class = ""square num-button"" onclick = ""recordClick(this)""><div class = content><div class = numbers>Y</div></div></button><button class = clear_button id = ""ClearButton"" onclick = ""clearResponse()"">BACKSPACE</button><button class = blank_button id = ""BlankButton"" onclick = ""blankResponse()"">SKIP</button><p style=""font-size: 2.4rem""><u><b>Current Answer:</b></u></p><br><br><div id=echoed_txt style=""font-size: 5rem; color:blue;""><b></b></div></div>",enter,ospan,retrieval,NPWzWCgPU1bqa3e7Gt7bwehbh8q1,html-keyboard-response,86,478451,0.0-43.0-2.0-1.0-2.0-0.0,NA,NA,NA,3.0,"[""N"",""S"",""Q""]","[""N"",""S"",""Q""]",1.0,3.0,"['<font color=""green"">N</font>', '<font color=""green"">S</font>', '<font color=""green"">Q</font>']",,,,,,5e85f667db8aa41f74436a9f,11:08:40,04/03/2024
998.7000000178814,"['<p style=""font-size:44px"">Letters:<br><br><br><font color=""green"">N</font> <font color=""green"">S</font> <font color=""green"">Q</font></p><br><br><p style=""font-size:30px"">Symmetry:<br><br><font color=""green"">100%</font></p><br><br>']",0,ospan,practice_feedback,NPWzWCgPU1bqa3e7Gt7bwehbh8q1,html-button-response,87,479954,0.0-43.0-2.0-1.0-2.0-1.0,,,,,,,,,,,,,,,5e85f667db8aa41f74436a9f,11:08:40,04/03/2024
,"<p style=""font-size:75px;"">...</p>",,ospan,iti,NPWzWCgPU1bqa3e7Gt7bwehbh8q1,html-keyboard-response,88,480958,0.0-43.0-2.0-2.0-0.0,,,,,,,,,,,,,,,5e85f667db8aa41f74436a9f,11:08:40,04/03/2024
1382.0,,,ospan,symmetry,NPWzWCgPU1bqa3e7Gt7bwehbh8q1,symmetry-judgement-task,89,483508,0.0-43.0-2.0-2.0-1.0-0.0,,,,,,,,,,1.0,1.0,,,,5e85f667db8aa41f74436a9f,11:08:40,04/03/2024
,"<div style=""font-size: 10rem; color: #0000FF"">N</div>",,ospan,letter,NPWzWCgPU1bqa3e7Gt7bwehbh8q1,html-keyboard-response,90,484514,0.0-43.0-2.0-2.0-1.0-1.0,,,,,,,,,,,,,,,5e85f667db8aa41f74436a9f,11:08:40,04/03/2024
2388.0,,,ospan,symmetry,NPWzWCgPU1bqa3e7Gt7bwehbh8q1,symmetry-judgement-task,91,488810,0.0-43.0-2.0-2.0-1.0-2.0,,,,,,,,,,1.0,1.0,,,,5e85f667db8aa41f74436a9f,11:08:40,04/03/2024
,"<div style=""font-size: 10rem; color: #0000FF"">L</div>",,ospan,letter,NPWzWCgPU1bqa3e7Gt7bwehbh8q1,html-keyboard-response,92,489813,0.0-43.0-2.0-2.0-1.0-3.0,,,,,,,,,,,,,,,5e85f667db8aa41f74436a9f,11:08:40,04/03/2024
2756.0,,,ospan,symmetry,NPWzWCgPU1bqa3e7Gt7bwehbh8q1,symmetry-judgement-task,93,494479,0.0-43.0-2.0-2.0-1.0-4.0,,,,,,,,,,1.0,1.0,,,,5e85f667db8aa41f74436a9f,11:08:40,04/03/2024
,"<div style=""font-size: 10rem; color: #0000FF"">R</div>",,ospan,letter,NPWzWCgPU1bqa3e7Gt7bwehbh8q1,html-keyboard-response,94,495481,0.0-43.0-2.0-2.0-1.0-5.0,,,,,,,,,,,,,,,5e85f667db8aa41f74436a9f,11:08:40,04/03/2024
4129.9000000059605,"<div class = numbox><p style=""font-size: 2.4rem"">Please recall the letters you saw to the best of your ability. If you do not remember a particular letter, use the SKIP button.<br><b>(When you are ready to lock in your answer, press ENTER)</b></p><button id = button_1 class = ""square num-button"" onclick = ""recordClick(this)""><div class = content><div class = numbers>C</div></div></button><button id = button_2 class = ""square num-button"" onclick = ""recordClick(this)""><div class = content><div class = numbers>G</div></div></button><button id = button_3 class = ""square num-button"" onclick = ""recordClick(this)""><div class = content><div class = numbers>H</div></div></button><button id = button_4 class = ""square num-button"" onclick = ""recordClick(this)""><div class = content><div class = numbers>J</div></div></button><button id = button_5 class = ""square num-button"" onclick = ""recordClick(this)""><div class = content><div class = numbers>K</div></div></button><button id = button_6 class = ""square num-button"" onclick = ""recordClick(this)""><div class = content><div class = numbers>L</div></div></button><button id = button_7 class = ""square num-button"" onclick = ""recordClick(this)""><div class = content><div class = numbers>N</div></div></button><button id = button_8 class = ""square num-button"" onclick = ""recordClick(this)""><div class = content><div class = numbers>P</div></div></button><button id = button_9 class = ""square num-button"" onclick = ""recordClick(this)""><div class = content><div class = numbers>Q</div></div></button><button id = button_10 class = ""square num-button"" onclick = ""recordClick(this)""><div class = content><div class = numbers>R</div></div></button><button id = button_11 class = ""square num-button"" onclick = ""recordClick(this)""><div class = content><div class = numbers>S</div></div></button><button id = button_12 class = ""square num-button"" onclick = ""recordClick(this)""><div class = content><div class = numbers>Y</div></div></button><button class = clear_button id = ""ClearButton"" onclick = ""clearResponse()"">BACKSPACE</button><button class = blank_button id = ""BlankButton"" onclick = ""blankResponse()"">SKIP</button><p style=""font-size: 2.4rem""><u><b>Current Answer:</b></u></p><br><br><div id=echoed_txt style=""font-size: 5rem; color:blue;""><b></b></div></div>",enter,ospan,retrieval,NPWzWCgPU1bqa3e7Gt7bwehbh8q1,html-keyboard-response,95,500367,0.0-43.0-2.0-2.0-2.0-0.0,NA,NA,NA,3.0,"[""N"",""L"",""R""]","[""N"",""L"",""R""]",1.0,3.0,"['<font color=""green"">N</font>', '<font color=""green"">L</font>', '<font color=""green"">R</font>']",,,,,,5e85f667db8aa41f74436a9f,11:08:40,04/03/2024
929.2999999821186,"['<p style=""font-size:44px"">Letters:<br><br><br><font color=""green"">N</font> <font color=""green"">L</font> <font color=""green"">R</font></p><br><br><p style=""font-size:30px"">Symmetry:<br><br><font color=""green"">100%</font></p><br><br>']",0,ospan,practice_feedback,NPWzWCgPU1bqa3e7Gt7bwehbh8q1,html-button-response,96,501801,0.0-43.0-2.0-2.0-2.0-1.0,,,,,,,,,,,,,,,5e85f667db8aa41f74436a9f,11:08:40,04/03/2024
6482.9000000059605,"<div class = 'left_align' style='font-size: 3rem; line-height: 1.3;'><b>Great work! That is the end of practice.</b><br><br>The real trials will look just like the practice trials you just completed.<br><br><u>Here, you will not see feedback</u>. First, you will see an grid picture to judge,<br>then a letter to remember. When the recall screen appears, report the letters in the<br>order presented. If you forget a letter, remember to use the <b>blank</b> button to move to the<br>next letter. Some of the sets will have more symmetry grids and letters than others.<br><br>It is important that you do your best on both the symmetry judgments and the letter recall<br>parts of the experiment. For for the symmetry judgments, try to work as <b>quickly</b> and <br>as <b>accurately</b> as possible. Remember to keep your symmetry accuracy at 85% or above.<br><br><b>For the letters, do NOT use any external aid (e.g., writing on paper, electronic device).</b><br><br>It is <u>very important</u> to our experiment to have a <b>true</b> view of your real performance.<br><br>Do not worry if you miss some when it gets hard! This task is meant to be very challenging!<br><br>Click the button to begin.</div><br><br><br><br>",0,ospan,starting_real_here,NPWzWCgPU1bqa3e7Gt7bwehbh8q1,html-button-response,97,508286,0.0-43.0-2.0-3.0,,,,,,,,,,,,,,,5e85f667db8aa41f74436a9f,11:08:40,04/03/2024
,"<p style=""font-size:75px;"">...</p>",,ospan,iti,NPWzWCgPU1bqa3e7Gt7bwehbh8q1,html-keyboard-response,98,509544,0.0-43.0-3.0-0.0-0.0,,,,,,,,,,,,,,,5e85f667db8aa41f74436a9f,11:08:40,04/03/2024
1982.0,,,ospan,symmetry,NPWzWCgPU1bqa3e7Gt7bwehbh8q1,symmetry-judgement-task,99,512692,0.0-43.0-3.0-0.0-1.0-0.0,,,,,,,,,,1.0,1.0,,,,5e85f667db8aa41f74436a9f,11:08:40,04/03/2024
,"<div style=""font-size: 10rem; color: #0000FF"">P</div>",,ospan,letter,NPWzWCgPU1bqa3e7Gt7bwehbh8q1,html-keyboard-response,100,513695,0.0-43.0-3.0-0.0-1.0-1.0,,,,,,,,,,,,,,,5e85f667db8aa41f74436a9f,11:08:40,04/03/2024
1292.0,,,ospan,symmetry,NPWzWCgPU1bqa3e7Gt7bwehbh8q1,symmetry-judgement-task,101,516885,0.0-43.0-3.0-0.0-1.0-2.0,,,,,,,,,,1.0,1.0,,,,5e85f667db8aa41f74436a9f,11:08:40,04/03/2024
,"<div style=""font-size: 10rem; color: #0000FF"">K</div>",,ospan,letter,NPWzWCgPU1bqa3e7Gt7bwehbh8q1,html-keyboard-response,102,517889,0.0-43.0-3.0-0.0-1.0-3.0,,,,,,,,,,,,,,,5e85f667db8aa41f74436a9f,11:08:40,04/03/2024
1197.0,,,ospan,symmetry,NPWzWCgPU1bqa3e7Gt7bwehbh8q1,symmetry-judgement-task,103,521004,0.0-43.0-3.0-0.0-1.0-4.0,,,,,,,,,,1.0,1.0,,,,5e85f667db8aa41f74436a9f,11:08:40,04/03/2024
,"<div style=""font-size: 10rem; color: #0000FF"">C</div>",,ospan,letter,NPWzWCgPU1bqa3e7Gt7bwehbh8q1,html-keyboard-response,104,522005,0.0-43.0-3.0-0.0-1.0-5.0,,,,,,,,,,,,,,,5e85f667db8aa41f74436a9f,11:08:40,04/03/2024
2437.300000011921,"<div class = numbox><p style=""font-size: 2.4rem"">Please recall the letters you saw to the best of your ability. If you do not remember a particular letter, use the SKIP button.<br><b>(When you are ready to lock in your answer, press ENTER)</b></p><button id = button_1 class = ""square num-button"" onclick = ""recordClick(this)""><div class = content><div class = numbers>C</div></div></button><button id = button_2 class = ""square num-button"" onclick = ""recordClick(this)""><div class = content><div class = numbers>G</div></div></button><button id = button_3 class = ""square num-button"" onclick = ""recordClick(this)""><div class = content><div class = numbers>H</div></div></button><button id = button_4 class = ""square num-button"" onclick = ""recordClick(this)""><div class = content><div class = numbers>J</div></div></button><button id = button_5 class = ""square num-button"" onclick = ""recordClick(this)""><div class = content><div class = numbers>K</div></div></button><button id = button_6 class = ""square num-button"" onclick = ""recordClick(this)""><div class = content><div class = numbers>L</div></div></button><button id = button_7 class = ""square num-button"" onclick = ""recordClick(this)""><div class = content><div class = numbers>N</div></div></button><button id = button_8 class = ""square num-button"" onclick = ""recordClick(this)""><div class = content><div class = numbers>P</div></div></button><button id = button_9 class = ""square num-button"" onclick = ""recordClick(this)""><div class = content><div class = numbers>Q</div></div></button><button id = button_10 class = ""square num-button"" onclick = ""recordClick(this)""><div class = content><div class = numbers>R</div></div></button><button id = button_11 class = ""square num-button"" onclick = ""recordClick(this)""><div class = content><div class = numbers>S</div></div></button><button id = button_12 class = ""square num-button"" onclick = ""recordClick(this)""><div class = content><div class = numbers>Y</div></div></button><button class = clear_button id = ""ClearButton"" onclick = ""clearResponse()"">BACKSPACE</button><button class = blank_button id = ""BlankButton"" onclick = ""blankResponse()"">SKIP</button><p style=""font-size: 2.4rem""><u><b>Current Answer:</b></u></p><br><br><div id=echoed_txt style=""font-size: 5rem; color:blue;""><b></b></div></div>",enter,ospan,retrieval,NPWzWCgPU1bqa3e7Gt7bwehbh8q1,html-keyboard-response,105,525196,0.0-43.0-3.0-0.0-2.0,3,3,3,3.0,"[""P"",""K"",""C""]","[""P"",""K"",""C""]",1.0,3.0,,,,,,,5e85f667db8aa41f74436a9f,11:08:40,04/03/2024
768.4000000059605,[''],0,ospan,feedback,NPWzWCgPU1bqa3e7Gt7bwehbh8q1,html-button-response,106,526471,0.0-43.0-3.0-0.0-3.0,,,,,,,,,,,,100.0,0.0,,5e85f667db8aa41f74436a9f,11:08:40,04/03/2024
,"<p style=""font-size:75px;"">...</p>",,ospan,iti,NPWzWCgPU1bqa3e7Gt7bwehbh8q1,html-keyboard-response,107,527477,0.0-43.0-4.0-0.0-0.0,,,,,,,,,,,,,,,5e85f667db8aa41f74436a9f,11:08:40,04/03/2024
1739.0,,,ospan,symmetry,NPWzWCgPU1bqa3e7Gt7bwehbh8q1,symmetry-judgement-task,108,530364,0.0-43.0-4.0-0.0-1.0-0.0,,,,,,,,,,1.0,1.0,,,,5e85f667db8aa41f74436a9f,11:08:40,04/03/2024
,"<div style=""font-size: 10rem; color: #0000FF"">C</div>",,ospan,letter,NPWzWCgPU1bqa3e7Gt7bwehbh8q1,html-keyboard-response,109,531370,0.0-43.0-4.0-0.0-1.0-1.0,,,,,,,,,,,,,,,5e85f667db8aa41f74436a9f,11:08:40,04/03/2024
1126.0,,,ospan,symmetry,NPWzWCgPU1bqa3e7Gt7bwehbh8q1,symmetry-judgement-task,110,534411,0.0-43.0-4.0-0.0-1.0-2.0,,,,,,,,,,1.0,1.0,,,,5e85f667db8aa41f74436a9f,11:08:40,04/03/2024
,"<div style=""font-size: 10rem; color: #0000FF"">H</div>",,ospan,letter,NPWzWCgPU1bqa3e7Gt7bwehbh8q1,html-keyboard-response,111,535417,0.0-43.0-4.0-0.0-1.0-3.0,,,,,,,,,,,,,,,5e85f667db8aa41f74436a9f,11:08:40,04/03/2024
1547.0,,,ospan,symmetry,NPWzWCgPU1bqa3e7Gt7bwehbh8q1,symmetry-judgement-task,112,538861,0.0-43.0-4.0-0.0-1.0-4.0,,,,,,,,,,1.0,1.0,,,,5e85f667db8aa41f74436a9f,11:08:40,04/03/2024
,"<div style=""font-size: 10rem; color: #0000FF"">P</div>",,ospan,letter,NPWzWCgPU1bqa3e7Gt7bwehbh8q1,html-keyboard-response,113,539863,0.0-43.0-4.0-0.0-1.0-5.0,,,,,,,,,,,,,,,5e85f667db8aa41f74436a9f,11:08:40,04/03/2024
1793.0,,,ospan,symmetry,NPWzWCgPU1bqa3e7Gt7bwehbh8q1,symmetry-judgement-task,114,543585,0.0-43.0-4.0-0.0-1.0-6.0,,,,,,,,,,1.0,1.0,,,,5e85f667db8aa41f74436a9f,11:08:40,04/03/2024
,"<div style=""font-size: 10rem; color: #0000FF"">G</div>",,ospan,letter,NPWzWCgPU1bqa3e7Gt7bwehbh8q1,html-keyboard-response,115,544589,0.0-43.0-4.0-0.0-1.0-7.0,,,,,,,,,,,,,,,5e85f667db8aa41f74436a9f,11:08:40,04/03/2024
3611.7999999821186,"<div class = numbox><p style=""font-size: 2.4rem"">Please recall the letters you saw to the best of your ability. If you do not remember a particular letter, use the SKIP button.<br><b>(When you are ready to lock in your answer, press ENTER)</b></p><button id = button_1 class = ""square num-button"" onclick = ""recordClick(this)""><div class = content><div class = numbers>C</div></div></button><button id = button_2 class = ""square num-button"" onclick = ""recordClick(this)""><div class = content><div class = numbers>G</div></div></button><button id = button_3 class = ""square num-button"" onclick = ""recordClick(this)""><div class = content><div class = numbers>H</div></div></button><button id = button_4 class = ""square num-button"" onclick = ""recordClick(this)""><div class = content><div class = numbers>J</div></div></button><button id = button_5 class = ""square num-button"" onclick = ""recordClick(this)""><div class = content><div class = numbers>K</div></div></button><button id = button_6 class = ""square num-button"" onclick = ""recordClick(this)""><div class = content><div class = numbers>L</div></div></button><button id = button_7 class = ""square num-button"" onclick = ""recordClick(this)""><div class = content><div class = numbers>N</div></div></button><button id = button_8 class = ""square num-button"" onclick = ""recordClick(this)""><div class = content><div class = numbers>P</div></div></button><button id = button_9 class = ""square num-button"" onclick = ""recordClick(this)""><div class = content><div class = numbers>Q</div></div></button><button id = button_10 class = ""square num-button"" onclick = ""recordClick(this)""><div class = content><div class = numbers>R</div></div></button><button id = button_11 class = ""square num-button"" onclick = ""recordClick(this)""><div class = content><div class = numbers>S</div></div></button><button id = button_12 class = ""square num-button"" onclick = ""recordClick(this)""><div class = content><div class = numbers>Y</div></div></button><button class = clear_button id = ""ClearButton"" onclick = ""clearResponse()"">BACKSPACE</button><button class = blank_button id = ""BlankButton"" onclick = ""blankResponse()"">SKIP</button><p style=""font-size: 2.4rem""><u><b>Current Answer:</b></u></p><br><br><div id=echoed_txt style=""font-size: 5rem; color:blue;""><b></b></div></div>",enter,ospan,retrieval,NPWzWCgPU1bqa3e7Gt7bwehbh8q1,html-keyboard-response,116,548958,0.0-43.0-4.0-0.0-2.0,7,7,7,4.0,"[""C"",""H"",""P"",""G""]","[""C"",""H"",""P"",""G""]",1.0,4.0,,,,,,,5e85f667db8aa41f74436a9f,11:08:40,04/03/2024
626.0,[''],0,ospan,feedback,NPWzWCgPU1bqa3e7Gt7bwehbh8q1,html-button-response,117,550088,0.0-43.0-4.0-0.0-3.0,,,,,,,,,,,,100.0,0.0,,5e85f667db8aa41f74436a9f,11:08:40,04/03/2024
,"<p style=""font-size:75px;"">...</p>",,ospan,iti,NPWzWCgPU1bqa3e7Gt7bwehbh8q1,html-keyboard-response,118,551094,0.0-43.0-4.0-1.0-0.0,,,,,,,,,,,,,,,5e85f667db8aa41f74436a9f,11:08:40,04/03/2024
1195.0,,,ospan,symmetry,NPWzWCgPU1bqa3e7Gt7bwehbh8q1,symmetry-judgement-task,119,553443,0.0-43.0-4.0-1.0-1.0-0.0,,,,,,,,,,1.0,1.0,,,,5e85f667db8aa41f74436a9f,11:08:40,04/03/2024
,"<div style=""font-size: 10rem; color: #0000FF"">K</div>",,ospan,letter,NPWzWCgPU1bqa3e7Gt7bwehbh8q1,html-keyboard-response,120,554447,0.0-43.0-4.0-1.0-1.0-1.0,,,,,,,,,,,,,,,5e85f667db8aa41f74436a9f,11:08:40,04/03/2024
1122.0,,,ospan,symmetry,NPWzWCgPU1bqa3e7Gt7bwehbh8q1,symmetry-judgement-task,121,557464,0.0-43.0-4.0-1.0-1.0-2.0,,,,,,,,,,1.0,1.0,,,,5e85f667db8aa41f74436a9f,11:08:40,04/03/2024
,"<div style=""font-size: 10rem; color: #0000FF"">G</div>",,ospan,letter,NPWzWCgPU1bqa3e7Gt7bwehbh8q1,html-keyboard-response,122,558470,0.0-43.0-4.0-1.0-1.0-3.0,,,,,,,,,,,,,,,5e85f667db8aa41f74436a9f,11:08:40,04/03/2024
648.0,,,ospan,symmetry,NPWzWCgPU1bqa3e7Gt7bwehbh8q1,symmetry-judgement-task,123,561020,0.0-43.0-4.0-1.0-1.0-4.0,,,,,,,,,,1.0,1.0,,,,5e85f667db8aa41f74436a9f,11:08:40,04/03/2024
,"<div style=""font-size: 10rem; color: #0000FF"">N</div>",,ospan,letter,NPWzWCgPU1bqa3e7Gt7bwehbh8q1,html-keyboard-response,124,562025,0.0-43.0-4.0-1.0-1.0-5.0,,,,,,,,,,,,,,,5e85f667db8aa41f74436a9f,11:08:40,04/03/2024
2872.0999999940395,"<div class = numbox><p style=""font-size: 2.4rem"">Please recall the letters you saw to the best of your ability. If you do not remember a particular letter, use the SKIP button.<br><b>(When you are ready to lock in your answer, press ENTER)</b></p><button id = button_1 class = ""square num-button"" onclick = ""recordClick(this)""><div class = content><div class = numbers>C</div></div></button><button id = button_2 class = ""square num-button"" onclick = ""recordClick(this)""><div class = content><div class = numbers>G</div></div></button><button id = button_3 class = ""square num-button"" onclick = ""recordClick(this)""><div class = content><div class = numbers>H</div></div></button><button id = button_4 class = ""square num-button"" onclick = ""recordClick(this)""><div class = content><div class = numbers>J</div></div></button><button id = button_5 class = ""square num-button"" onclick = ""recordClick(this)""><div class = content><div class = numbers>K</div></div></button><button id = button_6 class = ""square num-button"" onclick = ""recordClick(this)""><div class = content><div class = numbers>L</div></div></button><button id = button_7 class = ""square num-button"" onclick = ""recordClick(this)""><div class = content><div class = numbers>N</div></div></button><button id = button_8 class = ""square num-button"" onclick = ""recordClick(this)""><div class = content><div class = numbers>P</div></div></button><button id = button_9 class = ""square num-button"" onclick = ""recordClick(this)""><div class = content><div class = numbers>Q</div></div></button><button id = button_10 class = ""square num-button"" onclick = ""recordClick(this)""><div class = content><div class = numbers>R</div></div></button><button id = button_11 class = ""square num-button"" onclick = ""recordClick(this)""><div class = content><div class = numbers>S</div></div></button><button id = button_12 class = ""square num-button"" onclick = ""recordClick(this)""><div class = content><div class = numbers>Y</div></div></button><button class = clear_button id = ""ClearButton"" onclick = ""clearResponse()"">BACKSPACE</button><button class = blank_button id = ""BlankButton"" onclick = ""blankResponse()"">SKIP</button><p style=""font-size: 2.4rem""><u><b>Current Answer:</b></u></p><br><br><div id=echoed_txt style=""font-size: 5rem; color:blue;""><b></b></div></div>",enter,ospan,retrieval,NPWzWCgPU1bqa3e7Gt7bwehbh8q1,html-keyboard-response,125,565652,0.0-43.0-4.0-1.0-2.0,10,10,10,3.0,"[""K"",""G"",""N""]","[""K"",""G"",""N""]",1.0,3.0,,,,,,,5e85f667db8aa41f74436a9f,11:08:40,04/03/2024
957.4000000059605,[''],0,ospan,feedback,NPWzWCgPU1bqa3e7Gt7bwehbh8q1,html-button-response,126,567115,0.0-43.0-4.0-1.0-3.0,,,,,,,,,,,,100.0,0.0,,5e85f667db8aa41f74436a9f,11:08:40,04/03/2024
,"<p style=""font-size:75px;"">...</p>",,ospan,iti,NPWzWCgPU1bqa3e7Gt7bwehbh8q1,html-keyboard-response,127,568119,0.0-43.0-4.0-2.0-0.0,,,,,,,,,,,,,,,5e85f667db8aa41f74436a9f,11:08:40,04/03/2024
1430.0,,,ospan,symmetry,NPWzWCgPU1bqa3e7Gt7bwehbh8q1,symmetry-judgement-task,128,570705,0.0-43.0-4.0-2.0-1.0-0.0,,,,,,,,,,1.0,1.0,,,,5e85f667db8aa41f74436a9f,11:08:40,04/03/2024
,"<div style=""font-size: 10rem; color: #0000FF"">C</div>",,ospan,letter,NPWzWCgPU1bqa3e7Gt7bwehbh8q1,html-keyboard-response,129,571712,0.0-43.0-4.0-2.0-1.0-1.0,,,,,,,,,,,,,,,5e85f667db8aa41f74436a9f,11:08:40,04/03/2024
1100.0,,,ospan,symmetry,NPWzWCgPU1bqa3e7Gt7bwehbh8q1,symmetry-judgement-task,130,574706,0.0-43.0-4.0-2.0-1.0-2.0,,,,,,,,,,1.0,1.0,,,,5e85f667db8aa41f74436a9f,11:08:40,04/03/2024
,"<div style=""font-size: 10rem; color: #0000FF"">R</div>",,ospan,letter,NPWzWCgPU1bqa3e7Gt7bwehbh8q1,html-keyboard-response,131,575711,0.0-43.0-4.0-2.0-1.0-3.0,,,,,,,,,,,,,,,5e85f667db8aa41f74436a9f,11:08:40,04/03/2024
942.0,,,ospan,symmetry,NPWzWCgPU1bqa3e7Gt7bwehbh8q1,symmetry-judgement-task,132,578550,0.0-43.0-4.0-2.0-1.0-4.0,,,,,,,,,,1.0,1.0,,,,5e85f667db8aa41f74436a9f,11:08:40,04/03/2024
,"<div style=""font-size: 10rem; color: #0000FF"">G</div>",,ospan,letter,NPWzWCgPU1bqa3e7Gt7bwehbh8q1,html-keyboard-response,133,579552,0.0-43.0-4.0-2.0-1.0-5.0,,,,,,,,,,,,,,,5e85f667db8aa41f74436a9f,11:08:40,04/03/2024
1154.0,,,ospan,symmetry,NPWzWCgPU1bqa3e7Gt7bwehbh8q1,symmetry-judgement-task,134,582611,0.0-43.0-4.0-2.0-1.0-6.0,,,,,,,,,,1.0,1.0,,,,5e85f667db8aa41f74436a9f,11:08:40,04/03/2024
,"<div style=""font-size: 10rem; color: #0000FF"">N</div>",,ospan,letter,NPWzWCgPU1bqa3e7Gt7bwehbh8q1,html-keyboard-response,135,583616,0.0-43.0-4.0-2.0-1.0-7.0,,,,,,,,,,,,,,,5e85f667db8aa41f74436a9f,11:08:40,04/03/2024
1426.0,,,ospan,symmetry,NPWzWCgPU1bqa3e7Gt7bwehbh8q1,symmetry-judgement-task,136,586962,0.0-43.0-4.0-2.0-1.0-8.0,,,,,,,,,,1.0,1.0,,,,5e85f667db8aa41f74436a9f,11:08:40,04/03/2024
,"<div style=""font-size: 10rem; color: #0000FF"">S</div>",,ospan,letter,NPWzWCgPU1bqa3e7Gt7bwehbh8q1,html-keyboard-response,137,587968,0.0-43.0-4.0-2.0-1.0-9.0,,,,,,,,,,,,,,,5e85f667db8aa41f74436a9f,11:08:40,04/03/2024
3860.199999988079,"<div class = numbox><p style=""font-size: 2.4rem"">Please recall the letters you saw to the best of your ability. If you do not remember a particular letter, use the SKIP button.<br><b>(When you are ready to lock in your answer, press ENTER)</b></p><button id = button_1 class = ""square num-button"" onclick = ""recordClick(this)""><div class = content><div class = numbers>C</div></div></button><button id = button_2 class = ""square num-button"" onclick = ""recordClick(this)""><div class = content><div class = numbers>G</div></div></button><button id = button_3 class = ""square num-button"" onclick = ""recordClick(this)""><div class = content><div class = numbers>H</div></div></button><button id = button_4 class = ""square num-button"" onclick = ""recordClick(this)""><div class = content><div class = numbers>J</div></div></button><button id = button_5 class = ""square num-button"" onclick = ""recordClick(this)""><div class = content><div class = numbers>K</div></div></button><button id = button_6 class = ""square num-button"" onclick = ""recordClick(this)""><div class = content><div class = numbers>L</div></div></button><button id = button_7 class = ""square num-button"" onclick = ""recordClick(this)""><div class = content><div class = numbers>N</div></div></button><button id = button_8 class = ""square num-button"" onclick = ""recordClick(this)""><div class = content><div class = numbers>P</div></div></button><button id = button_9 class = ""square num-button"" onclick = ""recordClick(this)""><div class = content><div class = numbers>Q</div></div></button><button id = button_10 class = ""square num-button"" onclick = ""recordClick(this)""><div class = content><div class = numbers>R</div></div></button><button id = button_11 class = ""square num-button"" onclick = ""recordClick(this)""><div class = content><div class = numbers>S</div></div></button><button id = button_12 class = ""square num-button"" onclick = ""recordClick(this)""><div class = content><div class = numbers>Y</div></div></button><button class = clear_button id = ""ClearButton"" onclick = ""clearResponse()"">BACKSPACE</button><button class = blank_button id = ""BlankButton"" onclick = ""blankResponse()"">SKIP</button><p style=""font-size: 2.4rem""><u><b>Current Answer:</b></u></p><br><br><div id=echoed_txt style=""font-size: 5rem; color:blue;""><b></b></div></div>",enter,ospan,retrieval,NPWzWCgPU1bqa3e7Gt7bwehbh8q1,html-keyboard-response,138,592581,0.0-43.0-4.0-2.0-2.0,15,15,15,5.0,"[""C"",""R"",""G"",""N"",""S""]","[""C"",""R"",""G"",""N"",""S""]",1.0,5.0,,,,,,,5e85f667db8aa41f74436a9f,11:08:40,04/03/2024
673.5999999940395,[''],0,ospan,feedback,NPWzWCgPU1bqa3e7Gt7bwehbh8q1,html-button-response,139,593761,0.0-43.0-4.0-2.0-3.0,,,,,,,,,,,,100.0,0.0,,5e85f667db8aa41f74436a9f,11:08:40,04/03/2024
,"<p style=""font-size:75px;"">...</p>",,ospan,iti,NPWzWCgPU1bqa3e7Gt7bwehbh8q1,html-keyboard-response,140,594763,0.0-43.0-5.0-0.0-0.0,,,,,,,,,,,,,,,5e85f667db8aa41f74436a9f,11:08:40,04/03/2024
1075.0,,,ospan,symmetry,NPWzWCgPU1bqa3e7Gt7bwehbh8q1,symmetry-judgement-task,141,596989,0.0-43.0-5.0-0.0-1.0-0.0,,,,,,,,,,1.0,1.0,,,,5e85f667db8aa41f74436a9f,11:08:40,04/03/2024
,"<div style=""font-size: 10rem; color: #0000FF"">H</div>",,ospan,letter,NPWzWCgPU1bqa3e7Gt7bwehbh8q1,html-keyboard-response,142,597995,0.0-43.0-5.0-0.0-1.0-1.0,,,,,,,,,,,,,,,5e85f667db8aa41f74436a9f,11:08:40,04/03/2024
1226.0,,,ospan,symmetry,NPWzWCgPU1bqa3e7Gt7bwehbh8q1,symmetry-judgement-task,143,601123,0.0-43.0-5.0-0.0-1.0-2.0,,,,,,,,,,1.0,1.0,,,,5e85f667db8aa41f74436a9f,11:08:40,04/03/2024
,"<div style=""font-size: 10rem; color: #0000FF"">C</div>",,ospan,letter,NPWzWCgPU1bqa3e7Gt7bwehbh8q1,html-keyboard-response,144,602124,0.0-43.0-5.0-0.0-1.0-3.0,,,,,,,,,,,,,,,5e85f667db8aa41f74436a9f,11:08:40,04/03/2024
1212.0,,,ospan,symmetry,NPWzWCgPU1bqa3e7Gt7bwehbh8q1,symmetry-judgement-task,145,605246,0.0-43.0-5.0-0.0-1.0-4.0,,,,,,,,,,1.0,1.0,,,,5e85f667db8aa41f74436a9f,11:08:40,04/03/2024
,"<div style=""font-size: 10rem; color: #0000FF"">P</div>",,ospan,letter,NPWzWCgPU1bqa3e7Gt7bwehbh8q1,html-keyboard-response,146,606252,0.0-43.0-5.0-0.0-1.0-5.0,,,,,,,,,,,,,,,5e85f667db8aa41f74436a9f,11:08:40,04/03/2024
897.0,,,ospan,symmetry,NPWzWCgPU1bqa3e7Gt7bwehbh8q1,symmetry-judgement-task,147,609054,0.0-43.0-5.0-0.0-1.0-6.0,,,,,,,,,,1.0,1.0,,,,5e85f667db8aa41f74436a9f,11:08:40,04/03/2024
,"<div style=""font-size: 10rem; color: #0000FF"">Q</div>",,ospan,letter,NPWzWCgPU1bqa3e7Gt7bwehbh8q1,html-keyboard-response,148,610060,0.0-43.0-5.0-0.0-1.0-7.0,,,,,,,,,,,,,,,5e85f667db8aa41f74436a9f,11:08:40,04/03/2024
974.0,,,ospan,symmetry,NPWzWCgPU1bqa3e7Gt7bwehbh8q1,symmetry-judgement-task,149,612940,0.0-43.0-5.0-0.0-1.0-8.0,,,,,,,,,,1.0,1.0,,,,5e85f667db8aa41f74436a9f,11:08:40,04/03/2024
,"<div style=""font-size: 10rem; color: #0000FF"">S</div>",,ospan,letter,NPWzWCgPU1bqa3e7Gt7bwehbh8q1,html-keyboard-response,150,613946,0.0-43.0-5.0-0.0-1.0-9.0,,,,,,,,,,,,,,,5e85f667db8aa41f74436a9f,11:08:40,04/03/2024
1479.0,,,ospan,symmetry,NPWzWCgPU1bqa3e7Gt7bwehbh8q1,symmetry-judgement-task,151,617340,0.0-43.0-5.0-0.0-1.0-10.0,,,,,,,,,,1.0,1.0,,,,5e85f667db8aa41f74436a9f,11:08:40,04/03/2024
,"<div style=""font-size: 10rem; color: #0000FF"">J</div>",,ospan,letter,NPWzWCgPU1bqa3e7Gt7bwehbh8q1,html-keyboard-response,152,618346,0.0-43.0-5.0-0.0-1.0-11.0,,,,,,,,,,,,,,,5e85f667db8aa41f74436a9f,11:08:40,04/03/2024
5067.9000000059605,"<div class = numbox><p style=""font-size: 2.4rem"">Please recall the letters you saw to the best of your ability. If you do not remember a particular letter, use the SKIP button.<br><b>(When you are ready to lock in your answer, press ENTER)</b></p><button id = button_1 class = ""square num-button"" onclick = ""recordClick(this)""><div class = content><div class = numbers>C</div></div></button><button id = button_2 class = ""square num-button"" onclick = ""recordClick(this)""><div class = content><div class = numbers>G</div></div></button><button id = button_3 class = ""square num-button"" onclick = ""recordClick(this)""><div class = content><div class = numbers>H</div></div></button><button id = button_4 class = ""square num-button"" onclick = ""recordClick(this)""><div class = content><div class = numbers>J</div></div></button><button id = button_5 class = ""square num-button"" onclick = ""recordClick(this)""><div class = content><div class = numbers>K</div></div></button><button id = button_6 class = ""square num-button"" onclick = ""recordClick(this)""><div class = content><div class = numbers>L</div></div></button><button id = button_7 class = ""square num-button"" onclick = ""recordClick(this)""><div class = content><div class = numbers>N</div></div></button><button id = button_8 class = ""square num-button"" onclick = ""recordClick(this)""><div class = content><div class = numbers>P</div></div></button><button id = button_9 class = ""square num-button"" onclick = ""recordClick(this)""><div class = content><div class = numbers>Q</div></div></button><button id = button_10 class = ""square num-button"" onclick = ""recordClick(this)""><div class = content><div class = numbers>R</div></div></button><button id = button_11 class = ""square num-button"" onclick = ""recordClick(this)""><div class = content><div class = numbers>S</div></div></button><button id = button_12 class = ""square num-button"" onclick = ""recordClick(this)""><div class = content><div class = numbers>Y</div></div></button><button class = clear_button id = ""ClearButton"" onclick = ""clearResponse()"">BACKSPACE</button><button class = blank_button id = ""BlankButton"" onclick = ""blankResponse()"">SKIP</button><p style=""font-size: 2.4rem""><u><b>Current Answer:</b></u></p><br><br><div id=echoed_txt style=""font-size: 5rem; color:blue;""><b></b></div></div>",enter,ospan,retrieval,NPWzWCgPU1bqa3e7Gt7bwehbh8q1,html-keyboard-response,153,624170,0.0-43.0-5.0-0.0-2.0,21,21,21,6.0,"[""H"",""C"",""P"",""Q"",""S"",""J""]","[""H"",""C"",""P"",""Q"",""S"",""J""]",1.0,6.0,,,,,,,5e85f667db8aa41f74436a9f,11:08:40,04/03/2024
717.2000000178814,[''],0,ospan,feedback,NPWzWCgPU1bqa3e7Gt7bwehbh8q1,html-button-response,154,625390,0.0-43.0-5.0-0.0-3.0,,,,,,,,,,,,100.0,0.0,,5e85f667db8aa41f74436a9f,11:08:40,04/03/2024
,"<p style=""font-size:75px;"">...</p>",,ospan,iti,NPWzWCgPU1bqa3e7Gt7bwehbh8q1,html-keyboard-response,155,626396,0.0-43.0-5.0-1.0-0.0,,,,,,,,,,,,,,,5e85f667db8aa41f74436a9f,11:08:40,04/03/2024
1180.0,,,ospan,symmetry,NPWzWCgPU1bqa3e7Gt7bwehbh8q1,symmetry-judgement-task,156,628728,0.0-43.0-5.0-1.0-1.0-0.0,,,,,,,,,,1.0,1.0,,,,5e85f667db8aa41f74436a9f,11:08:40,04/03/2024
,"<div style=""font-size: 10rem; color: #0000FF"">N</div>",,ospan,letter,NPWzWCgPU1bqa3e7Gt7bwehbh8q1,html-keyboard-response,157,629729,0.0-43.0-5.0-1.0-1.0-1.0,,,,,,,,,,,,,,,5e85f667db8aa41f74436a9f,11:08:40,04/03/2024
1000.0,,,ospan,symmetry,NPWzWCgPU1bqa3e7Gt7bwehbh8q1,symmetry-judgement-task,158,632627,0.0-43.0-5.0-1.0-1.0-2.0,,,,,,,,,,1.0,1.0,,,,5e85f667db8aa41f74436a9f,11:08:40,04/03/2024
,"<div style=""font-size: 10rem; color: #0000FF"">P</div>",,ospan,letter,NPWzWCgPU1bqa3e7Gt7bwehbh8q1,html-keyboard-response,159,633633,0.0-43.0-5.0-1.0-1.0-3.0,,,,,,,,,,,,,,,5e85f667db8aa41f74436a9f,11:08:40,04/03/2024
1334.0,,,ospan,symmetry,NPWzWCgPU1bqa3e7Gt7bwehbh8q1,symmetry-judgement-task,160,636880,0.0-43.0-5.0-1.0-1.0-4.0,,,,,,,,,,1.0,1.0,,,,5e85f667db8aa41f74436a9f,11:08:40,04/03/2024
,"<div style=""font-size: 10rem; color: #0000FF"">H</div>",,ospan,letter,NPWzWCgPU1bqa3e7Gt7bwehbh8q1,html-keyboard-response,161,637882,0.0-43.0-5.0-1.0-1.0-5.0,,,,,,,,,,,,,,,5e85f667db8aa41f74436a9f,11:08:40,04/03/2024
1021.0,,,ospan,symmetry,NPWzWCgPU1bqa3e7Gt7bwehbh8q1,symmetry-judgement-task,162,640803,0.0-43.0-5.0-1.0-1.0-6.0,,,,,,,,,,1.0,1.0,,,,5e85f667db8aa41f74436a9f,11:08:40,04/03/2024
,"<div style=""font-size: 10rem; color: #0000FF"">Y</div>",,ospan,letter,NPWzWCgPU1bqa3e7Gt7bwehbh8q1,html-keyboard-response,163,641809,0.0-43.0-5.0-1.0-1.0-7.0,,,,,,,,,,,,,,,5e85f667db8aa41f74436a9f,11:08:40,04/03/2024
1563.0,,,ospan,symmetry,NPWzWCgPU1bqa3e7Gt7bwehbh8q1,symmetry-judgement-task,164,645290,0.0-43.0-5.0-1.0-1.0-8.0,,,,,,,,,,1.0,1.0,,,,5e85f667db8aa41f74436a9f,11:08:40,04/03/2024
,"<div style=""font-size: 10rem; color: #0000FF"">R</div>",,ospan,letter,NPWzWCgPU1bqa3e7Gt7bwehbh8q1,html-keyboard-response,165,646296,0.0-43.0-5.0-1.0-1.0-9.0,,,,,,,,,,,,,,,5e85f667db8aa41f74436a9f,11:08:40,04/03/2024
1159.0,,,ospan,symmetry,NPWzWCgPU1bqa3e7Gt7bwehbh8q1,symmetry-judgement-task,166,649353,0.0-43.0-5.0-1.0-1.0-10.0,,,,,,,,,,1.0,1.0,,,,5e85f667db8aa41f74436a9f,11:08:40,04/03/2024
,"<div style=""font-size: 10rem; color: #0000FF"">J</div>",,ospan,letter,NPWzWCgPU1bqa3e7Gt7bwehbh8q1,html-keyboard-response,167,650355,0.0-43.0-5.0-1.0-1.0-11.0,,,,,,,,,,,,,,,5e85f667db8aa41f74436a9f,11:08:40,04/03/2024
1137.0,,,ospan,symmetry,NPWzWCgPU1bqa3e7Gt7bwehbh8q1,symmetry-judgement-task,168,653416,0.0-43.0-5.0-1.0-1.0-12.0,,,,,,,,,,1.0,1.0,,,,5e85f667db8aa41f74436a9f,11:08:40,04/03/2024
,"<div style=""font-size: 10rem; color: #0000FF"">C</div>",,ospan,letter,NPWzWCgPU1bqa3e7Gt7bwehbh8q1,html-keyboard-response,169,654419,0.0-43.0-5.0-1.0-1.0-13.0,,,,,,,,,,,,,,,5e85f667db8aa41f74436a9f,11:08:40,04/03/2024
4610.5,"<div class = numbox><p style=""font-size: 2.4rem"">Please recall the letters you saw to the best of your ability. If you do not remember a particular letter, use the SKIP button.<br><b>(When you are ready to lock in your answer, press ENTER)</b></p><button id = button_1 class = ""square num-button"" onclick = ""recordClick(this)""><div class = content><div class = numbers>C</div></div></button><button id = button_2 class = ""square num-button"" onclick = ""recordClick(this)""><div class = content><div class = numbers>G</div></div></button><button id = button_3 class = ""square num-button"" onclick = ""recordClick(this)""><div class = content><div class = numbers>H</div></div></button><button id = button_4 class = ""square num-button"" onclick = ""recordClick(this)""><div class = content><div class = numbers>J</div></div></button><button id = button_5 class = ""square num-button"" onclick = ""recordClick(this)""><div class = content><div class = numbers>K</div></div></button><button id = button_6 class = ""square num-button"" onclick = ""recordClick(this)""><div class = content><div class = numbers>L</div></div></button><button id = button_7 class = ""square num-button"" onclick = ""recordClick(this)""><div class = content><div class = numbers>N</div></div></button><button id = button_8 class = ""square num-button"" onclick = ""recordClick(this)""><div class = content><div class = numbers>P</div></div></button><button id = button_9 class = ""square num-button"" onclick = ""recordClick(this)""><div class = content><div class = numbers>Q</div></div></button><button id = button_10 class = ""square num-button"" onclick = ""recordClick(this)""><div class = content><div class = numbers>R</div></div></button><button id = button_11 class = ""square num-button"" onclick = ""recordClick(this)""><div class = content><div class = numbers>S</div></div></button><button id = button_12 class = ""square num-button"" onclick = ""recordClick(this)""><div class = content><div class = numbers>Y</div></div></button><button class = clear_button id = ""ClearButton"" onclick = ""clearResponse()"">BACKSPACE</button><button class = blank_button id = ""BlankButton"" onclick = ""blankResponse()"">SKIP</button><p style=""font-size: 2.4rem""><u><b>Current Answer:</b></u></p><br><br><div id=echoed_txt style=""font-size: 5rem; color:blue;""><b></b></div></div>",enter,ospan,retrieval,NPWzWCgPU1bqa3e7Gt7bwehbh8q1,html-keyboard-response,170,659783,0.0-43.0-5.0-1.0-2.0,28,28,28,7.0,"[""N"",""P"",""H"",""Y"",""R"",""J"",""C""]","[""N"",""P"",""H"",""Y"",""R"",""J"",""C""]",1.0,7.0,,,,,,,5e85f667db8aa41f74436a9f,11:08:40,04/03/2024
669.5,[''],0,ospan,feedback,NPWzWCgPU1bqa3e7Gt7bwehbh8q1,html-button-response,171,660954,0.0-43.0-5.0-1.0-3.0,,,,,,,,,,,,100.0,0.0,,5e85f667db8aa41f74436a9f,11:08:40,04/03/2024
,"<p style=""font-size:75px;"">...</p>",,ospan,iti,NPWzWCgPU1bqa3e7Gt7bwehbh8q1,html-keyboard-response,172,661962,0.0-43.0-6.0-0.0-0.0,,,,,,,,,,,,,,,5e85f667db8aa41f74436a9f,11:08:40,04/03/2024
1406.0,,,ospan,symmetry,NPWzWCgPU1bqa3e7Gt7bwehbh8q1,symmetry-judgement-task,173,664522,0.0-43.0-6.0-0.0-1.0-0.0,,,,,,,,,,1.0,1.0,,,,5e85f667db8aa41f74436a9f,11:08:40,04/03/2024
,"<div style=""font-size: 10rem; color: #0000FF"">Y</div>",,ospan,letter,NPWzWCgPU1bqa3e7Gt7bwehbh8q1,html-keyboard-response,174,665524,0.0-43.0-6.0-0.0-1.0-1.0,,,,,,,,,,,,,,,5e85f667db8aa41f74436a9f,11:08:40,04/03/2024
1177.0,,,ospan,symmetry,NPWzWCgPU1bqa3e7Gt7bwehbh8q1,symmetry-judgement-task,175,668598,0.0-43.0-6.0-0.0-1.0-2.0,,,,,,,,,,1.0,1.0,,,,5e85f667db8aa41f74436a9f,11:08:40,04/03/2024
,"<div style=""font-size: 10rem; color: #0000FF"">J</div>",,ospan,letter,NPWzWCgPU1bqa3e7Gt7bwehbh8q1,html-keyboard-response,176,669599,0.0-43.0-6.0-0.0-1.0-3.0,,,,,,,,,,,,,,,5e85f667db8aa41f74436a9f,11:08:40,04/03/2024
894.0,,,ospan,symmetry,NPWzWCgPU1bqa3e7Gt7bwehbh8q1,symmetry-judgement-task,177,672400,0.0-43.0-6.0-0.0-1.0-4.0,,,,,,,,,,1.0,1.0,,,,5e85f667db8aa41f74436a9f,11:08:40,04/03/2024
,"<div style=""font-size: 10rem; color: #0000FF"">G</div>",,ospan,letter,NPWzWCgPU1bqa3e7Gt7bwehbh8q1,html-keyboard-response,178,673402,0.0-43.0-6.0-0.0-1.0-5.0,,,,,,,,,,,,,,,5e85f667db8aa41f74436a9f,11:08:40,04/03/2024
1351.0,,,ospan,symmetry,NPWzWCgPU1bqa3e7Gt7bwehbh8q1,symmetry-judgement-task,179,676665,0.0-43.0-6.0-0.0-1.0-6.0,,,,,,,,,,1.0,1.0,,,,5e85f667db8aa41f74436a9f,11:08:40,04/03/2024
,"<div style=""font-size: 10rem; color: #0000FF"">N</div>",,ospan,letter,NPWzWCgPU1bqa3e7Gt7bwehbh8q1,html-keyboard-response,180,677667,0.0-43.0-6.0-0.0-1.0-7.0,,,,,,,,,,,,,,,5e85f667db8aa41f74436a9f,11:08:40,04/03/2024
794.0,,,ospan,symmetry,NPWzWCgPU1bqa3e7Gt7bwehbh8q1,symmetry-judgement-task,181,680370,0.0-43.0-6.0-0.0-1.0-8.0,,,,,,,,,,1.0,1.0,,,,5e85f667db8aa41f74436a9f,11:08:40,04/03/2024
,"<div style=""font-size: 10rem; color: #0000FF"">L</div>",,ospan,letter,NPWzWCgPU1bqa3e7Gt7bwehbh8q1,html-keyboard-response,182,681372,0.0-43.0-6.0-0.0-1.0-9.0,,,,,,,,,,,,,,,5e85f667db8aa41f74436a9f,11:08:40,04/03/2024
5406.5999999940395,"<div class = numbox><p style=""font-size: 2.4rem"">Please recall the letters you saw to the best of your ability. If you do not remember a particular letter, use the SKIP button.<br><b>(When you are ready to lock in your answer, press ENTER)</b></p><button id = button_1 class = ""square num-button"" onclick = ""recordClick(this)""><div class = content><div class = numbers>C</div></div></button><button id = button_2 class = ""square num-button"" onclick = ""recordClick(this)""><div class = content><div class = numbers>G</div></div></button><button id = button_3 class = ""square num-button"" onclick = ""recordClick(this)""><div class = content><div class = numbers>H</div></div></button><button id = button_4 class = ""square num-button"" onclick = ""recordClick(this)""><div class = content><div class = numbers>J</div></div></button><button id = button_5 class = ""square num-button"" onclick = ""recordClick(this)""><div class = content><div class = numbers>K</div></div></button><button id = button_6 class = ""square num-button"" onclick = ""recordClick(this)""><div class = content><div class = numbers>L</div></div></button><button id = button_7 class = ""square num-button"" onclick = ""recordClick(this)""><div class = content><div class = numbers>N</div></div></button><button id = button_8 class = ""square num-button"" onclick = ""recordClick(this)""><div class = content><div class = numbers>P</div></div></button><button id = button_9 class = ""square num-button"" onclick = ""recordClick(this)""><div class = content><div class = numbers>Q</div></div></button><button id = button_10 class = ""square num-button"" onclick = ""recordClick(this)""><div class = content><div class = numbers>R</div></div></button><button id = button_11 class = ""square num-button"" onclick = ""recordClick(this)""><div class = content><div class = numbers>S</div></div></button><button id = button_12 class = ""square num-button"" onclick = ""recordClick(this)""><div class = content><div class = numbers>Y</div></div></button><button class = clear_button id = ""ClearButton"" onclick = ""clearResponse()"">BACKSPACE</button><button class = blank_button id = ""BlankButton"" onclick = ""blankResponse()"">SKIP</button><p style=""font-size: 2.4rem""><u><b>Current Answer:</b></u></p><br><br><div id=echoed_txt style=""font-size: 5rem; color:blue;""><b></b></div></div>",enter,ospan,retrieval,NPWzWCgPU1bqa3e7Gt7bwehbh8q1,html-keyboard-response,183,687535,0.0-43.0-6.0-0.0-2.0,33,33,33,5.0,"[""Y"",""J"",""G"",""N"",""L""]","[""Y"",""J"",""G"",""N"",""L""]",1.0,5.0,,,,,,,5e85f667db8aa41f74436a9f,11:08:40,04/03/2024
368.59999999403954,[''],0,ospan,feedback,NPWzWCgPU1bqa3e7Gt7bwehbh8q1,html-button-response,184,688407,0.0-43.0-6.0-0.0-3.0,,,,,,,,,,,,100.0,0.0,,5e85f667db8aa41f74436a9f,11:08:40,04/03/2024
,"<p style=""font-size:75px;"">...</p>",,ospan,iti,NPWzWCgPU1bqa3e7Gt7bwehbh8q1,html-keyboard-response,185,689413,0.0-43.0-6.0-1.0-0.0,,,,,,,,,,,,,,,5e85f667db8aa41f74436a9f,11:08:40,04/03/2024
1214.0,,,ospan,symmetry,NPWzWCgPU1bqa3e7Gt7bwehbh8q1,symmetry-judgement-task,186,691770,0.0-43.0-6.0-1.0-1.0-0.0,,,,,,,,,,1.0,1.0,,,,5e85f667db8aa41f74436a9f,11:08:40,04/03/2024
,"<div style=""font-size: 10rem; color: #0000FF"">J</div>",,ospan,letter,NPWzWCgPU1bqa3e7Gt7bwehbh8q1,html-keyboard-response,187,692777,0.0-43.0-6.0-1.0-1.0-1.0,,,,,,,,,,,,,,,5e85f667db8aa41f74436a9f,11:08:40,04/03/2024
1070.0,,,ospan,symmetry,NPWzWCgPU1bqa3e7Gt7bwehbh8q1,symmetry-judgement-task,188,695748,0.0-43.0-6.0-1.0-1.0-2.0,,,,,,,,,,1.0,1.0,,,,5e85f667db8aa41f74436a9f,11:08:40,04/03/2024
,"<div style=""font-size: 10rem; color: #0000FF"">G</div>",,ospan,letter,NPWzWCgPU1bqa3e7Gt7bwehbh8q1,html-keyboard-response,189,696754,0.0-43.0-6.0-1.0-1.0-3.0,,,,,,,,,,,,,,,5e85f667db8aa41f74436a9f,11:08:40,04/03/2024
561.0,,,ospan,symmetry,NPWzWCgPU1bqa3e7Gt7bwehbh8q1,symmetry-judgement-task,190,699221,0.0-43.0-6.0-1.0-1.0-4.0,,,,,,,,,,1.0,1.0,,,,5e85f667db8aa41f74436a9f,11:08:40,04/03/2024
,"<div style=""font-size: 10rem; color: #0000FF"">P</div>",,ospan,letter,NPWzWCgPU1bqa3e7Gt7bwehbh8q1,html-keyboard-response,191,700227,0.0-43.0-6.0-1.0-1.0-5.0,,,,,,,,,,,,,,,5e85f667db8aa41f74436a9f,11:08:40,04/03/2024
857.0,,,ospan,symmetry,NPWzWCgPU1bqa3e7Gt7bwehbh8q1,symmetry-judgement-task,192,702987,0.0-43.0-6.0-1.0-1.0-6.0,,,,,,,,,,1.0,1.0,,,,5e85f667db8aa41f74436a9f,11:08:40,04/03/2024
,"<div style=""font-size: 10rem; color: #0000FF"">C</div>",,ospan,letter,NPWzWCgPU1bqa3e7Gt7bwehbh8q1,html-keyboard-response,193,703989,0.0-43.0-6.0-1.0-1.0-7.0,,,,,,,,,,,,,,,5e85f667db8aa41f74436a9f,11:08:40,04/03/2024
1953.0,,,ospan,symmetry,NPWzWCgPU1bqa3e7Gt7bwehbh8q1,symmetry-judgement-task,194,707848,0.0-43.0-6.0-1.0-1.0-8.0,,,,,,,,,,1.0,1.0,,,,5e85f667db8aa41f74436a9f,11:08:40,04/03/2024
,"<div style=""font-size: 10rem; color: #0000FF"">L</div>",,ospan,letter,NPWzWCgPU1bqa3e7Gt7bwehbh8q1,html-keyboard-response,195,708851,0.0-43.0-6.0-1.0-1.0-9.0,,,,,,,,,,,,,,,5e85f667db8aa41f74436a9f,11:08:40,04/03/2024
1966.0,,,ospan,symmetry,NPWzWCgPU1bqa3e7Gt7bwehbh8q1,symmetry-judgement-task,196,712716,0.0-43.0-6.0-1.0-1.0-10.0,,,,,,,,,,1.0,1.0,,,,5e85f667db8aa41f74436a9f,11:08:40,04/03/2024
,"<div style=""font-size: 10rem; color: #0000FF"">R</div>",,ospan,letter,NPWzWCgPU1bqa3e7Gt7bwehbh8q1,html-keyboard-response,197,713722,0.0-43.0-6.0-1.0-1.0-11.0,,,,,,,,,,,,,,,5e85f667db8aa41f74436a9f,11:08:40,04/03/2024
2125.0,,,ospan,symmetry,NPWzWCgPU1bqa3e7Gt7bwehbh8q1,symmetry-judgement-task,198,717757,0.0-43.0-6.0-1.0-1.0-12.0,,,,,,,,,,1.0,1.0,,,,5e85f667db8aa41f74436a9f,11:08:40,04/03/2024
,"<div style=""font-size: 10rem; color: #0000FF"">K</div>",,ospan,letter,NPWzWCgPU1bqa3e7Gt7bwehbh8q1,html-keyboard-response,199,718759,0.0-43.0-6.0-1.0-1.0-13.0,,,,,,,,,,,,,,,5e85f667db8aa41f74436a9f,11:08:40,04/03/2024
2834.0,,,ospan,symmetry,NPWzWCgPU1bqa3e7Gt7bwehbh8q1,symmetry-judgement-task,200,723496,0.0-43.0-6.0-1.0-1.0-14.0,,,,,,,,,,1.0,1.0,,,,5e85f667db8aa41f74436a9f,11:08:40,04/03/2024
,"<div style=""font-size: 10rem; color: #0000FF"">H</div>",,ospan,letter,NPWzWCgPU1bqa3e7Gt7bwehbh8q1,html-keyboard-response,201,724501,0.0-43.0-6.0-1.0-1.0-15.0,,,,,,,,,,,,,,,5e85f667db8aa41f74436a9f,11:08:40,04/03/2024
501341.2999999821,"<div class = numbox><p style=""font-size: 2.4rem"">Please recall the letters you saw to the best of your ability. If you do not remember a particular letter, use the SKIP button.<br><b>(When you are ready to lock in your answer, press ENTER)</b></p><button id = button_1 class = ""square num-button"" onclick = ""recordClick(this)""><div class = content><div class = numbers>C</div></div></button><button id = button_2 class = ""square num-button"" onclick = ""recordClick(this)""><div class = content><div class = numbers>G</div></div></button><button id = button_3 class = ""square num-button"" onclick = ""recordClick(this)""><div class = content><div class = numbers>H</div></div></button><button id = button_4 class = ""square num-button"" onclick = ""recordClick(this)""><div class = content><div class = numbers>J</div></div></button><button id = button_5 class = ""square num-button"" onclick = ""recordClick(this)""><div class = content><div class = numbers>K</div></div></button><button id = button_6 class = ""square num-button"" onclick = ""recordClick(this)""><div class = content><div class = numbers>L</div></div></button><button id = button_7 class = ""square num-button"" onclick = ""recordClick(this)""><div class = content><div class = numbers>N</div></div></button><button id = button_8 class = ""square num-button"" onclick = ""recordClick(this)""><div class = content><div class = numbers>P</div></div></button><button id = button_9 class = ""square num-button"" onclick = ""recordClick(this)""><div class = content><div class = numbers>Q</div></div></button><button id = button_10 class = ""square num-button"" onclick = ""recordClick(this)""><div class = content><div class = numbers>R</div></div></button><button id = button_11 class = ""square num-button"" onclick = ""recordClick(this)""><div class = content><div class = numbers>S</div></div></button><button id = button_12 class = ""square num-button"" onclick = ""recordClick(this)""><div class = content><div class = numbers>Y</div></div></button><button class = clear_button id = ""ClearButton"" onclick = ""clearResponse()"">BACKSPACE</button><button class = blank_button id = ""BlankButton"" onclick = ""blankResponse()"">SKIP</button><p style=""font-size: 2.4rem""><u><b>Current Answer:</b></u></p><br><br><div id=echoed_txt style=""font-size: 5rem; color:blue;""><b></b></div></div>",enter,ospan,retrieval,NPWzWCgPU1bqa3e7Gt7bwehbh8q1,html-keyboard-response,202,1226607,0.0-43.0-6.0-1.0-2.0,41,40,33,8.0,"[""J"",""G"",""P"",""C"",""L"",""R"",""K""]","[""J"",""G"",""P"",""C"",""L"",""R"",""K"",""H""]",0.0,7.0,,,,,,,5e85f667db8aa41f74436a9f,11:08:40,04/03/2024
1412.4000000059605,[''],0,ospan,feedback,NPWzWCgPU1bqa3e7Gt7bwehbh8q1,html-button-response,203,1228524,0.0-43.0-6.0-1.0-3.0,,,,,,,,,,,,100.0,0.0,,5e85f667db8aa41f74436a9f,11:08:40,04/03/2024
12375.100000023842,,{'Q0': 'Enhoyed the task - v difficult!'},ospan,survey,NPWzWCgPU1bqa3e7Gt7bwehbh8q1,lmdlab-survey-text,204,1241655,0.0-43.0-7.0,,,,,,,,,,,,,,NPWzWCgPU1bqa3e7Gt7bwehbh8q1,5e85f667db8aa41f74436a9f,11:08:40,04/03/2024
1140.4000000059605,<p><p style='font-size: 3rem'>Great work!<br><br>This completes the symmetry and memory task.</p><br><br><br>,0,ospan,finish,NPWzWCgPU1bqa3e7Gt7bwehbh8q1,html-button-response,205,1242798,0.0-43.0-8.0,41,40,33,,,,,,,,,100.0,,,5e85f667db8aa41f74436a9f,11:08:40,04/03/2024
