rt,stimulus,response,exp_name,exp_stage,subjectID,trial_type,trial_index,time_elapsed,internal_node_id,ospan_shown,ospan_total,ospan_abs,length,resp_actual,resp_correct,full_correct,num_correct,feedback,accuracy,correct,math_acc,math_warning,databaseID,prolificID,start_time,date
5449.5,<div class = 'left_align' style='font-size: 3.25rem; line-height: 1.3;'><p class = 'center_align'><b>Welcome to the Symmetry and Memory Task</b><br><br><br><br></p>Press 'continue' to show the instructions.<br><br><br><br></div>,0,ospan,instruct,mEfv53Q8X8O6FKBkjztVMOKuXTp2,html-button-response,51,860561,0.0-43.0-0.0-0.0-0.0,,,,,,,,,,,,,,,%2065bfb41fd7a1911a6a7db2c3,10:55:58,12/03/2024
16204.0,"<div class = 'left_align' style='font-size: 3.25rem; line-height: 1.3;'><p class = 'center_align'><b>Symmetry and Memory Task</b><br><br></p>In this task, you will try to memorize letters you see on the screen<br>while you also view black and white grid pictures.<br><br>In the next few minutes, you will have some practice to get you familiar<br>with how the task works.<br><br>It may be difficult sometimes, but please do not worry about making mistakes!<br><br>We will begin by practicing the letter part of the task.<br><br><br><br></div>",0,ospan,instruct,mEfv53Q8X8O6FKBkjztVMOKuXTp2,html-button-response,52,877032,0.0-43.0-0.0-0.0-1.0,,,,,,,,,,,,,,,%2065bfb41fd7a1911a6a7db2c3,10:55:58,12/03/2024
15929.400000035763,"<div class = 'left_align' style='font-size: 3.25rem; line-height: 1.3;'>For this practice part, letters will appear on the screen one at a time.<br><br>Try to remember each letter in the order presented.<br><br>After some letters have been shown, you will see a response screen. Your<br>goal is to report the letters you saw <b>in order</b>. If you do not remember<br>a particular letter, you will have the option to leave it blank.<br><br><br><br></div>",0,ospan,instruct,mEfv53Q8X8O6FKBkjztVMOKuXTp2,html-button-response,53,893223,0.0-43.0-0.0-0.0-2.0,,,,,,,,,,,,,,,%2065bfb41fd7a1911a6a7db2c3,10:55:58,12/03/2024
6934.800000011921,"<div class = 'left_align' style='font-size: 3.25rem; line-height: 1.3;'>Remember, it is very important to get the letters in the same<br>order as you see them.<br><br>When you are ready, you may begin the letter practice.</div><br><br><br><br>",0,ospan,instruct,mEfv53Q8X8O6FKBkjztVMOKuXTp2,html-button-response,54,900412,0.0-43.0-0.0-0.0-3.0,,,,,,,,,,,,,,,%2065bfb41fd7a1911a6a7db2c3,10:55:58,12/03/2024
,"<p style=""font-size:75px;"">...</p>",,ospan,iti,mEfv53Q8X8O6FKBkjztVMOKuXTp2,html-keyboard-response,55,901671,0.0-43.0-0.0-1.0-0.0,,,,,,,,,,,,,,,%2065bfb41fd7a1911a6a7db2c3,10:55:58,12/03/2024
,"<div style=""font-size: 10rem; color: #0000FF"">L</div>",,ospan,letter,mEfv53Q8X8O6FKBkjztVMOKuXTp2,html-keyboard-response,56,902686,0.0-43.0-0.0-1.0-1.0,,,,,,,,,,,,,,,%2065bfb41fd7a1911a6a7db2c3,10:55:58,12/03/2024
,"<div style=""font-size: 10rem; color: #0000FF"">N</div>",,ospan,letter,mEfv53Q8X8O6FKBkjztVMOKuXTp2,html-keyboard-response,57,904454,0.0-43.0-0.0-1.0-2.0,,,,,,,,,,,,,,,%2065bfb41fd7a1911a6a7db2c3,10:55:58,12/03/2024
10442.700000047684,"<div class = numbox><p style=""font-size: 2.4rem"">Please recall the letters you saw to the best of your ability. If you do not remember a particular letter, use the SKIP button.<br><b>(When you are ready to lock in your answer, press ENTER)</b></p><button id = button_1 class = ""square num-button"" onclick = ""recordClick(this)""><div class = content><div class = numbers>C</div></div></button><button id = button_2 class = ""square num-button"" onclick = ""recordClick(this)""><div class = content><div class = numbers>G</div></div></button><button id = button_3 class = ""square num-button"" onclick = ""recordClick(this)""><div class = content><div class = numbers>H</div></div></button><button id = button_4 class = ""square num-button"" onclick = ""recordClick(this)""><div class = content><div class = numbers>J</div></div></button><button id = button_5 class = ""square num-button"" onclick = ""recordClick(this)""><div class = content><div class = numbers>K</div></div></button><button id = button_6 class = ""square num-button"" onclick = ""recordClick(this)""><div class = content><div class = numbers>L</div></div></button><button id = button_7 class = ""square num-button"" onclick = ""recordClick(this)""><div class = content><div class = numbers>N</div></div></button><button id = button_8 class = ""square num-button"" onclick = ""recordClick(this)""><div class = content><div class = numbers>P</div></div></button><button id = button_9 class = ""square num-button"" onclick = ""recordClick(this)""><div class = content><div class = numbers>Q</div></div></button><button id = button_10 class = ""square num-button"" onclick = ""recordClick(this)""><div class = content><div class = numbers>R</div></div></button><button id = button_11 class = ""square num-button"" onclick = ""recordClick(this)""><div class = content><div class = numbers>S</div></div></button><button id = button_12 class = ""square num-button"" onclick = ""recordClick(this)""><div class = content><div class = numbers>Y</div></div></button><button class = clear_button id = ""ClearButton"" onclick = ""clearResponse()"">BACKSPACE</button><button class = blank_button id = ""BlankButton"" onclick = ""blankResponse()"">SKIP</button><p style=""font-size: 2.4rem""><u><b>Current Answer:</b></u></p><br><br><div id=echoed_txt style=""font-size: 5rem; color:blue;""><b></b></div></div>",enter,ospan,retrieval,mEfv53Q8X8O6FKBkjztVMOKuXTp2,html-keyboard-response,58,915652,0.0-43.0-0.0-1.0-3.0,NA,NA,NA,2.0,"[""L"",""N""]","[""L"",""N""]",1.0,2.0,"['<font color=""green"">L</font>', '<font color=""green"">N</font>']",,,,,,%2065bfb41fd7a1911a6a7db2c3,10:55:58,12/03/2024
3036.099999964237,"['<p style=""font-size:44px"">Letters:<br><br><br><font color=""green"">L</font> <font color=""green"">N</font></p><br><br>']",0,ospan,practice_feedback,mEfv53Q8X8O6FKBkjztVMOKuXTp2,html-button-response,59,919202,0.0-43.0-0.0-1.0-4.0,,,,,,,,,,,,,,,%2065bfb41fd7a1911a6a7db2c3,10:55:58,12/03/2024
,"<p style=""font-size:75px;"">...</p>",,ospan,iti,mEfv53Q8X8O6FKBkjztVMOKuXTp2,html-keyboard-response,60,920213,0.0-43.0-0.0-2.0-0.0,,,,,,,,,,,,,,,%2065bfb41fd7a1911a6a7db2c3,10:55:58,12/03/2024
,"<div style=""font-size: 10rem; color: #0000FF"">P</div>",,ospan,letter,mEfv53Q8X8O6FKBkjztVMOKuXTp2,html-keyboard-response,61,921219,0.0-43.0-0.0-2.0-1.0,,,,,,,,,,,,,,,%2065bfb41fd7a1911a6a7db2c3,10:55:58,12/03/2024
,"<div style=""font-size: 10rem; color: #0000FF"">L</div>",,ospan,letter,mEfv53Q8X8O6FKBkjztVMOKuXTp2,html-keyboard-response,62,922980,0.0-43.0-0.0-2.0-2.0,,,,,,,,,,,,,,,%2065bfb41fd7a1911a6a7db2c3,10:55:58,12/03/2024
,"<div style=""font-size: 10rem; color: #0000FF"">Y</div>",,ospan,letter,mEfv53Q8X8O6FKBkjztVMOKuXTp2,html-keyboard-response,63,924743,0.0-43.0-0.0-2.0-3.0,,,,,,,,,,,,,,,%2065bfb41fd7a1911a6a7db2c3,10:55:58,12/03/2024
7264.399999976158,"<div class = numbox><p style=""font-size: 2.4rem"">Please recall the letters you saw to the best of your ability. If you do not remember a particular letter, use the SKIP button.<br><b>(When you are ready to lock in your answer, press ENTER)</b></p><button id = button_1 class = ""square num-button"" onclick = ""recordClick(this)""><div class = content><div class = numbers>C</div></div></button><button id = button_2 class = ""square num-button"" onclick = ""recordClick(this)""><div class = content><div class = numbers>G</div></div></button><button id = button_3 class = ""square num-button"" onclick = ""recordClick(this)""><div class = content><div class = numbers>H</div></div></button><button id = button_4 class = ""square num-button"" onclick = ""recordClick(this)""><div class = content><div class = numbers>J</div></div></button><button id = button_5 class = ""square num-button"" onclick = ""recordClick(this)""><div class = content><div class = numbers>K</div></div></button><button id = button_6 class = ""square num-button"" onclick = ""recordClick(this)""><div class = content><div class = numbers>L</div></div></button><button id = button_7 class = ""square num-button"" onclick = ""recordClick(this)""><div class = content><div class = numbers>N</div></div></button><button id = button_8 class = ""square num-button"" onclick = ""recordClick(this)""><div class = content><div class = numbers>P</div></div></button><button id = button_9 class = ""square num-button"" onclick = ""recordClick(this)""><div class = content><div class = numbers>Q</div></div></button><button id = button_10 class = ""square num-button"" onclick = ""recordClick(this)""><div class = content><div class = numbers>R</div></div></button><button id = button_11 class = ""square num-button"" onclick = ""recordClick(this)""><div class = content><div class = numbers>S</div></div></button><button id = button_12 class = ""square num-button"" onclick = ""recordClick(this)""><div class = content><div class = numbers>Y</div></div></button><button class = clear_button id = ""ClearButton"" onclick = ""clearResponse()"">BACKSPACE</button><button class = blank_button id = ""BlankButton"" onclick = ""blankResponse()"">SKIP</button><p style=""font-size: 2.4rem""><u><b>Current Answer:</b></u></p><br><br><div id=echoed_txt style=""font-size: 5rem; color:blue;""><b></b></div></div>",enter,ospan,retrieval,mEfv53Q8X8O6FKBkjztVMOKuXTp2,html-keyboard-response,64,932772,0.0-43.0-0.0-2.0-4.0,NA,NA,NA,3.0,"[""P"",""L"",""Y""]","[""P"",""L"",""Y""]",1.0,3.0,"['<font color=""green"">P</font>', '<font color=""green"">L</font>', '<font color=""green"">Y</font>']",,,,,,%2065bfb41fd7a1911a6a7db2c3,10:55:58,12/03/2024
2399.800000011921,"['<p style=""font-size:44px"">Letters:<br><br><br><font color=""green"">P</font> <font color=""green"">L</font> <font color=""green"">Y</font></p><br><br>']",0,ospan,practice_feedback,mEfv53Q8X8O6FKBkjztVMOKuXTp2,html-button-response,65,935681,0.0-43.0-0.0-2.0-5.0,,,,,,,,,,,,,,,%2065bfb41fd7a1911a6a7db2c3,10:55:58,12/03/2024
42429.69999998808,"<div class = 'left_align' style='font-size: 3.25rem; line-height: 1.3;'>Now you will practice doing the <b>symmetry judgment part</b> of the experiment.<br><br>A black and white grid picture will appear on the screen and you have to judge if it is <br>symmetrical or asymetrical.<br><br>A picture is 'mirror' symmetrical if its left half is identical to the right half when flipped.<br>Here are examples of a symmetrical and an asymetrical picture:<br><br><center><img src='Stimuli/img/symm_instructions_extra.png' style='height:420px; width:900'></img></center><br>To judge symmetry, imagine you were to fold each picture down the middle, like a book –<br>would the left half match the right half when folded onto each other?<br><br></div><br>",0,ospan,instruct,mEfv53Q8X8O6FKBkjztVMOKuXTp2,html-button-response,66,978119,0.0-43.0-1.0-0.0-0.0,,,,,,,,,,,,,,,%2065bfb41fd7a1911a6a7db2c3,10:55:58,12/03/2024
9330.600000023842,"<div class = 'left_align' style='font-size: 3.25rem; line-height: 1.3;'>When you have viewed the picture and determined whether it is symmetrical or not,<br>you can <b>click the Yes or No button</b> below to answer.<br><br>If you take longer than 15 seconds, it will continue automatically<br>and record the answer as an error.</div><br>",0,ospan,instruct,mEfv53Q8X8O6FKBkjztVMOKuXTp2,html-button-response,67,987712,0.0-43.0-1.0-0.0-1.0,,,,,,,,,,,,,,,%2065bfb41fd7a1911a6a7db2c3,10:55:58,12/03/2024
7686.899999976158,"<div class = 'left_align' style='font-size: 3.25rem; line-height: 1.3;'>It is <b>very</b> important that you make the symmetry judgment correctly.<br><br>It is also important that you try and judge the picture as quickly as you can.<br><br>When you are ready, click on the button below to try some practice problems.</div><br><br><br><br>",0,ospan,instruct,mEfv53Q8X8O6FKBkjztVMOKuXTp2,html-button-response,68,995660,0.0-43.0-1.0-0.0-2.0,,,,,,,,,,,,,,,%2065bfb41fd7a1911a6a7db2c3,10:55:58,12/03/2024
3100.0,,,ospan,symmetry,mEfv53Q8X8O6FKBkjztVMOKuXTp2,symmetry-judgement-task,69,999595,0.0-43.0-1.0-1.0-0.0,,,,,,,,,,1.0,1.0,,,,%2065bfb41fd7a1911a6a7db2c3,10:55:58,12/03/2024
,"<p style=""color:green; font-size: 35px"">Correct</p>",,ospan,feedback,mEfv53Q8X8O6FKBkjztVMOKuXTp2,html-keyboard-response,70,1000362,0.0-43.0-1.0-1.0-1.0,,,,,,,,,,,,,,,%2065bfb41fd7a1911a6a7db2c3,10:55:58,12/03/2024
3834.0,,,ospan,symmetry,mEfv53Q8X8O6FKBkjztVMOKuXTp2,symmetry-judgement-task,71,1006900,0.0-43.0-1.0-1.0-2.0,,,,,,,,,,1.0,1.0,,,,%2065bfb41fd7a1911a6a7db2c3,10:55:58,12/03/2024
,"<p style=""color:green; font-size: 35px"">Correct</p>",,ospan,feedback,mEfv53Q8X8O6FKBkjztVMOKuXTp2,html-keyboard-response,72,1007666,0.0-43.0-1.0-1.0-3.0,,,,,,,,,,,,,,,%2065bfb41fd7a1911a6a7db2c3,10:55:58,12/03/2024
2524.0,,,ospan,symmetry,mEfv53Q8X8O6FKBkjztVMOKuXTp2,symmetry-judgement-task,73,1012890,0.0-43.0-1.0-1.0-4.0,,,,,,,,,,1.0,1.0,,,,%2065bfb41fd7a1911a6a7db2c3,10:55:58,12/03/2024
,"<p style=""color:green; font-size: 35px"">Correct</p>",,ospan,feedback,mEfv53Q8X8O6FKBkjztVMOKuXTp2,html-keyboard-response,74,1013647,0.0-43.0-1.0-1.0-5.0,,,,,,,,,,,,,,,%2065bfb41fd7a1911a6a7db2c3,10:55:58,12/03/2024
2604.5,"<p style=""font-size: 3rem;"">You responded correctly on 3 of 3 symmetry judgments. Good job!</p><br><br>",0,ospan,practice,mEfv53Q8X8O6FKBkjztVMOKuXTp2,html-button-response,75,1018263,0.0-43.0-1.0-2.0,,,,,,,,,,,,,,,%2065bfb41fd7a1911a6a7db2c3,10:55:58,12/03/2024
18188.599999964237,"<div class = 'left_align' style='font-size: 3.25rem; line-height: 1.3;'>Now you will practice doing both parts of the experiment at the same time.<br><br>In the next practice set, you will be given one grid picture to judge.<br>Then letter will appear on the screen. Try to remember the letter.<br><br>It is <b>very important</b> to make the symmetry judgment as quickly and accurately as possible.<br><br>Just as before, once you have make the symmetry judgment, you can click Yes or No.<br><b>Note that you will no longer see Correct or Incorrect feedback.</div><br><br><br><br>",0,ospan,instruct,mEfv53Q8X8O6FKBkjztVMOKuXTp2,html-button-response,76,1036720,0.0-43.0-2.0-0.0-0.0,,,,,,,,,,,,,,,%2065bfb41fd7a1911a6a7db2c3,10:55:58,12/03/2024
23481.099999964237,"<div class = 'left_align' style='font-size: 3.25rem; line-height: 1.3;'>After the letter goes away, another grid picture will appear, and then<br>another letter.<br><br>At the end of each set of letters and grids, you will recall the letters to the best<br>of your ability. Remember, try your best to get the letters in the correct order.<br><br>It is important to <b>quickly</b> and <b>accurately</b> make the symmetry judgments.</div><br><br><br><br>",0,ospan,instruct,mEfv53Q8X8O6FKBkjztVMOKuXTp2,html-button-response,77,1060465,0.0-43.0-2.0-0.0-1.0,,,,,,,,,,,,,,,%2065bfb41fd7a1911a6a7db2c3,10:55:58,12/03/2024
18487.600000023842,"<div class = 'left_align' style='font-size: 3.25rem; line-height: 1.3;'>On the feedback screen, if you are not doing well at the symmetry judgments,<br>you will also see a warning in the middle. This indicates your percent <br>correct for the grid pictures for the entire experiment.<br><br>It is <b>very</b> important for you to keep accuracy at least at 85%: <u>We can only use<br>data where the participant was at least 85% accurate on the judgments.</u> Therefore,<br> please try your best to perform well on the symmetry judgments, <b>at the same time</b><br>doing your best to recall as many letters as possible.<br><br>Click the button to try some practice problems.</div><br><br><br><br>",0,ospan,instruct,mEfv53Q8X8O6FKBkjztVMOKuXTp2,html-button-response,78,1079211,0.0-43.0-2.0-0.0-2.0,,,,,,,,,,,,,,,%2065bfb41fd7a1911a6a7db2c3,10:55:58,12/03/2024
,"<p style=""font-size:75px;"">...</p>",,ospan,iti,mEfv53Q8X8O6FKBkjztVMOKuXTp2,html-keyboard-response,79,1080478,0.0-43.0-2.0-1.0-0.0,,,,,,,,,,,,,,,%2065bfb41fd7a1911a6a7db2c3,10:55:58,12/03/2024
3101.0,,,ospan,symmetry,mEfv53Q8X8O6FKBkjztVMOKuXTp2,symmetry-judgement-task,80,1084749,0.0-43.0-2.0-1.0-1.0-0.0,,,,,,,,,,1.0,1.0,,,,%2065bfb41fd7a1911a6a7db2c3,10:55:58,12/03/2024
,"<div style=""font-size: 10rem; color: #0000FF"">C</div>",,ospan,letter,mEfv53Q8X8O6FKBkjztVMOKuXTp2,html-keyboard-response,81,1085758,0.0-43.0-2.0-1.0-1.0-1.0,,,,,,,,,,,,,,,%2065bfb41fd7a1911a6a7db2c3,10:55:58,12/03/2024
4956.0,,,ospan,symmetry,mEfv53Q8X8O6FKBkjztVMOKuXTp2,symmetry-judgement-task,82,1092644,0.0-43.0-2.0-1.0-1.0-2.0,,,,,,,,,,1.0,1.0,,,,%2065bfb41fd7a1911a6a7db2c3,10:55:58,12/03/2024
,"<div style=""font-size: 10rem; color: #0000FF"">S</div>",,ospan,letter,mEfv53Q8X8O6FKBkjztVMOKuXTp2,html-keyboard-response,83,1093648,0.0-43.0-2.0-1.0-1.0-3.0,,,,,,,,,,,,,,,%2065bfb41fd7a1911a6a7db2c3,10:55:58,12/03/2024
3687.0,,,ospan,symmetry,mEfv53Q8X8O6FKBkjztVMOKuXTp2,symmetry-judgement-task,84,1099273,0.0-43.0-2.0-1.0-1.0-4.0,,,,,,,,,,1.0,1.0,,,,%2065bfb41fd7a1911a6a7db2c3,10:55:58,12/03/2024
,"<div style=""font-size: 10rem; color: #0000FF"">K</div>",,ospan,letter,mEfv53Q8X8O6FKBkjztVMOKuXTp2,html-keyboard-response,85,1100282,0.0-43.0-2.0-1.0-1.0-5.0,,,,,,,,,,,,,,,%2065bfb41fd7a1911a6a7db2c3,10:55:58,12/03/2024
19519.80000001192,"<div class = numbox><p style=""font-size: 2.4rem"">Please recall the letters you saw to the best of your ability. If you do not remember a particular letter, use the SKIP button.<br><b>(When you are ready to lock in your answer, press ENTER)</b></p><button id = button_1 class = ""square num-button"" onclick = ""recordClick(this)""><div class = content><div class = numbers>C</div></div></button><button id = button_2 class = ""square num-button"" onclick = ""recordClick(this)""><div class = content><div class = numbers>G</div></div></button><button id = button_3 class = ""square num-button"" onclick = ""recordClick(this)""><div class = content><div class = numbers>H</div></div></button><button id = button_4 class = ""square num-button"" onclick = ""recordClick(this)""><div class = content><div class = numbers>J</div></div></button><button id = button_5 class = ""square num-button"" onclick = ""recordClick(this)""><div class = content><div class = numbers>K</div></div></button><button id = button_6 class = ""square num-button"" onclick = ""recordClick(this)""><div class = content><div class = numbers>L</div></div></button><button id = button_7 class = ""square num-button"" onclick = ""recordClick(this)""><div class = content><div class = numbers>N</div></div></button><button id = button_8 class = ""square num-button"" onclick = ""recordClick(this)""><div class = content><div class = numbers>P</div></div></button><button id = button_9 class = ""square num-button"" onclick = ""recordClick(this)""><div class = content><div class = numbers>Q</div></div></button><button id = button_10 class = ""square num-button"" onclick = ""recordClick(this)""><div class = content><div class = numbers>R</div></div></button><button id = button_11 class = ""square num-button"" onclick = ""recordClick(this)""><div class = content><div class = numbers>S</div></div></button><button id = button_12 class = ""square num-button"" onclick = ""recordClick(this)""><div class = content><div class = numbers>Y</div></div></button><button class = clear_button id = ""ClearButton"" onclick = ""clearResponse()"">BACKSPACE</button><button class = blank_button id = ""BlankButton"" onclick = ""blankResponse()"">SKIP</button><p style=""font-size: 2.4rem""><u><b>Current Answer:</b></u></p><br><br><div id=echoed_txt style=""font-size: 5rem; color:blue;""><b></b></div></div>",enter,ospan,retrieval,mEfv53Q8X8O6FKBkjztVMOKuXTp2,html-keyboard-response,86,1120561,0.0-43.0-2.0-1.0-2.0-0.0,NA,NA,NA,3.0,"[""L"",""S"",""C""]","[""C"",""S"",""K""]",0.0,1.0,"['<font color=""red"">C</font>', '<font color=""green"">S</font>', '<font color=""red"">K</font>']",,,,,,%2065bfb41fd7a1911a6a7db2c3,10:55:58,12/03/2024
3680.300000011921,"['<p style=""font-size:44px"">Letters:<br><br><br><font color=""red"">C</font> <font color=""green"">S</font> <font color=""red"">K</font></p><br><br><p style=""font-size:30px"">Symmetry:<br><br><font color=""green"">100%</font></p><br><br>']",0,ospan,practice_feedback,mEfv53Q8X8O6FKBkjztVMOKuXTp2,html-button-response,87,1124755,0.0-43.0-2.0-1.0-2.0-1.0,,,,,,,,,,,,,,,%2065bfb41fd7a1911a6a7db2c3,10:55:58,12/03/2024
,"<p style=""font-size:75px;"">...</p>",,ospan,iti,mEfv53Q8X8O6FKBkjztVMOKuXTp2,html-keyboard-response,88,1125768,0.0-43.0-2.0-2.0-0.0,,,,,,,,,,,,,,,%2065bfb41fd7a1911a6a7db2c3,10:55:58,12/03/2024
4611.0,,,ospan,symmetry,mEfv53Q8X8O6FKBkjztVMOKuXTp2,symmetry-judgement-task,89,1131569,0.0-43.0-2.0-2.0-1.0-0.0,,,,,,,,,,1.0,1.0,,,,%2065bfb41fd7a1911a6a7db2c3,10:55:58,12/03/2024
,"<div style=""font-size: 10rem; color: #0000FF"">R</div>",,ospan,letter,mEfv53Q8X8O6FKBkjztVMOKuXTp2,html-keyboard-response,90,1132584,0.0-43.0-2.0-2.0-1.0-1.0,,,,,,,,,,,,,,,%2065bfb41fd7a1911a6a7db2c3,10:55:58,12/03/2024
2279.0,,,ospan,symmetry,mEfv53Q8X8O6FKBkjztVMOKuXTp2,symmetry-judgement-task,91,1136789,0.0-43.0-2.0-2.0-1.0-2.0,,,,,,,,,,1.0,1.0,,,,%2065bfb41fd7a1911a6a7db2c3,10:55:58,12/03/2024
,"<div style=""font-size: 10rem; color: #0000FF"">G</div>",,ospan,letter,mEfv53Q8X8O6FKBkjztVMOKuXTp2,html-keyboard-response,92,1137792,0.0-43.0-2.0-2.0-1.0-3.0,,,,,,,,,,,,,,,%2065bfb41fd7a1911a6a7db2c3,10:55:58,12/03/2024
3039.0,,,ospan,symmetry,mEfv53Q8X8O6FKBkjztVMOKuXTp2,symmetry-judgement-task,93,1142766,0.0-43.0-2.0-2.0-1.0-4.0,,,,,,,,,,1.0,1.0,,,,%2065bfb41fd7a1911a6a7db2c3,10:55:58,12/03/2024
,"<div style=""font-size: 10rem; color: #0000FF"">H</div>",,ospan,letter,mEfv53Q8X8O6FKBkjztVMOKuXTp2,html-keyboard-response,94,1143777,0.0-43.0-2.0-2.0-1.0-5.0,,,,,,,,,,,,,,,%2065bfb41fd7a1911a6a7db2c3,10:55:58,12/03/2024
5491.099999964237,"<div class = numbox><p style=""font-size: 2.4rem"">Please recall the letters you saw to the best of your ability. If you do not remember a particular letter, use the SKIP button.<br><b>(When you are ready to lock in your answer, press ENTER)</b></p><button id = button_1 class = ""square num-button"" onclick = ""recordClick(this)""><div class = content><div class = numbers>C</div></div></button><button id = button_2 class = ""square num-button"" onclick = ""recordClick(this)""><div class = content><div class = numbers>G</div></div></button><button id = button_3 class = ""square num-button"" onclick = ""recordClick(this)""><div class = content><div class = numbers>H</div></div></button><button id = button_4 class = ""square num-button"" onclick = ""recordClick(this)""><div class = content><div class = numbers>J</div></div></button><button id = button_5 class = ""square num-button"" onclick = ""recordClick(this)""><div class = content><div class = numbers>K</div></div></button><button id = button_6 class = ""square num-button"" onclick = ""recordClick(this)""><div class = content><div class = numbers>L</div></div></button><button id = button_7 class = ""square num-button"" onclick = ""recordClick(this)""><div class = content><div class = numbers>N</div></div></button><button id = button_8 class = ""square num-button"" onclick = ""recordClick(this)""><div class = content><div class = numbers>P</div></div></button><button id = button_9 class = ""square num-button"" onclick = ""recordClick(this)""><div class = content><div class = numbers>Q</div></div></button><button id = button_10 class = ""square num-button"" onclick = ""recordClick(this)""><div class = content><div class = numbers>R</div></div></button><button id = button_11 class = ""square num-button"" onclick = ""recordClick(this)""><div class = content><div class = numbers>S</div></div></button><button id = button_12 class = ""square num-button"" onclick = ""recordClick(this)""><div class = content><div class = numbers>Y</div></div></button><button class = clear_button id = ""ClearButton"" onclick = ""clearResponse()"">BACKSPACE</button><button class = blank_button id = ""BlankButton"" onclick = ""blankResponse()"">SKIP</button><p style=""font-size: 2.4rem""><u><b>Current Answer:</b></u></p><br><br><div id=echoed_txt style=""font-size: 5rem; color:blue;""><b></b></div></div>",enter,ospan,retrieval,mEfv53Q8X8O6FKBkjztVMOKuXTp2,html-keyboard-response,95,1150032,0.0-43.0-2.0-2.0-2.0-0.0,NA,NA,NA,3.0,"[""R"",""G"",""H""]","[""R"",""G"",""H""]",1.0,3.0,"['<font color=""green"">R</font>', '<font color=""green"">G</font>', '<font color=""green"">H</font>']",,,,,,%2065bfb41fd7a1911a6a7db2c3,10:55:58,12/03/2024
2951.400000035763,"['<p style=""font-size:44px"">Letters:<br><br><br><font color=""green"">R</font> <font color=""green"">G</font> <font color=""green"">H</font></p><br><br><p style=""font-size:30px"">Symmetry:<br><br><font color=""green"">100%</font></p><br><br>']",0,ospan,practice_feedback,mEfv53Q8X8O6FKBkjztVMOKuXTp2,html-button-response,96,1153501,0.0-43.0-2.0-2.0-2.0-1.0,,,,,,,,,,,,,,,%2065bfb41fd7a1911a6a7db2c3,10:55:58,12/03/2024
33618.80000001192,"<div class = 'left_align' style='font-size: 3rem; line-height: 1.3;'><b>Great work! That is the end of practice.</b><br><br>The real trials will look just like the practice trials you just completed.<br><br><u>Here, you will not see feedback</u>. First, you will see an grid picture to judge,<br>then a letter to remember. When the recall screen appears, report the letters in the<br>order presented. If you forget a letter, remember to use the <b>blank</b> button to move to the<br>next letter. Some of the sets will have more symmetry grids and letters than others.<br><br>It is important that you do your best on both the symmetry judgments and the letter recall<br>parts of the experiment. For for the symmetry judgments, try to work as <b>quickly</b> and <br>as <b>accurately</b> as possible. Remember to keep your symmetry accuracy at 85% or above.<br><br><b>For the letters, do NOT use any external aid (e.g., writing on paper, electronic device).</b><br><br>It is <u>very important</u> to our experiment to have a <b>true</b> view of your real performance.<br><br>Do not worry if you miss some when it gets hard! This task is meant to be very challenging!<br><br>Click the button to begin.</div><br><br><br><br>",0,ospan,starting_real_here,mEfv53Q8X8O6FKBkjztVMOKuXTp2,html-button-response,97,1187126,0.0-43.0-2.0-3.0,,,,,,,,,,,,,,,%2065bfb41fd7a1911a6a7db2c3,10:55:58,12/03/2024
,"<p style=""font-size:75px;"">...</p>",,ospan,iti,mEfv53Q8X8O6FKBkjztVMOKuXTp2,html-keyboard-response,98,1188394,0.0-43.0-3.0-0.0-0.0,,,,,,,,,,,,,,,%2065bfb41fd7a1911a6a7db2c3,10:55:58,12/03/2024
4005.0,,,ospan,symmetry,mEfv53Q8X8O6FKBkjztVMOKuXTp2,symmetry-judgement-task,99,1193561,0.0-43.0-3.0-0.0-1.0-0.0,,,,,,,,,,1.0,1.0,,,,%2065bfb41fd7a1911a6a7db2c3,10:55:58,12/03/2024
,"<div style=""font-size: 10rem; color: #0000FF"">L</div>",,ospan,letter,mEfv53Q8X8O6FKBkjztVMOKuXTp2,html-keyboard-response,100,1194569,0.0-43.0-3.0-0.0-1.0-1.0,,,,,,,,,,,,,,,%2065bfb41fd7a1911a6a7db2c3,10:55:58,12/03/2024
3743.0,,,ospan,symmetry,mEfv53Q8X8O6FKBkjztVMOKuXTp2,symmetry-judgement-task,101,1200227,0.0-43.0-3.0-0.0-1.0-2.0,,,,,,,,,,1.0,1.0,,,,%2065bfb41fd7a1911a6a7db2c3,10:55:58,12/03/2024
,"<div style=""font-size: 10rem; color: #0000FF"">G</div>",,ospan,letter,mEfv53Q8X8O6FKBkjztVMOKuXTp2,html-keyboard-response,102,1201231,0.0-43.0-3.0-0.0-1.0-3.0,,,,,,,,,,,,,,,%2065bfb41fd7a1911a6a7db2c3,10:55:58,12/03/2024
2396.0,,,ospan,symmetry,mEfv53Q8X8O6FKBkjztVMOKuXTp2,symmetry-judgement-task,103,1205549,0.0-43.0-3.0-0.0-1.0-4.0,,,,,,,,,,1.0,1.0,,,,%2065bfb41fd7a1911a6a7db2c3,10:55:58,12/03/2024
,"<div style=""font-size: 10rem; color: #0000FF"">S</div>",,ospan,letter,mEfv53Q8X8O6FKBkjztVMOKuXTp2,html-keyboard-response,104,1206551,0.0-43.0-3.0-0.0-1.0-5.0,,,,,,,,,,,,,,,%2065bfb41fd7a1911a6a7db2c3,10:55:58,12/03/2024
4255.100000023842,"<div class = numbox><p style=""font-size: 2.4rem"">Please recall the letters you saw to the best of your ability. If you do not remember a particular letter, use the SKIP button.<br><b>(When you are ready to lock in your answer, press ENTER)</b></p><button id = button_1 class = ""square num-button"" onclick = ""recordClick(this)""><div class = content><div class = numbers>C</div></div></button><button id = button_2 class = ""square num-button"" onclick = ""recordClick(this)""><div class = content><div class = numbers>G</div></div></button><button id = button_3 class = ""square num-button"" onclick = ""recordClick(this)""><div class = content><div class = numbers>H</div></div></button><button id = button_4 class = ""square num-button"" onclick = ""recordClick(this)""><div class = content><div class = numbers>J</div></div></button><button id = button_5 class = ""square num-button"" onclick = ""recordClick(this)""><div class = content><div class = numbers>K</div></div></button><button id = button_6 class = ""square num-button"" onclick = ""recordClick(this)""><div class = content><div class = numbers>L</div></div></button><button id = button_7 class = ""square num-button"" onclick = ""recordClick(this)""><div class = content><div class = numbers>N</div></div></button><button id = button_8 class = ""square num-button"" onclick = ""recordClick(this)""><div class = content><div class = numbers>P</div></div></button><button id = button_9 class = ""square num-button"" onclick = ""recordClick(this)""><div class = content><div class = numbers>Q</div></div></button><button id = button_10 class = ""square num-button"" onclick = ""recordClick(this)""><div class = content><div class = numbers>R</div></div></button><button id = button_11 class = ""square num-button"" onclick = ""recordClick(this)""><div class = content><div class = numbers>S</div></div></button><button id = button_12 class = ""square num-button"" onclick = ""recordClick(this)""><div class = content><div class = numbers>Y</div></div></button><button class = clear_button id = ""ClearButton"" onclick = ""clearResponse()"">BACKSPACE</button><button class = blank_button id = ""BlankButton"" onclick = ""blankResponse()"">SKIP</button><p style=""font-size: 2.4rem""><u><b>Current Answer:</b></u></p><br><br><div id=echoed_txt style=""font-size: 5rem; color:blue;""><b></b></div></div>",enter,ospan,retrieval,mEfv53Q8X8O6FKBkjztVMOKuXTp2,html-keyboard-response,105,1211571,0.0-43.0-3.0-0.0-2.0,3,3,3,3.0,"[""L"",""G"",""S""]","[""L"",""G"",""S""]",1.0,3.0,,,,,,,%2065bfb41fd7a1911a6a7db2c3,10:55:58,12/03/2024
2722.300000011921,[''],0,ospan,feedback,mEfv53Q8X8O6FKBkjztVMOKuXTp2,html-button-response,106,1214807,0.0-43.0-3.0-0.0-3.0,,,,,,,,,,,,100.0,0.0,,%2065bfb41fd7a1911a6a7db2c3,10:55:58,12/03/2024
,"<p style=""font-size:75px;"">...</p>",,ospan,iti,mEfv53Q8X8O6FKBkjztVMOKuXTp2,html-keyboard-response,107,1215826,0.0-43.0-4.0-0.0-0.0,,,,,,,,,,,,,,,%2065bfb41fd7a1911a6a7db2c3,10:55:58,12/03/2024
3821.0,,,ospan,symmetry,mEfv53Q8X8O6FKBkjztVMOKuXTp2,symmetry-judgement-task,108,1220826,0.0-43.0-4.0-0.0-1.0-0.0,,,,,,,,,,1.0,1.0,,,,%2065bfb41fd7a1911a6a7db2c3,10:55:58,12/03/2024
,"<div style=""font-size: 10rem; color: #0000FF"">Q</div>",,ospan,letter,mEfv53Q8X8O6FKBkjztVMOKuXTp2,html-keyboard-response,109,1221842,0.0-43.0-4.0-0.0-1.0-1.0,,,,,,,,,,,,,,,%2065bfb41fd7a1911a6a7db2c3,10:55:58,12/03/2024
4237.0,,,ospan,symmetry,mEfv53Q8X8O6FKBkjztVMOKuXTp2,symmetry-judgement-task,110,1228001,0.0-43.0-4.0-0.0-1.0-2.0,,,,,,,,,,1.0,1.0,,,,%2065bfb41fd7a1911a6a7db2c3,10:55:58,12/03/2024
,"<div style=""font-size: 10rem; color: #0000FF"">L</div>",,ospan,letter,mEfv53Q8X8O6FKBkjztVMOKuXTp2,html-keyboard-response,111,1229018,0.0-43.0-4.0-0.0-1.0-3.0,,,,,,,,,,,,,,,%2065bfb41fd7a1911a6a7db2c3,10:55:58,12/03/2024
4235.0,,,ospan,symmetry,mEfv53Q8X8O6FKBkjztVMOKuXTp2,symmetry-judgement-task,112,1235220,0.0-43.0-4.0-0.0-1.0-4.0,,,,,,,,,,1.0,1.0,,,,%2065bfb41fd7a1911a6a7db2c3,10:55:58,12/03/2024
,"<div style=""font-size: 10rem; color: #0000FF"">N</div>",,ospan,letter,mEfv53Q8X8O6FKBkjztVMOKuXTp2,html-keyboard-response,113,1236237,0.0-43.0-4.0-0.0-1.0-5.0,,,,,,,,,,,,,,,%2065bfb41fd7a1911a6a7db2c3,10:55:58,12/03/2024
4310.0,,,ospan,symmetry,mEfv53Q8X8O6FKBkjztVMOKuXTp2,symmetry-judgement-task,114,1242470,0.0-43.0-4.0-0.0-1.0-6.0,,,,,,,,,,1.0,1.0,,,,%2065bfb41fd7a1911a6a7db2c3,10:55:58,12/03/2024
,"<div style=""font-size: 10rem; color: #0000FF"">S</div>",,ospan,letter,mEfv53Q8X8O6FKBkjztVMOKuXTp2,html-keyboard-response,115,1243475,0.0-43.0-4.0-0.0-1.0-7.0,,,,,,,,,,,,,,,%2065bfb41fd7a1911a6a7db2c3,10:55:58,12/03/2024
5031.399999976158,"<div class = numbox><p style=""font-size: 2.4rem"">Please recall the letters you saw to the best of your ability. If you do not remember a particular letter, use the SKIP button.<br><b>(When you are ready to lock in your answer, press ENTER)</b></p><button id = button_1 class = ""square num-button"" onclick = ""recordClick(this)""><div class = content><div class = numbers>C</div></div></button><button id = button_2 class = ""square num-button"" onclick = ""recordClick(this)""><div class = content><div class = numbers>G</div></div></button><button id = button_3 class = ""square num-button"" onclick = ""recordClick(this)""><div class = content><div class = numbers>H</div></div></button><button id = button_4 class = ""square num-button"" onclick = ""recordClick(this)""><div class = content><div class = numbers>J</div></div></button><button id = button_5 class = ""square num-button"" onclick = ""recordClick(this)""><div class = content><div class = numbers>K</div></div></button><button id = button_6 class = ""square num-button"" onclick = ""recordClick(this)""><div class = content><div class = numbers>L</div></div></button><button id = button_7 class = ""square num-button"" onclick = ""recordClick(this)""><div class = content><div class = numbers>N</div></div></button><button id = button_8 class = ""square num-button"" onclick = ""recordClick(this)""><div class = content><div class = numbers>P</div></div></button><button id = button_9 class = ""square num-button"" onclick = ""recordClick(this)""><div class = content><div class = numbers>Q</div></div></button><button id = button_10 class = ""square num-button"" onclick = ""recordClick(this)""><div class = content><div class = numbers>R</div></div></button><button id = button_11 class = ""square num-button"" onclick = ""recordClick(this)""><div class = content><div class = numbers>S</div></div></button><button id = button_12 class = ""square num-button"" onclick = ""recordClick(this)""><div class = content><div class = numbers>Y</div></div></button><button class = clear_button id = ""ClearButton"" onclick = ""clearResponse()"">BACKSPACE</button><button class = blank_button id = ""BlankButton"" onclick = ""blankResponse()"">SKIP</button><p style=""font-size: 2.4rem""><u><b>Current Answer:</b></u></p><br><br><div id=echoed_txt style=""font-size: 5rem; color:blue;""><b></b></div></div>",enter,ospan,retrieval,mEfv53Q8X8O6FKBkjztVMOKuXTp2,html-keyboard-response,116,1249261,0.0-43.0-4.0-0.0-2.0,7,7,7,4.0,"[""Q"",""L"",""N"",""S""]","[""Q"",""L"",""N"",""S""]",1.0,4.0,,,,,,,%2065bfb41fd7a1911a6a7db2c3,10:55:58,12/03/2024
1376.800000011921,[''],0,ospan,feedback,mEfv53Q8X8O6FKBkjztVMOKuXTp2,html-button-response,117,1251143,0.0-43.0-4.0-0.0-3.0,,,,,,,,,,,,100.0,0.0,,%2065bfb41fd7a1911a6a7db2c3,10:55:58,12/03/2024
,"<p style=""font-size:75px;"">...</p>",,ospan,iti,mEfv53Q8X8O6FKBkjztVMOKuXTp2,html-keyboard-response,118,1252153,0.0-43.0-4.0-1.0-0.0,,,,,,,,,,,,,,,%2065bfb41fd7a1911a6a7db2c3,10:55:58,12/03/2024
2779.0,,,ospan,symmetry,mEfv53Q8X8O6FKBkjztVMOKuXTp2,symmetry-judgement-task,119,1256118,0.0-43.0-4.0-1.0-1.0-0.0,,,,,,,,,,1.0,1.0,,,,%2065bfb41fd7a1911a6a7db2c3,10:55:58,12/03/2024
,"<div style=""font-size: 10rem; color: #0000FF"">Q</div>",,ospan,letter,mEfv53Q8X8O6FKBkjztVMOKuXTp2,html-keyboard-response,120,1257132,0.0-43.0-4.0-1.0-1.0-1.0,,,,,,,,,,,,,,,%2065bfb41fd7a1911a6a7db2c3,10:55:58,12/03/2024
1780.0,,,ospan,symmetry,mEfv53Q8X8O6FKBkjztVMOKuXTp2,symmetry-judgement-task,121,1260844,0.0-43.0-4.0-1.0-1.0-2.0,,,,,,,,,,1.0,1.0,,,,%2065bfb41fd7a1911a6a7db2c3,10:55:58,12/03/2024
,"<div style=""font-size: 10rem; color: #0000FF"">P</div>",,ospan,letter,mEfv53Q8X8O6FKBkjztVMOKuXTp2,html-keyboard-response,122,1261849,0.0-43.0-4.0-1.0-1.0-3.0,,,,,,,,,,,,,,,%2065bfb41fd7a1911a6a7db2c3,10:55:58,12/03/2024
2682.0,,,ospan,symmetry,mEfv53Q8X8O6FKBkjztVMOKuXTp2,symmetry-judgement-task,123,1266443,0.0-43.0-4.0-1.0-1.0-4.0,,,,,,,,,,1.0,1.0,,,,%2065bfb41fd7a1911a6a7db2c3,10:55:58,12/03/2024
,"<div style=""font-size: 10rem; color: #0000FF"">G</div>",,ospan,letter,mEfv53Q8X8O6FKBkjztVMOKuXTp2,html-keyboard-response,124,1267455,0.0-43.0-4.0-1.0-1.0-5.0,,,,,,,,,,,,,,,%2065bfb41fd7a1911a6a7db2c3,10:55:58,12/03/2024
2070.0,,,ospan,symmetry,mEfv53Q8X8O6FKBkjztVMOKuXTp2,symmetry-judgement-task,125,1271460,0.0-43.0-4.0-1.0-1.0-6.0,,,,,,,,,,1.0,1.0,,,,%2065bfb41fd7a1911a6a7db2c3,10:55:58,12/03/2024
,"<div style=""font-size: 10rem; color: #0000FF"">L</div>",,ospan,letter,mEfv53Q8X8O6FKBkjztVMOKuXTp2,html-keyboard-response,126,1272464,0.0-43.0-4.0-1.0-1.0-7.0,,,,,,,,,,,,,,,%2065bfb41fd7a1911a6a7db2c3,10:55:58,12/03/2024
2048.0,,,ospan,symmetry,mEfv53Q8X8O6FKBkjztVMOKuXTp2,symmetry-judgement-task,127,1276450,0.0-43.0-4.0-1.0-1.0-8.0,,,,,,,,,,1.0,1.0,,,,%2065bfb41fd7a1911a6a7db2c3,10:55:58,12/03/2024
,"<div style=""font-size: 10rem; color: #0000FF"">Y</div>",,ospan,letter,mEfv53Q8X8O6FKBkjztVMOKuXTp2,html-keyboard-response,128,1277453,0.0-43.0-4.0-1.0-1.0-9.0,,,,,,,,,,,,,,,%2065bfb41fd7a1911a6a7db2c3,10:55:58,12/03/2024
11770.5,"<div class = numbox><p style=""font-size: 2.4rem"">Please recall the letters you saw to the best of your ability. If you do not remember a particular letter, use the SKIP button.<br><b>(When you are ready to lock in your answer, press ENTER)</b></p><button id = button_1 class = ""square num-button"" onclick = ""recordClick(this)""><div class = content><div class = numbers>C</div></div></button><button id = button_2 class = ""square num-button"" onclick = ""recordClick(this)""><div class = content><div class = numbers>G</div></div></button><button id = button_3 class = ""square num-button"" onclick = ""recordClick(this)""><div class = content><div class = numbers>H</div></div></button><button id = button_4 class = ""square num-button"" onclick = ""recordClick(this)""><div class = content><div class = numbers>J</div></div></button><button id = button_5 class = ""square num-button"" onclick = ""recordClick(this)""><div class = content><div class = numbers>K</div></div></button><button id = button_6 class = ""square num-button"" onclick = ""recordClick(this)""><div class = content><div class = numbers>L</div></div></button><button id = button_7 class = ""square num-button"" onclick = ""recordClick(this)""><div class = content><div class = numbers>N</div></div></button><button id = button_8 class = ""square num-button"" onclick = ""recordClick(this)""><div class = content><div class = numbers>P</div></div></button><button id = button_9 class = ""square num-button"" onclick = ""recordClick(this)""><div class = content><div class = numbers>Q</div></div></button><button id = button_10 class = ""square num-button"" onclick = ""recordClick(this)""><div class = content><div class = numbers>R</div></div></button><button id = button_11 class = ""square num-button"" onclick = ""recordClick(this)""><div class = content><div class = numbers>S</div></div></button><button id = button_12 class = ""square num-button"" onclick = ""recordClick(this)""><div class = content><div class = numbers>Y</div></div></button><button class = clear_button id = ""ClearButton"" onclick = ""clearResponse()"">BACKSPACE</button><button class = blank_button id = ""BlankButton"" onclick = ""blankResponse()"">SKIP</button><p style=""font-size: 2.4rem""><u><b>Current Answer:</b></u></p><br><br><div id=echoed_txt style=""font-size: 5rem; color:blue;""><b></b></div></div>",enter,ospan,retrieval,mEfv53Q8X8O6FKBkjztVMOKuXTp2,html-keyboard-response,129,1289989,0.0-43.0-4.0-1.0-2.0,12,12,12,5.0,"[""Q"",""P"",""G"",""L"",""Y""]","[""Q"",""P"",""G"",""L"",""Y""]",1.0,5.0,,,,,,,%2065bfb41fd7a1911a6a7db2c3,10:55:58,12/03/2024
1291.8999999761581,[''],0,ospan,feedback,mEfv53Q8X8O6FKBkjztVMOKuXTp2,html-button-response,130,1291798,0.0-43.0-4.0-1.0-3.0,,,,,,,,,,,,100.0,0.0,,%2065bfb41fd7a1911a6a7db2c3,10:55:58,12/03/2024
,"<p style=""font-size:75px;"">...</p>",,ospan,iti,mEfv53Q8X8O6FKBkjztVMOKuXTp2,html-keyboard-response,131,1292811,0.0-43.0-4.0-2.0-0.0,,,,,,,,,,,,,,,%2065bfb41fd7a1911a6a7db2c3,10:55:58,12/03/2024
1952.0,,,ospan,symmetry,mEfv53Q8X8O6FKBkjztVMOKuXTp2,symmetry-judgement-task,132,1295940,0.0-43.0-4.0-2.0-1.0-0.0,,,,,,,,,,1.0,1.0,,,,%2065bfb41fd7a1911a6a7db2c3,10:55:58,12/03/2024
,"<div style=""font-size: 10rem; color: #0000FF"">P</div>",,ospan,letter,mEfv53Q8X8O6FKBkjztVMOKuXTp2,html-keyboard-response,133,1296946,0.0-43.0-4.0-2.0-1.0-1.0,,,,,,,,,,,,,,,%2065bfb41fd7a1911a6a7db2c3,10:55:58,12/03/2024
3097.0,,,ospan,symmetry,mEfv53Q8X8O6FKBkjztVMOKuXTp2,symmetry-judgement-task,134,1301980,0.0-43.0-4.0-2.0-1.0-2.0,,,,,,,,,,1.0,1.0,,,,%2065bfb41fd7a1911a6a7db2c3,10:55:58,12/03/2024
,"<div style=""font-size: 10rem; color: #0000FF"">C</div>",,ospan,letter,mEfv53Q8X8O6FKBkjztVMOKuXTp2,html-keyboard-response,135,1302996,0.0-43.0-4.0-2.0-1.0-3.0,,,,,,,,,,,,,,,%2065bfb41fd7a1911a6a7db2c3,10:55:58,12/03/2024
2051.0,,,ospan,symmetry,mEfv53Q8X8O6FKBkjztVMOKuXTp2,symmetry-judgement-task,136,1306971,0.0-43.0-4.0-2.0-1.0-4.0,,,,,,,,,,1.0,1.0,,,,%2065bfb41fd7a1911a6a7db2c3,10:55:58,12/03/2024
,"<div style=""font-size: 10rem; color: #0000FF"">L</div>",,ospan,letter,mEfv53Q8X8O6FKBkjztVMOKuXTp2,html-keyboard-response,137,1307986,0.0-43.0-4.0-2.0-1.0-5.0,,,,,,,,,,,,,,,%2065bfb41fd7a1911a6a7db2c3,10:55:58,12/03/2024
5260.199999988079,"<div class = numbox><p style=""font-size: 2.4rem"">Please recall the letters you saw to the best of your ability. If you do not remember a particular letter, use the SKIP button.<br><b>(When you are ready to lock in your answer, press ENTER)</b></p><button id = button_1 class = ""square num-button"" onclick = ""recordClick(this)""><div class = content><div class = numbers>C</div></div></button><button id = button_2 class = ""square num-button"" onclick = ""recordClick(this)""><div class = content><div class = numbers>G</div></div></button><button id = button_3 class = ""square num-button"" onclick = ""recordClick(this)""><div class = content><div class = numbers>H</div></div></button><button id = button_4 class = ""square num-button"" onclick = ""recordClick(this)""><div class = content><div class = numbers>J</div></div></button><button id = button_5 class = ""square num-button"" onclick = ""recordClick(this)""><div class = content><div class = numbers>K</div></div></button><button id = button_6 class = ""square num-button"" onclick = ""recordClick(this)""><div class = content><div class = numbers>L</div></div></button><button id = button_7 class = ""square num-button"" onclick = ""recordClick(this)""><div class = content><div class = numbers>N</div></div></button><button id = button_8 class = ""square num-button"" onclick = ""recordClick(this)""><div class = content><div class = numbers>P</div></div></button><button id = button_9 class = ""square num-button"" onclick = ""recordClick(this)""><div class = content><div class = numbers>Q</div></div></button><button id = button_10 class = ""square num-button"" onclick = ""recordClick(this)""><div class = content><div class = numbers>R</div></div></button><button id = button_11 class = ""square num-button"" onclick = ""recordClick(this)""><div class = content><div class = numbers>S</div></div></button><button id = button_12 class = ""square num-button"" onclick = ""recordClick(this)""><div class = content><div class = numbers>Y</div></div></button><button class = clear_button id = ""ClearButton"" onclick = ""clearResponse()"">BACKSPACE</button><button class = blank_button id = ""BlankButton"" onclick = ""blankResponse()"">SKIP</button><p style=""font-size: 2.4rem""><u><b>Current Answer:</b></u></p><br><br><div id=echoed_txt style=""font-size: 5rem; color:blue;""><b></b></div></div>",enter,ospan,retrieval,mEfv53Q8X8O6FKBkjztVMOKuXTp2,html-keyboard-response,138,1314000,0.0-43.0-4.0-2.0-2.0,15,15,15,3.0,"[""P"",""C"",""L""]","[""P"",""C"",""L""]",1.0,3.0,,,,,,,%2065bfb41fd7a1911a6a7db2c3,10:55:58,12/03/2024
2015.0,[''],0,ospan,feedback,mEfv53Q8X8O6FKBkjztVMOKuXTp2,html-button-response,139,1316528,0.0-43.0-4.0-2.0-3.0,,,,,,,,,,,,100.0,0.0,,%2065bfb41fd7a1911a6a7db2c3,10:55:58,12/03/2024
,"<p style=""font-size:75px;"">...</p>",,ospan,iti,mEfv53Q8X8O6FKBkjztVMOKuXTp2,html-keyboard-response,140,1317531,0.0-43.0-5.0-0.0-0.0,,,,,,,,,,,,,,,%2065bfb41fd7a1911a6a7db2c3,10:55:58,12/03/2024
2784.0,,,ospan,symmetry,mEfv53Q8X8O6FKBkjztVMOKuXTp2,symmetry-judgement-task,141,1321505,0.0-43.0-5.0-0.0-1.0-0.0,,,,,,,,,,1.0,1.0,,,,%2065bfb41fd7a1911a6a7db2c3,10:55:58,12/03/2024
,"<div style=""font-size: 10rem; color: #0000FF"">R</div>",,ospan,letter,mEfv53Q8X8O6FKBkjztVMOKuXTp2,html-keyboard-response,142,1322515,0.0-43.0-5.0-0.0-1.0-1.0,,,,,,,,,,,,,,,%2065bfb41fd7a1911a6a7db2c3,10:55:58,12/03/2024
2507.0,,,ospan,symmetry,mEfv53Q8X8O6FKBkjztVMOKuXTp2,symmetry-judgement-task,143,1326959,0.0-43.0-5.0-0.0-1.0-2.0,,,,,,,,,,1.0,1.0,,,,%2065bfb41fd7a1911a6a7db2c3,10:55:58,12/03/2024
,"<div style=""font-size: 10rem; color: #0000FF"">P</div>",,ospan,letter,mEfv53Q8X8O6FKBkjztVMOKuXTp2,html-keyboard-response,144,1327968,0.0-43.0-5.0-0.0-1.0-3.0,,,,,,,,,,,,,,,%2065bfb41fd7a1911a6a7db2c3,10:55:58,12/03/2024
1373.0,,,ospan,symmetry,mEfv53Q8X8O6FKBkjztVMOKuXTp2,symmetry-judgement-task,145,1331271,0.0-43.0-5.0-0.0-1.0-4.0,,,,,,,,,,1.0,1.0,,,,%2065bfb41fd7a1911a6a7db2c3,10:55:58,12/03/2024
,"<div style=""font-size: 10rem; color: #0000FF"">J</div>",,ospan,letter,mEfv53Q8X8O6FKBkjztVMOKuXTp2,html-keyboard-response,146,1332277,0.0-43.0-5.0-0.0-1.0-5.0,,,,,,,,,,,,,,,%2065bfb41fd7a1911a6a7db2c3,10:55:58,12/03/2024
2030.0,,,ospan,symmetry,mEfv53Q8X8O6FKBkjztVMOKuXTp2,symmetry-judgement-task,147,1336238,0.0-43.0-5.0-0.0-1.0-6.0,,,,,,,,,,1.0,1.0,,,,%2065bfb41fd7a1911a6a7db2c3,10:55:58,12/03/2024
,"<div style=""font-size: 10rem; color: #0000FF"">Q</div>",,ospan,letter,mEfv53Q8X8O6FKBkjztVMOKuXTp2,html-keyboard-response,148,1337242,0.0-43.0-5.0-0.0-1.0-7.0,,,,,,,,,,,,,,,%2065bfb41fd7a1911a6a7db2c3,10:55:58,12/03/2024
4473.0,,,ospan,symmetry,mEfv53Q8X8O6FKBkjztVMOKuXTp2,symmetry-judgement-task,149,1343680,0.0-43.0-5.0-0.0-1.0-8.0,,,,,,,,,,1.0,1.0,,,,%2065bfb41fd7a1911a6a7db2c3,10:55:58,12/03/2024
,"<div style=""font-size: 10rem; color: #0000FF"">L</div>",,ospan,letter,mEfv53Q8X8O6FKBkjztVMOKuXTp2,html-keyboard-response,150,1344695,0.0-43.0-5.0-0.0-1.0-9.0,,,,,,,,,,,,,,,%2065bfb41fd7a1911a6a7db2c3,10:55:58,12/03/2024
4945.0,,,ospan,symmetry,mEfv53Q8X8O6FKBkjztVMOKuXTp2,symmetry-judgement-task,151,1351573,0.0-43.0-5.0-0.0-1.0-10.0,,,,,,,,,,1.0,1.0,,,,%2065bfb41fd7a1911a6a7db2c3,10:55:58,12/03/2024
,"<div style=""font-size: 10rem; color: #0000FF"">N</div>",,ospan,letter,mEfv53Q8X8O6FKBkjztVMOKuXTp2,html-keyboard-response,152,1352585,0.0-43.0-5.0-0.0-1.0-11.0,,,,,,,,,,,,,,,%2065bfb41fd7a1911a6a7db2c3,10:55:58,12/03/2024
10088.899999976158,"<div class = numbox><p style=""font-size: 2.4rem"">Please recall the letters you saw to the best of your ability. If you do not remember a particular letter, use the SKIP button.<br><b>(When you are ready to lock in your answer, press ENTER)</b></p><button id = button_1 class = ""square num-button"" onclick = ""recordClick(this)""><div class = content><div class = numbers>C</div></div></button><button id = button_2 class = ""square num-button"" onclick = ""recordClick(this)""><div class = content><div class = numbers>G</div></div></button><button id = button_3 class = ""square num-button"" onclick = ""recordClick(this)""><div class = content><div class = numbers>H</div></div></button><button id = button_4 class = ""square num-button"" onclick = ""recordClick(this)""><div class = content><div class = numbers>J</div></div></button><button id = button_5 class = ""square num-button"" onclick = ""recordClick(this)""><div class = content><div class = numbers>K</div></div></button><button id = button_6 class = ""square num-button"" onclick = ""recordClick(this)""><div class = content><div class = numbers>L</div></div></button><button id = button_7 class = ""square num-button"" onclick = ""recordClick(this)""><div class = content><div class = numbers>N</div></div></button><button id = button_8 class = ""square num-button"" onclick = ""recordClick(this)""><div class = content><div class = numbers>P</div></div></button><button id = button_9 class = ""square num-button"" onclick = ""recordClick(this)""><div class = content><div class = numbers>Q</div></div></button><button id = button_10 class = ""square num-button"" onclick = ""recordClick(this)""><div class = content><div class = numbers>R</div></div></button><button id = button_11 class = ""square num-button"" onclick = ""recordClick(this)""><div class = content><div class = numbers>S</div></div></button><button id = button_12 class = ""square num-button"" onclick = ""recordClick(this)""><div class = content><div class = numbers>Y</div></div></button><button class = clear_button id = ""ClearButton"" onclick = ""clearResponse()"">BACKSPACE</button><button class = blank_button id = ""BlankButton"" onclick = ""blankResponse()"">SKIP</button><p style=""font-size: 2.4rem""><u><b>Current Answer:</b></u></p><br><br><div id=echoed_txt style=""font-size: 5rem; color:blue;""><b></b></div></div>",enter,ospan,retrieval,mEfv53Q8X8O6FKBkjztVMOKuXTp2,html-keyboard-response,153,1363432,0.0-43.0-5.0-0.0-2.0,21,21,21,6.0,"[""R"",""P"",""J"",""Q"",""L"",""N""]","[""R"",""P"",""J"",""Q"",""L"",""N""]",1.0,6.0,,,,,,,%2065bfb41fd7a1911a6a7db2c3,10:55:58,12/03/2024
1221.5999999642372,[''],0,ospan,feedback,mEfv53Q8X8O6FKBkjztVMOKuXTp2,html-button-response,154,1365163,0.0-43.0-5.0-0.0-3.0,,,,,,,,,,,,100.0,0.0,,%2065bfb41fd7a1911a6a7db2c3,10:55:58,12/03/2024
,"<p style=""font-size:75px;"">...</p>",,ospan,iti,mEfv53Q8X8O6FKBkjztVMOKuXTp2,html-keyboard-response,155,1366175,0.0-43.0-5.0-1.0-0.0,,,,,,,,,,,,,,,%2065bfb41fd7a1911a6a7db2c3,10:55:58,12/03/2024
1757.0,,,ospan,symmetry,mEfv53Q8X8O6FKBkjztVMOKuXTp2,symmetry-judgement-task,156,1369000,0.0-43.0-5.0-1.0-1.0-0.0,,,,,,,,,,1.0,1.0,,,,%2065bfb41fd7a1911a6a7db2c3,10:55:58,12/03/2024
,"<div style=""font-size: 10rem; color: #0000FF"">K</div>",,ospan,letter,mEfv53Q8X8O6FKBkjztVMOKuXTp2,html-keyboard-response,157,1370017,0.0-43.0-5.0-1.0-1.0-1.0,,,,,,,,,,,,,,,%2065bfb41fd7a1911a6a7db2c3,10:55:58,12/03/2024
3775.0,,,ospan,symmetry,mEfv53Q8X8O6FKBkjztVMOKuXTp2,symmetry-judgement-task,158,1375727,0.0-43.0-5.0-1.0-1.0-2.0,,,,,,,,,,1.0,1.0,,,,%2065bfb41fd7a1911a6a7db2c3,10:55:58,12/03/2024
,"<div style=""font-size: 10rem; color: #0000FF"">J</div>",,ospan,letter,mEfv53Q8X8O6FKBkjztVMOKuXTp2,html-keyboard-response,159,1376731,0.0-43.0-5.0-1.0-1.0-3.0,,,,,,,,,,,,,,,%2065bfb41fd7a1911a6a7db2c3,10:55:58,12/03/2024
5091.0,,,ospan,symmetry,mEfv53Q8X8O6FKBkjztVMOKuXTp2,symmetry-judgement-task,160,1383751,0.0-43.0-5.0-1.0-1.0-4.0,,,,,,,,,,1.0,1.0,,,,%2065bfb41fd7a1911a6a7db2c3,10:55:58,12/03/2024
,"<div style=""font-size: 10rem; color: #0000FF"">S</div>",,ospan,letter,mEfv53Q8X8O6FKBkjztVMOKuXTp2,html-keyboard-response,161,1384757,0.0-43.0-5.0-1.0-1.0-5.0,,,,,,,,,,,,,,,%2065bfb41fd7a1911a6a7db2c3,10:55:58,12/03/2024
3016.0,,,ospan,symmetry,mEfv53Q8X8O6FKBkjztVMOKuXTp2,symmetry-judgement-task,162,1389730,0.0-43.0-5.0-1.0-1.0-6.0,,,,,,,,,,1.0,1.0,,,,%2065bfb41fd7a1911a6a7db2c3,10:55:58,12/03/2024
,"<div style=""font-size: 10rem; color: #0000FF"">Y</div>",,ospan,letter,mEfv53Q8X8O6FKBkjztVMOKuXTp2,html-keyboard-response,163,1390734,0.0-43.0-5.0-1.0-1.0-7.0,,,,,,,,,,,,,,,%2065bfb41fd7a1911a6a7db2c3,10:55:58,12/03/2024
2031.0,,,ospan,symmetry,mEfv53Q8X8O6FKBkjztVMOKuXTp2,symmetry-judgement-task,164,1394705,0.0-43.0-5.0-1.0-1.0-8.0,,,,,,,,,,1.0,1.0,,,,%2065bfb41fd7a1911a6a7db2c3,10:55:58,12/03/2024
,"<div style=""font-size: 10rem; color: #0000FF"">G</div>",,ospan,letter,mEfv53Q8X8O6FKBkjztVMOKuXTp2,html-keyboard-response,165,1395723,0.0-43.0-5.0-1.0-1.0-9.0,,,,,,,,,,,,,,,%2065bfb41fd7a1911a6a7db2c3,10:55:58,12/03/2024
1945.0,,,ospan,symmetry,mEfv53Q8X8O6FKBkjztVMOKuXTp2,symmetry-judgement-task,166,1399606,0.0-43.0-5.0-1.0-1.0-10.0,,,,,,,,,,1.0,1.0,,,,%2065bfb41fd7a1911a6a7db2c3,10:55:58,12/03/2024
,"<div style=""font-size: 10rem; color: #0000FF"">R</div>",,ospan,letter,mEfv53Q8X8O6FKBkjztVMOKuXTp2,html-keyboard-response,167,1400612,0.0-43.0-5.0-1.0-1.0-11.0,,,,,,,,,,,,,,,%2065bfb41fd7a1911a6a7db2c3,10:55:58,12/03/2024
2165.0,,,ospan,symmetry,mEfv53Q8X8O6FKBkjztVMOKuXTp2,symmetry-judgement-task,168,1404698,0.0-43.0-5.0-1.0-1.0-12.0,,,,,,,,,,1.0,1.0,,,,%2065bfb41fd7a1911a6a7db2c3,10:55:58,12/03/2024
,"<div style=""font-size: 10rem; color: #0000FF"">Q</div>",,ospan,letter,mEfv53Q8X8O6FKBkjztVMOKuXTp2,html-keyboard-response,169,1405709,0.0-43.0-5.0-1.0-1.0-13.0,,,,,,,,,,,,,,,%2065bfb41fd7a1911a6a7db2c3,10:55:58,12/03/2024
22661.900000035763,"<div class = numbox><p style=""font-size: 2.4rem"">Please recall the letters you saw to the best of your ability. If you do not remember a particular letter, use the SKIP button.<br><b>(When you are ready to lock in your answer, press ENTER)</b></p><button id = button_1 class = ""square num-button"" onclick = ""recordClick(this)""><div class = content><div class = numbers>C</div></div></button><button id = button_2 class = ""square num-button"" onclick = ""recordClick(this)""><div class = content><div class = numbers>G</div></div></button><button id = button_3 class = ""square num-button"" onclick = ""recordClick(this)""><div class = content><div class = numbers>H</div></div></button><button id = button_4 class = ""square num-button"" onclick = ""recordClick(this)""><div class = content><div class = numbers>J</div></div></button><button id = button_5 class = ""square num-button"" onclick = ""recordClick(this)""><div class = content><div class = numbers>K</div></div></button><button id = button_6 class = ""square num-button"" onclick = ""recordClick(this)""><div class = content><div class = numbers>L</div></div></button><button id = button_7 class = ""square num-button"" onclick = ""recordClick(this)""><div class = content><div class = numbers>N</div></div></button><button id = button_8 class = ""square num-button"" onclick = ""recordClick(this)""><div class = content><div class = numbers>P</div></div></button><button id = button_9 class = ""square num-button"" onclick = ""recordClick(this)""><div class = content><div class = numbers>Q</div></div></button><button id = button_10 class = ""square num-button"" onclick = ""recordClick(this)""><div class = content><div class = numbers>R</div></div></button><button id = button_11 class = ""square num-button"" onclick = ""recordClick(this)""><div class = content><div class = numbers>S</div></div></button><button id = button_12 class = ""square num-button"" onclick = ""recordClick(this)""><div class = content><div class = numbers>Y</div></div></button><button class = clear_button id = ""ClearButton"" onclick = ""clearResponse()"">BACKSPACE</button><button class = blank_button id = ""BlankButton"" onclick = ""blankResponse()"">SKIP</button><p style=""font-size: 2.4rem""><u><b>Current Answer:</b></u></p><br><br><div id=echoed_txt style=""font-size: 5rem; color:blue;""><b></b></div></div>",enter,ospan,retrieval,mEfv53Q8X8O6FKBkjztVMOKuXTp2,html-keyboard-response,170,1429132,0.0-43.0-5.0-1.0-2.0,28,28,28,7.0,"[""K"",""J"",""S"",""Y"",""G"",""R"",""Q""]","[""K"",""J"",""S"",""Y"",""G"",""R"",""Q""]",1.0,7.0,,,,,,,%2065bfb41fd7a1911a6a7db2c3,10:55:58,12/03/2024
1657.300000011921,[''],0,ospan,feedback,mEfv53Q8X8O6FKBkjztVMOKuXTp2,html-button-response,171,1431295,0.0-43.0-5.0-1.0-3.0,,,,,,,,,,,,100.0,0.0,,%2065bfb41fd7a1911a6a7db2c3,10:55:58,12/03/2024
,"<p style=""font-size:75px;"">...</p>",,ospan,iti,mEfv53Q8X8O6FKBkjztVMOKuXTp2,html-keyboard-response,172,1432308,0.0-43.0-6.0-0.0-0.0,,,,,,,,,,,,,,,%2065bfb41fd7a1911a6a7db2c3,10:55:58,12/03/2024
5009.0,,,ospan,symmetry,mEfv53Q8X8O6FKBkjztVMOKuXTp2,symmetry-judgement-task,173,1438394,0.0-43.0-6.0-0.0-1.0-0.0,,,,,,,,,,1.0,1.0,,,,%2065bfb41fd7a1911a6a7db2c3,10:55:58,12/03/2024
,"<div style=""font-size: 10rem; color: #0000FF"">S</div>",,ospan,letter,mEfv53Q8X8O6FKBkjztVMOKuXTp2,html-keyboard-response,174,1439410,0.0-43.0-6.0-0.0-1.0-1.0,,,,,,,,,,,,,,,%2065bfb41fd7a1911a6a7db2c3,10:55:58,12/03/2024
5239.0,,,ospan,symmetry,mEfv53Q8X8O6FKBkjztVMOKuXTp2,symmetry-judgement-task,175,1446597,0.0-43.0-6.0-0.0-1.0-2.0,,,,,,,,,,1.0,1.0,,,,%2065bfb41fd7a1911a6a7db2c3,10:55:58,12/03/2024
,"<div style=""font-size: 10rem; color: #0000FF"">K</div>",,ospan,letter,mEfv53Q8X8O6FKBkjztVMOKuXTp2,html-keyboard-response,176,1447606,0.0-43.0-6.0-0.0-1.0-3.0,,,,,,,,,,,,,,,%2065bfb41fd7a1911a6a7db2c3,10:55:58,12/03/2024
3129.0,,,ospan,symmetry,mEfv53Q8X8O6FKBkjztVMOKuXTp2,symmetry-judgement-task,177,1452654,0.0-43.0-6.0-0.0-1.0-4.0,,,,,,,,,,1.0,1.0,,,,%2065bfb41fd7a1911a6a7db2c3,10:55:58,12/03/2024
,"<div style=""font-size: 10rem; color: #0000FF"">H</div>",,ospan,letter,mEfv53Q8X8O6FKBkjztVMOKuXTp2,html-keyboard-response,178,1453657,0.0-43.0-6.0-0.0-1.0-5.0,,,,,,,,,,,,,,,%2065bfb41fd7a1911a6a7db2c3,10:55:58,12/03/2024
2318.0,,,ospan,symmetry,mEfv53Q8X8O6FKBkjztVMOKuXTp2,symmetry-judgement-task,179,1457884,0.0-43.0-6.0-0.0-1.0-6.0,,,,,,,,,,1.0,1.0,,,,%2065bfb41fd7a1911a6a7db2c3,10:55:58,12/03/2024
,"<div style=""font-size: 10rem; color: #0000FF"">J</div>",,ospan,letter,mEfv53Q8X8O6FKBkjztVMOKuXTp2,html-keyboard-response,180,1458902,0.0-43.0-6.0-0.0-1.0-7.0,,,,,,,,,,,,,,,%2065bfb41fd7a1911a6a7db2c3,10:55:58,12/03/2024
2142.0,,,ospan,symmetry,mEfv53Q8X8O6FKBkjztVMOKuXTp2,symmetry-judgement-task,181,1462975,0.0-43.0-6.0-0.0-1.0-8.0,,,,,,,,,,1.0,1.0,,,,%2065bfb41fd7a1911a6a7db2c3,10:55:58,12/03/2024
,"<div style=""font-size: 10rem; color: #0000FF"">L</div>",,ospan,letter,mEfv53Q8X8O6FKBkjztVMOKuXTp2,html-keyboard-response,182,1463992,0.0-43.0-6.0-0.0-1.0-9.0,,,,,,,,,,,,,,,%2065bfb41fd7a1911a6a7db2c3,10:55:58,12/03/2024
15692.700000047684,"<div class = numbox><p style=""font-size: 2.4rem"">Please recall the letters you saw to the best of your ability. If you do not remember a particular letter, use the SKIP button.<br><b>(When you are ready to lock in your answer, press ENTER)</b></p><button id = button_1 class = ""square num-button"" onclick = ""recordClick(this)""><div class = content><div class = numbers>C</div></div></button><button id = button_2 class = ""square num-button"" onclick = ""recordClick(this)""><div class = content><div class = numbers>G</div></div></button><button id = button_3 class = ""square num-button"" onclick = ""recordClick(this)""><div class = content><div class = numbers>H</div></div></button><button id = button_4 class = ""square num-button"" onclick = ""recordClick(this)""><div class = content><div class = numbers>J</div></div></button><button id = button_5 class = ""square num-button"" onclick = ""recordClick(this)""><div class = content><div class = numbers>K</div></div></button><button id = button_6 class = ""square num-button"" onclick = ""recordClick(this)""><div class = content><div class = numbers>L</div></div></button><button id = button_7 class = ""square num-button"" onclick = ""recordClick(this)""><div class = content><div class = numbers>N</div></div></button><button id = button_8 class = ""square num-button"" onclick = ""recordClick(this)""><div class = content><div class = numbers>P</div></div></button><button id = button_9 class = ""square num-button"" onclick = ""recordClick(this)""><div class = content><div class = numbers>Q</div></div></button><button id = button_10 class = ""square num-button"" onclick = ""recordClick(this)""><div class = content><div class = numbers>R</div></div></button><button id = button_11 class = ""square num-button"" onclick = ""recordClick(this)""><div class = content><div class = numbers>S</div></div></button><button id = button_12 class = ""square num-button"" onclick = ""recordClick(this)""><div class = content><div class = numbers>Y</div></div></button><button class = clear_button id = ""ClearButton"" onclick = ""clearResponse()"">BACKSPACE</button><button class = blank_button id = ""BlankButton"" onclick = ""blankResponse()"">SKIP</button><p style=""font-size: 2.4rem""><u><b>Current Answer:</b></u></p><br><br><div id=echoed_txt style=""font-size: 5rem; color:blue;""><b></b></div></div>",enter,ospan,retrieval,mEfv53Q8X8O6FKBkjztVMOKuXTp2,html-keyboard-response,183,1480452,0.0-43.0-6.0-0.0-2.0,33,33,33,5.0,"[""S"",""K"",""H"",""J"",""L""]","[""S"",""K"",""H"",""J"",""L""]",1.0,5.0,,,,,,,%2065bfb41fd7a1911a6a7db2c3,10:55:58,12/03/2024
1030.7999999523163,[''],0,ospan,feedback,mEfv53Q8X8O6FKBkjztVMOKuXTp2,html-button-response,184,1481991,0.0-43.0-6.0-0.0-3.0,,,,,,,,,,,,100.0,0.0,,%2065bfb41fd7a1911a6a7db2c3,10:55:58,12/03/2024
,"<p style=""font-size:75px;"">...</p>",,ospan,iti,mEfv53Q8X8O6FKBkjztVMOKuXTp2,html-keyboard-response,185,1483003,0.0-43.0-6.0-1.0-0.0,,,,,,,,,,,,,,,%2065bfb41fd7a1911a6a7db2c3,10:55:58,12/03/2024
2357.0,,,ospan,symmetry,mEfv53Q8X8O6FKBkjztVMOKuXTp2,symmetry-judgement-task,186,1486561,0.0-43.0-6.0-1.0-1.0-0.0,,,,,,,,,,1.0,1.0,,,,%2065bfb41fd7a1911a6a7db2c3,10:55:58,12/03/2024
,"<div style=""font-size: 10rem; color: #0000FF"">R</div>",,ospan,letter,mEfv53Q8X8O6FKBkjztVMOKuXTp2,html-keyboard-response,187,1487566,0.0-43.0-6.0-1.0-1.0-1.0,,,,,,,,,,,,,,,%2065bfb41fd7a1911a6a7db2c3,10:55:58,12/03/2024
3800.0,,,ospan,symmetry,mEfv53Q8X8O6FKBkjztVMOKuXTp2,symmetry-judgement-task,188,1493302,0.0-43.0-6.0-1.0-1.0-2.0,,,,,,,,,,1.0,1.0,,,,%2065bfb41fd7a1911a6a7db2c3,10:55:58,12/03/2024
,"<div style=""font-size: 10rem; color: #0000FF"">H</div>",,ospan,letter,mEfv53Q8X8O6FKBkjztVMOKuXTp2,html-keyboard-response,189,1494315,0.0-43.0-6.0-1.0-1.0-3.0,,,,,,,,,,,,,,,%2065bfb41fd7a1911a6a7db2c3,10:55:58,12/03/2024
2051.0,,,ospan,symmetry,mEfv53Q8X8O6FKBkjztVMOKuXTp2,symmetry-judgement-task,190,1498297,0.0-43.0-6.0-1.0-1.0-4.0,,,,,,,,,,1.0,1.0,,,,%2065bfb41fd7a1911a6a7db2c3,10:55:58,12/03/2024
,"<div style=""font-size: 10rem; color: #0000FF"">C</div>",,ospan,letter,mEfv53Q8X8O6FKBkjztVMOKuXTp2,html-keyboard-response,191,1499301,0.0-43.0-6.0-1.0-1.0-5.0,,,,,,,,,,,,,,,%2065bfb41fd7a1911a6a7db2c3,10:55:58,12/03/2024
3346.0,,,ospan,symmetry,mEfv53Q8X8O6FKBkjztVMOKuXTp2,symmetry-judgement-task,192,1504573,0.0-43.0-6.0-1.0-1.0-6.0,,,,,,,,,,1.0,1.0,,,,%2065bfb41fd7a1911a6a7db2c3,10:55:58,12/03/2024
,"<div style=""font-size: 10rem; color: #0000FF"">P</div>",,ospan,letter,mEfv53Q8X8O6FKBkjztVMOKuXTp2,html-keyboard-response,193,1505583,0.0-43.0-6.0-1.0-1.0-7.0,,,,,,,,,,,,,,,%2065bfb41fd7a1911a6a7db2c3,10:55:58,12/03/2024
1716.0,,,ospan,symmetry,mEfv53Q8X8O6FKBkjztVMOKuXTp2,symmetry-judgement-task,194,1509219,0.0-43.0-6.0-1.0-1.0-8.0,,,,,,,,,,1.0,1.0,,,,%2065bfb41fd7a1911a6a7db2c3,10:55:58,12/03/2024
,"<div style=""font-size: 10rem; color: #0000FF"">G</div>",,ospan,letter,mEfv53Q8X8O6FKBkjztVMOKuXTp2,html-keyboard-response,195,1510228,0.0-43.0-6.0-1.0-1.0-9.0,,,,,,,,,,,,,,,%2065bfb41fd7a1911a6a7db2c3,10:55:58,12/03/2024
1454.0,,,ospan,symmetry,mEfv53Q8X8O6FKBkjztVMOKuXTp2,symmetry-judgement-task,196,1513596,0.0-43.0-6.0-1.0-1.0-10.0,,,,,,,,,,1.0,1.0,,,,%2065bfb41fd7a1911a6a7db2c3,10:55:58,12/03/2024
,"<div style=""font-size: 10rem; color: #0000FF"">L</div>",,ospan,letter,mEfv53Q8X8O6FKBkjztVMOKuXTp2,html-keyboard-response,197,1514606,0.0-43.0-6.0-1.0-1.0-11.0,,,,,,,,,,,,,,,%2065bfb41fd7a1911a6a7db2c3,10:55:58,12/03/2024
1408.0,,,ospan,symmetry,mEfv53Q8X8O6FKBkjztVMOKuXTp2,symmetry-judgement-task,198,1517941,0.0-43.0-6.0-1.0-1.0-12.0,,,,,,,,,,1.0,1.0,,,,%2065bfb41fd7a1911a6a7db2c3,10:55:58,12/03/2024
,"<div style=""font-size: 10rem; color: #0000FF"">Q</div>",,ospan,letter,mEfv53Q8X8O6FKBkjztVMOKuXTp2,html-keyboard-response,199,1518949,0.0-43.0-6.0-1.0-1.0-13.0,,,,,,,,,,,,,,,%2065bfb41fd7a1911a6a7db2c3,10:55:58,12/03/2024
1646.0,,,ospan,symmetry,mEfv53Q8X8O6FKBkjztVMOKuXTp2,symmetry-judgement-task,200,1522534,0.0-43.0-6.0-1.0-1.0-14.0,,,,,,,,,,1.0,1.0,,,,%2065bfb41fd7a1911a6a7db2c3,10:55:58,12/03/2024
,"<div style=""font-size: 10rem; color: #0000FF"">K</div>",,ospan,letter,mEfv53Q8X8O6FKBkjztVMOKuXTp2,html-keyboard-response,201,1523542,0.0-43.0-6.0-1.0-1.0-15.0,,,,,,,,,,,,,,,%2065bfb41fd7a1911a6a7db2c3,10:55:58,12/03/2024
27803.200000047684,"<div class = numbox><p style=""font-size: 2.4rem"">Please recall the letters you saw to the best of your ability. If you do not remember a particular letter, use the SKIP button.<br><b>(When you are ready to lock in your answer, press ENTER)</b></p><button id = button_1 class = ""square num-button"" onclick = ""recordClick(this)""><div class = content><div class = numbers>C</div></div></button><button id = button_2 class = ""square num-button"" onclick = ""recordClick(this)""><div class = content><div class = numbers>G</div></div></button><button id = button_3 class = ""square num-button"" onclick = ""recordClick(this)""><div class = content><div class = numbers>H</div></div></button><button id = button_4 class = ""square num-button"" onclick = ""recordClick(this)""><div class = content><div class = numbers>J</div></div></button><button id = button_5 class = ""square num-button"" onclick = ""recordClick(this)""><div class = content><div class = numbers>K</div></div></button><button id = button_6 class = ""square num-button"" onclick = ""recordClick(this)""><div class = content><div class = numbers>L</div></div></button><button id = button_7 class = ""square num-button"" onclick = ""recordClick(this)""><div class = content><div class = numbers>N</div></div></button><button id = button_8 class = ""square num-button"" onclick = ""recordClick(this)""><div class = content><div class = numbers>P</div></div></button><button id = button_9 class = ""square num-button"" onclick = ""recordClick(this)""><div class = content><div class = numbers>Q</div></div></button><button id = button_10 class = ""square num-button"" onclick = ""recordClick(this)""><div class = content><div class = numbers>R</div></div></button><button id = button_11 class = ""square num-button"" onclick = ""recordClick(this)""><div class = content><div class = numbers>S</div></div></button><button id = button_12 class = ""square num-button"" onclick = ""recordClick(this)""><div class = content><div class = numbers>Y</div></div></button><button class = clear_button id = ""ClearButton"" onclick = ""clearResponse()"">BACKSPACE</button><button class = blank_button id = ""BlankButton"" onclick = ""blankResponse()"">SKIP</button><p style=""font-size: 2.4rem""><u><b>Current Answer:</b></u></p><br><br><div id=echoed_txt style=""font-size: 5rem; color:blue;""><b></b></div></div>",enter,ospan,retrieval,mEfv53Q8X8O6FKBkjztVMOKuXTp2,html-keyboard-response,202,1552107,0.0-43.0-6.0-1.0-2.0,41,41,41,8.0,"[""R"",""H"",""C"",""P"",""G"",""L"",""Q"",""K""]","[""R"",""H"",""C"",""P"",""G"",""L"",""Q"",""K""]",1.0,8.0,,,,,,,%2065bfb41fd7a1911a6a7db2c3,10:55:58,12/03/2024
1091.1000000238419,[''],0,ospan,feedback,mEfv53Q8X8O6FKBkjztVMOKuXTp2,html-button-response,203,1553706,0.0-43.0-6.0-1.0-3.0,,,,,,,,,,,,100.0,0.0,,%2065bfb41fd7a1911a6a7db2c3,10:55:58,12/03/2024
51741.60000002384,,{'Q0': 'Trying to remember the letters and symmetrical map was fun. I cannot find any dislike in this test.'},ospan,survey_ospan,mEfv53Q8X8O6FKBkjztVMOKuXTp2,lmdlab-survey-text,204,1606203,0.0-43.0-7.0,,,,,,,,,,,,,,mEfv53Q8X8O6FKBkjztVMOKuXTp2,%2065bfb41fd7a1911a6a7db2c3,10:55:58,12/03/2024
3008.5,<p><p style='font-size: 3rem'>Great work!<br><br>This completes the symmetry and memory task.</p><br><br><br>,0,ospan,finish,mEfv53Q8X8O6FKBkjztVMOKuXTp2,html-button-response,205,1609215,0.0-43.0-8.0,41,41,41,,,,,,,,,100.0,,,%2065bfb41fd7a1911a6a7db2c3,10:55:58,12/03/2024
