rt,stimulus,response,exp_name,exp_stage,subjectID,trial_type,trial_index,time_elapsed,internal_node_id,ospan_shown,ospan_total,ospan_abs,length,resp_actual,resp_correct,full_correct,num_correct,feedback,accuracy,correct,math_acc,math_warning,databaseID,prolificID,start_time,date
2164.199999988079,<div class = 'left_align' style='font-size: 3.25rem; line-height: 1.3;'><p class = 'center_align'><b>Welcome to the Symmetry and Memory Task</b><br><br><br><br></p>Press 'continue' to show the instructions.<br><br><br><br></div>,0,ospan,instruct,gIflrkiPPAUchQe2Xt3Th38C3Hq2,html-button-response,54,618315,0.0-46.0-0.0-0.0-0.0,,,,,,,,,,,,,,,5f85f0cab3f4e20ebf578203,17:02:52,03/04/2024
91287.89999999106,"<div class = 'left_align' style='font-size: 3.25rem; line-height: 1.3;'><p class = 'center_align'><b>Symmetry and Memory Task</b><br><br></p>In this task, you will try to memorize letters you see on the screen<br>while you also view black and white grid pictures.<br><br>In the next few minutes, you will have some practice to get you familiar<br>with how the task works.<br><br>It may be difficult sometimes, but please do not worry about making mistakes!<br><br>We will begin by practicing the letter part of the task.<br><br><br><br></div>",0,ospan,instruct,gIflrkiPPAUchQe2Xt3Th38C3Hq2,html-button-response,55,709865,0.0-46.0-0.0-0.0-1.0,,,,,,,,,,,,,,,5f85f0cab3f4e20ebf578203,17:02:52,03/04/2024
12451.20000000298,"<div class = 'left_align' style='font-size: 3.25rem; line-height: 1.3;'>For this practice part, letters will appear on the screen one at a time.<br><br>Try to remember each letter in the order presented.<br><br>After some letters have been shown, you will see a response screen. Your<br>goal is to report the letters you saw <b>in order</b>. If you do not remember<br>a particular letter, you will have the option to leave it blank.<br><br><br><br></div>",0,ospan,instruct,gIflrkiPPAUchQe2Xt3Th38C3Hq2,html-button-response,56,722575,0.0-46.0-0.0-0.0-2.0,,,,,,,,,,,,,,,5f85f0cab3f4e20ebf578203,17:02:52,03/04/2024
2351.5999999940395,"<div class = 'left_align' style='font-size: 3.25rem; line-height: 1.3;'>Remember, it is very important to get the letters in the same<br>order as you see them.<br><br>When you are ready, you may begin the letter practice.</div><br><br><br><br>",0,ospan,instruct,gIflrkiPPAUchQe2Xt3Th38C3Hq2,html-button-response,57,725186,0.0-46.0-0.0-0.0-3.0,,,,,,,,,,,,,,,5f85f0cab3f4e20ebf578203,17:02:52,03/04/2024
,"<p style=""font-size:75px;"">...</p>",,ospan,iti,gIflrkiPPAUchQe2Xt3Th38C3Hq2,html-keyboard-response,58,726447,0.0-46.0-0.0-1.0-0.0,,,,,,,,,,,,,,,5f85f0cab3f4e20ebf578203,17:02:52,03/04/2024
,"<div style=""font-size: 10rem; color: #0000FF"">K</div>",,ospan,letter,gIflrkiPPAUchQe2Xt3Th38C3Hq2,html-keyboard-response,59,727459,0.0-46.0-0.0-1.0-1.0,,,,,,,,,,,,,,,5f85f0cab3f4e20ebf578203,17:02:52,03/04/2024
,"<div style=""font-size: 10rem; color: #0000FF"">P</div>",,ospan,letter,gIflrkiPPAUchQe2Xt3Th38C3Hq2,html-keyboard-response,60,729227,0.0-46.0-0.0-1.0-2.0,,,,,,,,,,,,,,,5f85f0cab3f4e20ebf578203,17:02:52,03/04/2024
13819.09999999404,"<div class = numbox><p style=""font-size: 2.4rem"">Please recall the letters you saw to the best of your ability. If you do not remember a particular letter, use the SKIP button.<br><b>(When you are ready to lock in your answer, press ENTER)</b></p><button id = button_1 class = ""square num-button"" onclick = ""recordClick(this)""><div class = content><div class = numbers>C</div></div></button><button id = button_2 class = ""square num-button"" onclick = ""recordClick(this)""><div class = content><div class = numbers>G</div></div></button><button id = button_3 class = ""square num-button"" onclick = ""recordClick(this)""><div class = content><div class = numbers>H</div></div></button><button id = button_4 class = ""square num-button"" onclick = ""recordClick(this)""><div class = content><div class = numbers>J</div></div></button><button id = button_5 class = ""square num-button"" onclick = ""recordClick(this)""><div class = content><div class = numbers>K</div></div></button><button id = button_6 class = ""square num-button"" onclick = ""recordClick(this)""><div class = content><div class = numbers>L</div></div></button><button id = button_7 class = ""square num-button"" onclick = ""recordClick(this)""><div class = content><div class = numbers>N</div></div></button><button id = button_8 class = ""square num-button"" onclick = ""recordClick(this)""><div class = content><div class = numbers>P</div></div></button><button id = button_9 class = ""square num-button"" onclick = ""recordClick(this)""><div class = content><div class = numbers>Q</div></div></button><button id = button_10 class = ""square num-button"" onclick = ""recordClick(this)""><div class = content><div class = numbers>R</div></div></button><button id = button_11 class = ""square num-button"" onclick = ""recordClick(this)""><div class = content><div class = numbers>S</div></div></button><button id = button_12 class = ""square num-button"" onclick = ""recordClick(this)""><div class = content><div class = numbers>Y</div></div></button><button class = clear_button id = ""ClearButton"" onclick = ""clearResponse()"">BACKSPACE</button><button class = blank_button id = ""BlankButton"" onclick = ""blankResponse()"">SKIP</button><p style=""font-size: 2.4rem""><u><b>Current Answer:</b></u></p><br><br><div id=echoed_txt style=""font-size: 5rem; color:blue;""><b></b></div></div>",enter,ospan,retrieval,gIflrkiPPAUchQe2Xt3Th38C3Hq2,html-keyboard-response,61,743807,0.0-46.0-0.0-1.0-3.0,NA,NA,NA,2.0,"[""K"",""P""]","[""K"",""P""]",1.0,2.0,"['<font color=""green"">K</font>', '<font color=""green"">P</font>']",,,,,,5f85f0cab3f4e20ebf578203,17:02:52,03/04/2024
2193.7999999970198,"['<p style=""font-size:44px"">Letters:<br><br><br><font color=""green"">K</font> <font color=""green"">P</font></p><br><br>']",0,ospan,practice_feedback,gIflrkiPPAUchQe2Xt3Th38C3Hq2,html-button-response,62,746505,0.0-46.0-0.0-1.0-4.0,,,,,,,,,,,,,,,5f85f0cab3f4e20ebf578203,17:02:52,03/04/2024
,"<p style=""font-size:75px;"">...</p>",,ospan,iti,gIflrkiPPAUchQe2Xt3Th38C3Hq2,html-keyboard-response,63,747513,0.0-46.0-0.0-2.0-0.0,,,,,,,,,,,,,,,5f85f0cab3f4e20ebf578203,17:02:52,03/04/2024
,"<div style=""font-size: 10rem; color: #0000FF"">S</div>",,ospan,letter,gIflrkiPPAUchQe2Xt3Th38C3Hq2,html-keyboard-response,64,748519,0.0-46.0-0.0-2.0-1.0,,,,,,,,,,,,,,,5f85f0cab3f4e20ebf578203,17:02:52,03/04/2024
,"<div style=""font-size: 10rem; color: #0000FF"">C</div>",,ospan,letter,gIflrkiPPAUchQe2Xt3Th38C3Hq2,html-keyboard-response,65,750277,0.0-46.0-0.0-2.0-2.0,,,,,,,,,,,,,,,5f85f0cab3f4e20ebf578203,17:02:52,03/04/2024
,"<div style=""font-size: 10rem; color: #0000FF"">K</div>",,ospan,letter,gIflrkiPPAUchQe2Xt3Th38C3Hq2,html-keyboard-response,66,752042,0.0-46.0-0.0-2.0-3.0,,,,,,,,,,,,,,,5f85f0cab3f4e20ebf578203,17:02:52,03/04/2024
7550.0,"<div class = numbox><p style=""font-size: 2.4rem"">Please recall the letters you saw to the best of your ability. If you do not remember a particular letter, use the SKIP button.<br><b>(When you are ready to lock in your answer, press ENTER)</b></p><button id = button_1 class = ""square num-button"" onclick = ""recordClick(this)""><div class = content><div class = numbers>C</div></div></button><button id = button_2 class = ""square num-button"" onclick = ""recordClick(this)""><div class = content><div class = numbers>G</div></div></button><button id = button_3 class = ""square num-button"" onclick = ""recordClick(this)""><div class = content><div class = numbers>H</div></div></button><button id = button_4 class = ""square num-button"" onclick = ""recordClick(this)""><div class = content><div class = numbers>J</div></div></button><button id = button_5 class = ""square num-button"" onclick = ""recordClick(this)""><div class = content><div class = numbers>K</div></div></button><button id = button_6 class = ""square num-button"" onclick = ""recordClick(this)""><div class = content><div class = numbers>L</div></div></button><button id = button_7 class = ""square num-button"" onclick = ""recordClick(this)""><div class = content><div class = numbers>N</div></div></button><button id = button_8 class = ""square num-button"" onclick = ""recordClick(this)""><div class = content><div class = numbers>P</div></div></button><button id = button_9 class = ""square num-button"" onclick = ""recordClick(this)""><div class = content><div class = numbers>Q</div></div></button><button id = button_10 class = ""square num-button"" onclick = ""recordClick(this)""><div class = content><div class = numbers>R</div></div></button><button id = button_11 class = ""square num-button"" onclick = ""recordClick(this)""><div class = content><div class = numbers>S</div></div></button><button id = button_12 class = ""square num-button"" onclick = ""recordClick(this)""><div class = content><div class = numbers>Y</div></div></button><button class = clear_button id = ""ClearButton"" onclick = ""clearResponse()"">BACKSPACE</button><button class = blank_button id = ""BlankButton"" onclick = ""blankResponse()"">SKIP</button><p style=""font-size: 2.4rem""><u><b>Current Answer:</b></u></p><br><br><div id=echoed_txt style=""font-size: 5rem; color:blue;""><b></b></div></div>",enter,ospan,retrieval,gIflrkiPPAUchQe2Xt3Th38C3Hq2,html-keyboard-response,67,760353,0.0-46.0-0.0-2.0-4.0,NA,NA,NA,3.0,"[""S"",""C"",""K""]","[""S"",""C"",""K""]",1.0,3.0,"['<font color=""green"">S</font>', '<font color=""green"">C</font>', '<font color=""green"">K</font>']",,,,,,5f85f0cab3f4e20ebf578203,17:02:52,03/04/2024
1530.2000000029802,"['<p style=""font-size:44px"">Letters:<br><br><br><font color=""green"">S</font> <font color=""green"">C</font> <font color=""green"">K</font></p><br><br>']",0,ospan,practice_feedback,gIflrkiPPAUchQe2Xt3Th38C3Hq2,html-button-response,68,762391,0.0-46.0-0.0-2.0-5.0,,,,,,,,,,,,,,,5f85f0cab3f4e20ebf578203,17:02:52,03/04/2024
92581.30000001192,"<div class = 'left_align' style='font-size: 3.25rem; line-height: 1.3;'>Now you will practice doing the <b>symmetry judgment part</b> of the experiment.<br><br>A black and white grid picture will appear on the screen and you have to judge if it is <br>symmetrical or asymetrical.<br><br>A picture is 'mirror' symmetrical if its left half is identical to the right half when flipped.<br>Here are examples of a symmetrical and an asymetrical picture:<br><br><center><img src='Stimuli/img/symm_instructions_extra.png' style='height:420px; width:900'></img></center><br>To judge symmetry, imagine you were to fold each picture down the middle, like a book –<br>would the left half match the right half when folded onto each other?<br><br></div><br>",0,ospan,instruct,gIflrkiPPAUchQe2Xt3Th38C3Hq2,html-button-response,69,854974,0.0-46.0-1.0-0.0-0.0,,,,,,,,,,,,,,,5f85f0cab3f4e20ebf578203,17:02:52,03/04/2024
7309.0,"<div class = 'left_align' style='font-size: 3.25rem; line-height: 1.3;'>When you have viewed the picture and determined whether it is symmetrical or not,<br>you can <b>click the Yes or No button</b> below to answer.<br><br>If you take longer than 15 seconds, it will continue automatically<br>and record the answer as an error.</div><br>",0,ospan,instruct,gIflrkiPPAUchQe2Xt3Th38C3Hq2,html-button-response,70,862543,0.0-46.0-1.0-0.0-1.0,,,,,,,,,,,,,,,5f85f0cab3f4e20ebf578203,17:02:52,03/04/2024
3997.7000000029802,"<div class = 'left_align' style='font-size: 3.25rem; line-height: 1.3;'>It is <b>very</b> important that you make the symmetry judgment correctly.<br><br>It is also important that you try and judge the picture as quickly as you can.<br><br>When you are ready, click on the button below to try some practice problems.</div><br><br><br><br>",0,ospan,instruct,gIflrkiPPAUchQe2Xt3Th38C3Hq2,html-button-response,71,866801,0.0-46.0-1.0-0.0-2.0,,,,,,,,,,,,,,,5f85f0cab3f4e20ebf578203,17:02:52,03/04/2024
4652.0,,,ospan,symmetry,gIflrkiPPAUchQe2Xt3Th38C3Hq2,symmetry-judgement-task,72,872273,0.0-46.0-1.0-1.0-0.0,,,,,,,,,,1.0,1.0,,,,5f85f0cab3f4e20ebf578203,17:02:52,03/04/2024
,"<p style=""color:green; font-size: 35px"">Correct</p>",,ospan,feedback,gIflrkiPPAUchQe2Xt3Th38C3Hq2,html-keyboard-response,73,873041,0.0-46.0-1.0-1.0-1.0,,,,,,,,,,,,,,,5f85f0cab3f4e20ebf578203,17:02:52,03/04/2024
2584.0,,,ospan,symmetry,gIflrkiPPAUchQe2Xt3Th38C3Hq2,symmetry-judgement-task,74,878294,0.0-46.0-1.0-1.0-2.0,,,,,,,,,,1.0,1.0,,,,5f85f0cab3f4e20ebf578203,17:02:52,03/04/2024
,"<p style=""color:green; font-size: 35px"">Correct</p>",,ospan,feedback,gIflrkiPPAUchQe2Xt3Th38C3Hq2,html-keyboard-response,75,879061,0.0-46.0-1.0-1.0-3.0,,,,,,,,,,,,,,,5f85f0cab3f4e20ebf578203,17:02:52,03/04/2024
3257.0,,,ospan,symmetry,gIflrkiPPAUchQe2Xt3Th38C3Hq2,symmetry-judgement-task,76,884993,0.0-46.0-1.0-1.0-4.0,,,,,,,,,,1.0,1.0,,,,5f85f0cab3f4e20ebf578203,17:02:52,03/04/2024
,"<p style=""color:green; font-size: 35px"">Correct</p>",,ospan,feedback,gIflrkiPPAUchQe2Xt3Th38C3Hq2,html-keyboard-response,77,885750,0.0-46.0-1.0-1.0-5.0,,,,,,,,,,,,,,,5f85f0cab3f4e20ebf578203,17:02:52,03/04/2024
1740.7999999970198,"<p style=""font-size: 3rem;"">You responded correctly on 3 of 3 symmetry judgments. Good job!</p><br><br>",0,ospan,practice,gIflrkiPPAUchQe2Xt3Th38C3Hq2,html-button-response,78,889502,0.0-46.0-1.0-2.0,,,,,,,,,,,,,,,5f85f0cab3f4e20ebf578203,17:02:52,03/04/2024
238250.40000000596,"<div class = 'left_align' style='font-size: 3.25rem; line-height: 1.3;'>Now you will practice doing both parts of the experiment at the same time.<br><br>In the next practice set, you will be given one grid picture to judge.<br>Then letter will appear on the screen. Try to remember the letter.<br><br>It is <b>very important</b> to make the symmetry judgment as quickly and accurately as possible.<br><br>Just as before, once you have make the symmetry judgment, you can click Yes or No.<br><b>Note that you will no longer see Correct or Incorrect feedback.</div><br><br><br><br>",0,ospan,instruct,gIflrkiPPAUchQe2Xt3Th38C3Hq2,html-button-response,79,1128015,0.0-46.0-2.0-0.0-0.0,,,,,,,,,,,,,,,5f85f0cab3f4e20ebf578203,17:02:52,03/04/2024
12949.79999999702,"<div class = 'left_align' style='font-size: 3.25rem; line-height: 1.3;'>After the letter goes away, another grid picture will appear, and then<br>another letter.<br><br>At the end of each set of letters and grids, you will recall the letters to the best<br>of your ability. Remember, try your best to get the letters in the correct order.<br><br>It is important to <b>quickly</b> and <b>accurately</b> make the symmetry judgments.</div><br><br><br><br>",0,ospan,instruct,gIflrkiPPAUchQe2Xt3Th38C3Hq2,html-button-response,80,1141226,0.0-46.0-2.0-0.0-1.0,,,,,,,,,,,,,,,5f85f0cab3f4e20ebf578203,17:02:52,03/04/2024
10455.59999999404,"<div class = 'left_align' style='font-size: 3.25rem; line-height: 1.3;'>On the feedback screen, if you are not doing well at the symmetry judgments,<br>you will also see a warning in the middle. This indicates your percent <br>correct for the grid pictures for the entire experiment.<br><br>It is <b>very</b> important for you to keep accuracy at least at 85%: <u>We can only use<br>data where the participant was at least 85% accurate on the judgments.</u> Therefore,<br> please try your best to perform well on the symmetry judgments, <b>at the same time</b><br>doing your best to recall as many letters as possible.<br><br>Click the button to try some practice problems.</div><br><br><br><br>",0,ospan,instruct,gIflrkiPPAUchQe2Xt3Th38C3Hq2,html-button-response,81,1151936,0.0-46.0-2.0-0.0-2.0,,,,,,,,,,,,,,,5f85f0cab3f4e20ebf578203,17:02:52,03/04/2024
,"<p style=""font-size:75px;"">...</p>",,ospan,iti,gIflrkiPPAUchQe2Xt3Th38C3Hq2,html-keyboard-response,82,1153201,0.0-46.0-2.0-1.0-0.0,,,,,,,,,,,,,,,5f85f0cab3f4e20ebf578203,17:02:52,03/04/2024
2796.0,,,ospan,symmetry,gIflrkiPPAUchQe2Xt3Th38C3Hq2,symmetry-judgement-task,83,1157173,0.0-46.0-2.0-1.0-1.0-0.0,,,,,,,,,,1.0,1.0,,,,5f85f0cab3f4e20ebf578203,17:02:52,03/04/2024
,"<div style=""font-size: 10rem; color: #0000FF"">L</div>",,ospan,letter,gIflrkiPPAUchQe2Xt3Th38C3Hq2,html-keyboard-response,84,1158177,0.0-46.0-2.0-1.0-1.0-1.0,,,,,,,,,,,,,,,5f85f0cab3f4e20ebf578203,17:02:52,03/04/2024
2728.0,,,ospan,symmetry,gIflrkiPPAUchQe2Xt3Th38C3Hq2,symmetry-judgement-task,85,1162817,0.0-46.0-2.0-1.0-1.0-2.0,,,,,,,,,,1.0,1.0,,,,5f85f0cab3f4e20ebf578203,17:02:52,03/04/2024
,"<div style=""font-size: 10rem; color: #0000FF"">K</div>",,ospan,letter,gIflrkiPPAUchQe2Xt3Th38C3Hq2,html-keyboard-response,86,1163822,0.0-46.0-2.0-1.0-1.0-3.0,,,,,,,,,,,,,,,5f85f0cab3f4e20ebf578203,17:02:52,03/04/2024
2867.0,,,ospan,symmetry,gIflrkiPPAUchQe2Xt3Th38C3Hq2,symmetry-judgement-task,87,1168611,0.0-46.0-2.0-1.0-1.0-4.0,,,,,,,,,,1.0,1.0,,,,5f85f0cab3f4e20ebf578203,17:02:52,03/04/2024
,"<div style=""font-size: 10rem; color: #0000FF"">R</div>",,ospan,letter,gIflrkiPPAUchQe2Xt3Th38C3Hq2,html-keyboard-response,88,1169617,0.0-46.0-2.0-1.0-1.0-5.0,,,,,,,,,,,,,,,5f85f0cab3f4e20ebf578203,17:02:52,03/04/2024
5045.899999991059,"<div class = numbox><p style=""font-size: 2.4rem"">Please recall the letters you saw to the best of your ability. If you do not remember a particular letter, use the SKIP button.<br><b>(When you are ready to lock in your answer, press ENTER)</b></p><button id = button_1 class = ""square num-button"" onclick = ""recordClick(this)""><div class = content><div class = numbers>C</div></div></button><button id = button_2 class = ""square num-button"" onclick = ""recordClick(this)""><div class = content><div class = numbers>G</div></div></button><button id = button_3 class = ""square num-button"" onclick = ""recordClick(this)""><div class = content><div class = numbers>H</div></div></button><button id = button_4 class = ""square num-button"" onclick = ""recordClick(this)""><div class = content><div class = numbers>J</div></div></button><button id = button_5 class = ""square num-button"" onclick = ""recordClick(this)""><div class = content><div class = numbers>K</div></div></button><button id = button_6 class = ""square num-button"" onclick = ""recordClick(this)""><div class = content><div class = numbers>L</div></div></button><button id = button_7 class = ""square num-button"" onclick = ""recordClick(this)""><div class = content><div class = numbers>N</div></div></button><button id = button_8 class = ""square num-button"" onclick = ""recordClick(this)""><div class = content><div class = numbers>P</div></div></button><button id = button_9 class = ""square num-button"" onclick = ""recordClick(this)""><div class = content><div class = numbers>Q</div></div></button><button id = button_10 class = ""square num-button"" onclick = ""recordClick(this)""><div class = content><div class = numbers>R</div></div></button><button id = button_11 class = ""square num-button"" onclick = ""recordClick(this)""><div class = content><div class = numbers>S</div></div></button><button id = button_12 class = ""square num-button"" onclick = ""recordClick(this)""><div class = content><div class = numbers>Y</div></div></button><button class = clear_button id = ""ClearButton"" onclick = ""clearResponse()"">BACKSPACE</button><button class = blank_button id = ""BlankButton"" onclick = ""blankResponse()"">SKIP</button><p style=""font-size: 2.4rem""><u><b>Current Answer:</b></u></p><br><br><div id=echoed_txt style=""font-size: 5rem; color:blue;""><b></b></div></div>",enter,ospan,retrieval,gIflrkiPPAUchQe2Xt3Th38C3Hq2,html-keyboard-response,89,1175427,0.0-46.0-2.0-1.0-2.0-0.0,NA,NA,NA,3.0,"[""L"",""K"",""R""]","[""L"",""K"",""R""]",1.0,3.0,"['<font color=""green"">L</font>', '<font color=""green"">K</font>', '<font color=""green"">R</font>']",,,,,,5f85f0cab3f4e20ebf578203,17:02:52,03/04/2024
2210.7999999970198,"['<p style=""font-size:44px"">Letters:<br><br><br><font color=""green"">L</font> <font color=""green"">K</font> <font color=""green"">R</font></p><br><br><p style=""font-size:30px"">Symmetry:<br><br><font color=""green"">100%</font></p><br><br>']",0,ospan,practice_feedback,gIflrkiPPAUchQe2Xt3Th38C3Hq2,html-button-response,90,1178153,0.0-46.0-2.0-1.0-2.0-1.0,,,,,,,,,,,,,,,5f85f0cab3f4e20ebf578203,17:02:52,03/04/2024
,"<p style=""font-size:75px;"">...</p>",,ospan,iti,gIflrkiPPAUchQe2Xt3Th38C3Hq2,html-keyboard-response,91,1179164,0.0-46.0-2.0-2.0-0.0,,,,,,,,,,,,,,,5f85f0cab3f4e20ebf578203,17:02:52,03/04/2024
3668.0,,,ospan,symmetry,gIflrkiPPAUchQe2Xt3Th38C3Hq2,symmetry-judgement-task,92,1183984,0.0-46.0-2.0-2.0-1.0-0.0,,,,,,,,,,1.0,1.0,,,,5f85f0cab3f4e20ebf578203,17:02:52,03/04/2024
,"<div style=""font-size: 10rem; color: #0000FF"">R</div>",,ospan,letter,gIflrkiPPAUchQe2Xt3Th38C3Hq2,html-keyboard-response,93,1184990,0.0-46.0-2.0-2.0-1.0-1.0,,,,,,,,,,,,,,,5f85f0cab3f4e20ebf578203,17:02:52,03/04/2024
2583.0,,,ospan,symmetry,gIflrkiPPAUchQe2Xt3Th38C3Hq2,symmetry-judgement-task,94,1189564,0.0-46.0-2.0-2.0-1.0-2.0,,,,,,,,,,1.0,1.0,,,,5f85f0cab3f4e20ebf578203,17:02:52,03/04/2024
,"<div style=""font-size: 10rem; color: #0000FF"">S</div>",,ospan,letter,gIflrkiPPAUchQe2Xt3Th38C3Hq2,html-keyboard-response,95,1190571,0.0-46.0-2.0-2.0-1.0-3.0,,,,,,,,,,,,,,,5f85f0cab3f4e20ebf578203,17:02:52,03/04/2024
3017.0,,,ospan,symmetry,gIflrkiPPAUchQe2Xt3Th38C3Hq2,symmetry-judgement-task,96,1195492,0.0-46.0-2.0-2.0-1.0-4.0,,,,,,,,,,1.0,1.0,,,,5f85f0cab3f4e20ebf578203,17:02:52,03/04/2024
,"<div style=""font-size: 10rem; color: #0000FF"">Y</div>",,ospan,letter,gIflrkiPPAUchQe2Xt3Th38C3Hq2,html-keyboard-response,97,1196500,0.0-46.0-2.0-2.0-1.0-5.0,,,,,,,,,,,,,,,5f85f0cab3f4e20ebf578203,17:02:52,03/04/2024
5855.0,"<div class = numbox><p style=""font-size: 2.4rem"">Please recall the letters you saw to the best of your ability. If you do not remember a particular letter, use the SKIP button.<br><b>(When you are ready to lock in your answer, press ENTER)</b></p><button id = button_1 class = ""square num-button"" onclick = ""recordClick(this)""><div class = content><div class = numbers>C</div></div></button><button id = button_2 class = ""square num-button"" onclick = ""recordClick(this)""><div class = content><div class = numbers>G</div></div></button><button id = button_3 class = ""square num-button"" onclick = ""recordClick(this)""><div class = content><div class = numbers>H</div></div></button><button id = button_4 class = ""square num-button"" onclick = ""recordClick(this)""><div class = content><div class = numbers>J</div></div></button><button id = button_5 class = ""square num-button"" onclick = ""recordClick(this)""><div class = content><div class = numbers>K</div></div></button><button id = button_6 class = ""square num-button"" onclick = ""recordClick(this)""><div class = content><div class = numbers>L</div></div></button><button id = button_7 class = ""square num-button"" onclick = ""recordClick(this)""><div class = content><div class = numbers>N</div></div></button><button id = button_8 class = ""square num-button"" onclick = ""recordClick(this)""><div class = content><div class = numbers>P</div></div></button><button id = button_9 class = ""square num-button"" onclick = ""recordClick(this)""><div class = content><div class = numbers>Q</div></div></button><button id = button_10 class = ""square num-button"" onclick = ""recordClick(this)""><div class = content><div class = numbers>R</div></div></button><button id = button_11 class = ""square num-button"" onclick = ""recordClick(this)""><div class = content><div class = numbers>S</div></div></button><button id = button_12 class = ""square num-button"" onclick = ""recordClick(this)""><div class = content><div class = numbers>Y</div></div></button><button class = clear_button id = ""ClearButton"" onclick = ""clearResponse()"">BACKSPACE</button><button class = blank_button id = ""BlankButton"" onclick = ""blankResponse()"">SKIP</button><p style=""font-size: 2.4rem""><u><b>Current Answer:</b></u></p><br><br><div id=echoed_txt style=""font-size: 5rem; color:blue;""><b></b></div></div>",enter,ospan,retrieval,gIflrkiPPAUchQe2Xt3Th38C3Hq2,html-keyboard-response,98,1203108,0.0-46.0-2.0-2.0-2.0-0.0,NA,NA,NA,3.0,"[""R"",""S"",""Y""]","[""R"",""S"",""Y""]",1.0,3.0,"['<font color=""green"">R</font>', '<font color=""green"">S</font>', '<font color=""green"">Y</font>']",,,,,,5f85f0cab3f4e20ebf578203,17:02:52,03/04/2024
2310.4000000059605,"['<p style=""font-size:44px"">Letters:<br><br><br><font color=""green"">R</font> <font color=""green"">S</font> <font color=""green"">Y</font></p><br><br><p style=""font-size:30px"">Symmetry:<br><br><font color=""green"">100%</font></p><br><br>']",0,ospan,practice_feedback,gIflrkiPPAUchQe2Xt3Th38C3Hq2,html-button-response,99,1205933,0.0-46.0-2.0-2.0-2.0-1.0,,,,,,,,,,,,,,,5f85f0cab3f4e20ebf578203,17:02:52,03/04/2024
233665.19999998808,"<div class = 'left_align' style='font-size: 3rem; line-height: 1.3;'><b>Great work! That is the end of practice.</b><br><br>The real trials will look just like the practice trials you just completed.<br><br><u>Here, you will not see feedback</u>. First, you will see an grid picture to judge,<br>then a letter to remember. When the recall screen appears, report the letters in the<br>order presented. If you forget a letter, remember to use the <b>blank</b> button to move to the<br>next letter. Some of the sets will have more symmetry grids and letters than others.<br><br>It is important that you do your best on both the symmetry judgments and the letter recall<br>parts of the experiment. For for the symmetry judgments, try to work as <b>quickly</b> and <br>as <b>accurately</b> as possible. Remember to keep your symmetry accuracy at 85% or above.<br><br><b>For the letters, do NOT use any external aid (e.g., writing on paper, electronic device).</b><br><br>It is <u>very important</u> to our experiment to have a <b>true</b> view of your real performance.<br><br>Do not worry if you miss some when it gets hard! This task is meant to be very challenging!<br><br>Click the button to begin.</div><br><br><br><br>",0,ospan,starting_real_here,gIflrkiPPAUchQe2Xt3Th38C3Hq2,html-button-response,100,1439601,0.0-46.0-2.0-3.0,,,,,,,,,,,,,,,5f85f0cab3f4e20ebf578203,17:02:52,03/04/2024
,"<p style=""font-size:75px;"">...</p>",,ospan,iti,gIflrkiPPAUchQe2Xt3Th38C3Hq2,html-keyboard-response,101,1440875,0.0-46.0-3.0-0.0-0.0,,,,,,,,,,,,,,,5f85f0cab3f4e20ebf578203,17:02:52,03/04/2024
2489.0,,,ospan,symmetry,gIflrkiPPAUchQe2Xt3Th38C3Hq2,symmetry-judgement-task,102,1444423,0.0-46.0-3.0-0.0-1.0-0.0,,,,,,,,,,1.0,1.0,,,,5f85f0cab3f4e20ebf578203,17:02:52,03/04/2024
,"<div style=""font-size: 10rem; color: #0000FF"">S</div>",,ospan,letter,gIflrkiPPAUchQe2Xt3Th38C3Hq2,html-keyboard-response,103,1445430,0.0-46.0-3.0-0.0-1.0-1.0,,,,,,,,,,,,,,,5f85f0cab3f4e20ebf578203,17:02:52,03/04/2024
2884.0,,,ospan,symmetry,gIflrkiPPAUchQe2Xt3Th38C3Hq2,symmetry-judgement-task,104,1450227,0.0-46.0-3.0-0.0-1.0-2.0,,,,,,,,,,1.0,1.0,,,,5f85f0cab3f4e20ebf578203,17:02:52,03/04/2024
,"<div style=""font-size: 10rem; color: #0000FF"">L</div>",,ospan,letter,gIflrkiPPAUchQe2Xt3Th38C3Hq2,html-keyboard-response,105,1451234,0.0-46.0-3.0-0.0-1.0-3.0,,,,,,,,,,,,,,,5f85f0cab3f4e20ebf578203,17:02:52,03/04/2024
2174.0,,,ospan,symmetry,gIflrkiPPAUchQe2Xt3Th38C3Hq2,symmetry-judgement-task,106,1455323,0.0-46.0-3.0-0.0-1.0-4.0,,,,,,,,,,1.0,1.0,,,,5f85f0cab3f4e20ebf578203,17:02:52,03/04/2024
,"<div style=""font-size: 10rem; color: #0000FF"">J</div>",,ospan,letter,gIflrkiPPAUchQe2Xt3Th38C3Hq2,html-keyboard-response,107,1456325,0.0-46.0-3.0-0.0-1.0-5.0,,,,,,,,,,,,,,,5f85f0cab3f4e20ebf578203,17:02:52,03/04/2024
4569.79999999702,"<div class = numbox><p style=""font-size: 2.4rem"">Please recall the letters you saw to the best of your ability. If you do not remember a particular letter, use the SKIP button.<br><b>(When you are ready to lock in your answer, press ENTER)</b></p><button id = button_1 class = ""square num-button"" onclick = ""recordClick(this)""><div class = content><div class = numbers>C</div></div></button><button id = button_2 class = ""square num-button"" onclick = ""recordClick(this)""><div class = content><div class = numbers>G</div></div></button><button id = button_3 class = ""square num-button"" onclick = ""recordClick(this)""><div class = content><div class = numbers>H</div></div></button><button id = button_4 class = ""square num-button"" onclick = ""recordClick(this)""><div class = content><div class = numbers>J</div></div></button><button id = button_5 class = ""square num-button"" onclick = ""recordClick(this)""><div class = content><div class = numbers>K</div></div></button><button id = button_6 class = ""square num-button"" onclick = ""recordClick(this)""><div class = content><div class = numbers>L</div></div></button><button id = button_7 class = ""square num-button"" onclick = ""recordClick(this)""><div class = content><div class = numbers>N</div></div></button><button id = button_8 class = ""square num-button"" onclick = ""recordClick(this)""><div class = content><div class = numbers>P</div></div></button><button id = button_9 class = ""square num-button"" onclick = ""recordClick(this)""><div class = content><div class = numbers>Q</div></div></button><button id = button_10 class = ""square num-button"" onclick = ""recordClick(this)""><div class = content><div class = numbers>R</div></div></button><button id = button_11 class = ""square num-button"" onclick = ""recordClick(this)""><div class = content><div class = numbers>S</div></div></button><button id = button_12 class = ""square num-button"" onclick = ""recordClick(this)""><div class = content><div class = numbers>Y</div></div></button><button class = clear_button id = ""ClearButton"" onclick = ""clearResponse()"">BACKSPACE</button><button class = blank_button id = ""BlankButton"" onclick = ""blankResponse()"">SKIP</button><p style=""font-size: 2.4rem""><u><b>Current Answer:</b></u></p><br><br><div id=echoed_txt style=""font-size: 5rem; color:blue;""><b></b></div></div>",enter,ospan,retrieval,gIflrkiPPAUchQe2Xt3Th38C3Hq2,html-keyboard-response,108,1461662,0.0-46.0-3.0-0.0-2.0,3,3,3,3.0,"[""S"",""L"",""J""]","[""S"",""L"",""J""]",1.0,3.0,,,,,,,5f85f0cab3f4e20ebf578203,17:02:52,03/04/2024
1709.7000000029802,[''],0,ospan,feedback,gIflrkiPPAUchQe2Xt3Th38C3Hq2,html-button-response,109,1463887,0.0-46.0-3.0-0.0-3.0,,,,,,,,,,,,100.0,0.0,,5f85f0cab3f4e20ebf578203,17:02:52,03/04/2024
,"<p style=""font-size:75px;"">...</p>",,ospan,iti,gIflrkiPPAUchQe2Xt3Th38C3Hq2,html-keyboard-response,110,1464896,0.0-46.0-4.0-0.0-0.0,,,,,,,,,,,,,,,5f85f0cab3f4e20ebf578203,17:02:52,03/04/2024
2601.0,,,ospan,symmetry,gIflrkiPPAUchQe2Xt3Th38C3Hq2,symmetry-judgement-task,111,1468645,0.0-46.0-4.0-0.0-1.0-0.0,,,,,,,,,,1.0,1.0,,,,5f85f0cab3f4e20ebf578203,17:02:52,03/04/2024
,"<div style=""font-size: 10rem; color: #0000FF"">G</div>",,ospan,letter,gIflrkiPPAUchQe2Xt3Th38C3Hq2,html-keyboard-response,112,1469662,0.0-46.0-4.0-0.0-1.0-1.0,,,,,,,,,,,,,,,5f85f0cab3f4e20ebf578203,17:02:52,03/04/2024
1684.0,,,ospan,symmetry,gIflrkiPPAUchQe2Xt3Th38C3Hq2,symmetry-judgement-task,113,1473262,0.0-46.0-4.0-0.0-1.0-2.0,,,,,,,,,,1.0,1.0,,,,5f85f0cab3f4e20ebf578203,17:02:52,03/04/2024
,"<div style=""font-size: 10rem; color: #0000FF"">K</div>",,ospan,letter,gIflrkiPPAUchQe2Xt3Th38C3Hq2,html-keyboard-response,114,1474268,0.0-46.0-4.0-0.0-1.0-3.0,,,,,,,,,,,,,,,5f85f0cab3f4e20ebf578203,17:02:52,03/04/2024
1854.0,,,ospan,symmetry,gIflrkiPPAUchQe2Xt3Th38C3Hq2,symmetry-judgement-task,115,1478040,0.0-46.0-4.0-0.0-1.0-4.0,,,,,,,,,,1.0,1.0,,,,5f85f0cab3f4e20ebf578203,17:02:52,03/04/2024
,"<div style=""font-size: 10rem; color: #0000FF"">Q</div>",,ospan,letter,gIflrkiPPAUchQe2Xt3Th38C3Hq2,html-keyboard-response,116,1479055,0.0-46.0-4.0-0.0-1.0-5.0,,,,,,,,,,,,,,,5f85f0cab3f4e20ebf578203,17:02:52,03/04/2024
2617.0,,,ospan,symmetry,gIflrkiPPAUchQe2Xt3Th38C3Hq2,symmetry-judgement-task,117,1483586,0.0-46.0-4.0-0.0-1.0-6.0,,,,,,,,,,1.0,1.0,,,,5f85f0cab3f4e20ebf578203,17:02:52,03/04/2024
,"<div style=""font-size: 10rem; color: #0000FF"">Y</div>",,ospan,letter,gIflrkiPPAUchQe2Xt3Th38C3Hq2,html-keyboard-response,118,1484602,0.0-46.0-4.0-0.0-1.0-7.0,,,,,,,,,,,,,,,5f85f0cab3f4e20ebf578203,17:02:52,03/04/2024
6251.399999991059,"<div class = numbox><p style=""font-size: 2.4rem"">Please recall the letters you saw to the best of your ability. If you do not remember a particular letter, use the SKIP button.<br><b>(When you are ready to lock in your answer, press ENTER)</b></p><button id = button_1 class = ""square num-button"" onclick = ""recordClick(this)""><div class = content><div class = numbers>C</div></div></button><button id = button_2 class = ""square num-button"" onclick = ""recordClick(this)""><div class = content><div class = numbers>G</div></div></button><button id = button_3 class = ""square num-button"" onclick = ""recordClick(this)""><div class = content><div class = numbers>H</div></div></button><button id = button_4 class = ""square num-button"" onclick = ""recordClick(this)""><div class = content><div class = numbers>J</div></div></button><button id = button_5 class = ""square num-button"" onclick = ""recordClick(this)""><div class = content><div class = numbers>K</div></div></button><button id = button_6 class = ""square num-button"" onclick = ""recordClick(this)""><div class = content><div class = numbers>L</div></div></button><button id = button_7 class = ""square num-button"" onclick = ""recordClick(this)""><div class = content><div class = numbers>N</div></div></button><button id = button_8 class = ""square num-button"" onclick = ""recordClick(this)""><div class = content><div class = numbers>P</div></div></button><button id = button_9 class = ""square num-button"" onclick = ""recordClick(this)""><div class = content><div class = numbers>Q</div></div></button><button id = button_10 class = ""square num-button"" onclick = ""recordClick(this)""><div class = content><div class = numbers>R</div></div></button><button id = button_11 class = ""square num-button"" onclick = ""recordClick(this)""><div class = content><div class = numbers>S</div></div></button><button id = button_12 class = ""square num-button"" onclick = ""recordClick(this)""><div class = content><div class = numbers>Y</div></div></button><button class = clear_button id = ""ClearButton"" onclick = ""clearResponse()"">BACKSPACE</button><button class = blank_button id = ""BlankButton"" onclick = ""blankResponse()"">SKIP</button><p style=""font-size: 2.4rem""><u><b>Current Answer:</b></u></p><br><br><div id=echoed_txt style=""font-size: 5rem; color:blue;""><b></b></div></div>",enter,ospan,retrieval,gIflrkiPPAUchQe2Xt3Th38C3Hq2,html-keyboard-response,119,1491621,0.0-46.0-4.0-0.0-2.0,7,7,7,4.0,"[""G"",""K"",""Q"",""Y""]","[""G"",""K"",""Q"",""Y""]",1.0,4.0,,,,,,,5f85f0cab3f4e20ebf578203,17:02:52,03/04/2024
1436.3999999910593,[''],0,ospan,feedback,gIflrkiPPAUchQe2Xt3Th38C3Hq2,html-button-response,120,1493571,0.0-46.0-4.0-0.0-3.0,,,,,,,,,,,,100.0,0.0,,5f85f0cab3f4e20ebf578203,17:02:52,03/04/2024
,"<p style=""font-size:75px;"">...</p>",,ospan,iti,gIflrkiPPAUchQe2Xt3Th38C3Hq2,html-keyboard-response,121,1494581,0.0-46.0-4.0-1.0-0.0,,,,,,,,,,,,,,,5f85f0cab3f4e20ebf578203,17:02:52,03/04/2024
2270.0,,,ospan,symmetry,gIflrkiPPAUchQe2Xt3Th38C3Hq2,symmetry-judgement-task,122,1498038,0.0-46.0-4.0-1.0-1.0-0.0,,,,,,,,,,1.0,1.0,,,,5f85f0cab3f4e20ebf578203,17:02:52,03/04/2024
,"<div style=""font-size: 10rem; color: #0000FF"">P</div>",,ospan,letter,gIflrkiPPAUchQe2Xt3Th38C3Hq2,html-keyboard-response,123,1499045,0.0-46.0-4.0-1.0-1.0-1.0,,,,,,,,,,,,,,,5f85f0cab3f4e20ebf578203,17:02:52,03/04/2024
2239.0,,,ospan,symmetry,gIflrkiPPAUchQe2Xt3Th38C3Hq2,symmetry-judgement-task,124,1503279,0.0-46.0-4.0-1.0-1.0-2.0,,,,,,,,,,1.0,1.0,,,,5f85f0cab3f4e20ebf578203,17:02:52,03/04/2024
,"<div style=""font-size: 10rem; color: #0000FF"">Y</div>",,ospan,letter,gIflrkiPPAUchQe2Xt3Th38C3Hq2,html-keyboard-response,125,1504284,0.0-46.0-4.0-1.0-1.0-3.0,,,,,,,,,,,,,,,5f85f0cab3f4e20ebf578203,17:02:52,03/04/2024
2083.0,,,ospan,symmetry,gIflrkiPPAUchQe2Xt3Th38C3Hq2,symmetry-judgement-task,126,1508288,0.0-46.0-4.0-1.0-1.0-4.0,,,,,,,,,,1.0,1.0,,,,5f85f0cab3f4e20ebf578203,17:02:52,03/04/2024
,"<div style=""font-size: 10rem; color: #0000FF"">R</div>",,ospan,letter,gIflrkiPPAUchQe2Xt3Th38C3Hq2,html-keyboard-response,127,1509302,0.0-46.0-4.0-1.0-1.0-5.0,,,,,,,,,,,,,,,5f85f0cab3f4e20ebf578203,17:02:52,03/04/2024
1746.0,,,ospan,symmetry,gIflrkiPPAUchQe2Xt3Th38C3Hq2,symmetry-judgement-task,128,1512968,0.0-46.0-4.0-1.0-1.0-6.0,,,,,,,,,,1.0,1.0,,,,5f85f0cab3f4e20ebf578203,17:02:52,03/04/2024
,"<div style=""font-size: 10rem; color: #0000FF"">G</div>",,ospan,letter,gIflrkiPPAUchQe2Xt3Th38C3Hq2,html-keyboard-response,129,1513978,0.0-46.0-4.0-1.0-1.0-7.0,,,,,,,,,,,,,,,5f85f0cab3f4e20ebf578203,17:02:52,03/04/2024
1887.0,,,ospan,symmetry,gIflrkiPPAUchQe2Xt3Th38C3Hq2,symmetry-judgement-task,130,1517772,0.0-46.0-4.0-1.0-1.0-8.0,,,,,,,,,,1.0,1.0,,,,5f85f0cab3f4e20ebf578203,17:02:52,03/04/2024
,"<div style=""font-size: 10rem; color: #0000FF"">N</div>",,ospan,letter,gIflrkiPPAUchQe2Xt3Th38C3Hq2,html-keyboard-response,131,1518786,0.0-46.0-4.0-1.0-1.0-9.0,,,,,,,,,,,,,,,5f85f0cab3f4e20ebf578203,17:02:52,03/04/2024
23392.40000000596,"<div class = numbox><p style=""font-size: 2.4rem"">Please recall the letters you saw to the best of your ability. If you do not remember a particular letter, use the SKIP button.<br><b>(When you are ready to lock in your answer, press ENTER)</b></p><button id = button_1 class = ""square num-button"" onclick = ""recordClick(this)""><div class = content><div class = numbers>C</div></div></button><button id = button_2 class = ""square num-button"" onclick = ""recordClick(this)""><div class = content><div class = numbers>G</div></div></button><button id = button_3 class = ""square num-button"" onclick = ""recordClick(this)""><div class = content><div class = numbers>H</div></div></button><button id = button_4 class = ""square num-button"" onclick = ""recordClick(this)""><div class = content><div class = numbers>J</div></div></button><button id = button_5 class = ""square num-button"" onclick = ""recordClick(this)""><div class = content><div class = numbers>K</div></div></button><button id = button_6 class = ""square num-button"" onclick = ""recordClick(this)""><div class = content><div class = numbers>L</div></div></button><button id = button_7 class = ""square num-button"" onclick = ""recordClick(this)""><div class = content><div class = numbers>N</div></div></button><button id = button_8 class = ""square num-button"" onclick = ""recordClick(this)""><div class = content><div class = numbers>P</div></div></button><button id = button_9 class = ""square num-button"" onclick = ""recordClick(this)""><div class = content><div class = numbers>Q</div></div></button><button id = button_10 class = ""square num-button"" onclick = ""recordClick(this)""><div class = content><div class = numbers>R</div></div></button><button id = button_11 class = ""square num-button"" onclick = ""recordClick(this)""><div class = content><div class = numbers>S</div></div></button><button id = button_12 class = ""square num-button"" onclick = ""recordClick(this)""><div class = content><div class = numbers>Y</div></div></button><button class = clear_button id = ""ClearButton"" onclick = ""clearResponse()"">BACKSPACE</button><button class = blank_button id = ""BlankButton"" onclick = ""blankResponse()"">SKIP</button><p style=""font-size: 2.4rem""><u><b>Current Answer:</b></u></p><br><br><div id=echoed_txt style=""font-size: 5rem; color:blue;""><b></b></div></div>",enter,ospan,retrieval,gIflrkiPPAUchQe2Xt3Th38C3Hq2,html-keyboard-response,132,1542938,0.0-46.0-4.0-1.0-2.0,12,12,12,5.0,"[""P"",""Y"",""R"",""G"",""N""]","[""P"",""Y"",""R"",""G"",""N""]",1.0,5.0,,,,,,,5f85f0cab3f4e20ebf578203,17:02:52,03/04/2024
2459.0999999940395,[''],0,ospan,feedback,gIflrkiPPAUchQe2Xt3Th38C3Hq2,html-button-response,133,1545902,0.0-46.0-4.0-1.0-3.0,,,,,,,,,,,,100.0,0.0,,5f85f0cab3f4e20ebf578203,17:02:52,03/04/2024
,"<p style=""font-size:75px;"">...</p>",,ospan,iti,gIflrkiPPAUchQe2Xt3Th38C3Hq2,html-keyboard-response,134,1546917,0.0-46.0-4.0-2.0-0.0,,,,,,,,,,,,,,,5f85f0cab3f4e20ebf578203,17:02:52,03/04/2024
3348.0,,,ospan,symmetry,gIflrkiPPAUchQe2Xt3Th38C3Hq2,symmetry-judgement-task,135,1551431,0.0-46.0-4.0-2.0-1.0-0.0,,,,,,,,,,1.0,1.0,,,,5f85f0cab3f4e20ebf578203,17:02:52,03/04/2024
,"<div style=""font-size: 10rem; color: #0000FF"">Y</div>",,ospan,letter,gIflrkiPPAUchQe2Xt3Th38C3Hq2,html-keyboard-response,136,1552439,0.0-46.0-4.0-2.0-1.0-1.0,,,,,,,,,,,,,,,5f85f0cab3f4e20ebf578203,17:02:52,03/04/2024
2448.0,,,ospan,symmetry,gIflrkiPPAUchQe2Xt3Th38C3Hq2,symmetry-judgement-task,137,1556803,0.0-46.0-4.0-2.0-1.0-2.0,,,,,,,,,,1.0,1.0,,,,5f85f0cab3f4e20ebf578203,17:02:52,03/04/2024
,"<div style=""font-size: 10rem; color: #0000FF"">H</div>",,ospan,letter,gIflrkiPPAUchQe2Xt3Th38C3Hq2,html-keyboard-response,138,1557807,0.0-46.0-4.0-2.0-1.0-3.0,,,,,,,,,,,,,,,5f85f0cab3f4e20ebf578203,17:02:52,03/04/2024
1773.0,,,ospan,symmetry,gIflrkiPPAUchQe2Xt3Th38C3Hq2,symmetry-judgement-task,139,1561472,0.0-46.0-4.0-2.0-1.0-4.0,,,,,,,,,,1.0,1.0,,,,5f85f0cab3f4e20ebf578203,17:02:52,03/04/2024
,"<div style=""font-size: 10rem; color: #0000FF"">R</div>",,ospan,letter,gIflrkiPPAUchQe2Xt3Th38C3Hq2,html-keyboard-response,140,1562479,0.0-46.0-4.0-2.0-1.0-5.0,,,,,,,,,,,,,,,5f85f0cab3f4e20ebf578203,17:02:52,03/04/2024
5742.20000000298,"<div class = numbox><p style=""font-size: 2.4rem"">Please recall the letters you saw to the best of your ability. If you do not remember a particular letter, use the SKIP button.<br><b>(When you are ready to lock in your answer, press ENTER)</b></p><button id = button_1 class = ""square num-button"" onclick = ""recordClick(this)""><div class = content><div class = numbers>C</div></div></button><button id = button_2 class = ""square num-button"" onclick = ""recordClick(this)""><div class = content><div class = numbers>G</div></div></button><button id = button_3 class = ""square num-button"" onclick = ""recordClick(this)""><div class = content><div class = numbers>H</div></div></button><button id = button_4 class = ""square num-button"" onclick = ""recordClick(this)""><div class = content><div class = numbers>J</div></div></button><button id = button_5 class = ""square num-button"" onclick = ""recordClick(this)""><div class = content><div class = numbers>K</div></div></button><button id = button_6 class = ""square num-button"" onclick = ""recordClick(this)""><div class = content><div class = numbers>L</div></div></button><button id = button_7 class = ""square num-button"" onclick = ""recordClick(this)""><div class = content><div class = numbers>N</div></div></button><button id = button_8 class = ""square num-button"" onclick = ""recordClick(this)""><div class = content><div class = numbers>P</div></div></button><button id = button_9 class = ""square num-button"" onclick = ""recordClick(this)""><div class = content><div class = numbers>Q</div></div></button><button id = button_10 class = ""square num-button"" onclick = ""recordClick(this)""><div class = content><div class = numbers>R</div></div></button><button id = button_11 class = ""square num-button"" onclick = ""recordClick(this)""><div class = content><div class = numbers>S</div></div></button><button id = button_12 class = ""square num-button"" onclick = ""recordClick(this)""><div class = content><div class = numbers>Y</div></div></button><button class = clear_button id = ""ClearButton"" onclick = ""clearResponse()"">BACKSPACE</button><button class = blank_button id = ""BlankButton"" onclick = ""blankResponse()"">SKIP</button><p style=""font-size: 2.4rem""><u><b>Current Answer:</b></u></p><br><br><div id=echoed_txt style=""font-size: 5rem; color:blue;""><b></b></div></div>",enter,ospan,retrieval,gIflrkiPPAUchQe2Xt3Th38C3Hq2,html-keyboard-response,141,1568974,0.0-46.0-4.0-2.0-2.0,15,15,15,3.0,"[""Y"",""H"",""R""]","[""Y"",""H"",""R""]",1.0,3.0,,,,,,,5f85f0cab3f4e20ebf578203,17:02:52,03/04/2024
1976.0999999940395,[''],0,ospan,feedback,gIflrkiPPAUchQe2Xt3Th38C3Hq2,html-button-response,142,1571460,0.0-46.0-4.0-2.0-3.0,,,,,,,,,,,,100.0,0.0,,5f85f0cab3f4e20ebf578203,17:02:52,03/04/2024
,"<p style=""font-size:75px;"">...</p>",,ospan,iti,gIflrkiPPAUchQe2Xt3Th38C3Hq2,html-keyboard-response,143,1572476,0.0-46.0-5.0-0.0-0.0,,,,,,,,,,,,,,,5f85f0cab3f4e20ebf578203,17:02:52,03/04/2024
2516.0,,,ospan,symmetry,gIflrkiPPAUchQe2Xt3Th38C3Hq2,symmetry-judgement-task,144,1576151,0.0-46.0-5.0-0.0-1.0-0.0,,,,,,,,,,1.0,1.0,,,,5f85f0cab3f4e20ebf578203,17:02:52,03/04/2024
,"<div style=""font-size: 10rem; color: #0000FF"">Y</div>",,ospan,letter,gIflrkiPPAUchQe2Xt3Th38C3Hq2,html-keyboard-response,145,1577164,0.0-46.0-5.0-0.0-1.0-1.0,,,,,,,,,,,,,,,5f85f0cab3f4e20ebf578203,17:02:52,03/04/2024
2366.0,,,ospan,symmetry,gIflrkiPPAUchQe2Xt3Th38C3Hq2,symmetry-judgement-task,146,1581438,0.0-46.0-5.0-0.0-1.0-2.0,,,,,,,,,,1.0,1.0,,,,5f85f0cab3f4e20ebf578203,17:02:52,03/04/2024
,"<div style=""font-size: 10rem; color: #0000FF"">J</div>",,ospan,letter,gIflrkiPPAUchQe2Xt3Th38C3Hq2,html-keyboard-response,147,1582451,0.0-46.0-5.0-0.0-1.0-3.0,,,,,,,,,,,,,,,5f85f0cab3f4e20ebf578203,17:02:52,03/04/2024
1774.0,,,ospan,symmetry,gIflrkiPPAUchQe2Xt3Th38C3Hq2,symmetry-judgement-task,148,1586123,0.0-46.0-5.0-0.0-1.0-4.0,,,,,,,,,,1.0,1.0,,,,5f85f0cab3f4e20ebf578203,17:02:52,03/04/2024
,"<div style=""font-size: 10rem; color: #0000FF"">N</div>",,ospan,letter,gIflrkiPPAUchQe2Xt3Th38C3Hq2,html-keyboard-response,149,1587130,0.0-46.0-5.0-0.0-1.0-5.0,,,,,,,,,,,,,,,5f85f0cab3f4e20ebf578203,17:02:52,03/04/2024
1392.0,,,ospan,symmetry,gIflrkiPPAUchQe2Xt3Th38C3Hq2,symmetry-judgement-task,150,1590439,0.0-46.0-5.0-0.0-1.0-6.0,,,,,,,,,,1.0,1.0,,,,5f85f0cab3f4e20ebf578203,17:02:52,03/04/2024
,"<div style=""font-size: 10rem; color: #0000FF"">H</div>",,ospan,letter,gIflrkiPPAUchQe2Xt3Th38C3Hq2,html-keyboard-response,151,1591441,0.0-46.0-5.0-0.0-1.0-7.0,,,,,,,,,,,,,,,5f85f0cab3f4e20ebf578203,17:02:52,03/04/2024
1592.0,,,ospan,symmetry,gIflrkiPPAUchQe2Xt3Th38C3Hq2,symmetry-judgement-task,152,1594967,0.0-46.0-5.0-0.0-1.0-8.0,,,,,,,,,,1.0,1.0,,,,5f85f0cab3f4e20ebf578203,17:02:52,03/04/2024
,"<div style=""font-size: 10rem; color: #0000FF"">Q</div>",,ospan,letter,gIflrkiPPAUchQe2Xt3Th38C3Hq2,html-keyboard-response,153,1595973,0.0-46.0-5.0-0.0-1.0-9.0,,,,,,,,,,,,,,,5f85f0cab3f4e20ebf578203,17:02:52,03/04/2024
3765.0,,,ospan,symmetry,gIflrkiPPAUchQe2Xt3Th38C3Hq2,symmetry-judgement-task,154,1601656,0.0-46.0-5.0-0.0-1.0-10.0,,,,,,,,,,1.0,1.0,,,,5f85f0cab3f4e20ebf578203,17:02:52,03/04/2024
,"<div style=""font-size: 10rem; color: #0000FF"">L</div>",,ospan,letter,gIflrkiPPAUchQe2Xt3Th38C3Hq2,html-keyboard-response,155,1602672,0.0-46.0-5.0-0.0-1.0-11.0,,,,,,,,,,,,,,,5f85f0cab3f4e20ebf578203,17:02:52,03/04/2024
8058.70000000298,"<div class = numbox><p style=""font-size: 2.4rem"">Please recall the letters you saw to the best of your ability. If you do not remember a particular letter, use the SKIP button.<br><b>(When you are ready to lock in your answer, press ENTER)</b></p><button id = button_1 class = ""square num-button"" onclick = ""recordClick(this)""><div class = content><div class = numbers>C</div></div></button><button id = button_2 class = ""square num-button"" onclick = ""recordClick(this)""><div class = content><div class = numbers>G</div></div></button><button id = button_3 class = ""square num-button"" onclick = ""recordClick(this)""><div class = content><div class = numbers>H</div></div></button><button id = button_4 class = ""square num-button"" onclick = ""recordClick(this)""><div class = content><div class = numbers>J</div></div></button><button id = button_5 class = ""square num-button"" onclick = ""recordClick(this)""><div class = content><div class = numbers>K</div></div></button><button id = button_6 class = ""square num-button"" onclick = ""recordClick(this)""><div class = content><div class = numbers>L</div></div></button><button id = button_7 class = ""square num-button"" onclick = ""recordClick(this)""><div class = content><div class = numbers>N</div></div></button><button id = button_8 class = ""square num-button"" onclick = ""recordClick(this)""><div class = content><div class = numbers>P</div></div></button><button id = button_9 class = ""square num-button"" onclick = ""recordClick(this)""><div class = content><div class = numbers>Q</div></div></button><button id = button_10 class = ""square num-button"" onclick = ""recordClick(this)""><div class = content><div class = numbers>R</div></div></button><button id = button_11 class = ""square num-button"" onclick = ""recordClick(this)""><div class = content><div class = numbers>S</div></div></button><button id = button_12 class = ""square num-button"" onclick = ""recordClick(this)""><div class = content><div class = numbers>Y</div></div></button><button class = clear_button id = ""ClearButton"" onclick = ""clearResponse()"">BACKSPACE</button><button class = blank_button id = ""BlankButton"" onclick = ""blankResponse()"">SKIP</button><p style=""font-size: 2.4rem""><u><b>Current Answer:</b></u></p><br><br><div id=echoed_txt style=""font-size: 5rem; color:blue;""><b></b></div></div>",enter,ospan,retrieval,gIflrkiPPAUchQe2Xt3Th38C3Hq2,html-keyboard-response,156,1611497,0.0-46.0-5.0-0.0-2.0,21,19,15,6.0,"[""Y"",""J"",""H"",""N"",""Q"",""L""]","[""Y"",""J"",""N"",""H"",""Q"",""L""]",0.0,4.0,,,,,,,5f85f0cab3f4e20ebf578203,17:02:52,03/04/2024
1591.2999999970198,[''],0,ospan,feedback,gIflrkiPPAUchQe2Xt3Th38C3Hq2,html-button-response,157,1613601,0.0-46.0-5.0-0.0-3.0,,,,,,,,,,,,100.0,0.0,,5f85f0cab3f4e20ebf578203,17:02:52,03/04/2024
,"<p style=""font-size:75px;"">...</p>",,ospan,iti,gIflrkiPPAUchQe2Xt3Th38C3Hq2,html-keyboard-response,158,1614609,0.0-46.0-5.0-1.0-0.0,,,,,,,,,,,,,,,5f85f0cab3f4e20ebf578203,17:02:52,03/04/2024
2716.0,,,ospan,symmetry,gIflrkiPPAUchQe2Xt3Th38C3Hq2,symmetry-judgement-task,159,1618502,0.0-46.0-5.0-1.0-1.0-0.0,,,,,,,,,,1.0,1.0,,,,5f85f0cab3f4e20ebf578203,17:02:52,03/04/2024
,"<div style=""font-size: 10rem; color: #0000FF"">S</div>",,ospan,letter,gIflrkiPPAUchQe2Xt3Th38C3Hq2,html-keyboard-response,160,1619507,0.0-46.0-5.0-1.0-1.0-1.0,,,,,,,,,,,,,,,5f85f0cab3f4e20ebf578203,17:02:52,03/04/2024
1670.0,,,ospan,symmetry,gIflrkiPPAUchQe2Xt3Th38C3Hq2,symmetry-judgement-task,161,1623095,0.0-46.0-5.0-1.0-1.0-2.0,,,,,,,,,,1.0,1.0,,,,5f85f0cab3f4e20ebf578203,17:02:52,03/04/2024
,"<div style=""font-size: 10rem; color: #0000FF"">G</div>",,ospan,letter,gIflrkiPPAUchQe2Xt3Th38C3Hq2,html-keyboard-response,162,1624099,0.0-46.0-5.0-1.0-1.0-3.0,,,,,,,,,,,,,,,5f85f0cab3f4e20ebf578203,17:02:52,03/04/2024
2562.0,,,ospan,symmetry,gIflrkiPPAUchQe2Xt3Th38C3Hq2,symmetry-judgement-task,163,1628575,0.0-46.0-5.0-1.0-1.0-4.0,,,,,,,,,,1.0,1.0,,,,5f85f0cab3f4e20ebf578203,17:02:52,03/04/2024
,"<div style=""font-size: 10rem; color: #0000FF"">P</div>",,ospan,letter,gIflrkiPPAUchQe2Xt3Th38C3Hq2,html-keyboard-response,164,1629590,0.0-46.0-5.0-1.0-1.0-5.0,,,,,,,,,,,,,,,5f85f0cab3f4e20ebf578203,17:02:52,03/04/2024
2048.0,,,ospan,symmetry,gIflrkiPPAUchQe2Xt3Th38C3Hq2,symmetry-judgement-task,165,1633578,0.0-46.0-5.0-1.0-1.0-6.0,,,,,,,,,,1.0,1.0,,,,5f85f0cab3f4e20ebf578203,17:02:52,03/04/2024
,"<div style=""font-size: 10rem; color: #0000FF"">N</div>",,ospan,letter,gIflrkiPPAUchQe2Xt3Th38C3Hq2,html-keyboard-response,166,1634586,0.0-46.0-5.0-1.0-1.0-7.0,,,,,,,,,,,,,,,5f85f0cab3f4e20ebf578203,17:02:52,03/04/2024
1609.0,,,ospan,symmetry,gIflrkiPPAUchQe2Xt3Th38C3Hq2,symmetry-judgement-task,167,1638119,0.0-46.0-5.0-1.0-1.0-8.0,,,,,,,,,,1.0,1.0,,,,5f85f0cab3f4e20ebf578203,17:02:52,03/04/2024
,"<div style=""font-size: 10rem; color: #0000FF"">J</div>",,ospan,letter,gIflrkiPPAUchQe2Xt3Th38C3Hq2,html-keyboard-response,168,1639135,0.0-46.0-5.0-1.0-1.0-9.0,,,,,,,,,,,,,,,5f85f0cab3f4e20ebf578203,17:02:52,03/04/2024
2886.0,,,ospan,symmetry,gIflrkiPPAUchQe2Xt3Th38C3Hq2,symmetry-judgement-task,169,1643931,0.0-46.0-5.0-1.0-1.0-10.0,,,,,,,,,,1.0,1.0,,,,5f85f0cab3f4e20ebf578203,17:02:52,03/04/2024
,"<div style=""font-size: 10rem; color: #0000FF"">H</div>",,ospan,letter,gIflrkiPPAUchQe2Xt3Th38C3Hq2,html-keyboard-response,170,1644938,0.0-46.0-5.0-1.0-1.0-11.0,,,,,,,,,,,,,,,5f85f0cab3f4e20ebf578203,17:02:52,03/04/2024
1973.0,,,ospan,symmetry,gIflrkiPPAUchQe2Xt3Th38C3Hq2,symmetry-judgement-task,171,1648852,0.0-46.0-5.0-1.0-1.0-12.0,,,,,,,,,,1.0,1.0,,,,5f85f0cab3f4e20ebf578203,17:02:52,03/04/2024
,"<div style=""font-size: 10rem; color: #0000FF"">R</div>",,ospan,letter,gIflrkiPPAUchQe2Xt3Th38C3Hq2,html-keyboard-response,172,1649862,0.0-46.0-5.0-1.0-1.0-13.0,,,,,,,,,,,,,,,5f85f0cab3f4e20ebf578203,17:02:52,03/04/2024
57444.79999999702,"<div class = numbox><p style=""font-size: 2.4rem"">Please recall the letters you saw to the best of your ability. If you do not remember a particular letter, use the SKIP button.<br><b>(When you are ready to lock in your answer, press ENTER)</b></p><button id = button_1 class = ""square num-button"" onclick = ""recordClick(this)""><div class = content><div class = numbers>C</div></div></button><button id = button_2 class = ""square num-button"" onclick = ""recordClick(this)""><div class = content><div class = numbers>G</div></div></button><button id = button_3 class = ""square num-button"" onclick = ""recordClick(this)""><div class = content><div class = numbers>H</div></div></button><button id = button_4 class = ""square num-button"" onclick = ""recordClick(this)""><div class = content><div class = numbers>J</div></div></button><button id = button_5 class = ""square num-button"" onclick = ""recordClick(this)""><div class = content><div class = numbers>K</div></div></button><button id = button_6 class = ""square num-button"" onclick = ""recordClick(this)""><div class = content><div class = numbers>L</div></div></button><button id = button_7 class = ""square num-button"" onclick = ""recordClick(this)""><div class = content><div class = numbers>N</div></div></button><button id = button_8 class = ""square num-button"" onclick = ""recordClick(this)""><div class = content><div class = numbers>P</div></div></button><button id = button_9 class = ""square num-button"" onclick = ""recordClick(this)""><div class = content><div class = numbers>Q</div></div></button><button id = button_10 class = ""square num-button"" onclick = ""recordClick(this)""><div class = content><div class = numbers>R</div></div></button><button id = button_11 class = ""square num-button"" onclick = ""recordClick(this)""><div class = content><div class = numbers>S</div></div></button><button id = button_12 class = ""square num-button"" onclick = ""recordClick(this)""><div class = content><div class = numbers>Y</div></div></button><button class = clear_button id = ""ClearButton"" onclick = ""clearResponse()"">BACKSPACE</button><button class = blank_button id = ""BlankButton"" onclick = ""blankResponse()"">SKIP</button><p style=""font-size: 2.4rem""><u><b>Current Answer:</b></u></p><br><br><div id=echoed_txt style=""font-size: 5rem; color:blue;""><b></b></div></div>",enter,ospan,retrieval,gIflrkiPPAUchQe2Xt3Th38C3Hq2,html-keyboard-response,173,1708074,0.0-46.0-5.0-1.0-2.0,28,22,15,7.0,"[""S"",""G"",""P"",""H"",""N"",""R""]","[""S"",""G"",""P"",""N"",""J"",""H"",""R""]",0.0,3.0,,,,,,,5f85f0cab3f4e20ebf578203,17:02:52,03/04/2024
1423.2000000029802,[''],0,ospan,feedback,gIflrkiPPAUchQe2Xt3Th38C3Hq2,html-button-response,174,1710008,0.0-46.0-5.0-1.0-3.0,,,,,,,,,,,,100.0,0.0,,5f85f0cab3f4e20ebf578203,17:02:52,03/04/2024
,"<p style=""font-size:75px;"">...</p>",,ospan,iti,gIflrkiPPAUchQe2Xt3Th38C3Hq2,html-keyboard-response,175,1711028,0.0-46.0-6.0-0.0-0.0,,,,,,,,,,,,,,,5f85f0cab3f4e20ebf578203,17:02:52,03/04/2024
1683.0,,,ospan,symmetry,gIflrkiPPAUchQe2Xt3Th38C3Hq2,symmetry-judgement-task,176,1713887,0.0-46.0-6.0-0.0-1.0-0.0,,,,,,,,,,1.0,1.0,,,,5f85f0cab3f4e20ebf578203,17:02:52,03/04/2024
,"<div style=""font-size: 10rem; color: #0000FF"">Y</div>",,ospan,letter,gIflrkiPPAUchQe2Xt3Th38C3Hq2,html-keyboard-response,177,1714897,0.0-46.0-6.0-0.0-1.0-1.0,,,,,,,,,,,,,,,5f85f0cab3f4e20ebf578203,17:02:52,03/04/2024
1746.0,,,ospan,symmetry,gIflrkiPPAUchQe2Xt3Th38C3Hq2,symmetry-judgement-task,178,1718619,0.0-46.0-6.0-0.0-1.0-2.0,,,,,,,,,,1.0,1.0,,,,5f85f0cab3f4e20ebf578203,17:02:52,03/04/2024
,"<div style=""font-size: 10rem; color: #0000FF"">N</div>",,ospan,letter,gIflrkiPPAUchQe2Xt3Th38C3Hq2,html-keyboard-response,179,1719629,0.0-46.0-6.0-0.0-1.0-3.0,,,,,,,,,,,,,,,5f85f0cab3f4e20ebf578203,17:02:52,03/04/2024
1538.0,,,ospan,symmetry,gIflrkiPPAUchQe2Xt3Th38C3Hq2,symmetry-judgement-task,180,1723093,0.0-46.0-6.0-0.0-1.0-4.0,,,,,,,,,,1.0,1.0,,,,5f85f0cab3f4e20ebf578203,17:02:52,03/04/2024
,"<div style=""font-size: 10rem; color: #0000FF"">H</div>",,ospan,letter,gIflrkiPPAUchQe2Xt3Th38C3Hq2,html-keyboard-response,181,1724109,0.0-46.0-6.0-0.0-1.0-5.0,,,,,,,,,,,,,,,5f85f0cab3f4e20ebf578203,17:02:52,03/04/2024
2151.0,,,ospan,symmetry,gIflrkiPPAUchQe2Xt3Th38C3Hq2,symmetry-judgement-task,182,1728204,0.0-46.0-6.0-0.0-1.0-6.0,,,,,,,,,,1.0,1.0,,,,5f85f0cab3f4e20ebf578203,17:02:52,03/04/2024
,"<div style=""font-size: 10rem; color: #0000FF"">Q</div>",,ospan,letter,gIflrkiPPAUchQe2Xt3Th38C3Hq2,html-keyboard-response,183,1729219,0.0-46.0-6.0-0.0-1.0-7.0,,,,,,,,,,,,,,,5f85f0cab3f4e20ebf578203,17:02:52,03/04/2024
2094.0,,,ospan,symmetry,gIflrkiPPAUchQe2Xt3Th38C3Hq2,symmetry-judgement-task,184,1733250,0.0-46.0-6.0-0.0-1.0-8.0,,,,,,,,,,1.0,1.0,,,,5f85f0cab3f4e20ebf578203,17:02:52,03/04/2024
,"<div style=""font-size: 10rem; color: #0000FF"">P</div>",,ospan,letter,gIflrkiPPAUchQe2Xt3Th38C3Hq2,html-keyboard-response,185,1734256,0.0-46.0-6.0-0.0-1.0-9.0,,,,,,,,,,,,,,,5f85f0cab3f4e20ebf578203,17:02:52,03/04/2024
6686.399999991059,"<div class = numbox><p style=""font-size: 2.4rem"">Please recall the letters you saw to the best of your ability. If you do not remember a particular letter, use the SKIP button.<br><b>(When you are ready to lock in your answer, press ENTER)</b></p><button id = button_1 class = ""square num-button"" onclick = ""recordClick(this)""><div class = content><div class = numbers>C</div></div></button><button id = button_2 class = ""square num-button"" onclick = ""recordClick(this)""><div class = content><div class = numbers>G</div></div></button><button id = button_3 class = ""square num-button"" onclick = ""recordClick(this)""><div class = content><div class = numbers>H</div></div></button><button id = button_4 class = ""square num-button"" onclick = ""recordClick(this)""><div class = content><div class = numbers>J</div></div></button><button id = button_5 class = ""square num-button"" onclick = ""recordClick(this)""><div class = content><div class = numbers>K</div></div></button><button id = button_6 class = ""square num-button"" onclick = ""recordClick(this)""><div class = content><div class = numbers>L</div></div></button><button id = button_7 class = ""square num-button"" onclick = ""recordClick(this)""><div class = content><div class = numbers>N</div></div></button><button id = button_8 class = ""square num-button"" onclick = ""recordClick(this)""><div class = content><div class = numbers>P</div></div></button><button id = button_9 class = ""square num-button"" onclick = ""recordClick(this)""><div class = content><div class = numbers>Q</div></div></button><button id = button_10 class = ""square num-button"" onclick = ""recordClick(this)""><div class = content><div class = numbers>R</div></div></button><button id = button_11 class = ""square num-button"" onclick = ""recordClick(this)""><div class = content><div class = numbers>S</div></div></button><button id = button_12 class = ""square num-button"" onclick = ""recordClick(this)""><div class = content><div class = numbers>Y</div></div></button><button class = clear_button id = ""ClearButton"" onclick = ""clearResponse()"">BACKSPACE</button><button class = blank_button id = ""BlankButton"" onclick = ""blankResponse()"">SKIP</button><p style=""font-size: 2.4rem""><u><b>Current Answer:</b></u></p><br><br><div id=echoed_txt style=""font-size: 5rem; color:blue;""><b></b></div></div>",enter,ospan,retrieval,gIflrkiPPAUchQe2Xt3Th38C3Hq2,html-keyboard-response,186,1741696,0.0-46.0-6.0-0.0-2.0,33,27,20,5.0,"[""Y"",""N"",""H"",""Q"",""P""]","[""Y"",""N"",""H"",""Q"",""P""]",1.0,5.0,,,,,,,5f85f0cab3f4e20ebf578203,17:02:52,03/04/2024
3387.7999999970198,[''],0,ospan,feedback,gIflrkiPPAUchQe2Xt3Th38C3Hq2,html-button-response,187,1745593,0.0-46.0-6.0-0.0-3.0,,,,,,,,,,,,100.0,0.0,,5f85f0cab3f4e20ebf578203,17:02:52,03/04/2024
,"<p style=""font-size:75px;"">...</p>",,ospan,iti,gIflrkiPPAUchQe2Xt3Th38C3Hq2,html-keyboard-response,188,1746606,0.0-46.0-6.0-1.0-0.0,,,,,,,,,,,,,,,5f85f0cab3f4e20ebf578203,17:02:52,03/04/2024
2802.0,,,ospan,symmetry,gIflrkiPPAUchQe2Xt3Th38C3Hq2,symmetry-judgement-task,189,1750608,0.0-46.0-6.0-1.0-1.0-0.0,,,,,,,,,,1.0,1.0,,,,5f85f0cab3f4e20ebf578203,17:02:52,03/04/2024
,"<div style=""font-size: 10rem; color: #0000FF"">P</div>",,ospan,letter,gIflrkiPPAUchQe2Xt3Th38C3Hq2,html-keyboard-response,190,1751626,0.0-46.0-6.0-1.0-1.0-1.0,,,,,,,,,,,,,,,5f85f0cab3f4e20ebf578203,17:02:52,03/04/2024
2686.0,,,ospan,symmetry,gIflrkiPPAUchQe2Xt3Th38C3Hq2,symmetry-judgement-task,191,1756228,0.0-46.0-6.0-1.0-1.0-2.0,,,,,,,,,,1.0,1.0,,,,5f85f0cab3f4e20ebf578203,17:02:52,03/04/2024
,"<div style=""font-size: 10rem; color: #0000FF"">L</div>",,ospan,letter,gIflrkiPPAUchQe2Xt3Th38C3Hq2,html-keyboard-response,192,1757232,0.0-46.0-6.0-1.0-1.0-3.0,,,,,,,,,,,,,,,5f85f0cab3f4e20ebf578203,17:02:52,03/04/2024
1785.0,,,ospan,symmetry,gIflrkiPPAUchQe2Xt3Th38C3Hq2,symmetry-judgement-task,193,1760946,0.0-46.0-6.0-1.0-1.0-4.0,,,,,,,,,,1.0,1.0,,,,5f85f0cab3f4e20ebf578203,17:02:52,03/04/2024
,"<div style=""font-size: 10rem; color: #0000FF"">G</div>",,ospan,letter,gIflrkiPPAUchQe2Xt3Th38C3Hq2,html-keyboard-response,194,1761950,0.0-46.0-6.0-1.0-1.0-5.0,,,,,,,,,,,,,,,5f85f0cab3f4e20ebf578203,17:02:52,03/04/2024
2135.0,,,ospan,symmetry,gIflrkiPPAUchQe2Xt3Th38C3Hq2,symmetry-judgement-task,195,1765987,0.0-46.0-6.0-1.0-1.0-6.0,,,,,,,,,,1.0,1.0,,,,5f85f0cab3f4e20ebf578203,17:02:52,03/04/2024
,"<div style=""font-size: 10rem; color: #0000FF"">N</div>",,ospan,letter,gIflrkiPPAUchQe2Xt3Th38C3Hq2,html-keyboard-response,196,1766994,0.0-46.0-6.0-1.0-1.0-7.0,,,,,,,,,,,,,,,5f85f0cab3f4e20ebf578203,17:02:52,03/04/2024
1725.0,,,ospan,symmetry,gIflrkiPPAUchQe2Xt3Th38C3Hq2,symmetry-judgement-task,197,1770729,0.0-46.0-6.0-1.0-1.0-8.0,,,,,,,,,,1.0,1.0,,,,5f85f0cab3f4e20ebf578203,17:02:52,03/04/2024
,"<div style=""font-size: 10rem; color: #0000FF"">C</div>",,ospan,letter,gIflrkiPPAUchQe2Xt3Th38C3Hq2,html-keyboard-response,198,1771733,0.0-46.0-6.0-1.0-1.0-9.0,,,,,,,,,,,,,,,5f85f0cab3f4e20ebf578203,17:02:52,03/04/2024
2094.0,,,ospan,symmetry,gIflrkiPPAUchQe2Xt3Th38C3Hq2,symmetry-judgement-task,199,1775734,0.0-46.0-6.0-1.0-1.0-10.0,,,,,,,,,,1.0,1.0,,,,5f85f0cab3f4e20ebf578203,17:02:52,03/04/2024
,"<div style=""font-size: 10rem; color: #0000FF"">K</div>",,ospan,letter,gIflrkiPPAUchQe2Xt3Th38C3Hq2,html-keyboard-response,200,1776750,0.0-46.0-6.0-1.0-1.0-11.0,,,,,,,,,,,,,,,5f85f0cab3f4e20ebf578203,17:02:52,03/04/2024
2091.0,,,ospan,symmetry,gIflrkiPPAUchQe2Xt3Th38C3Hq2,symmetry-judgement-task,201,1780760,0.0-46.0-6.0-1.0-1.0-12.0,,,,,,,,,,1.0,1.0,,,,5f85f0cab3f4e20ebf578203,17:02:52,03/04/2024
,"<div style=""font-size: 10rem; color: #0000FF"">H</div>",,ospan,letter,gIflrkiPPAUchQe2Xt3Th38C3Hq2,html-keyboard-response,202,1781769,0.0-46.0-6.0-1.0-1.0-13.0,,,,,,,,,,,,,,,5f85f0cab3f4e20ebf578203,17:02:52,03/04/2024
3122.0,,,ospan,symmetry,gIflrkiPPAUchQe2Xt3Th38C3Hq2,symmetry-judgement-task,203,1786814,0.0-46.0-6.0-1.0-1.0-14.0,,,,,,,,,,1.0,1.0,,,,5f85f0cab3f4e20ebf578203,17:02:52,03/04/2024
,"<div style=""font-size: 10rem; color: #0000FF"">Q</div>",,ospan,letter,gIflrkiPPAUchQe2Xt3Th38C3Hq2,html-keyboard-response,204,1787818,0.0-46.0-6.0-1.0-1.0-15.0,,,,,,,,,,,,,,,5f85f0cab3f4e20ebf578203,17:02:52,03/04/2024
68146.59999999404,"<div class = numbox><p style=""font-size: 2.4rem"">Please recall the letters you saw to the best of your ability. If you do not remember a particular letter, use the SKIP button.<br><b>(When you are ready to lock in your answer, press ENTER)</b></p><button id = button_1 class = ""square num-button"" onclick = ""recordClick(this)""><div class = content><div class = numbers>C</div></div></button><button id = button_2 class = ""square num-button"" onclick = ""recordClick(this)""><div class = content><div class = numbers>G</div></div></button><button id = button_3 class = ""square num-button"" onclick = ""recordClick(this)""><div class = content><div class = numbers>H</div></div></button><button id = button_4 class = ""square num-button"" onclick = ""recordClick(this)""><div class = content><div class = numbers>J</div></div></button><button id = button_5 class = ""square num-button"" onclick = ""recordClick(this)""><div class = content><div class = numbers>K</div></div></button><button id = button_6 class = ""square num-button"" onclick = ""recordClick(this)""><div class = content><div class = numbers>L</div></div></button><button id = button_7 class = ""square num-button"" onclick = ""recordClick(this)""><div class = content><div class = numbers>N</div></div></button><button id = button_8 class = ""square num-button"" onclick = ""recordClick(this)""><div class = content><div class = numbers>P</div></div></button><button id = button_9 class = ""square num-button"" onclick = ""recordClick(this)""><div class = content><div class = numbers>Q</div></div></button><button id = button_10 class = ""square num-button"" onclick = ""recordClick(this)""><div class = content><div class = numbers>R</div></div></button><button id = button_11 class = ""square num-button"" onclick = ""recordClick(this)""><div class = content><div class = numbers>S</div></div></button><button id = button_12 class = ""square num-button"" onclick = ""recordClick(this)""><div class = content><div class = numbers>Y</div></div></button><button class = clear_button id = ""ClearButton"" onclick = ""clearResponse()"">BACKSPACE</button><button class = blank_button id = ""BlankButton"" onclick = ""blankResponse()"">SKIP</button><p style=""font-size: 2.4rem""><u><b>Current Answer:</b></u></p><br><br><div id=echoed_txt style=""font-size: 5rem; color:blue;""><b></b></div></div>",enter,ospan,retrieval,gIflrkiPPAUchQe2Xt3Th38C3Hq2,html-keyboard-response,205,1856718,0.0-46.0-6.0-1.0-2.0,41,33,20,8.0,"[""P"",""L"",""G"",""N"",""C"",""Q"",""H"",""K""]","[""P"",""L"",""G"",""N"",""C"",""K"",""H"",""Q""]",0.0,6.0,,,,,,,5f85f0cab3f4e20ebf578203,17:02:52,03/04/2024
1618.0999999940395,[''],0,ospan,feedback,gIflrkiPPAUchQe2Xt3Th38C3Hq2,html-button-response,206,1858848,0.0-46.0-6.0-1.0-3.0,,,,,,,,,,,,100.0,0.0,,5f85f0cab3f4e20ebf578203,17:02:52,03/04/2024
77369.90000000596,,"{'Q0': 'The symmetry task was fun, remembering the letters was difficult but manageable.'}",ospan,survey_ospan,gIflrkiPPAUchQe2Xt3Th38C3Hq2,lmdlab-survey-text,207,1936977,0.0-46.0-7.0,,,,,,,,,,,,,,gIflrkiPPAUchQe2Xt3Th38C3Hq2,5f85f0cab3f4e20ebf578203,17:02:52,03/04/2024
1602.0,<p><p style='font-size: 3rem'>Great work!<br><br>This completes the symmetry and memory task.</p><br><br><br>,0,ospan,finish,gIflrkiPPAUchQe2Xt3Th38C3Hq2,html-button-response,208,1938583,0.0-46.0-8.0,41,33,20,,,,,,,,,100.0,,,5f85f0cab3f4e20ebf578203,17:02:52,03/04/2024
