rt,stimulus,response,exp_name,exp_stage,subjectID,trial_type,trial_index,time_elapsed,internal_node_id,ospan_shown,ospan_total,ospan_abs,length,resp_actual,resp_correct,full_correct,num_correct,feedback,accuracy,correct,math_acc,math_warning,databaseID,prolificID,start_time,date
2818.5,<div class = 'left_align' style='font-size: 3.25rem; line-height: 1.3;'><p class = 'center_align'><b>Welcome to the Symmetry and Memory Task</b><br><br><br><br></p>Press 'continue' to show the instructions.<br><br><br><br></div>,0,ospan,instruct,VBsRFYf74TO39A7if1mQ8s7hYnN2,html-button-response,54,658614,0.0-46.0-0.0-0.0-0.0,,,,,,,,,,,,,,,5f1caff8d9003412a7748b0e,13:25:02,03/04/2024
8121.0,"<div class = 'left_align' style='font-size: 3.25rem; line-height: 1.3;'><p class = 'center_align'><b>Symmetry and Memory Task</b><br><br></p>In this task, you will try to memorize letters you see on the screen<br>while you also view black and white grid pictures.<br><br>In the next few minutes, you will have some practice to get you familiar<br>with how the task works.<br><br>It may be difficult sometimes, but please do not worry about making mistakes!<br><br>We will begin by practicing the letter part of the task.<br><br><br><br></div>",0,ospan,instruct,VBsRFYf74TO39A7if1mQ8s7hYnN2,html-button-response,55,667005,0.0-46.0-0.0-0.0-1.0,,,,,,,,,,,,,,,5f1caff8d9003412a7748b0e,13:25:02,03/04/2024
8445.800000011921,"<div class = 'left_align' style='font-size: 3.25rem; line-height: 1.3;'>For this practice part, letters will appear on the screen one at a time.<br><br>Try to remember each letter in the order presented.<br><br>After some letters have been shown, you will see a response screen. Your<br>goal is to report the letters you saw <b>in order</b>. If you do not remember<br>a particular letter, you will have the option to leave it blank.<br><br><br><br></div>",0,ospan,instruct,VBsRFYf74TO39A7if1mQ8s7hYnN2,html-button-response,56,675710,0.0-46.0-0.0-0.0-2.0,,,,,,,,,,,,,,,5f1caff8d9003412a7748b0e,13:25:02,03/04/2024
3275.5,"<div class = 'left_align' style='font-size: 3.25rem; line-height: 1.3;'>Remember, it is very important to get the letters in the same<br>order as you see them.<br><br>When you are ready, you may begin the letter practice.</div><br><br><br><br>",0,ospan,instruct,VBsRFYf74TO39A7if1mQ8s7hYnN2,html-button-response,57,679245,0.0-46.0-0.0-0.0-3.0,,,,,,,,,,,,,,,5f1caff8d9003412a7748b0e,13:25:02,03/04/2024
,"<p style=""font-size:75px;"">...</p>",,ospan,iti,VBsRFYf74TO39A7if1mQ8s7hYnN2,html-keyboard-response,58,680511,0.0-46.0-0.0-1.0-0.0,,,,,,,,,,,,,,,5f1caff8d9003412a7748b0e,13:25:02,03/04/2024
,"<div style=""font-size: 10rem; color: #0000FF"">Q</div>",,ospan,letter,VBsRFYf74TO39A7if1mQ8s7hYnN2,html-keyboard-response,59,681514,0.0-46.0-0.0-1.0-1.0,,,,,,,,,,,,,,,5f1caff8d9003412a7748b0e,13:25:02,03/04/2024
,"<div style=""font-size: 10rem; color: #0000FF"">H</div>",,ospan,letter,VBsRFYf74TO39A7if1mQ8s7hYnN2,html-keyboard-response,60,683271,0.0-46.0-0.0-1.0-2.0,,,,,,,,,,,,,,,5f1caff8d9003412a7748b0e,13:25:02,03/04/2024
10280.399999976158,"<div class = numbox><p style=""font-size: 2.4rem"">Please recall the letters you saw to the best of your ability. If you do not remember a particular letter, use the SKIP button.<br><b>(When you are ready to lock in your answer, press ENTER)</b></p><button id = button_1 class = ""square num-button"" onclick = ""recordClick(this)""><div class = content><div class = numbers>C</div></div></button><button id = button_2 class = ""square num-button"" onclick = ""recordClick(this)""><div class = content><div class = numbers>G</div></div></button><button id = button_3 class = ""square num-button"" onclick = ""recordClick(this)""><div class = content><div class = numbers>H</div></div></button><button id = button_4 class = ""square num-button"" onclick = ""recordClick(this)""><div class = content><div class = numbers>J</div></div></button><button id = button_5 class = ""square num-button"" onclick = ""recordClick(this)""><div class = content><div class = numbers>K</div></div></button><button id = button_6 class = ""square num-button"" onclick = ""recordClick(this)""><div class = content><div class = numbers>L</div></div></button><button id = button_7 class = ""square num-button"" onclick = ""recordClick(this)""><div class = content><div class = numbers>N</div></div></button><button id = button_8 class = ""square num-button"" onclick = ""recordClick(this)""><div class = content><div class = numbers>P</div></div></button><button id = button_9 class = ""square num-button"" onclick = ""recordClick(this)""><div class = content><div class = numbers>Q</div></div></button><button id = button_10 class = ""square num-button"" onclick = ""recordClick(this)""><div class = content><div class = numbers>R</div></div></button><button id = button_11 class = ""square num-button"" onclick = ""recordClick(this)""><div class = content><div class = numbers>S</div></div></button><button id = button_12 class = ""square num-button"" onclick = ""recordClick(this)""><div class = content><div class = numbers>Y</div></div></button><button class = clear_button id = ""ClearButton"" onclick = ""clearResponse()"">BACKSPACE</button><button class = blank_button id = ""BlankButton"" onclick = ""blankResponse()"">SKIP</button><p style=""font-size: 2.4rem""><u><b>Current Answer:</b></u></p><br><br><div id=echoed_txt style=""font-size: 5rem; color:blue;""><b></b></div></div>",enter,ospan,retrieval,VBsRFYf74TO39A7if1mQ8s7hYnN2,html-keyboard-response,61,694323,0.0-46.0-0.0-1.0-3.0,NA,NA,NA,2.0,"[""Q"",""H""]","[""Q"",""H""]",1.0,2.0,"['<font color=""green"">Q</font>', '<font color=""green"">H</font>']",,,,,,5f1caff8d9003412a7748b0e,13:25:02,03/04/2024
2185.5,"['<p style=""font-size:44px"">Letters:<br><br><br><font color=""green"">Q</font> <font color=""green"">H</font></p><br><br>']",0,ospan,practice_feedback,VBsRFYf74TO39A7if1mQ8s7hYnN2,html-button-response,62,697022,0.0-46.0-0.0-1.0-4.0,,,,,,,,,,,,,,,5f1caff8d9003412a7748b0e,13:25:02,03/04/2024
,"<p style=""font-size:75px;"">...</p>",,ospan,iti,VBsRFYf74TO39A7if1mQ8s7hYnN2,html-keyboard-response,63,698024,0.0-46.0-0.0-2.0-0.0,,,,,,,,,,,,,,,5f1caff8d9003412a7748b0e,13:25:02,03/04/2024
,"<div style=""font-size: 10rem; color: #0000FF"">G</div>",,ospan,letter,VBsRFYf74TO39A7if1mQ8s7hYnN2,html-keyboard-response,64,699026,0.0-46.0-0.0-2.0-1.0,,,,,,,,,,,,,,,5f1caff8d9003412a7748b0e,13:25:02,03/04/2024
,"<div style=""font-size: 10rem; color: #0000FF"">J</div>",,ospan,letter,VBsRFYf74TO39A7if1mQ8s7hYnN2,html-keyboard-response,65,700783,0.0-46.0-0.0-2.0-2.0,,,,,,,,,,,,,,,5f1caff8d9003412a7748b0e,13:25:02,03/04/2024
,"<div style=""font-size: 10rem; color: #0000FF"">R</div>",,ospan,letter,VBsRFYf74TO39A7if1mQ8s7hYnN2,html-keyboard-response,66,702549,0.0-46.0-0.0-2.0-3.0,,,,,,,,,,,,,,,5f1caff8d9003412a7748b0e,13:25:02,03/04/2024
4709.899999976158,"<div class = numbox><p style=""font-size: 2.4rem"">Please recall the letters you saw to the best of your ability. If you do not remember a particular letter, use the SKIP button.<br><b>(When you are ready to lock in your answer, press ENTER)</b></p><button id = button_1 class = ""square num-button"" onclick = ""recordClick(this)""><div class = content><div class = numbers>C</div></div></button><button id = button_2 class = ""square num-button"" onclick = ""recordClick(this)""><div class = content><div class = numbers>G</div></div></button><button id = button_3 class = ""square num-button"" onclick = ""recordClick(this)""><div class = content><div class = numbers>H</div></div></button><button id = button_4 class = ""square num-button"" onclick = ""recordClick(this)""><div class = content><div class = numbers>J</div></div></button><button id = button_5 class = ""square num-button"" onclick = ""recordClick(this)""><div class = content><div class = numbers>K</div></div></button><button id = button_6 class = ""square num-button"" onclick = ""recordClick(this)""><div class = content><div class = numbers>L</div></div></button><button id = button_7 class = ""square num-button"" onclick = ""recordClick(this)""><div class = content><div class = numbers>N</div></div></button><button id = button_8 class = ""square num-button"" onclick = ""recordClick(this)""><div class = content><div class = numbers>P</div></div></button><button id = button_9 class = ""square num-button"" onclick = ""recordClick(this)""><div class = content><div class = numbers>Q</div></div></button><button id = button_10 class = ""square num-button"" onclick = ""recordClick(this)""><div class = content><div class = numbers>R</div></div></button><button id = button_11 class = ""square num-button"" onclick = ""recordClick(this)""><div class = content><div class = numbers>S</div></div></button><button id = button_12 class = ""square num-button"" onclick = ""recordClick(this)""><div class = content><div class = numbers>Y</div></div></button><button class = clear_button id = ""ClearButton"" onclick = ""clearResponse()"">BACKSPACE</button><button class = blank_button id = ""BlankButton"" onclick = ""blankResponse()"">SKIP</button><p style=""font-size: 2.4rem""><u><b>Current Answer:</b></u></p><br><br><div id=echoed_txt style=""font-size: 5rem; color:blue;""><b></b></div></div>",enter,ospan,retrieval,VBsRFYf74TO39A7if1mQ8s7hYnN2,html-keyboard-response,67,708015,0.0-46.0-0.0-2.0-4.0,NA,NA,NA,3.0,"[""G"",""J"",""R""]","[""G"",""J"",""R""]",1.0,3.0,"['<font color=""green"">G</font>', '<font color=""green"">J</font>', '<font color=""green"">R</font>']",,,,,,5f1caff8d9003412a7748b0e,13:25:02,03/04/2024
1873.0,"['<p style=""font-size:44px"">Letters:<br><br><br><font color=""green"">G</font> <font color=""green"">J</font> <font color=""green"">R</font></p><br><br>']",0,ospan,practice_feedback,VBsRFYf74TO39A7if1mQ8s7hYnN2,html-button-response,68,710389,0.0-46.0-0.0-2.0-5.0,,,,,,,,,,,,,,,5f1caff8d9003412a7748b0e,13:25:02,03/04/2024
12901.699999988079,"<div class = 'left_align' style='font-size: 3.25rem; line-height: 1.3;'>Now you will practice doing the <b>symmetry judgment part</b> of the experiment.<br><br>A black and white grid picture will appear on the screen and you have to judge if it is <br>symmetrical or asymetrical.<br><br>A picture is 'mirror' symmetrical if its left half is identical to the right half when flipped.<br>Here are examples of a symmetrical and an asymetrical picture:<br><br><center><img src='Stimuli/img/symm_instructions_extra.png' style='height:420px; width:900'></img></center><br>To judge symmetry, imagine you were to fold each picture down the middle, like a book –<br>would the left half match the right half when folded onto each other?<br><br></div><br>",0,ospan,instruct,VBsRFYf74TO39A7if1mQ8s7hYnN2,html-button-response,69,723293,0.0-46.0-1.0-0.0-0.0,,,,,,,,,,,,,,,5f1caff8d9003412a7748b0e,13:25:02,03/04/2024
7626.099999964237,"<div class = 'left_align' style='font-size: 3.25rem; line-height: 1.3;'>When you have viewed the picture and determined whether it is symmetrical or not,<br>you can <b>click the Yes or No button</b> below to answer.<br><br>If you take longer than 15 seconds, it will continue automatically<br>and record the answer as an error.</div><br>",0,ospan,instruct,VBsRFYf74TO39A7if1mQ8s7hYnN2,html-button-response,70,731174,0.0-46.0-1.0-0.0-1.0,,,,,,,,,,,,,,,5f1caff8d9003412a7748b0e,13:25:02,03/04/2024
5022.5,"<div class = 'left_align' style='font-size: 3.25rem; line-height: 1.3;'>It is <b>very</b> important that you make the symmetry judgment correctly.<br><br>It is also important that you try and judge the picture as quickly as you can.<br><br>When you are ready, click on the button below to try some practice problems.</div><br><br><br><br>",0,ospan,instruct,VBsRFYf74TO39A7if1mQ8s7hYnN2,html-button-response,71,736470,0.0-46.0-1.0-0.0-2.0,,,,,,,,,,,,,,,5f1caff8d9003412a7748b0e,13:25:02,03/04/2024
2583.0,,,ospan,symmetry,VBsRFYf74TO39A7if1mQ8s7hYnN2,symmetry-judgement-task,72,739886,0.0-46.0-1.0-1.0-0.0,,,,,,,,,,1.0,1.0,,,,5f1caff8d9003412a7748b0e,13:25:02,03/04/2024
,"<p style=""color:green; font-size: 35px"">Correct</p>",,ospan,feedback,VBsRFYf74TO39A7if1mQ8s7hYnN2,html-keyboard-response,73,740641,0.0-46.0-1.0-1.0-1.0,,,,,,,,,,,,,,,5f1caff8d9003412a7748b0e,13:25:02,03/04/2024
2797.0,,,ospan,symmetry,VBsRFYf74TO39A7if1mQ8s7hYnN2,symmetry-judgement-task,74,746239,0.0-46.0-1.0-1.0-2.0,,,,,,,,,,1.0,1.0,,,,5f1caff8d9003412a7748b0e,13:25:02,03/04/2024
,"<p style=""color:green; font-size: 35px"">Correct</p>",,ospan,feedback,VBsRFYf74TO39A7if1mQ8s7hYnN2,html-keyboard-response,75,747003,0.0-46.0-1.0-1.0-3.0,,,,,,,,,,,,,,,5f1caff8d9003412a7748b0e,13:25:02,03/04/2024
2773.0,,,ospan,symmetry,VBsRFYf74TO39A7if1mQ8s7hYnN2,symmetry-judgement-task,76,752569,0.0-46.0-1.0-1.0-4.0,,,,,,,,,,1.0,1.0,,,,5f1caff8d9003412a7748b0e,13:25:02,03/04/2024
,"<p style=""color:green; font-size: 35px"">Correct</p>",,ospan,feedback,VBsRFYf74TO39A7if1mQ8s7hYnN2,html-keyboard-response,77,753333,0.0-46.0-1.0-1.0-5.0,,,,,,,,,,,,,,,5f1caff8d9003412a7748b0e,13:25:02,03/04/2024
2035.7000000476837,"<p style=""font-size: 3rem;"">You responded correctly on 3 of 3 symmetry judgments. Good job!</p><br><br>",0,ospan,practice,VBsRFYf74TO39A7if1mQ8s7hYnN2,html-button-response,78,757374,0.0-46.0-1.0-2.0,,,,,,,,,,,,,,,5f1caff8d9003412a7748b0e,13:25:02,03/04/2024
14697.899999976158,"<div class = 'left_align' style='font-size: 3.25rem; line-height: 1.3;'>Now you will practice doing both parts of the experiment at the same time.<br><br>In the next practice set, you will be given one grid picture to judge.<br>Then letter will appear on the screen. Try to remember the letter.<br><br>It is <b>very important</b> to make the symmetry judgment as quickly and accurately as possible.<br><br>Just as before, once you have make the symmetry judgment, you can click Yes or No.<br><b>Note that you will no longer see Correct or Incorrect feedback.</div><br><br><br><br>",0,ospan,instruct,VBsRFYf74TO39A7if1mQ8s7hYnN2,html-button-response,79,772326,0.0-46.0-2.0-0.0-0.0,,,,,,,,,,,,,,,5f1caff8d9003412a7748b0e,13:25:02,03/04/2024
13611.5,"<div class = 'left_align' style='font-size: 3.25rem; line-height: 1.3;'>After the letter goes away, another grid picture will appear, and then<br>another letter.<br><br>At the end of each set of letters and grids, you will recall the letters to the best<br>of your ability. Remember, try your best to get the letters in the correct order.<br><br>It is important to <b>quickly</b> and <b>accurately</b> make the symmetry judgments.</div><br><br><br><br>",0,ospan,instruct,VBsRFYf74TO39A7if1mQ8s7hYnN2,html-button-response,80,786190,0.0-46.0-2.0-0.0-1.0,,,,,,,,,,,,,,,5f1caff8d9003412a7748b0e,13:25:02,03/04/2024
13389.5,"<div class = 'left_align' style='font-size: 3.25rem; line-height: 1.3;'>On the feedback screen, if you are not doing well at the symmetry judgments,<br>you will also see a warning in the middle. This indicates your percent <br>correct for the grid pictures for the entire experiment.<br><br>It is <b>very</b> important for you to keep accuracy at least at 85%: <u>We can only use<br>data where the participant was at least 85% accurate on the judgments.</u> Therefore,<br> please try your best to perform well on the symmetry judgments, <b>at the same time</b><br>doing your best to recall as many letters as possible.<br><br>Click the button to try some practice problems.</div><br><br><br><br>",0,ospan,instruct,VBsRFYf74TO39A7if1mQ8s7hYnN2,html-button-response,81,799846,0.0-46.0-2.0-0.0-2.0,,,,,,,,,,,,,,,5f1caff8d9003412a7748b0e,13:25:02,03/04/2024
,"<p style=""font-size:75px;"">...</p>",,ospan,iti,VBsRFYf74TO39A7if1mQ8s7hYnN2,html-keyboard-response,82,801100,0.0-46.0-2.0-1.0-0.0,,,,,,,,,,,,,,,5f1caff8d9003412a7748b0e,13:25:02,03/04/2024
1674.0,,,ospan,symmetry,VBsRFYf74TO39A7if1mQ8s7hYnN2,symmetry-judgement-task,83,804005,0.0-46.0-2.0-1.0-1.0-0.0,,,,,,,,,,1.0,1.0,,,,5f1caff8d9003412a7748b0e,13:25:02,03/04/2024
,"<div style=""font-size: 10rem; color: #0000FF"">G</div>",,ospan,letter,VBsRFYf74TO39A7if1mQ8s7hYnN2,html-keyboard-response,84,805007,0.0-46.0-2.0-1.0-1.0-1.0,,,,,,,,,,,,,,,5f1caff8d9003412a7748b0e,13:25:02,03/04/2024
2455.0,,,ospan,symmetry,VBsRFYf74TO39A7if1mQ8s7hYnN2,symmetry-judgement-task,85,809485,0.0-46.0-2.0-1.0-1.0-2.0,,,,,,,,,,1.0,1.0,,,,5f1caff8d9003412a7748b0e,13:25:02,03/04/2024
,"<div style=""font-size: 10rem; color: #0000FF"">Y</div>",,ospan,letter,VBsRFYf74TO39A7if1mQ8s7hYnN2,html-keyboard-response,86,810487,0.0-46.0-2.0-1.0-1.0-3.0,,,,,,,,,,,,,,,5f1caff8d9003412a7748b0e,13:25:02,03/04/2024
2530.0,,,ospan,symmetry,VBsRFYf74TO39A7if1mQ8s7hYnN2,symmetry-judgement-task,87,815058,0.0-46.0-2.0-1.0-1.0-4.0,,,,,,,,,,1.0,1.0,,,,5f1caff8d9003412a7748b0e,13:25:02,03/04/2024
,"<div style=""font-size: 10rem; color: #0000FF"">L</div>",,ospan,letter,VBsRFYf74TO39A7if1mQ8s7hYnN2,html-keyboard-response,88,816066,0.0-46.0-2.0-1.0-1.0-5.0,,,,,,,,,,,,,,,5f1caff8d9003412a7748b0e,13:25:02,03/04/2024
4260.599999964237,"<div class = numbox><p style=""font-size: 2.4rem"">Please recall the letters you saw to the best of your ability. If you do not remember a particular letter, use the SKIP button.<br><b>(When you are ready to lock in your answer, press ENTER)</b></p><button id = button_1 class = ""square num-button"" onclick = ""recordClick(this)""><div class = content><div class = numbers>C</div></div></button><button id = button_2 class = ""square num-button"" onclick = ""recordClick(this)""><div class = content><div class = numbers>G</div></div></button><button id = button_3 class = ""square num-button"" onclick = ""recordClick(this)""><div class = content><div class = numbers>H</div></div></button><button id = button_4 class = ""square num-button"" onclick = ""recordClick(this)""><div class = content><div class = numbers>J</div></div></button><button id = button_5 class = ""square num-button"" onclick = ""recordClick(this)""><div class = content><div class = numbers>K</div></div></button><button id = button_6 class = ""square num-button"" onclick = ""recordClick(this)""><div class = content><div class = numbers>L</div></div></button><button id = button_7 class = ""square num-button"" onclick = ""recordClick(this)""><div class = content><div class = numbers>N</div></div></button><button id = button_8 class = ""square num-button"" onclick = ""recordClick(this)""><div class = content><div class = numbers>P</div></div></button><button id = button_9 class = ""square num-button"" onclick = ""recordClick(this)""><div class = content><div class = numbers>Q</div></div></button><button id = button_10 class = ""square num-button"" onclick = ""recordClick(this)""><div class = content><div class = numbers>R</div></div></button><button id = button_11 class = ""square num-button"" onclick = ""recordClick(this)""><div class = content><div class = numbers>S</div></div></button><button id = button_12 class = ""square num-button"" onclick = ""recordClick(this)""><div class = content><div class = numbers>Y</div></div></button><button class = clear_button id = ""ClearButton"" onclick = ""clearResponse()"">BACKSPACE</button><button class = blank_button id = ""BlankButton"" onclick = ""blankResponse()"">SKIP</button><p style=""font-size: 2.4rem""><u><b>Current Answer:</b></u></p><br><br><div id=echoed_txt style=""font-size: 5rem; color:blue;""><b></b></div></div>",enter,ospan,retrieval,VBsRFYf74TO39A7if1mQ8s7hYnN2,html-keyboard-response,89,821093,0.0-46.0-2.0-1.0-2.0-0.0,NA,NA,NA,3.0,"[""G"",""Y"",""L""]","[""G"",""Y"",""L""]",1.0,3.0,"['<font color=""green"">G</font>', '<font color=""green"">Y</font>', '<font color=""green"">L</font>']",,,,,,5f1caff8d9003412a7748b0e,13:25:02,03/04/2024
2484.699999988079,"['<p style=""font-size:44px"">Letters:<br><br><br><font color=""green"">G</font> <font color=""green"">Y</font> <font color=""green"">L</font></p><br><br><p style=""font-size:30px"">Symmetry:<br><br><font color=""green"">100%</font></p><br><br>']",0,ospan,practice_feedback,VBsRFYf74TO39A7if1mQ8s7hYnN2,html-button-response,90,824094,0.0-46.0-2.0-1.0-2.0-1.0,,,,,,,,,,,,,,,5f1caff8d9003412a7748b0e,13:25:02,03/04/2024
,"<p style=""font-size:75px;"">...</p>",,ospan,iti,VBsRFYf74TO39A7if1mQ8s7hYnN2,html-keyboard-response,91,825114,0.0-46.0-2.0-2.0-0.0,,,,,,,,,,,,,,,5f1caff8d9003412a7748b0e,13:25:02,03/04/2024
1691.0,,,ospan,symmetry,VBsRFYf74TO39A7if1mQ8s7hYnN2,symmetry-judgement-task,92,828082,0.0-46.0-2.0-2.0-1.0-0.0,,,,,,,,,,1.0,1.0,,,,5f1caff8d9003412a7748b0e,13:25:02,03/04/2024
,"<div style=""font-size: 10rem; color: #0000FF"">H</div>",,ospan,letter,VBsRFYf74TO39A7if1mQ8s7hYnN2,html-keyboard-response,93,829086,0.0-46.0-2.0-2.0-1.0-1.0,,,,,,,,,,,,,,,5f1caff8d9003412a7748b0e,13:25:02,03/04/2024
2167.0,,,ospan,symmetry,VBsRFYf74TO39A7if1mQ8s7hYnN2,symmetry-judgement-task,94,833293,0.0-46.0-2.0-2.0-1.0-2.0,,,,,,,,,,1.0,1.0,,,,5f1caff8d9003412a7748b0e,13:25:02,03/04/2024
,"<div style=""font-size: 10rem; color: #0000FF"">S</div>",,ospan,letter,VBsRFYf74TO39A7if1mQ8s7hYnN2,html-keyboard-response,95,834295,0.0-46.0-2.0-2.0-1.0-3.0,,,,,,,,,,,,,,,5f1caff8d9003412a7748b0e,13:25:02,03/04/2024
3268.0,,,ospan,symmetry,VBsRFYf74TO39A7if1mQ8s7hYnN2,symmetry-judgement-task,96,839591,0.0-46.0-2.0-2.0-1.0-4.0,,,,,,,,,,1.0,1.0,,,,5f1caff8d9003412a7748b0e,13:25:02,03/04/2024
,"<div style=""font-size: 10rem; color: #0000FF"">Y</div>",,ospan,letter,VBsRFYf74TO39A7if1mQ8s7hYnN2,html-keyboard-response,97,840593,0.0-46.0-2.0-2.0-1.0-5.0,,,,,,,,,,,,,,,5f1caff8d9003412a7748b0e,13:25:02,03/04/2024
3501.7999999523163,"<div class = numbox><p style=""font-size: 2.4rem"">Please recall the letters you saw to the best of your ability. If you do not remember a particular letter, use the SKIP button.<br><b>(When you are ready to lock in your answer, press ENTER)</b></p><button id = button_1 class = ""square num-button"" onclick = ""recordClick(this)""><div class = content><div class = numbers>C</div></div></button><button id = button_2 class = ""square num-button"" onclick = ""recordClick(this)""><div class = content><div class = numbers>G</div></div></button><button id = button_3 class = ""square num-button"" onclick = ""recordClick(this)""><div class = content><div class = numbers>H</div></div></button><button id = button_4 class = ""square num-button"" onclick = ""recordClick(this)""><div class = content><div class = numbers>J</div></div></button><button id = button_5 class = ""square num-button"" onclick = ""recordClick(this)""><div class = content><div class = numbers>K</div></div></button><button id = button_6 class = ""square num-button"" onclick = ""recordClick(this)""><div class = content><div class = numbers>L</div></div></button><button id = button_7 class = ""square num-button"" onclick = ""recordClick(this)""><div class = content><div class = numbers>N</div></div></button><button id = button_8 class = ""square num-button"" onclick = ""recordClick(this)""><div class = content><div class = numbers>P</div></div></button><button id = button_9 class = ""square num-button"" onclick = ""recordClick(this)""><div class = content><div class = numbers>Q</div></div></button><button id = button_10 class = ""square num-button"" onclick = ""recordClick(this)""><div class = content><div class = numbers>R</div></div></button><button id = button_11 class = ""square num-button"" onclick = ""recordClick(this)""><div class = content><div class = numbers>S</div></div></button><button id = button_12 class = ""square num-button"" onclick = ""recordClick(this)""><div class = content><div class = numbers>Y</div></div></button><button class = clear_button id = ""ClearButton"" onclick = ""clearResponse()"">BACKSPACE</button><button class = blank_button id = ""BlankButton"" onclick = ""blankResponse()"">SKIP</button><p style=""font-size: 2.4rem""><u><b>Current Answer:</b></u></p><br><br><div id=echoed_txt style=""font-size: 5rem; color:blue;""><b></b></div></div>",enter,ospan,retrieval,VBsRFYf74TO39A7if1mQ8s7hYnN2,html-keyboard-response,98,844850,0.0-46.0-2.0-2.0-2.0-0.0,NA,NA,NA,3.0,"[""H"",""S"",""Y""]","[""H"",""S"",""Y""]",1.0,3.0,"['<font color=""green"">H</font>', '<font color=""green"">S</font>', '<font color=""green"">Y</font>']",,,,,,5f1caff8d9003412a7748b0e,13:25:02,03/04/2024
2002.8999999761581,"['<p style=""font-size:44px"">Letters:<br><br><br><font color=""green"">H</font> <font color=""green"">S</font> <font color=""green"">Y</font></p><br><br><p style=""font-size:30px"">Symmetry:<br><br><font color=""green"">100%</font></p><br><br>']",0,ospan,practice_feedback,VBsRFYf74TO39A7if1mQ8s7hYnN2,html-button-response,99,847358,0.0-46.0-2.0-2.0-2.0-1.0,,,,,,,,,,,,,,,5f1caff8d9003412a7748b0e,13:25:02,03/04/2024
11950.199999988079,"<div class = 'left_align' style='font-size: 3rem; line-height: 1.3;'><b>Great work! That is the end of practice.</b><br><br>The real trials will look just like the practice trials you just completed.<br><br><u>Here, you will not see feedback</u>. First, you will see an grid picture to judge,<br>then a letter to remember. When the recall screen appears, report the letters in the<br>order presented. If you forget a letter, remember to use the <b>blank</b> button to move to the<br>next letter. Some of the sets will have more symmetry grids and letters than others.<br><br>It is important that you do your best on both the symmetry judgments and the letter recall<br>parts of the experiment. For for the symmetry judgments, try to work as <b>quickly</b> and <br>as <b>accurately</b> as possible. Remember to keep your symmetry accuracy at 85% or above.<br><br><b>For the letters, do NOT use any external aid (e.g., writing on paper, electronic device).</b><br><br>It is <u>very important</u> to our experiment to have a <b>true</b> view of your real performance.<br><br>Do not worry if you miss some when it gets hard! This task is meant to be very challenging!<br><br>Click the button to begin.</div><br><br><br><br>",0,ospan,starting_real_here,VBsRFYf74TO39A7if1mQ8s7hYnN2,html-button-response,100,859310,0.0-46.0-2.0-3.0,,,,,,,,,,,,,,,5f1caff8d9003412a7748b0e,13:25:02,03/04/2024
,"<p style=""font-size:75px;"">...</p>",,ospan,iti,VBsRFYf74TO39A7if1mQ8s7hYnN2,html-keyboard-response,101,860563,0.0-46.0-3.0-0.0-0.0,,,,,,,,,,,,,,,5f1caff8d9003412a7748b0e,13:25:02,03/04/2024
2663.0,,,ospan,symmetry,VBsRFYf74TO39A7if1mQ8s7hYnN2,symmetry-judgement-task,102,864509,0.0-46.0-3.0-0.0-1.0-0.0,,,,,,,,,,1.0,1.0,,,,5f1caff8d9003412a7748b0e,13:25:02,03/04/2024
,"<div style=""font-size: 10rem; color: #0000FF"">N</div>",,ospan,letter,VBsRFYf74TO39A7if1mQ8s7hYnN2,html-keyboard-response,103,865512,0.0-46.0-3.0-0.0-1.0-1.0,,,,,,,,,,,,,,,5f1caff8d9003412a7748b0e,13:25:02,03/04/2024
2521.0,,,ospan,symmetry,VBsRFYf74TO39A7if1mQ8s7hYnN2,symmetry-judgement-task,104,870083,0.0-46.0-3.0-0.0-1.0-2.0,,,,,,,,,,1.0,1.0,,,,5f1caff8d9003412a7748b0e,13:25:02,03/04/2024
,"<div style=""font-size: 10rem; color: #0000FF"">L</div>",,ospan,letter,VBsRFYf74TO39A7if1mQ8s7hYnN2,html-keyboard-response,105,871086,0.0-46.0-3.0-0.0-1.0-3.0,,,,,,,,,,,,,,,5f1caff8d9003412a7748b0e,13:25:02,03/04/2024
2679.0,,,ospan,symmetry,VBsRFYf74TO39A7if1mQ8s7hYnN2,symmetry-judgement-task,106,875781,0.0-46.0-3.0-0.0-1.0-4.0,,,,,,,,,,1.0,1.0,,,,5f1caff8d9003412a7748b0e,13:25:02,03/04/2024
,"<div style=""font-size: 10rem; color: #0000FF"">Q</div>",,ospan,letter,VBsRFYf74TO39A7if1mQ8s7hYnN2,html-keyboard-response,107,876793,0.0-46.0-3.0-0.0-1.0-5.0,,,,,,,,,,,,,,,5f1caff8d9003412a7748b0e,13:25:02,03/04/2024
3251.100000023842,"<div class = numbox><p style=""font-size: 2.4rem"">Please recall the letters you saw to the best of your ability. If you do not remember a particular letter, use the SKIP button.<br><b>(When you are ready to lock in your answer, press ENTER)</b></p><button id = button_1 class = ""square num-button"" onclick = ""recordClick(this)""><div class = content><div class = numbers>C</div></div></button><button id = button_2 class = ""square num-button"" onclick = ""recordClick(this)""><div class = content><div class = numbers>G</div></div></button><button id = button_3 class = ""square num-button"" onclick = ""recordClick(this)""><div class = content><div class = numbers>H</div></div></button><button id = button_4 class = ""square num-button"" onclick = ""recordClick(this)""><div class = content><div class = numbers>J</div></div></button><button id = button_5 class = ""square num-button"" onclick = ""recordClick(this)""><div class = content><div class = numbers>K</div></div></button><button id = button_6 class = ""square num-button"" onclick = ""recordClick(this)""><div class = content><div class = numbers>L</div></div></button><button id = button_7 class = ""square num-button"" onclick = ""recordClick(this)""><div class = content><div class = numbers>N</div></div></button><button id = button_8 class = ""square num-button"" onclick = ""recordClick(this)""><div class = content><div class = numbers>P</div></div></button><button id = button_9 class = ""square num-button"" onclick = ""recordClick(this)""><div class = content><div class = numbers>Q</div></div></button><button id = button_10 class = ""square num-button"" onclick = ""recordClick(this)""><div class = content><div class = numbers>R</div></div></button><button id = button_11 class = ""square num-button"" onclick = ""recordClick(this)""><div class = content><div class = numbers>S</div></div></button><button id = button_12 class = ""square num-button"" onclick = ""recordClick(this)""><div class = content><div class = numbers>Y</div></div></button><button class = clear_button id = ""ClearButton"" onclick = ""clearResponse()"">BACKSPACE</button><button class = blank_button id = ""BlankButton"" onclick = ""blankResponse()"">SKIP</button><p style=""font-size: 2.4rem""><u><b>Current Answer:</b></u></p><br><br><div id=echoed_txt style=""font-size: 5rem; color:blue;""><b></b></div></div>",enter,ospan,retrieval,VBsRFYf74TO39A7if1mQ8s7hYnN2,html-keyboard-response,108,880795,0.0-46.0-3.0-0.0-2.0,3,3,3,3.0,"[""N"",""L"",""Q""]","[""N"",""L"",""Q""]",1.0,3.0,,,,,,,5f1caff8d9003412a7748b0e,13:25:02,03/04/2024
1441.4000000357628,[''],0,ospan,feedback,VBsRFYf74TO39A7if1mQ8s7hYnN2,html-button-response,109,882750,0.0-46.0-3.0-0.0-3.0,,,,,,,,,,,,100.0,0.0,,5f1caff8d9003412a7748b0e,13:25:02,03/04/2024
,"<p style=""font-size:75px;"">...</p>",,ospan,iti,VBsRFYf74TO39A7if1mQ8s7hYnN2,html-keyboard-response,110,883765,0.0-46.0-4.0-0.0-0.0,,,,,,,,,,,,,,,5f1caff8d9003412a7748b0e,13:25:02,03/04/2024
2107.0,,,ospan,symmetry,VBsRFYf74TO39A7if1mQ8s7hYnN2,symmetry-judgement-task,111,887172,0.0-46.0-4.0-0.0-1.0-0.0,,,,,,,,,,1.0,1.0,,,,5f1caff8d9003412a7748b0e,13:25:02,03/04/2024
,"<div style=""font-size: 10rem; color: #0000FF"">H</div>",,ospan,letter,VBsRFYf74TO39A7if1mQ8s7hYnN2,html-keyboard-response,112,888174,0.0-46.0-4.0-0.0-1.0-1.0,,,,,,,,,,,,,,,5f1caff8d9003412a7748b0e,13:25:02,03/04/2024
2715.0,,,ospan,symmetry,VBsRFYf74TO39A7if1mQ8s7hYnN2,symmetry-judgement-task,113,892899,0.0-46.0-4.0-0.0-1.0-2.0,,,,,,,,,,1.0,1.0,,,,5f1caff8d9003412a7748b0e,13:25:02,03/04/2024
,"<div style=""font-size: 10rem; color: #0000FF"">G</div>",,ospan,letter,VBsRFYf74TO39A7if1mQ8s7hYnN2,html-keyboard-response,114,893901,0.0-46.0-4.0-0.0-1.0-3.0,,,,,,,,,,,,,,,5f1caff8d9003412a7748b0e,13:25:02,03/04/2024
2136.0,,,ospan,symmetry,VBsRFYf74TO39A7if1mQ8s7hYnN2,symmetry-judgement-task,115,898085,0.0-46.0-4.0-0.0-1.0-4.0,,,,,,,,,,1.0,1.0,,,,5f1caff8d9003412a7748b0e,13:25:02,03/04/2024
,"<div style=""font-size: 10rem; color: #0000FF"">Q</div>",,ospan,letter,VBsRFYf74TO39A7if1mQ8s7hYnN2,html-keyboard-response,116,899087,0.0-46.0-4.0-0.0-1.0-5.0,,,,,,,,,,,,,,,5f1caff8d9003412a7748b0e,13:25:02,03/04/2024
2636.0,,,ospan,symmetry,VBsRFYf74TO39A7if1mQ8s7hYnN2,symmetry-judgement-task,117,903732,0.0-46.0-4.0-0.0-1.0-6.0,,,,,,,,,,1.0,1.0,,,,5f1caff8d9003412a7748b0e,13:25:02,03/04/2024
,"<div style=""font-size: 10rem; color: #0000FF"">Y</div>",,ospan,letter,VBsRFYf74TO39A7if1mQ8s7hYnN2,html-keyboard-response,118,904746,0.0-46.0-4.0-0.0-1.0-7.0,,,,,,,,,,,,,,,5f1caff8d9003412a7748b0e,13:25:02,03/04/2024
4135.800000011921,"<div class = numbox><p style=""font-size: 2.4rem"">Please recall the letters you saw to the best of your ability. If you do not remember a particular letter, use the SKIP button.<br><b>(When you are ready to lock in your answer, press ENTER)</b></p><button id = button_1 class = ""square num-button"" onclick = ""recordClick(this)""><div class = content><div class = numbers>C</div></div></button><button id = button_2 class = ""square num-button"" onclick = ""recordClick(this)""><div class = content><div class = numbers>G</div></div></button><button id = button_3 class = ""square num-button"" onclick = ""recordClick(this)""><div class = content><div class = numbers>H</div></div></button><button id = button_4 class = ""square num-button"" onclick = ""recordClick(this)""><div class = content><div class = numbers>J</div></div></button><button id = button_5 class = ""square num-button"" onclick = ""recordClick(this)""><div class = content><div class = numbers>K</div></div></button><button id = button_6 class = ""square num-button"" onclick = ""recordClick(this)""><div class = content><div class = numbers>L</div></div></button><button id = button_7 class = ""square num-button"" onclick = ""recordClick(this)""><div class = content><div class = numbers>N</div></div></button><button id = button_8 class = ""square num-button"" onclick = ""recordClick(this)""><div class = content><div class = numbers>P</div></div></button><button id = button_9 class = ""square num-button"" onclick = ""recordClick(this)""><div class = content><div class = numbers>Q</div></div></button><button id = button_10 class = ""square num-button"" onclick = ""recordClick(this)""><div class = content><div class = numbers>R</div></div></button><button id = button_11 class = ""square num-button"" onclick = ""recordClick(this)""><div class = content><div class = numbers>S</div></div></button><button id = button_12 class = ""square num-button"" onclick = ""recordClick(this)""><div class = content><div class = numbers>Y</div></div></button><button class = clear_button id = ""ClearButton"" onclick = ""clearResponse()"">BACKSPACE</button><button class = blank_button id = ""BlankButton"" onclick = ""blankResponse()"">SKIP</button><p style=""font-size: 2.4rem""><u><b>Current Answer:</b></u></p><br><br><div id=echoed_txt style=""font-size: 5rem; color:blue;""><b></b></div></div>",enter,ospan,retrieval,VBsRFYf74TO39A7if1mQ8s7hYnN2,html-keyboard-response,119,909642,0.0-46.0-4.0-0.0-2.0,7,7,7,4.0,"[""H"",""G"",""Q"",""Y""]","[""H"",""G"",""Q"",""Y""]",1.0,4.0,,,,,,,5f1caff8d9003412a7748b0e,13:25:02,03/04/2024
857.3999999761581,[''],0,ospan,feedback,VBsRFYf74TO39A7if1mQ8s7hYnN2,html-button-response,120,911005,0.0-46.0-4.0-0.0-3.0,,,,,,,,,,,,100.0,0.0,,5f1caff8d9003412a7748b0e,13:25:02,03/04/2024
,"<p style=""font-size:75px;"">...</p>",,ospan,iti,VBsRFYf74TO39A7if1mQ8s7hYnN2,html-keyboard-response,121,912019,0.0-46.0-4.0-1.0-0.0,,,,,,,,,,,,,,,5f1caff8d9003412a7748b0e,13:25:02,03/04/2024
2435.0,,,ospan,symmetry,VBsRFYf74TO39A7if1mQ8s7hYnN2,symmetry-judgement-task,122,915512,0.0-46.0-4.0-1.0-1.0-0.0,,,,,,,,,,1.0,1.0,,,,5f1caff8d9003412a7748b0e,13:25:02,03/04/2024
,"<div style=""font-size: 10rem; color: #0000FF"">C</div>",,ospan,letter,VBsRFYf74TO39A7if1mQ8s7hYnN2,html-keyboard-response,123,916515,0.0-46.0-4.0-1.0-1.0-1.0,,,,,,,,,,,,,,,5f1caff8d9003412a7748b0e,13:25:02,03/04/2024
2330.0,,,ospan,symmetry,VBsRFYf74TO39A7if1mQ8s7hYnN2,symmetry-judgement-task,124,920926,0.0-46.0-4.0-1.0-1.0-2.0,,,,,,,,,,1.0,1.0,,,,5f1caff8d9003412a7748b0e,13:25:02,03/04/2024
,"<div style=""font-size: 10rem; color: #0000FF"">S</div>",,ospan,letter,VBsRFYf74TO39A7if1mQ8s7hYnN2,html-keyboard-response,125,921928,0.0-46.0-4.0-1.0-1.0-3.0,,,,,,,,,,,,,,,5f1caff8d9003412a7748b0e,13:25:02,03/04/2024
1973.0,,,ospan,symmetry,VBsRFYf74TO39A7if1mQ8s7hYnN2,symmetry-judgement-task,126,925914,0.0-46.0-4.0-1.0-1.0-4.0,,,,,,,,,,1.0,1.0,,,,5f1caff8d9003412a7748b0e,13:25:02,03/04/2024
,"<div style=""font-size: 10rem; color: #0000FF"">K</div>",,ospan,letter,VBsRFYf74TO39A7if1mQ8s7hYnN2,html-keyboard-response,127,926915,0.0-46.0-4.0-1.0-1.0-5.0,,,,,,,,,,,,,,,5f1caff8d9003412a7748b0e,13:25:02,03/04/2024
2763.0,,,ospan,symmetry,VBsRFYf74TO39A7if1mQ8s7hYnN2,symmetry-judgement-task,128,931717,0.0-46.0-4.0-1.0-1.0-6.0,,,,,,,,,,1.0,1.0,,,,5f1caff8d9003412a7748b0e,13:25:02,03/04/2024
,"<div style=""font-size: 10rem; color: #0000FF"">R</div>",,ospan,letter,VBsRFYf74TO39A7if1mQ8s7hYnN2,html-keyboard-response,129,932720,0.0-46.0-4.0-1.0-1.0-7.0,,,,,,,,,,,,,,,5f1caff8d9003412a7748b0e,13:25:02,03/04/2024
2890.0,,,ospan,symmetry,VBsRFYf74TO39A7if1mQ8s7hYnN2,symmetry-judgement-task,130,937629,0.0-46.0-4.0-1.0-1.0-8.0,,,,,,,,,,1.0,1.0,,,,5f1caff8d9003412a7748b0e,13:25:02,03/04/2024
,"<div style=""font-size: 10rem; color: #0000FF"">G</div>",,ospan,letter,VBsRFYf74TO39A7if1mQ8s7hYnN2,html-keyboard-response,131,938644,0.0-46.0-4.0-1.0-1.0-9.0,,,,,,,,,,,,,,,5f1caff8d9003412a7748b0e,13:25:02,03/04/2024
6254.600000023842,"<div class = numbox><p style=""font-size: 2.4rem"">Please recall the letters you saw to the best of your ability. If you do not remember a particular letter, use the SKIP button.<br><b>(When you are ready to lock in your answer, press ENTER)</b></p><button id = button_1 class = ""square num-button"" onclick = ""recordClick(this)""><div class = content><div class = numbers>C</div></div></button><button id = button_2 class = ""square num-button"" onclick = ""recordClick(this)""><div class = content><div class = numbers>G</div></div></button><button id = button_3 class = ""square num-button"" onclick = ""recordClick(this)""><div class = content><div class = numbers>H</div></div></button><button id = button_4 class = ""square num-button"" onclick = ""recordClick(this)""><div class = content><div class = numbers>J</div></div></button><button id = button_5 class = ""square num-button"" onclick = ""recordClick(this)""><div class = content><div class = numbers>K</div></div></button><button id = button_6 class = ""square num-button"" onclick = ""recordClick(this)""><div class = content><div class = numbers>L</div></div></button><button id = button_7 class = ""square num-button"" onclick = ""recordClick(this)""><div class = content><div class = numbers>N</div></div></button><button id = button_8 class = ""square num-button"" onclick = ""recordClick(this)""><div class = content><div class = numbers>P</div></div></button><button id = button_9 class = ""square num-button"" onclick = ""recordClick(this)""><div class = content><div class = numbers>Q</div></div></button><button id = button_10 class = ""square num-button"" onclick = ""recordClick(this)""><div class = content><div class = numbers>R</div></div></button><button id = button_11 class = ""square num-button"" onclick = ""recordClick(this)""><div class = content><div class = numbers>S</div></div></button><button id = button_12 class = ""square num-button"" onclick = ""recordClick(this)""><div class = content><div class = numbers>Y</div></div></button><button class = clear_button id = ""ClearButton"" onclick = ""clearResponse()"">BACKSPACE</button><button class = blank_button id = ""BlankButton"" onclick = ""blankResponse()"">SKIP</button><p style=""font-size: 2.4rem""><u><b>Current Answer:</b></u></p><br><br><div id=echoed_txt style=""font-size: 5rem; color:blue;""><b></b></div></div>",enter,ospan,retrieval,VBsRFYf74TO39A7if1mQ8s7hYnN2,html-keyboard-response,132,945663,0.0-46.0-4.0-1.0-2.0,12,12,12,5.0,"[""C"",""S"",""K"",""R"",""G""]","[""C"",""S"",""K"",""R"",""G""]",1.0,5.0,,,,,,,5f1caff8d9003412a7748b0e,13:25:02,03/04/2024
1201.6000000238419,[''],0,ospan,feedback,VBsRFYf74TO39A7if1mQ8s7hYnN2,html-button-response,133,947374,0.0-46.0-4.0-1.0-3.0,,,,,,,,,,,,100.0,0.0,,5f1caff8d9003412a7748b0e,13:25:02,03/04/2024
,"<p style=""font-size:75px;"">...</p>",,ospan,iti,VBsRFYf74TO39A7if1mQ8s7hYnN2,html-keyboard-response,134,948376,0.0-46.0-4.0-2.0-0.0,,,,,,,,,,,,,,,5f1caff8d9003412a7748b0e,13:25:02,03/04/2024
2165.0,,,ospan,symmetry,VBsRFYf74TO39A7if1mQ8s7hYnN2,symmetry-judgement-task,135,951597,0.0-46.0-4.0-2.0-1.0-0.0,,,,,,,,,,1.0,1.0,,,,5f1caff8d9003412a7748b0e,13:25:02,03/04/2024
,"<div style=""font-size: 10rem; color: #0000FF"">L</div>",,ospan,letter,VBsRFYf74TO39A7if1mQ8s7hYnN2,html-keyboard-response,136,952599,0.0-46.0-4.0-2.0-1.0-1.0,,,,,,,,,,,,,,,5f1caff8d9003412a7748b0e,13:25:02,03/04/2024
1222.0,,,ospan,symmetry,VBsRFYf74TO39A7if1mQ8s7hYnN2,symmetry-judgement-task,137,955822,0.0-46.0-4.0-2.0-1.0-2.0,,,,,,,,,,1.0,1.0,,,,5f1caff8d9003412a7748b0e,13:25:02,03/04/2024
,"<div style=""font-size: 10rem; color: #0000FF"">C</div>",,ospan,letter,VBsRFYf74TO39A7if1mQ8s7hYnN2,html-keyboard-response,138,956824,0.0-46.0-4.0-2.0-1.0-3.0,,,,,,,,,,,,,,,5f1caff8d9003412a7748b0e,13:25:02,03/04/2024
1837.0,,,ospan,symmetry,VBsRFYf74TO39A7if1mQ8s7hYnN2,symmetry-judgement-task,139,960684,0.0-46.0-4.0-2.0-1.0-4.0,,,,,,,,,,1.0,1.0,,,,5f1caff8d9003412a7748b0e,13:25:02,03/04/2024
,"<div style=""font-size: 10rem; color: #0000FF"">Q</div>",,ospan,letter,VBsRFYf74TO39A7if1mQ8s7hYnN2,html-keyboard-response,140,961686,0.0-46.0-4.0-2.0-1.0-5.0,,,,,,,,,,,,,,,5f1caff8d9003412a7748b0e,13:25:02,03/04/2024
3489.900000035763,"<div class = numbox><p style=""font-size: 2.4rem"">Please recall the letters you saw to the best of your ability. If you do not remember a particular letter, use the SKIP button.<br><b>(When you are ready to lock in your answer, press ENTER)</b></p><button id = button_1 class = ""square num-button"" onclick = ""recordClick(this)""><div class = content><div class = numbers>C</div></div></button><button id = button_2 class = ""square num-button"" onclick = ""recordClick(this)""><div class = content><div class = numbers>G</div></div></button><button id = button_3 class = ""square num-button"" onclick = ""recordClick(this)""><div class = content><div class = numbers>H</div></div></button><button id = button_4 class = ""square num-button"" onclick = ""recordClick(this)""><div class = content><div class = numbers>J</div></div></button><button id = button_5 class = ""square num-button"" onclick = ""recordClick(this)""><div class = content><div class = numbers>K</div></div></button><button id = button_6 class = ""square num-button"" onclick = ""recordClick(this)""><div class = content><div class = numbers>L</div></div></button><button id = button_7 class = ""square num-button"" onclick = ""recordClick(this)""><div class = content><div class = numbers>N</div></div></button><button id = button_8 class = ""square num-button"" onclick = ""recordClick(this)""><div class = content><div class = numbers>P</div></div></button><button id = button_9 class = ""square num-button"" onclick = ""recordClick(this)""><div class = content><div class = numbers>Q</div></div></button><button id = button_10 class = ""square num-button"" onclick = ""recordClick(this)""><div class = content><div class = numbers>R</div></div></button><button id = button_11 class = ""square num-button"" onclick = ""recordClick(this)""><div class = content><div class = numbers>S</div></div></button><button id = button_12 class = ""square num-button"" onclick = ""recordClick(this)""><div class = content><div class = numbers>Y</div></div></button><button class = clear_button id = ""ClearButton"" onclick = ""clearResponse()"">BACKSPACE</button><button class = blank_button id = ""BlankButton"" onclick = ""blankResponse()"">SKIP</button><p style=""font-size: 2.4rem""><u><b>Current Answer:</b></u></p><br><br><div id=echoed_txt style=""font-size: 5rem; color:blue;""><b></b></div></div>",enter,ospan,retrieval,VBsRFYf74TO39A7if1mQ8s7hYnN2,html-keyboard-response,141,965931,0.0-46.0-4.0-2.0-2.0,15,15,15,3.0,"[""L"",""C"",""Q""]","[""L"",""C"",""Q""]",1.0,3.0,,,,,,,5f1caff8d9003412a7748b0e,13:25:02,03/04/2024
822.1000000238419,[''],0,ospan,feedback,VBsRFYf74TO39A7if1mQ8s7hYnN2,html-button-response,142,967269,0.0-46.0-4.0-2.0-3.0,,,,,,,,,,,,100.0,0.0,,5f1caff8d9003412a7748b0e,13:25:02,03/04/2024
,"<p style=""font-size:75px;"">...</p>",,ospan,iti,VBsRFYf74TO39A7if1mQ8s7hYnN2,html-keyboard-response,143,968282,0.0-46.0-5.0-0.0-0.0,,,,,,,,,,,,,,,5f1caff8d9003412a7748b0e,13:25:02,03/04/2024
2695.0,,,ospan,symmetry,VBsRFYf74TO39A7if1mQ8s7hYnN2,symmetry-judgement-task,144,972278,0.0-46.0-5.0-0.0-1.0-0.0,,,,,,,,,,1.0,1.0,,,,5f1caff8d9003412a7748b0e,13:25:02,03/04/2024
,"<div style=""font-size: 10rem; color: #0000FF"">L</div>",,ospan,letter,VBsRFYf74TO39A7if1mQ8s7hYnN2,html-keyboard-response,145,973281,0.0-46.0-5.0-0.0-1.0-1.0,,,,,,,,,,,,,,,5f1caff8d9003412a7748b0e,13:25:02,03/04/2024
2919.0,,,ospan,symmetry,VBsRFYf74TO39A7if1mQ8s7hYnN2,symmetry-judgement-task,146,978239,0.0-46.0-5.0-0.0-1.0-2.0,,,,,,,,,,1.0,1.0,,,,5f1caff8d9003412a7748b0e,13:25:02,03/04/2024
,"<div style=""font-size: 10rem; color: #0000FF"">Q</div>",,ospan,letter,VBsRFYf74TO39A7if1mQ8s7hYnN2,html-keyboard-response,147,979242,0.0-46.0-5.0-0.0-1.0-3.0,,,,,,,,,,,,,,,5f1caff8d9003412a7748b0e,13:25:02,03/04/2024
2809.0,,,ospan,symmetry,VBsRFYf74TO39A7if1mQ8s7hYnN2,symmetry-judgement-task,148,984053,0.0-46.0-5.0-0.0-1.0-4.0,,,,,,,,,,1.0,1.0,,,,5f1caff8d9003412a7748b0e,13:25:02,03/04/2024
,"<div style=""font-size: 10rem; color: #0000FF"">S</div>",,ospan,letter,VBsRFYf74TO39A7if1mQ8s7hYnN2,html-keyboard-response,149,985054,0.0-46.0-5.0-0.0-1.0-5.0,,,,,,,,,,,,,,,5f1caff8d9003412a7748b0e,13:25:02,03/04/2024
1433.0,,,ospan,symmetry,VBsRFYf74TO39A7if1mQ8s7hYnN2,symmetry-judgement-task,150,988501,0.0-46.0-5.0-0.0-1.0-6.0,,,,,,,,,,1.0,1.0,,,,5f1caff8d9003412a7748b0e,13:25:02,03/04/2024
,"<div style=""font-size: 10rem; color: #0000FF"">K</div>",,ospan,letter,VBsRFYf74TO39A7if1mQ8s7hYnN2,html-keyboard-response,151,989503,0.0-46.0-5.0-0.0-1.0-7.0,,,,,,,,,,,,,,,5f1caff8d9003412a7748b0e,13:25:02,03/04/2024
1996.0,,,ospan,symmetry,VBsRFYf74TO39A7if1mQ8s7hYnN2,symmetry-judgement-task,152,993528,0.0-46.0-5.0-0.0-1.0-8.0,,,,,,,,,,1.0,1.0,,,,5f1caff8d9003412a7748b0e,13:25:02,03/04/2024
,"<div style=""font-size: 10rem; color: #0000FF"">Y</div>",,ospan,letter,VBsRFYf74TO39A7if1mQ8s7hYnN2,html-keyboard-response,153,994538,0.0-46.0-5.0-0.0-1.0-9.0,,,,,,,,,,,,,,,5f1caff8d9003412a7748b0e,13:25:02,03/04/2024
2687.0,,,ospan,symmetry,VBsRFYf74TO39A7if1mQ8s7hYnN2,symmetry-judgement-task,154,999285,0.0-46.0-5.0-0.0-1.0-10.0,,,,,,,,,,1.0,1.0,,,,5f1caff8d9003412a7748b0e,13:25:02,03/04/2024
,"<div style=""font-size: 10rem; color: #0000FF"">P</div>",,ospan,letter,VBsRFYf74TO39A7if1mQ8s7hYnN2,html-keyboard-response,155,1000291,0.0-46.0-5.0-0.0-1.0-11.0,,,,,,,,,,,,,,,5f1caff8d9003412a7748b0e,13:25:02,03/04/2024
5088.299999952316,"<div class = numbox><p style=""font-size: 2.4rem"">Please recall the letters you saw to the best of your ability. If you do not remember a particular letter, use the SKIP button.<br><b>(When you are ready to lock in your answer, press ENTER)</b></p><button id = button_1 class = ""square num-button"" onclick = ""recordClick(this)""><div class = content><div class = numbers>C</div></div></button><button id = button_2 class = ""square num-button"" onclick = ""recordClick(this)""><div class = content><div class = numbers>G</div></div></button><button id = button_3 class = ""square num-button"" onclick = ""recordClick(this)""><div class = content><div class = numbers>H</div></div></button><button id = button_4 class = ""square num-button"" onclick = ""recordClick(this)""><div class = content><div class = numbers>J</div></div></button><button id = button_5 class = ""square num-button"" onclick = ""recordClick(this)""><div class = content><div class = numbers>K</div></div></button><button id = button_6 class = ""square num-button"" onclick = ""recordClick(this)""><div class = content><div class = numbers>L</div></div></button><button id = button_7 class = ""square num-button"" onclick = ""recordClick(this)""><div class = content><div class = numbers>N</div></div></button><button id = button_8 class = ""square num-button"" onclick = ""recordClick(this)""><div class = content><div class = numbers>P</div></div></button><button id = button_9 class = ""square num-button"" onclick = ""recordClick(this)""><div class = content><div class = numbers>Q</div></div></button><button id = button_10 class = ""square num-button"" onclick = ""recordClick(this)""><div class = content><div class = numbers>R</div></div></button><button id = button_11 class = ""square num-button"" onclick = ""recordClick(this)""><div class = content><div class = numbers>S</div></div></button><button id = button_12 class = ""square num-button"" onclick = ""recordClick(this)""><div class = content><div class = numbers>Y</div></div></button><button class = clear_button id = ""ClearButton"" onclick = ""clearResponse()"">BACKSPACE</button><button class = blank_button id = ""BlankButton"" onclick = ""blankResponse()"">SKIP</button><p style=""font-size: 2.4rem""><u><b>Current Answer:</b></u></p><br><br><div id=echoed_txt style=""font-size: 5rem; color:blue;""><b></b></div></div>",enter,ospan,retrieval,VBsRFYf74TO39A7if1mQ8s7hYnN2,html-keyboard-response,156,1006146,0.0-46.0-5.0-0.0-2.0,21,21,21,6.0,"[""L"",""Q"",""S"",""K"",""Y"",""P""]","[""L"",""Q"",""S"",""K"",""Y"",""P""]",1.0,6.0,,,,,,,5f1caff8d9003412a7748b0e,13:25:02,03/04/2024
838.0999999642372,[''],0,ospan,feedback,VBsRFYf74TO39A7if1mQ8s7hYnN2,html-button-response,157,1007493,0.0-46.0-5.0-0.0-3.0,,,,,,,,,,,,100.0,0.0,,5f1caff8d9003412a7748b0e,13:25:02,03/04/2024
,"<p style=""font-size:75px;"">...</p>",,ospan,iti,VBsRFYf74TO39A7if1mQ8s7hYnN2,html-keyboard-response,158,1008506,0.0-46.0-5.0-1.0-0.0,,,,,,,,,,,,,,,5f1caff8d9003412a7748b0e,13:25:02,03/04/2024
1991.0,,,ospan,symmetry,VBsRFYf74TO39A7if1mQ8s7hYnN2,symmetry-judgement-task,159,1011777,0.0-46.0-5.0-1.0-1.0-0.0,,,,,,,,,,1.0,1.0,,,,5f1caff8d9003412a7748b0e,13:25:02,03/04/2024
,"<div style=""font-size: 10rem; color: #0000FF"">Q</div>",,ospan,letter,VBsRFYf74TO39A7if1mQ8s7hYnN2,html-keyboard-response,160,1012783,0.0-46.0-5.0-1.0-1.0-1.0,,,,,,,,,,,,,,,5f1caff8d9003412a7748b0e,13:25:02,03/04/2024
1913.0,,,ospan,symmetry,VBsRFYf74TO39A7if1mQ8s7hYnN2,symmetry-judgement-task,161,1016706,0.0-46.0-5.0-1.0-1.0-2.0,,,,,,,,,,1.0,1.0,,,,5f1caff8d9003412a7748b0e,13:25:02,03/04/2024
,"<div style=""font-size: 10rem; color: #0000FF"">N</div>",,ospan,letter,VBsRFYf74TO39A7if1mQ8s7hYnN2,html-keyboard-response,162,1017709,0.0-46.0-5.0-1.0-1.0-3.0,,,,,,,,,,,,,,,5f1caff8d9003412a7748b0e,13:25:02,03/04/2024
3211.0,,,ospan,symmetry,VBsRFYf74TO39A7if1mQ8s7hYnN2,symmetry-judgement-task,163,1022976,0.0-46.0-5.0-1.0-1.0-4.0,,,,,,,,,,1.0,1.0,,,,5f1caff8d9003412a7748b0e,13:25:02,03/04/2024
,"<div style=""font-size: 10rem; color: #0000FF"">L</div>",,ospan,letter,VBsRFYf74TO39A7if1mQ8s7hYnN2,html-keyboard-response,164,1023991,0.0-46.0-5.0-1.0-1.0-5.0,,,,,,,,,,,,,,,5f1caff8d9003412a7748b0e,13:25:02,03/04/2024
2846.0,,,ospan,symmetry,VBsRFYf74TO39A7if1mQ8s7hYnN2,symmetry-judgement-task,165,1028850,0.0-46.0-5.0-1.0-1.0-6.0,,,,,,,,,,1.0,1.0,,,,5f1caff8d9003412a7748b0e,13:25:02,03/04/2024
,"<div style=""font-size: 10rem; color: #0000FF"">G</div>",,ospan,letter,VBsRFYf74TO39A7if1mQ8s7hYnN2,html-keyboard-response,166,1029852,0.0-46.0-5.0-1.0-1.0-7.0,,,,,,,,,,,,,,,5f1caff8d9003412a7748b0e,13:25:02,03/04/2024
2446.0,,,ospan,symmetry,VBsRFYf74TO39A7if1mQ8s7hYnN2,symmetry-judgement-task,167,1034376,0.0-46.0-5.0-1.0-1.0-8.0,,,,,,,,,,1.0,1.0,,,,5f1caff8d9003412a7748b0e,13:25:02,03/04/2024
,"<div style=""font-size: 10rem; color: #0000FF"">P</div>",,ospan,letter,VBsRFYf74TO39A7if1mQ8s7hYnN2,html-keyboard-response,168,1035400,0.0-46.0-5.0-1.0-1.0-9.0,,,,,,,,,,,,,,,5f1caff8d9003412a7748b0e,13:25:02,03/04/2024
1683.0,,,ospan,symmetry,VBsRFYf74TO39A7if1mQ8s7hYnN2,symmetry-judgement-task,169,1039123,0.0-46.0-5.0-1.0-1.0-10.0,,,,,,,,,,1.0,1.0,,,,5f1caff8d9003412a7748b0e,13:25:02,03/04/2024
,"<div style=""font-size: 10rem; color: #0000FF"">J</div>",,ospan,letter,VBsRFYf74TO39A7if1mQ8s7hYnN2,html-keyboard-response,170,1040125,0.0-46.0-5.0-1.0-1.0-11.0,,,,,,,,,,,,,,,5f1caff8d9003412a7748b0e,13:25:02,03/04/2024
1736.0,,,ospan,symmetry,VBsRFYf74TO39A7if1mQ8s7hYnN2,symmetry-judgement-task,171,1043916,0.0-46.0-5.0-1.0-1.0-12.0,,,,,,,,,,1.0,1.0,,,,5f1caff8d9003412a7748b0e,13:25:02,03/04/2024
,"<div style=""font-size: 10rem; color: #0000FF"">K</div>",,ospan,letter,VBsRFYf74TO39A7if1mQ8s7hYnN2,html-keyboard-response,172,1044918,0.0-46.0-5.0-1.0-1.0-13.0,,,,,,,,,,,,,,,5f1caff8d9003412a7748b0e,13:25:02,03/04/2024
11939.400000035763,"<div class = numbox><p style=""font-size: 2.4rem"">Please recall the letters you saw to the best of your ability. If you do not remember a particular letter, use the SKIP button.<br><b>(When you are ready to lock in your answer, press ENTER)</b></p><button id = button_1 class = ""square num-button"" onclick = ""recordClick(this)""><div class = content><div class = numbers>C</div></div></button><button id = button_2 class = ""square num-button"" onclick = ""recordClick(this)""><div class = content><div class = numbers>G</div></div></button><button id = button_3 class = ""square num-button"" onclick = ""recordClick(this)""><div class = content><div class = numbers>H</div></div></button><button id = button_4 class = ""square num-button"" onclick = ""recordClick(this)""><div class = content><div class = numbers>J</div></div></button><button id = button_5 class = ""square num-button"" onclick = ""recordClick(this)""><div class = content><div class = numbers>K</div></div></button><button id = button_6 class = ""square num-button"" onclick = ""recordClick(this)""><div class = content><div class = numbers>L</div></div></button><button id = button_7 class = ""square num-button"" onclick = ""recordClick(this)""><div class = content><div class = numbers>N</div></div></button><button id = button_8 class = ""square num-button"" onclick = ""recordClick(this)""><div class = content><div class = numbers>P</div></div></button><button id = button_9 class = ""square num-button"" onclick = ""recordClick(this)""><div class = content><div class = numbers>Q</div></div></button><button id = button_10 class = ""square num-button"" onclick = ""recordClick(this)""><div class = content><div class = numbers>R</div></div></button><button id = button_11 class = ""square num-button"" onclick = ""recordClick(this)""><div class = content><div class = numbers>S</div></div></button><button id = button_12 class = ""square num-button"" onclick = ""recordClick(this)""><div class = content><div class = numbers>Y</div></div></button><button class = clear_button id = ""ClearButton"" onclick = ""clearResponse()"">BACKSPACE</button><button class = blank_button id = ""BlankButton"" onclick = ""blankResponse()"">SKIP</button><p style=""font-size: 2.4rem""><u><b>Current Answer:</b></u></p><br><br><div id=echoed_txt style=""font-size: 5rem; color:blue;""><b></b></div></div>",enter,ospan,retrieval,VBsRFYf74TO39A7if1mQ8s7hYnN2,html-keyboard-response,173,1057622,0.0-46.0-5.0-1.0-2.0,28,25,21,7.0,"[""Q"",""N"",""L"",""J"",""P"",""K""]","[""Q"",""N"",""L"",""G"",""P"",""J"",""K""]",0.0,4.0,,,,,,,5f1caff8d9003412a7748b0e,13:25:02,03/04/2024
6980.5,[''],0,ospan,feedback,VBsRFYf74TO39A7if1mQ8s7hYnN2,html-button-response,174,1065125,0.0-46.0-5.0-1.0-3.0,,,,,,,,,,,,100.0,0.0,,5f1caff8d9003412a7748b0e,13:25:02,03/04/2024
,"<p style=""font-size:75px;"">...</p>",,ospan,iti,VBsRFYf74TO39A7if1mQ8s7hYnN2,html-keyboard-response,175,1066139,0.0-46.0-6.0-0.0-0.0,,,,,,,,,,,,,,,5f1caff8d9003412a7748b0e,13:25:02,03/04/2024
2465.0,,,ospan,symmetry,VBsRFYf74TO39A7if1mQ8s7hYnN2,symmetry-judgement-task,176,1069869,0.0-46.0-6.0-0.0-1.0-0.0,,,,,,,,,,1.0,1.0,,,,5f1caff8d9003412a7748b0e,13:25:02,03/04/2024
,"<div style=""font-size: 10rem; color: #0000FF"">C</div>",,ospan,letter,VBsRFYf74TO39A7if1mQ8s7hYnN2,html-keyboard-response,177,1070872,0.0-46.0-6.0-0.0-1.0-1.0,,,,,,,,,,,,,,,5f1caff8d9003412a7748b0e,13:25:02,03/04/2024
3122.0,,,ospan,symmetry,VBsRFYf74TO39A7if1mQ8s7hYnN2,symmetry-judgement-task,178,1076061,0.0-46.0-6.0-0.0-1.0-2.0,,,,,,,,,,1.0,1.0,,,,5f1caff8d9003412a7748b0e,13:25:02,03/04/2024
,"<div style=""font-size: 10rem; color: #0000FF"">L</div>",,ospan,letter,VBsRFYf74TO39A7if1mQ8s7hYnN2,html-keyboard-response,179,1077064,0.0-46.0-6.0-0.0-1.0-3.0,,,,,,,,,,,,,,,5f1caff8d9003412a7748b0e,13:25:02,03/04/2024
1675.0,,,ospan,symmetry,VBsRFYf74TO39A7if1mQ8s7hYnN2,symmetry-judgement-task,180,1080781,0.0-46.0-6.0-0.0-1.0-4.0,,,,,,,,,,1.0,1.0,,,,5f1caff8d9003412a7748b0e,13:25:02,03/04/2024
,"<div style=""font-size: 10rem; color: #0000FF"">Q</div>",,ospan,letter,VBsRFYf74TO39A7if1mQ8s7hYnN2,html-keyboard-response,181,1081784,0.0-46.0-6.0-0.0-1.0-5.0,,,,,,,,,,,,,,,5f1caff8d9003412a7748b0e,13:25:02,03/04/2024
1765.0,,,ospan,symmetry,VBsRFYf74TO39A7if1mQ8s7hYnN2,symmetry-judgement-task,182,1085591,0.0-46.0-6.0-0.0-1.0-6.0,,,,,,,,,,1.0,1.0,,,,5f1caff8d9003412a7748b0e,13:25:02,03/04/2024
,"<div style=""font-size: 10rem; color: #0000FF"">H</div>",,ospan,letter,VBsRFYf74TO39A7if1mQ8s7hYnN2,html-keyboard-response,183,1086593,0.0-46.0-6.0-0.0-1.0-7.0,,,,,,,,,,,,,,,5f1caff8d9003412a7748b0e,13:25:02,03/04/2024
2652.0,,,ospan,symmetry,VBsRFYf74TO39A7if1mQ8s7hYnN2,symmetry-judgement-task,184,1091256,0.0-46.0-6.0-0.0-1.0-8.0,,,,,,,,,,1.0,1.0,,,,5f1caff8d9003412a7748b0e,13:25:02,03/04/2024
,"<div style=""font-size: 10rem; color: #0000FF"">P</div>",,ospan,letter,VBsRFYf74TO39A7if1mQ8s7hYnN2,html-keyboard-response,185,1092257,0.0-46.0-6.0-0.0-1.0-9.0,,,,,,,,,,,,,,,5f1caff8d9003412a7748b0e,13:25:02,03/04/2024
8804.900000035763,"<div class = numbox><p style=""font-size: 2.4rem"">Please recall the letters you saw to the best of your ability. If you do not remember a particular letter, use the SKIP button.<br><b>(When you are ready to lock in your answer, press ENTER)</b></p><button id = button_1 class = ""square num-button"" onclick = ""recordClick(this)""><div class = content><div class = numbers>C</div></div></button><button id = button_2 class = ""square num-button"" onclick = ""recordClick(this)""><div class = content><div class = numbers>G</div></div></button><button id = button_3 class = ""square num-button"" onclick = ""recordClick(this)""><div class = content><div class = numbers>H</div></div></button><button id = button_4 class = ""square num-button"" onclick = ""recordClick(this)""><div class = content><div class = numbers>J</div></div></button><button id = button_5 class = ""square num-button"" onclick = ""recordClick(this)""><div class = content><div class = numbers>K</div></div></button><button id = button_6 class = ""square num-button"" onclick = ""recordClick(this)""><div class = content><div class = numbers>L</div></div></button><button id = button_7 class = ""square num-button"" onclick = ""recordClick(this)""><div class = content><div class = numbers>N</div></div></button><button id = button_8 class = ""square num-button"" onclick = ""recordClick(this)""><div class = content><div class = numbers>P</div></div></button><button id = button_9 class = ""square num-button"" onclick = ""recordClick(this)""><div class = content><div class = numbers>Q</div></div></button><button id = button_10 class = ""square num-button"" onclick = ""recordClick(this)""><div class = content><div class = numbers>R</div></div></button><button id = button_11 class = ""square num-button"" onclick = ""recordClick(this)""><div class = content><div class = numbers>S</div></div></button><button id = button_12 class = ""square num-button"" onclick = ""recordClick(this)""><div class = content><div class = numbers>Y</div></div></button><button class = clear_button id = ""ClearButton"" onclick = ""clearResponse()"">BACKSPACE</button><button class = blank_button id = ""BlankButton"" onclick = ""blankResponse()"">SKIP</button><p style=""font-size: 2.4rem""><u><b>Current Answer:</b></u></p><br><br><div id=echoed_txt style=""font-size: 5rem; color:blue;""><b></b></div></div>",enter,ospan,retrieval,VBsRFYf74TO39A7if1mQ8s7hYnN2,html-keyboard-response,186,1101818,0.0-46.0-6.0-0.0-2.0,33,28,21,5.0,"[""C"",""L"",""Q"",""P""]","[""C"",""L"",""Q"",""H"",""P""]",0.0,3.0,,,,,,,5f1caff8d9003412a7748b0e,13:25:02,03/04/2024
1822.800000011921,[''],0,ospan,feedback,VBsRFYf74TO39A7if1mQ8s7hYnN2,html-button-response,187,1104157,0.0-46.0-6.0-0.0-3.0,,,,,,,,,,,,100.0,0.0,,5f1caff8d9003412a7748b0e,13:25:02,03/04/2024
,"<p style=""font-size:75px;"">...</p>",,ospan,iti,VBsRFYf74TO39A7if1mQ8s7hYnN2,html-keyboard-response,188,1105171,0.0-46.0-6.0-1.0-0.0,,,,,,,,,,,,,,,5f1caff8d9003412a7748b0e,13:25:02,03/04/2024
2881.0,,,ospan,symmetry,VBsRFYf74TO39A7if1mQ8s7hYnN2,symmetry-judgement-task,189,1109294,0.0-46.0-6.0-1.0-1.0-0.0,,,,,,,,,,1.0,1.0,,,,5f1caff8d9003412a7748b0e,13:25:02,03/04/2024
,"<div style=""font-size: 10rem; color: #0000FF"">R</div>",,ospan,letter,VBsRFYf74TO39A7if1mQ8s7hYnN2,html-keyboard-response,190,1110296,0.0-46.0-6.0-1.0-1.0-1.0,,,,,,,,,,,,,,,5f1caff8d9003412a7748b0e,13:25:02,03/04/2024
1489.0,,,ospan,symmetry,VBsRFYf74TO39A7if1mQ8s7hYnN2,symmetry-judgement-task,191,1113780,0.0-46.0-6.0-1.0-1.0-2.0,,,,,,,,,,1.0,1.0,,,,5f1caff8d9003412a7748b0e,13:25:02,03/04/2024
,"<div style=""font-size: 10rem; color: #0000FF"">Y</div>",,ospan,letter,VBsRFYf74TO39A7if1mQ8s7hYnN2,html-keyboard-response,192,1114792,0.0-46.0-6.0-1.0-1.0-3.0,,,,,,,,,,,,,,,5f1caff8d9003412a7748b0e,13:25:02,03/04/2024
1871.0,,,ospan,symmetry,VBsRFYf74TO39A7if1mQ8s7hYnN2,symmetry-judgement-task,193,1118640,0.0-46.0-6.0-1.0-1.0-4.0,,,,,,,,,,1.0,1.0,,,,5f1caff8d9003412a7748b0e,13:25:02,03/04/2024
,"<div style=""font-size: 10rem; color: #0000FF"">S</div>",,ospan,letter,VBsRFYf74TO39A7if1mQ8s7hYnN2,html-keyboard-response,194,1119654,0.0-46.0-6.0-1.0-1.0-5.0,,,,,,,,,,,,,,,5f1caff8d9003412a7748b0e,13:25:02,03/04/2024
2984.0,,,ospan,symmetry,VBsRFYf74TO39A7if1mQ8s7hYnN2,symmetry-judgement-task,195,1124663,0.0-46.0-6.0-1.0-1.0-6.0,,,,,,,,,,1.0,1.0,,,,5f1caff8d9003412a7748b0e,13:25:02,03/04/2024
,"<div style=""font-size: 10rem; color: #0000FF"">H</div>",,ospan,letter,VBsRFYf74TO39A7if1mQ8s7hYnN2,html-keyboard-response,196,1125669,0.0-46.0-6.0-1.0-1.0-7.0,,,,,,,,,,,,,,,5f1caff8d9003412a7748b0e,13:25:02,03/04/2024
2469.0,,,ospan,symmetry,VBsRFYf74TO39A7if1mQ8s7hYnN2,symmetry-judgement-task,197,1130174,0.0-46.0-6.0-1.0-1.0-8.0,,,,,,,,,,1.0,1.0,,,,5f1caff8d9003412a7748b0e,13:25:02,03/04/2024
,"<div style=""font-size: 10rem; color: #0000FF"">K</div>",,ospan,letter,VBsRFYf74TO39A7if1mQ8s7hYnN2,html-keyboard-response,198,1131176,0.0-46.0-6.0-1.0-1.0-9.0,,,,,,,,,,,,,,,5f1caff8d9003412a7748b0e,13:25:02,03/04/2024
2274.0,,,ospan,symmetry,VBsRFYf74TO39A7if1mQ8s7hYnN2,symmetry-judgement-task,199,1135484,0.0-46.0-6.0-1.0-1.0-10.0,,,,,,,,,,1.0,1.0,,,,5f1caff8d9003412a7748b0e,13:25:02,03/04/2024
,"<div style=""font-size: 10rem; color: #0000FF"">P</div>",,ospan,letter,VBsRFYf74TO39A7if1mQ8s7hYnN2,html-keyboard-response,200,1136485,0.0-46.0-6.0-1.0-1.0-11.0,,,,,,,,,,,,,,,5f1caff8d9003412a7748b0e,13:25:02,03/04/2024
2208.0,,,ospan,symmetry,VBsRFYf74TO39A7if1mQ8s7hYnN2,symmetry-judgement-task,201,1140770,0.0-46.0-6.0-1.0-1.0-12.0,,,,,,,,,,1.0,1.0,,,,5f1caff8d9003412a7748b0e,13:25:02,03/04/2024
,"<div style=""font-size: 10rem; color: #0000FF"">Q</div>",,ospan,letter,VBsRFYf74TO39A7if1mQ8s7hYnN2,html-keyboard-response,202,1141780,0.0-46.0-6.0-1.0-1.0-13.0,,,,,,,,,,,,,,,5f1caff8d9003412a7748b0e,13:25:02,03/04/2024
1719.0,,,ospan,symmetry,VBsRFYf74TO39A7if1mQ8s7hYnN2,symmetry-judgement-task,203,1145523,0.0-46.0-6.0-1.0-1.0-14.0,,,,,,,,,,1.0,1.0,,,,5f1caff8d9003412a7748b0e,13:25:02,03/04/2024
,"<div style=""font-size: 10rem; color: #0000FF"">N</div>",,ospan,letter,VBsRFYf74TO39A7if1mQ8s7hYnN2,html-keyboard-response,204,1146526,0.0-46.0-6.0-1.0-1.0-15.0,,,,,,,,,,,,,,,5f1caff8d9003412a7748b0e,13:25:02,03/04/2024
17640.799999952316,"<div class = numbox><p style=""font-size: 2.4rem"">Please recall the letters you saw to the best of your ability. If you do not remember a particular letter, use the SKIP button.<br><b>(When you are ready to lock in your answer, press ENTER)</b></p><button id = button_1 class = ""square num-button"" onclick = ""recordClick(this)""><div class = content><div class = numbers>C</div></div></button><button id = button_2 class = ""square num-button"" onclick = ""recordClick(this)""><div class = content><div class = numbers>G</div></div></button><button id = button_3 class = ""square num-button"" onclick = ""recordClick(this)""><div class = content><div class = numbers>H</div></div></button><button id = button_4 class = ""square num-button"" onclick = ""recordClick(this)""><div class = content><div class = numbers>J</div></div></button><button id = button_5 class = ""square num-button"" onclick = ""recordClick(this)""><div class = content><div class = numbers>K</div></div></button><button id = button_6 class = ""square num-button"" onclick = ""recordClick(this)""><div class = content><div class = numbers>L</div></div></button><button id = button_7 class = ""square num-button"" onclick = ""recordClick(this)""><div class = content><div class = numbers>N</div></div></button><button id = button_8 class = ""square num-button"" onclick = ""recordClick(this)""><div class = content><div class = numbers>P</div></div></button><button id = button_9 class = ""square num-button"" onclick = ""recordClick(this)""><div class = content><div class = numbers>Q</div></div></button><button id = button_10 class = ""square num-button"" onclick = ""recordClick(this)""><div class = content><div class = numbers>R</div></div></button><button id = button_11 class = ""square num-button"" onclick = ""recordClick(this)""><div class = content><div class = numbers>S</div></div></button><button id = button_12 class = ""square num-button"" onclick = ""recordClick(this)""><div class = content><div class = numbers>Y</div></div></button><button class = clear_button id = ""ClearButton"" onclick = ""clearResponse()"">BACKSPACE</button><button class = blank_button id = ""BlankButton"" onclick = ""blankResponse()"">SKIP</button><p style=""font-size: 2.4rem""><u><b>Current Answer:</b></u></p><br><br><div id=echoed_txt style=""font-size: 5rem; color:blue;""><b></b></div></div>",enter,ospan,retrieval,VBsRFYf74TO39A7if1mQ8s7hYnN2,html-keyboard-response,205,1164922,0.0-46.0-6.0-1.0-2.0,41,36,29,8.0,"[""R"",""Y"",""S"",""H"",""K"",""P"",""Q"",""N""]","[""R"",""Y"",""S"",""H"",""K"",""P"",""Q"",""N""]",1.0,8.0,,,,,,,5f1caff8d9003412a7748b0e,13:25:02,03/04/2024
767.6000000238419,[''],0,ospan,feedback,VBsRFYf74TO39A7if1mQ8s7hYnN2,html-button-response,206,1166197,0.0-46.0-6.0-1.0-3.0,,,,,,,,,,,,100.0,0.0,,5f1caff8d9003412a7748b0e,13:25:02,03/04/2024
28717.30000001192,,{'Q0': 'Quite hard the higher the number of letters to be remembered. I think 6 to 7 is the highest I could remember effectively. '},ospan,survey_ospan,VBsRFYf74TO39A7if1mQ8s7hYnN2,lmdlab-survey-text,207,1195670,0.0-46.0-7.0,,,,,,,,,,,,,,VBsRFYf74TO39A7if1mQ8s7hYnN2,5f1caff8d9003412a7748b0e,13:25:02,03/04/2024
1514.3999999761581,<p><p style='font-size: 3rem'>Great work!<br><br>This completes the symmetry and memory task.</p><br><br><br>,0,ospan,finish,VBsRFYf74TO39A7if1mQ8s7hYnN2,html-button-response,208,1197189,0.0-46.0-8.0,41,36,29,,,,,,,,,100.0,,,5f1caff8d9003412a7748b0e,13:25:02,03/04/2024
