rt,stimulus,response,exp_name,exp_stage,subjectID,trial_type,trial_index,time_elapsed,internal_node_id,ospan_shown,ospan_total,ospan_abs,length,resp_actual,resp_correct,full_correct,num_correct,feedback,accuracy,correct,math_acc,math_warning,databaseID,prolificID,start_time,date
2554.4000000059605,<div class = 'left_align' style='font-size: 3.25rem; line-height: 1.3;'><p class = 'center_align'><b>Welcome to the Symmetry and Memory Task</b><br><br><br><br></p>Press 'continue' to show the instructions.<br><br><br><br></div>,0,ospan,instruct,r8IbsS15H5hZX5BoUFDLrd3SwFk2,html-button-response,51,480068,0.0-43.0-0.0-0.0-0.0,,,,,,,,,,,,,,,567f59e0d18c640011e7ac0b,13:39:44,06/03/2024
9492.0,"<div class = 'left_align' style='font-size: 3.25rem; line-height: 1.3;'><p class = 'center_align'><b>Symmetry and Memory Task</b><br><br></p>In this task, you will try to memorize letters you see on the screen<br>while you also view black and white grid pictures.<br><br>In the next few minutes, you will have some practice to get you familiar<br>with how the task works.<br><br>It may be difficult sometimes, but please do not worry about making mistakes!<br><br>We will begin by practicing the letter part of the task.<br><br><br><br></div>",0,ospan,instruct,r8IbsS15H5hZX5BoUFDLrd3SwFk2,html-button-response,52,489823,0.0-43.0-0.0-0.0-1.0,,,,,,,,,,,,,,,567f59e0d18c640011e7ac0b,13:39:44,06/03/2024
7325.29999999702,"<div class = 'left_align' style='font-size: 3.25rem; line-height: 1.3;'>For this practice part, letters will appear on the screen one at a time.<br><br>Try to remember each letter in the order presented.<br><br>After some letters have been shown, you will see a response screen. Your<br>goal is to report the letters you saw <b>in order</b>. If you do not remember<br>a particular letter, you will have the option to leave it blank.<br><br><br><br></div>",0,ospan,instruct,r8IbsS15H5hZX5BoUFDLrd3SwFk2,html-button-response,53,497408,0.0-43.0-0.0-0.0-2.0,,,,,,,,,,,,,,,567f59e0d18c640011e7ac0b,13:39:44,06/03/2024
3487.60000000149,"<div class = 'left_align' style='font-size: 3.25rem; line-height: 1.3;'>Remember, it is very important to get the letters in the same<br>order as you see them.<br><br>When you are ready, you may begin the letter practice.</div><br><br><br><br>",0,ospan,instruct,r8IbsS15H5hZX5BoUFDLrd3SwFk2,html-button-response,54,501153,0.0-43.0-0.0-0.0-3.0,,,,,,,,,,,,,,,567f59e0d18c640011e7ac0b,13:39:44,06/03/2024
,"<p style=""font-size:75px;"">...</p>",,ospan,iti,r8IbsS15H5hZX5BoUFDLrd3SwFk2,html-keyboard-response,55,502429,0.0-43.0-0.0-1.0-0.0,,,,,,,,,,,,,,,567f59e0d18c640011e7ac0b,13:39:44,06/03/2024
,"<div style=""font-size: 10rem; color: #0000FF"">P</div>",,ospan,letter,r8IbsS15H5hZX5BoUFDLrd3SwFk2,html-keyboard-response,56,503446,0.0-43.0-0.0-1.0-1.0,,,,,,,,,,,,,,,567f59e0d18c640011e7ac0b,13:39:44,06/03/2024
,"<div style=""font-size: 10rem; color: #0000FF"">J</div>",,ospan,letter,r8IbsS15H5hZX5BoUFDLrd3SwFk2,html-keyboard-response,57,505212,0.0-43.0-0.0-1.0-2.0,,,,,,,,,,,,,,,567f59e0d18c640011e7ac0b,13:39:44,06/03/2024
10172.60000000149,"<div class = numbox><p style=""font-size: 2.4rem"">Please recall the letters you saw to the best of your ability. If you do not remember a particular letter, use the SKIP button.<br><b>(When you are ready to lock in your answer, press ENTER)</b></p><button id = button_1 class = ""square num-button"" onclick = ""recordClick(this)""><div class = content><div class = numbers>C</div></div></button><button id = button_2 class = ""square num-button"" onclick = ""recordClick(this)""><div class = content><div class = numbers>G</div></div></button><button id = button_3 class = ""square num-button"" onclick = ""recordClick(this)""><div class = content><div class = numbers>H</div></div></button><button id = button_4 class = ""square num-button"" onclick = ""recordClick(this)""><div class = content><div class = numbers>J</div></div></button><button id = button_5 class = ""square num-button"" onclick = ""recordClick(this)""><div class = content><div class = numbers>K</div></div></button><button id = button_6 class = ""square num-button"" onclick = ""recordClick(this)""><div class = content><div class = numbers>L</div></div></button><button id = button_7 class = ""square num-button"" onclick = ""recordClick(this)""><div class = content><div class = numbers>N</div></div></button><button id = button_8 class = ""square num-button"" onclick = ""recordClick(this)""><div class = content><div class = numbers>P</div></div></button><button id = button_9 class = ""square num-button"" onclick = ""recordClick(this)""><div class = content><div class = numbers>Q</div></div></button><button id = button_10 class = ""square num-button"" onclick = ""recordClick(this)""><div class = content><div class = numbers>R</div></div></button><button id = button_11 class = ""square num-button"" onclick = ""recordClick(this)""><div class = content><div class = numbers>S</div></div></button><button id = button_12 class = ""square num-button"" onclick = ""recordClick(this)""><div class = content><div class = numbers>Y</div></div></button><button class = clear_button id = ""ClearButton"" onclick = ""clearResponse()"">BACKSPACE</button><button class = blank_button id = ""BlankButton"" onclick = ""blankResponse()"">SKIP</button><p style=""font-size: 2.4rem""><u><b>Current Answer:</b></u></p><br><br><div id=echoed_txt style=""font-size: 5rem; color:blue;""><b></b></div></div>",enter,ospan,retrieval,r8IbsS15H5hZX5BoUFDLrd3SwFk2,html-keyboard-response,58,516138,0.0-43.0-0.0-1.0-3.0,NA,NA,NA,2.0,"[""P"",""J""]","[""P"",""J""]",1.0,2.0,"['<font color=""green"">P</font>', '<font color=""green"">J</font>']",,,,,,567f59e0d18c640011e7ac0b,13:39:44,06/03/2024
2735.5,"['<p style=""font-size:44px"">Letters:<br><br><br><font color=""green"">P</font> <font color=""green"">J</font></p><br><br>']",0,ospan,practice_feedback,r8IbsS15H5hZX5BoUFDLrd3SwFk2,html-button-response,59,519386,0.0-43.0-0.0-1.0-4.0,,,,,,,,,,,,,,,567f59e0d18c640011e7ac0b,13:39:44,06/03/2024
,"<p style=""font-size:75px;"">...</p>",,ospan,iti,r8IbsS15H5hZX5BoUFDLrd3SwFk2,html-keyboard-response,60,520391,0.0-43.0-0.0-2.0-0.0,,,,,,,,,,,,,,,567f59e0d18c640011e7ac0b,13:39:44,06/03/2024
,"<div style=""font-size: 10rem; color: #0000FF"">G</div>",,ospan,letter,r8IbsS15H5hZX5BoUFDLrd3SwFk2,html-keyboard-response,61,521396,0.0-43.0-0.0-2.0-1.0,,,,,,,,,,,,,,,567f59e0d18c640011e7ac0b,13:39:44,06/03/2024
,"<div style=""font-size: 10rem; color: #0000FF"">H</div>",,ospan,letter,r8IbsS15H5hZX5BoUFDLrd3SwFk2,html-keyboard-response,62,523162,0.0-43.0-0.0-2.0-2.0,,,,,,,,,,,,,,,567f59e0d18c640011e7ac0b,13:39:44,06/03/2024
,"<div style=""font-size: 10rem; color: #0000FF"">Q</div>",,ospan,letter,r8IbsS15H5hZX5BoUFDLrd3SwFk2,html-keyboard-response,63,524929,0.0-43.0-0.0-2.0-3.0,,,,,,,,,,,,,,,567f59e0d18c640011e7ac0b,13:39:44,06/03/2024
4017.3000000044703,"<div class = numbox><p style=""font-size: 2.4rem"">Please recall the letters you saw to the best of your ability. If you do not remember a particular letter, use the SKIP button.<br><b>(When you are ready to lock in your answer, press ENTER)</b></p><button id = button_1 class = ""square num-button"" onclick = ""recordClick(this)""><div class = content><div class = numbers>C</div></div></button><button id = button_2 class = ""square num-button"" onclick = ""recordClick(this)""><div class = content><div class = numbers>G</div></div></button><button id = button_3 class = ""square num-button"" onclick = ""recordClick(this)""><div class = content><div class = numbers>H</div></div></button><button id = button_4 class = ""square num-button"" onclick = ""recordClick(this)""><div class = content><div class = numbers>J</div></div></button><button id = button_5 class = ""square num-button"" onclick = ""recordClick(this)""><div class = content><div class = numbers>K</div></div></button><button id = button_6 class = ""square num-button"" onclick = ""recordClick(this)""><div class = content><div class = numbers>L</div></div></button><button id = button_7 class = ""square num-button"" onclick = ""recordClick(this)""><div class = content><div class = numbers>N</div></div></button><button id = button_8 class = ""square num-button"" onclick = ""recordClick(this)""><div class = content><div class = numbers>P</div></div></button><button id = button_9 class = ""square num-button"" onclick = ""recordClick(this)""><div class = content><div class = numbers>Q</div></div></button><button id = button_10 class = ""square num-button"" onclick = ""recordClick(this)""><div class = content><div class = numbers>R</div></div></button><button id = button_11 class = ""square num-button"" onclick = ""recordClick(this)""><div class = content><div class = numbers>S</div></div></button><button id = button_12 class = ""square num-button"" onclick = ""recordClick(this)""><div class = content><div class = numbers>Y</div></div></button><button class = clear_button id = ""ClearButton"" onclick = ""clearResponse()"">BACKSPACE</button><button class = blank_button id = ""BlankButton"" onclick = ""blankResponse()"">SKIP</button><p style=""font-size: 2.4rem""><u><b>Current Answer:</b></u></p><br><br><div id=echoed_txt style=""font-size: 5rem; color:blue;""><b></b></div></div>",enter,ospan,retrieval,r8IbsS15H5hZX5BoUFDLrd3SwFk2,html-keyboard-response,64,529713,0.0-43.0-0.0-2.0-4.0,NA,NA,NA,3.0,"[""G"",""H"",""Q""]","[""G"",""H"",""Q""]",1.0,3.0,"['<font color=""green"">G</font>', '<font color=""green"">H</font>', '<font color=""green"">Q</font>']",,,,,,567f59e0d18c640011e7ac0b,13:39:44,06/03/2024
1760.5,"['<p style=""font-size:44px"">Letters:<br><br><br><font color=""green"">G</font> <font color=""green"">H</font> <font color=""green"">Q</font></p><br><br>']",0,ospan,practice_feedback,r8IbsS15H5hZX5BoUFDLrd3SwFk2,html-button-response,65,531989,0.0-43.0-0.0-2.0-5.0,,,,,,,,,,,,,,,567f59e0d18c640011e7ac0b,13:39:44,06/03/2024
7383.60000000149,"<div class = 'left_align' style='font-size: 3.25rem; line-height: 1.3;'>Now you will practice doing the <b>symmetry judgment part</b> of the experiment.<br><br>A black and white grid picture will appear on the screen and you have to judge if it is <br>symmetrical or asymetrical.<br><br>A picture is 'mirror' symmetrical if its left half is identical to the right half when flipped.<br>Here are examples of a symmetrical and an asymetrical picture:<br><br><center><img src='Stimuli/img/symm_instructions_extra.png' style='height:420px; width:900'></img></center><br>To judge symmetry, imagine you were to fold each picture down the middle, like a book –<br>would the left half match the right half when folded onto each other?<br><br></div><br>",0,ospan,instruct,r8IbsS15H5hZX5BoUFDLrd3SwFk2,html-button-response,66,539376,0.0-43.0-1.0-0.0-0.0,,,,,,,,,,,,,,,567f59e0d18c640011e7ac0b,13:39:44,06/03/2024
2185.5999999940395,"<div class = 'left_align' style='font-size: 3.25rem; line-height: 1.3;'>When you have viewed the picture and determined whether it is symmetrical or not,<br>you can <b>click the Yes or No button</b> below to answer.<br><br>If you take longer than 15 seconds, it will continue automatically<br>and record the answer as an error.</div><br>",0,ospan,instruct,r8IbsS15H5hZX5BoUFDLrd3SwFk2,html-button-response,67,541816,0.0-43.0-1.0-0.0-1.0,,,,,,,,,,,,,,,567f59e0d18c640011e7ac0b,13:39:44,06/03/2024
1738.1000000014901,"<div class = 'left_align' style='font-size: 3.25rem; line-height: 1.3;'>It is <b>very</b> important that you make the symmetry judgment correctly.<br><br>It is also important that you try and judge the picture as quickly as you can.<br><br>When you are ready, click on the button below to try some practice problems.</div><br><br><br><br>",0,ospan,instruct,r8IbsS15H5hZX5BoUFDLrd3SwFk2,html-button-response,68,543812,0.0-43.0-1.0-0.0-2.0,,,,,,,,,,,,,,,567f59e0d18c640011e7ac0b,13:39:44,06/03/2024
4161.0,,,ospan,symmetry,r8IbsS15H5hZX5BoUFDLrd3SwFk2,symmetry-judgement-task,69,548860,0.0-43.0-1.0-1.0-0.0,,,,,,,,,,0.0,0.0,,,,567f59e0d18c640011e7ac0b,13:39:44,06/03/2024
,"<p style=""color:red; font-size: 35px"">Incorrect</p>",,ospan,feedback,r8IbsS15H5hZX5BoUFDLrd3SwFk2,html-keyboard-response,70,549627,0.0-43.0-1.0-1.0-1.0,,,,,,,,,,,,,,,567f59e0d18c640011e7ac0b,13:39:44,06/03/2024
2893.0,,,ospan,symmetry,r8IbsS15H5hZX5BoUFDLrd3SwFk2,symmetry-judgement-task,71,555593,0.0-43.0-1.0-1.0-2.0,,,,,,,,,,0.0,0.0,,,,567f59e0d18c640011e7ac0b,13:39:44,06/03/2024
,"<p style=""color:red; font-size: 35px"">Incorrect</p>",,ospan,feedback,r8IbsS15H5hZX5BoUFDLrd3SwFk2,html-keyboard-response,72,556356,0.0-43.0-1.0-1.0-3.0,,,,,,,,,,,,,,,567f59e0d18c640011e7ac0b,13:39:44,06/03/2024
2721.0,,,ospan,symmetry,r8IbsS15H5hZX5BoUFDLrd3SwFk2,symmetry-judgement-task,73,562210,0.0-43.0-1.0-1.0-4.0,,,,,,,,,,1.0,1.0,,,,567f59e0d18c640011e7ac0b,13:39:44,06/03/2024
,"<p style=""color:green; font-size: 35px"">Correct</p>",,ospan,feedback,r8IbsS15H5hZX5BoUFDLrd3SwFk2,html-keyboard-response,74,562962,0.0-43.0-1.0-1.0-5.0,,,,,,,,,,,,,,,567f59e0d18c640011e7ac0b,13:39:44,06/03/2024
2780.0,"<p style=""font-size: 3rem;"">You only responded correctly on 1 of 3 symmetry judgments.<br><br><b>In the main task, you must try harder to answer accurately.</b></p><br><br>",0,ospan,practice,r8IbsS15H5hZX5BoUFDLrd3SwFk2,html-button-response,75,567756,0.0-43.0-1.0-2.0,,,,,,,,,,,,,,,567f59e0d18c640011e7ac0b,13:39:44,06/03/2024
16941.20000000298,"<div class = 'left_align' style='font-size: 3.25rem; line-height: 1.3;'>Now you will practice doing both parts of the experiment at the same time.<br><br>In the next practice set, you will be given one grid picture to judge.<br>Then letter will appear on the screen. Try to remember the letter.<br><br>It is <b>very important</b> to make the symmetry judgment as quickly and accurately as possible.<br><br>Just as before, once you have make the symmetry judgment, you can click Yes or No.<br><b>Note that you will no longer see Correct or Incorrect feedback.</div><br><br><br><br>",0,ospan,instruct,r8IbsS15H5hZX5BoUFDLrd3SwFk2,html-button-response,76,584953,0.0-43.0-2.0-0.0-0.0,,,,,,,,,,,,,,,567f59e0d18c640011e7ac0b,13:39:44,06/03/2024
2251.2999999970198,"<div class = 'left_align' style='font-size: 3.25rem; line-height: 1.3;'>After the letter goes away, another grid picture will appear, and then<br>another letter.<br><br>At the end of each set of letters and grids, you will recall the letters to the best<br>of your ability. Remember, try your best to get the letters in the correct order.<br><br>It is important to <b>quickly</b> and <b>accurately</b> make the symmetry judgments.</div><br><br><br><br>",0,ospan,instruct,r8IbsS15H5hZX5BoUFDLrd3SwFk2,html-button-response,77,587463,0.0-43.0-2.0-0.0-1.0,,,,,,,,,,,,,,,567f59e0d18c640011e7ac0b,13:39:44,06/03/2024
12550.89999999851,"<div class = 'left_align' style='font-size: 3.25rem; line-height: 1.3;'>On the feedback screen, if you are not doing well at the symmetry judgments,<br>you will also see a warning in the middle. This indicates your percent <br>correct for the grid pictures for the entire experiment.<br><br>It is <b>very</b> important for you to keep accuracy at least at 85%: <u>We can only use<br>data where the participant was at least 85% accurate on the judgments.</u> Therefore,<br> please try your best to perform well on the symmetry judgments, <b>at the same time</b><br>doing your best to recall as many letters as possible.<br><br>Click the button to try some practice problems.</div><br><br><br><br>",0,ospan,instruct,r8IbsS15H5hZX5BoUFDLrd3SwFk2,html-button-response,78,600277,0.0-43.0-2.0-0.0-2.0,,,,,,,,,,,,,,,567f59e0d18c640011e7ac0b,13:39:44,06/03/2024
,"<p style=""font-size:75px;"">...</p>",,ospan,iti,r8IbsS15H5hZX5BoUFDLrd3SwFk2,html-keyboard-response,79,601552,0.0-43.0-2.0-1.0-0.0,,,,,,,,,,,,,,,567f59e0d18c640011e7ac0b,13:39:44,06/03/2024
2720.0,,,ospan,symmetry,r8IbsS15H5hZX5BoUFDLrd3SwFk2,symmetry-judgement-task,80,605844,0.0-43.0-2.0-1.0-1.0-0.0,,,,,,,,,,1.0,1.0,,,,567f59e0d18c640011e7ac0b,13:39:44,06/03/2024
,"<div style=""font-size: 10rem; color: #0000FF"">R</div>",,ospan,letter,r8IbsS15H5hZX5BoUFDLrd3SwFk2,html-keyboard-response,81,606858,0.0-43.0-2.0-1.0-1.0-1.0,,,,,,,,,,,,,,,567f59e0d18c640011e7ac0b,13:39:44,06/03/2024
2461.0,,,ospan,symmetry,r8IbsS15H5hZX5BoUFDLrd3SwFk2,symmetry-judgement-task,82,611691,0.0-43.0-2.0-1.0-1.0-2.0,,,,,,,,,,1.0,1.0,,,,567f59e0d18c640011e7ac0b,13:39:44,06/03/2024
,"<div style=""font-size: 10rem; color: #0000FF"">P</div>",,ospan,letter,r8IbsS15H5hZX5BoUFDLrd3SwFk2,html-keyboard-response,83,612707,0.0-43.0-2.0-1.0-1.0-3.0,,,,,,,,,,,,,,,567f59e0d18c640011e7ac0b,13:39:44,06/03/2024
2444.0,,,ospan,symmetry,r8IbsS15H5hZX5BoUFDLrd3SwFk2,symmetry-judgement-task,84,617554,0.0-43.0-2.0-1.0-1.0-4.0,,,,,,,,,,1.0,1.0,,,,567f59e0d18c640011e7ac0b,13:39:44,06/03/2024
,"<div style=""font-size: 10rem; color: #0000FF"">H</div>",,ospan,letter,r8IbsS15H5hZX5BoUFDLrd3SwFk2,html-keyboard-response,85,618569,0.0-43.0-2.0-1.0-1.0-5.0,,,,,,,,,,,,,,,567f59e0d18c640011e7ac0b,13:39:44,06/03/2024
5865.60000000149,"<div class = numbox><p style=""font-size: 2.4rem"">Please recall the letters you saw to the best of your ability. If you do not remember a particular letter, use the SKIP button.<br><b>(When you are ready to lock in your answer, press ENTER)</b></p><button id = button_1 class = ""square num-button"" onclick = ""recordClick(this)""><div class = content><div class = numbers>C</div></div></button><button id = button_2 class = ""square num-button"" onclick = ""recordClick(this)""><div class = content><div class = numbers>G</div></div></button><button id = button_3 class = ""square num-button"" onclick = ""recordClick(this)""><div class = content><div class = numbers>H</div></div></button><button id = button_4 class = ""square num-button"" onclick = ""recordClick(this)""><div class = content><div class = numbers>J</div></div></button><button id = button_5 class = ""square num-button"" onclick = ""recordClick(this)""><div class = content><div class = numbers>K</div></div></button><button id = button_6 class = ""square num-button"" onclick = ""recordClick(this)""><div class = content><div class = numbers>L</div></div></button><button id = button_7 class = ""square num-button"" onclick = ""recordClick(this)""><div class = content><div class = numbers>N</div></div></button><button id = button_8 class = ""square num-button"" onclick = ""recordClick(this)""><div class = content><div class = numbers>P</div></div></button><button id = button_9 class = ""square num-button"" onclick = ""recordClick(this)""><div class = content><div class = numbers>Q</div></div></button><button id = button_10 class = ""square num-button"" onclick = ""recordClick(this)""><div class = content><div class = numbers>R</div></div></button><button id = button_11 class = ""square num-button"" onclick = ""recordClick(this)""><div class = content><div class = numbers>S</div></div></button><button id = button_12 class = ""square num-button"" onclick = ""recordClick(this)""><div class = content><div class = numbers>Y</div></div></button><button class = clear_button id = ""ClearButton"" onclick = ""clearResponse()"">BACKSPACE</button><button class = blank_button id = ""BlankButton"" onclick = ""blankResponse()"">SKIP</button><p style=""font-size: 2.4rem""><u><b>Current Answer:</b></u></p><br><br><div id=echoed_txt style=""font-size: 5rem; color:blue;""><b></b></div></div>",enter,ospan,retrieval,r8IbsS15H5hZX5BoUFDLrd3SwFk2,html-keyboard-response,86,625201,0.0-43.0-2.0-1.0-2.0-0.0,NA,NA,NA,3.0,"[""R"",""P"",""H""]","[""R"",""P"",""H""]",1.0,3.0,"['<font color=""green"">R</font>', '<font color=""green"">P</font>', '<font color=""green"">H</font>']",,,,,,567f59e0d18c640011e7ac0b,13:39:44,06/03/2024
1694.0,"['<p style=""font-size:44px"">Letters:<br><br><br><font color=""green"">R</font> <font color=""green"">P</font> <font color=""green"">H</font></p><br><br><p style=""font-size:30px"">Symmetry:<br><br><font color=""green"">100%</font></p><br><br>']",0,ospan,practice_feedback,r8IbsS15H5hZX5BoUFDLrd3SwFk2,html-button-response,87,627404,0.0-43.0-2.0-1.0-2.0-1.0,,,,,,,,,,,,,,,567f59e0d18c640011e7ac0b,13:39:44,06/03/2024
,"<p style=""font-size:75px;"">...</p>",,ospan,iti,r8IbsS15H5hZX5BoUFDLrd3SwFk2,html-keyboard-response,88,628415,0.0-43.0-2.0-2.0-0.0,,,,,,,,,,,,,,,567f59e0d18c640011e7ac0b,13:39:44,06/03/2024
2151.0,,,ospan,symmetry,r8IbsS15H5hZX5BoUFDLrd3SwFk2,symmetry-judgement-task,89,632127,0.0-43.0-2.0-2.0-1.0-0.0,,,,,,,,,,0.0,0.0,,,,567f59e0d18c640011e7ac0b,13:39:44,06/03/2024
,"<div style=""font-size: 10rem; color: #0000FF"">G</div>",,ospan,letter,r8IbsS15H5hZX5BoUFDLrd3SwFk2,html-keyboard-response,90,633141,0.0-43.0-2.0-2.0-1.0-1.0,,,,,,,,,,,,,,,567f59e0d18c640011e7ac0b,13:39:44,06/03/2024
2853.0,,,ospan,symmetry,r8IbsS15H5hZX5BoUFDLrd3SwFk2,symmetry-judgement-task,91,638361,0.0-43.0-2.0-2.0-1.0-2.0,,,,,,,,,,0.0,0.0,,,,567f59e0d18c640011e7ac0b,13:39:44,06/03/2024
,"<div style=""font-size: 10rem; color: #0000FF"">C</div>",,ospan,letter,r8IbsS15H5hZX5BoUFDLrd3SwFk2,html-keyboard-response,92,639365,0.0-43.0-2.0-2.0-1.0-3.0,,,,,,,,,,,,,,,567f59e0d18c640011e7ac0b,13:39:44,06/03/2024
3478.0,,,ospan,symmetry,r8IbsS15H5hZX5BoUFDLrd3SwFk2,symmetry-judgement-task,93,645194,0.0-43.0-2.0-2.0-1.0-4.0,,,,,,,,,,1.0,1.0,,,,567f59e0d18c640011e7ac0b,13:39:44,06/03/2024
,"<div style=""font-size: 10rem; color: #0000FF"">L</div>",,ospan,letter,r8IbsS15H5hZX5BoUFDLrd3SwFk2,html-keyboard-response,94,646206,0.0-43.0-2.0-2.0-1.0-5.0,,,,,,,,,,,,,,,567f59e0d18c640011e7ac0b,13:39:44,06/03/2024
4556.79999999702,"<div class = numbox><p style=""font-size: 2.4rem"">Please recall the letters you saw to the best of your ability. If you do not remember a particular letter, use the SKIP button.<br><b>(When you are ready to lock in your answer, press ENTER)</b></p><button id = button_1 class = ""square num-button"" onclick = ""recordClick(this)""><div class = content><div class = numbers>C</div></div></button><button id = button_2 class = ""square num-button"" onclick = ""recordClick(this)""><div class = content><div class = numbers>G</div></div></button><button id = button_3 class = ""square num-button"" onclick = ""recordClick(this)""><div class = content><div class = numbers>H</div></div></button><button id = button_4 class = ""square num-button"" onclick = ""recordClick(this)""><div class = content><div class = numbers>J</div></div></button><button id = button_5 class = ""square num-button"" onclick = ""recordClick(this)""><div class = content><div class = numbers>K</div></div></button><button id = button_6 class = ""square num-button"" onclick = ""recordClick(this)""><div class = content><div class = numbers>L</div></div></button><button id = button_7 class = ""square num-button"" onclick = ""recordClick(this)""><div class = content><div class = numbers>N</div></div></button><button id = button_8 class = ""square num-button"" onclick = ""recordClick(this)""><div class = content><div class = numbers>P</div></div></button><button id = button_9 class = ""square num-button"" onclick = ""recordClick(this)""><div class = content><div class = numbers>Q</div></div></button><button id = button_10 class = ""square num-button"" onclick = ""recordClick(this)""><div class = content><div class = numbers>R</div></div></button><button id = button_11 class = ""square num-button"" onclick = ""recordClick(this)""><div class = content><div class = numbers>S</div></div></button><button id = button_12 class = ""square num-button"" onclick = ""recordClick(this)""><div class = content><div class = numbers>Y</div></div></button><button class = clear_button id = ""ClearButton"" onclick = ""clearResponse()"">BACKSPACE</button><button class = blank_button id = ""BlankButton"" onclick = ""blankResponse()"">SKIP</button><p style=""font-size: 2.4rem""><u><b>Current Answer:</b></u></p><br><br><div id=echoed_txt style=""font-size: 5rem; color:blue;""><b></b></div></div>",enter,ospan,retrieval,r8IbsS15H5hZX5BoUFDLrd3SwFk2,html-keyboard-response,95,651526,0.0-43.0-2.0-2.0-2.0-0.0,NA,NA,NA,3.0,"[""G"",""C"",""L""]","[""G"",""C"",""L""]",1.0,3.0,"['<font color=""green"">G</font>', '<font color=""green"">C</font>', '<font color=""green"">L</font>']",,,,,,567f59e0d18c640011e7ac0b,13:39:44,06/03/2024
1892.0,"['<p style=""font-size:44px"">Letters:<br><br><br><font color=""green"">G</font> <font color=""green"">C</font> <font color=""green"">L</font></p><br><br><p style=""font-size:30px"">Symmetry:<br><br><font color=""red"">67%</font></p><br><br>']",0,ospan,practice_feedback,r8IbsS15H5hZX5BoUFDLrd3SwFk2,html-button-response,96,653932,0.0-43.0-2.0-2.0-2.0-1.0,,,,,,,,,,,,,,,567f59e0d18c640011e7ac0b,13:39:44,06/03/2024
6260.69999999553,"<div class = 'left_align' style='font-size: 3rem; line-height: 1.3;'><b>Great work! That is the end of practice.</b><br><br>The real trials will look just like the practice trials you just completed.<br><br><u>Here, you will not see feedback</u>. First, you will see an grid picture to judge,<br>then a letter to remember. When the recall screen appears, report the letters in the<br>order presented. If you forget a letter, remember to use the <b>blank</b> button to move to the<br>next letter. Some of the sets will have more symmetry grids and letters than others.<br><br>It is important that you do your best on both the symmetry judgments and the letter recall<br>parts of the experiment. For for the symmetry judgments, try to work as <b>quickly</b> and <br>as <b>accurately</b> as possible. Remember to keep your symmetry accuracy at 85% or above.<br><br><b>For the letters, do NOT use any external aid (e.g., writing on paper, electronic device).</b><br><br>It is <u>very important</u> to our experiment to have a <b>true</b> view of your real performance.<br><br>Do not worry if you miss some when it gets hard! This task is meant to be very challenging!<br><br>Click the button to begin.</div><br><br><br><br>",0,ospan,starting_real_here,r8IbsS15H5hZX5BoUFDLrd3SwFk2,html-button-response,97,660196,0.0-43.0-2.0-3.0,,,,,,,,,,,,,,,567f59e0d18c640011e7ac0b,13:39:44,06/03/2024
,"<p style=""font-size:75px;"">...</p>",,ospan,iti,r8IbsS15H5hZX5BoUFDLrd3SwFk2,html-keyboard-response,98,661468,0.0-43.0-3.0-0.0-0.0,,,,,,,,,,,,,,,567f59e0d18c640011e7ac0b,13:39:44,06/03/2024
5775.0,,,ospan,symmetry,r8IbsS15H5hZX5BoUFDLrd3SwFk2,symmetry-judgement-task,99,669012,0.0-43.0-3.0-0.0-1.0-0.0,,,,,,,,,,0.0,0.0,,,,567f59e0d18c640011e7ac0b,13:39:44,06/03/2024
,"<div style=""font-size: 10rem; color: #0000FF"">L</div>",,ospan,letter,r8IbsS15H5hZX5BoUFDLrd3SwFk2,html-keyboard-response,100,670021,0.0-43.0-3.0-0.0-1.0-1.0,,,,,,,,,,,,,,,567f59e0d18c640011e7ac0b,13:39:44,06/03/2024
6516.0,,,ospan,symmetry,r8IbsS15H5hZX5BoUFDLrd3SwFk2,symmetry-judgement-task,101,678864,0.0-43.0-3.0-0.0-1.0-2.0,,,,,,,,,,1.0,1.0,,,,567f59e0d18c640011e7ac0b,13:39:44,06/03/2024
,"<div style=""font-size: 10rem; color: #0000FF"">J</div>",,ospan,letter,r8IbsS15H5hZX5BoUFDLrd3SwFk2,html-keyboard-response,102,679866,0.0-43.0-3.0-0.0-1.0-3.0,,,,,,,,,,,,,,,567f59e0d18c640011e7ac0b,13:39:44,06/03/2024
3877.0,,,ospan,symmetry,r8IbsS15H5hZX5BoUFDLrd3SwFk2,symmetry-judgement-task,103,686101,0.0-43.0-3.0-0.0-1.0-4.0,,,,,,,,,,1.0,1.0,,,,567f59e0d18c640011e7ac0b,13:39:44,06/03/2024
,"<div style=""font-size: 10rem; color: #0000FF"">K</div>",,ospan,letter,r8IbsS15H5hZX5BoUFDLrd3SwFk2,html-keyboard-response,104,687117,0.0-43.0-3.0-0.0-1.0-5.0,,,,,,,,,,,,,,,567f59e0d18c640011e7ac0b,13:39:44,06/03/2024
5454.29999999702,"<div class = numbox><p style=""font-size: 2.4rem"">Please recall the letters you saw to the best of your ability. If you do not remember a particular letter, use the SKIP button.<br><b>(When you are ready to lock in your answer, press ENTER)</b></p><button id = button_1 class = ""square num-button"" onclick = ""recordClick(this)""><div class = content><div class = numbers>C</div></div></button><button id = button_2 class = ""square num-button"" onclick = ""recordClick(this)""><div class = content><div class = numbers>G</div></div></button><button id = button_3 class = ""square num-button"" onclick = ""recordClick(this)""><div class = content><div class = numbers>H</div></div></button><button id = button_4 class = ""square num-button"" onclick = ""recordClick(this)""><div class = content><div class = numbers>J</div></div></button><button id = button_5 class = ""square num-button"" onclick = ""recordClick(this)""><div class = content><div class = numbers>K</div></div></button><button id = button_6 class = ""square num-button"" onclick = ""recordClick(this)""><div class = content><div class = numbers>L</div></div></button><button id = button_7 class = ""square num-button"" onclick = ""recordClick(this)""><div class = content><div class = numbers>N</div></div></button><button id = button_8 class = ""square num-button"" onclick = ""recordClick(this)""><div class = content><div class = numbers>P</div></div></button><button id = button_9 class = ""square num-button"" onclick = ""recordClick(this)""><div class = content><div class = numbers>Q</div></div></button><button id = button_10 class = ""square num-button"" onclick = ""recordClick(this)""><div class = content><div class = numbers>R</div></div></button><button id = button_11 class = ""square num-button"" onclick = ""recordClick(this)""><div class = content><div class = numbers>S</div></div></button><button id = button_12 class = ""square num-button"" onclick = ""recordClick(this)""><div class = content><div class = numbers>Y</div></div></button><button class = clear_button id = ""ClearButton"" onclick = ""clearResponse()"">BACKSPACE</button><button class = blank_button id = ""BlankButton"" onclick = ""blankResponse()"">SKIP</button><p style=""font-size: 2.4rem""><u><b>Current Answer:</b></u></p><br><br><div id=echoed_txt style=""font-size: 5rem; color:blue;""><b></b></div></div>",enter,ospan,retrieval,r8IbsS15H5hZX5BoUFDLrd3SwFk2,html-keyboard-response,105,693336,0.0-43.0-3.0-0.0-2.0,3,3,3,3.0,"[""L"",""J"",""K""]","[""L"",""J"",""K""]",1.0,3.0,,,,,,,567f59e0d18c640011e7ac0b,13:39:44,06/03/2024
1668.2000000029802,"['<p style=""font-size: 3.75rem"">Low symmetry accuracy!<br><br><br><font color=""red"">67%</font><br><br></p>']",0,ospan,feedback,r8IbsS15H5hZX5BoUFDLrd3SwFk2,html-button-response,106,695508,0.0-43.0-3.0-0.0-3.0,,,,,,,,,,,,67.0,1.0,,567f59e0d18c640011e7ac0b,13:39:44,06/03/2024
,"<p style=""font-size:75px;"">...</p>",,ospan,iti,r8IbsS15H5hZX5BoUFDLrd3SwFk2,html-keyboard-response,107,696514,0.0-43.0-4.0-0.0-0.0,,,,,,,,,,,,,,,567f59e0d18c640011e7ac0b,13:39:44,06/03/2024
5273.0,,,ospan,symmetry,r8IbsS15H5hZX5BoUFDLrd3SwFk2,symmetry-judgement-task,108,703390,0.0-43.0-4.0-0.0-1.0-0.0,,,,,,,,,,0.0,0.0,,,,567f59e0d18c640011e7ac0b,13:39:44,06/03/2024
,"<div style=""font-size: 10rem; color: #0000FF"">P</div>",,ospan,letter,r8IbsS15H5hZX5BoUFDLrd3SwFk2,html-keyboard-response,109,704392,0.0-43.0-4.0-0.0-1.0-1.0,,,,,,,,,,,,,,,567f59e0d18c640011e7ac0b,13:39:44,06/03/2024
1810.0,,,ospan,symmetry,r8IbsS15H5hZX5BoUFDLrd3SwFk2,symmetry-judgement-task,110,708536,0.0-43.0-4.0-0.0-1.0-2.0,,,,,,,,,,1.0,1.0,,,,567f59e0d18c640011e7ac0b,13:39:44,06/03/2024
,"<div style=""font-size: 10rem; color: #0000FF"">Q</div>",,ospan,letter,r8IbsS15H5hZX5BoUFDLrd3SwFk2,html-keyboard-response,111,709544,0.0-43.0-4.0-0.0-1.0-3.0,,,,,,,,,,,,,,,567f59e0d18c640011e7ac0b,13:39:44,06/03/2024
2328.0,,,ospan,symmetry,r8IbsS15H5hZX5BoUFDLrd3SwFk2,symmetry-judgement-task,112,714235,0.0-43.0-4.0-0.0-1.0-4.0,,,,,,,,,,1.0,1.0,,,,567f59e0d18c640011e7ac0b,13:39:44,06/03/2024
,"<div style=""font-size: 10rem; color: #0000FF"">Y</div>",,ospan,letter,r8IbsS15H5hZX5BoUFDLrd3SwFk2,html-keyboard-response,113,715252,0.0-43.0-4.0-0.0-1.0-5.0,,,,,,,,,,,,,,,567f59e0d18c640011e7ac0b,13:39:44,06/03/2024
2458.0,,,ospan,symmetry,r8IbsS15H5hZX5BoUFDLrd3SwFk2,symmetry-judgement-task,114,720070,0.0-43.0-4.0-0.0-1.0-6.0,,,,,,,,,,1.0,1.0,,,,567f59e0d18c640011e7ac0b,13:39:44,06/03/2024
,"<div style=""font-size: 10rem; color: #0000FF"">J</div>",,ospan,letter,r8IbsS15H5hZX5BoUFDLrd3SwFk2,html-keyboard-response,115,721085,0.0-43.0-4.0-0.0-1.0-7.0,,,,,,,,,,,,,,,567f59e0d18c640011e7ac0b,13:39:44,06/03/2024
7025.5,"<div class = numbox><p style=""font-size: 2.4rem"">Please recall the letters you saw to the best of your ability. If you do not remember a particular letter, use the SKIP button.<br><b>(When you are ready to lock in your answer, press ENTER)</b></p><button id = button_1 class = ""square num-button"" onclick = ""recordClick(this)""><div class = content><div class = numbers>C</div></div></button><button id = button_2 class = ""square num-button"" onclick = ""recordClick(this)""><div class = content><div class = numbers>G</div></div></button><button id = button_3 class = ""square num-button"" onclick = ""recordClick(this)""><div class = content><div class = numbers>H</div></div></button><button id = button_4 class = ""square num-button"" onclick = ""recordClick(this)""><div class = content><div class = numbers>J</div></div></button><button id = button_5 class = ""square num-button"" onclick = ""recordClick(this)""><div class = content><div class = numbers>K</div></div></button><button id = button_6 class = ""square num-button"" onclick = ""recordClick(this)""><div class = content><div class = numbers>L</div></div></button><button id = button_7 class = ""square num-button"" onclick = ""recordClick(this)""><div class = content><div class = numbers>N</div></div></button><button id = button_8 class = ""square num-button"" onclick = ""recordClick(this)""><div class = content><div class = numbers>P</div></div></button><button id = button_9 class = ""square num-button"" onclick = ""recordClick(this)""><div class = content><div class = numbers>Q</div></div></button><button id = button_10 class = ""square num-button"" onclick = ""recordClick(this)""><div class = content><div class = numbers>R</div></div></button><button id = button_11 class = ""square num-button"" onclick = ""recordClick(this)""><div class = content><div class = numbers>S</div></div></button><button id = button_12 class = ""square num-button"" onclick = ""recordClick(this)""><div class = content><div class = numbers>Y</div></div></button><button class = clear_button id = ""ClearButton"" onclick = ""clearResponse()"">BACKSPACE</button><button class = blank_button id = ""BlankButton"" onclick = ""blankResponse()"">SKIP</button><p style=""font-size: 2.4rem""><u><b>Current Answer:</b></u></p><br><br><div id=echoed_txt style=""font-size: 5rem; color:blue;""><b></b></div></div>",enter,ospan,retrieval,r8IbsS15H5hZX5BoUFDLrd3SwFk2,html-keyboard-response,116,728867,0.0-43.0-4.0-0.0-2.0,7,7,7,4.0,"[""P"",""Q"",""Y"",""J""]","[""P"",""Q"",""Y"",""J""]",1.0,4.0,,,,,,,567f59e0d18c640011e7ac0b,13:39:44,06/03/2024
1291.5,"['<p style=""font-size: 3.75rem"">Low symmetry accuracy!<br><br><br><font color=""red"">71%</font><br><br></p>']",0,ospan,feedback,r8IbsS15H5hZX5BoUFDLrd3SwFk2,html-button-response,117,730662,0.0-43.0-4.0-0.0-3.0,,,,,,,,,,,,71.0,1.0,,567f59e0d18c640011e7ac0b,13:39:44,06/03/2024
,"<p style=""font-size:75px;"">...</p>",,ospan,iti,r8IbsS15H5hZX5BoUFDLrd3SwFk2,html-keyboard-response,118,731678,0.0-43.0-4.0-1.0-0.0,,,,,,,,,,,,,,,567f59e0d18c640011e7ac0b,13:39:44,06/03/2024
3011.0,,,ospan,symmetry,r8IbsS15H5hZX5BoUFDLrd3SwFk2,symmetry-judgement-task,119,736292,0.0-43.0-4.0-1.0-1.0-0.0,,,,,,,,,,1.0,1.0,,,,567f59e0d18c640011e7ac0b,13:39:44,06/03/2024
,"<div style=""font-size: 10rem; color: #0000FF"">L</div>",,ospan,letter,r8IbsS15H5hZX5BoUFDLrd3SwFk2,html-keyboard-response,120,737298,0.0-43.0-4.0-1.0-1.0-1.0,,,,,,,,,,,,,,,567f59e0d18c640011e7ac0b,13:39:44,06/03/2024
3426.0,,,ospan,symmetry,r8IbsS15H5hZX5BoUFDLrd3SwFk2,symmetry-judgement-task,121,743069,0.0-43.0-4.0-1.0-1.0-2.0,,,,,,,,,,1.0,1.0,,,,567f59e0d18c640011e7ac0b,13:39:44,06/03/2024
,"<div style=""font-size: 10rem; color: #0000FF"">Y</div>",,ospan,letter,r8IbsS15H5hZX5BoUFDLrd3SwFk2,html-keyboard-response,122,744083,0.0-43.0-4.0-1.0-1.0-3.0,,,,,,,,,,,,,,,567f59e0d18c640011e7ac0b,13:39:44,06/03/2024
2490.0,,,ospan,symmetry,r8IbsS15H5hZX5BoUFDLrd3SwFk2,symmetry-judgement-task,123,748922,0.0-43.0-4.0-1.0-1.0-4.0,,,,,,,,,,1.0,1.0,,,,567f59e0d18c640011e7ac0b,13:39:44,06/03/2024
,"<div style=""font-size: 10rem; color: #0000FF"">C</div>",,ospan,letter,r8IbsS15H5hZX5BoUFDLrd3SwFk2,html-keyboard-response,124,749930,0.0-43.0-4.0-1.0-1.0-5.0,,,,,,,,,,,,,,,567f59e0d18c640011e7ac0b,13:39:44,06/03/2024
2736.0,,,ospan,symmetry,r8IbsS15H5hZX5BoUFDLrd3SwFk2,symmetry-judgement-task,125,755075,0.0-43.0-4.0-1.0-1.0-6.0,,,,,,,,,,1.0,1.0,,,,567f59e0d18c640011e7ac0b,13:39:44,06/03/2024
,"<div style=""font-size: 10rem; color: #0000FF"">K</div>",,ospan,letter,r8IbsS15H5hZX5BoUFDLrd3SwFk2,html-keyboard-response,126,756087,0.0-43.0-4.0-1.0-1.0-7.0,,,,,,,,,,,,,,,567f59e0d18c640011e7ac0b,13:39:44,06/03/2024
3612.0,,,ospan,symmetry,r8IbsS15H5hZX5BoUFDLrd3SwFk2,symmetry-judgement-task,127,762258,0.0-43.0-4.0-1.0-1.0-8.0,,,,,,,,,,1.0,1.0,,,,567f59e0d18c640011e7ac0b,13:39:44,06/03/2024
,"<div style=""font-size: 10rem; color: #0000FF"">N</div>",,ospan,letter,r8IbsS15H5hZX5BoUFDLrd3SwFk2,html-keyboard-response,128,763271,0.0-43.0-4.0-1.0-1.0-9.0,,,,,,,,,,,,,,,567f59e0d18c640011e7ac0b,13:39:44,06/03/2024
7527.5,"<div class = numbox><p style=""font-size: 2.4rem"">Please recall the letters you saw to the best of your ability. If you do not remember a particular letter, use the SKIP button.<br><b>(When you are ready to lock in your answer, press ENTER)</b></p><button id = button_1 class = ""square num-button"" onclick = ""recordClick(this)""><div class = content><div class = numbers>C</div></div></button><button id = button_2 class = ""square num-button"" onclick = ""recordClick(this)""><div class = content><div class = numbers>G</div></div></button><button id = button_3 class = ""square num-button"" onclick = ""recordClick(this)""><div class = content><div class = numbers>H</div></div></button><button id = button_4 class = ""square num-button"" onclick = ""recordClick(this)""><div class = content><div class = numbers>J</div></div></button><button id = button_5 class = ""square num-button"" onclick = ""recordClick(this)""><div class = content><div class = numbers>K</div></div></button><button id = button_6 class = ""square num-button"" onclick = ""recordClick(this)""><div class = content><div class = numbers>L</div></div></button><button id = button_7 class = ""square num-button"" onclick = ""recordClick(this)""><div class = content><div class = numbers>N</div></div></button><button id = button_8 class = ""square num-button"" onclick = ""recordClick(this)""><div class = content><div class = numbers>P</div></div></button><button id = button_9 class = ""square num-button"" onclick = ""recordClick(this)""><div class = content><div class = numbers>Q</div></div></button><button id = button_10 class = ""square num-button"" onclick = ""recordClick(this)""><div class = content><div class = numbers>R</div></div></button><button id = button_11 class = ""square num-button"" onclick = ""recordClick(this)""><div class = content><div class = numbers>S</div></div></button><button id = button_12 class = ""square num-button"" onclick = ""recordClick(this)""><div class = content><div class = numbers>Y</div></div></button><button class = clear_button id = ""ClearButton"" onclick = ""clearResponse()"">BACKSPACE</button><button class = blank_button id = ""BlankButton"" onclick = ""blankResponse()"">SKIP</button><p style=""font-size: 2.4rem""><u><b>Current Answer:</b></u></p><br><br><div id=echoed_txt style=""font-size: 5rem; color:blue;""><b></b></div></div>",enter,ospan,retrieval,r8IbsS15H5hZX5BoUFDLrd3SwFk2,html-keyboard-response,129,771562,0.0-43.0-4.0-1.0-2.0,12,12,12,5.0,"[""L"",""Y"",""C"",""K"",""N""]","[""L"",""Y"",""C"",""K"",""N""]",1.0,5.0,,,,,,,567f59e0d18c640011e7ac0b,13:39:44,06/03/2024
1302.6999999955297,"['<p style=""font-size: 3.75rem"">Low symmetry accuracy!<br><br><br><font color=""purple"">83%</font><br><br></p>']",0,ospan,feedback,r8IbsS15H5hZX5BoUFDLrd3SwFk2,html-button-response,130,773374,0.0-43.0-4.0-1.0-3.0,,,,,,,,,,,,83.0,1.0,,567f59e0d18c640011e7ac0b,13:39:44,06/03/2024
,"<p style=""font-size:75px;"">...</p>",,ospan,iti,r8IbsS15H5hZX5BoUFDLrd3SwFk2,html-keyboard-response,131,774381,0.0-43.0-4.0-2.0-0.0,,,,,,,,,,,,,,,567f59e0d18c640011e7ac0b,13:39:44,06/03/2024
5624.0,,,ospan,symmetry,r8IbsS15H5hZX5BoUFDLrd3SwFk2,symmetry-judgement-task,132,781127,0.0-43.0-4.0-2.0-1.0-0.0,,,,,,,,,,1.0,1.0,,,,567f59e0d18c640011e7ac0b,13:39:44,06/03/2024
,"<div style=""font-size: 10rem; color: #0000FF"">K</div>",,ospan,letter,r8IbsS15H5hZX5BoUFDLrd3SwFk2,html-keyboard-response,133,782134,0.0-43.0-4.0-2.0-1.0-1.0,,,,,,,,,,,,,,,567f59e0d18c640011e7ac0b,13:39:44,06/03/2024
3659.0,,,ospan,symmetry,r8IbsS15H5hZX5BoUFDLrd3SwFk2,symmetry-judgement-task,134,788182,0.0-43.0-4.0-2.0-1.0-2.0,,,,,,,,,,1.0,1.0,,,,567f59e0d18c640011e7ac0b,13:39:44,06/03/2024
,"<div style=""font-size: 10rem; color: #0000FF"">H</div>",,ospan,letter,r8IbsS15H5hZX5BoUFDLrd3SwFk2,html-keyboard-response,135,789198,0.0-43.0-4.0-2.0-1.0-3.0,,,,,,,,,,,,,,,567f59e0d18c640011e7ac0b,13:39:44,06/03/2024
2638.0,,,ospan,symmetry,r8IbsS15H5hZX5BoUFDLrd3SwFk2,symmetry-judgement-task,136,794202,0.0-43.0-4.0-2.0-1.0-4.0,,,,,,,,,,1.0,1.0,,,,567f59e0d18c640011e7ac0b,13:39:44,06/03/2024
,"<div style=""font-size: 10rem; color: #0000FF"">C</div>",,ospan,letter,r8IbsS15H5hZX5BoUFDLrd3SwFk2,html-keyboard-response,137,795215,0.0-43.0-4.0-2.0-1.0-5.0,,,,,,,,,,,,,,,567f59e0d18c640011e7ac0b,13:39:44,06/03/2024
5361.80000000447,"<div class = numbox><p style=""font-size: 2.4rem"">Please recall the letters you saw to the best of your ability. If you do not remember a particular letter, use the SKIP button.<br><b>(When you are ready to lock in your answer, press ENTER)</b></p><button id = button_1 class = ""square num-button"" onclick = ""recordClick(this)""><div class = content><div class = numbers>C</div></div></button><button id = button_2 class = ""square num-button"" onclick = ""recordClick(this)""><div class = content><div class = numbers>G</div></div></button><button id = button_3 class = ""square num-button"" onclick = ""recordClick(this)""><div class = content><div class = numbers>H</div></div></button><button id = button_4 class = ""square num-button"" onclick = ""recordClick(this)""><div class = content><div class = numbers>J</div></div></button><button id = button_5 class = ""square num-button"" onclick = ""recordClick(this)""><div class = content><div class = numbers>K</div></div></button><button id = button_6 class = ""square num-button"" onclick = ""recordClick(this)""><div class = content><div class = numbers>L</div></div></button><button id = button_7 class = ""square num-button"" onclick = ""recordClick(this)""><div class = content><div class = numbers>N</div></div></button><button id = button_8 class = ""square num-button"" onclick = ""recordClick(this)""><div class = content><div class = numbers>P</div></div></button><button id = button_9 class = ""square num-button"" onclick = ""recordClick(this)""><div class = content><div class = numbers>Q</div></div></button><button id = button_10 class = ""square num-button"" onclick = ""recordClick(this)""><div class = content><div class = numbers>R</div></div></button><button id = button_11 class = ""square num-button"" onclick = ""recordClick(this)""><div class = content><div class = numbers>S</div></div></button><button id = button_12 class = ""square num-button"" onclick = ""recordClick(this)""><div class = content><div class = numbers>Y</div></div></button><button class = clear_button id = ""ClearButton"" onclick = ""clearResponse()"">BACKSPACE</button><button class = blank_button id = ""BlankButton"" onclick = ""blankResponse()"">SKIP</button><p style=""font-size: 2.4rem""><u><b>Current Answer:</b></u></p><br><br><div id=echoed_txt style=""font-size: 5rem; color:blue;""><b></b></div></div>",enter,ospan,retrieval,r8IbsS15H5hZX5BoUFDLrd3SwFk2,html-keyboard-response,138,801344,0.0-43.0-4.0-2.0-2.0,15,15,15,3.0,"[""K"",""H"",""C""]","[""K"",""H"",""C""]",1.0,3.0,,,,,,,567f59e0d18c640011e7ac0b,13:39:44,06/03/2024
1749.1999999955297,[''],0,ospan,feedback,r8IbsS15H5hZX5BoUFDLrd3SwFk2,html-button-response,139,803601,0.0-43.0-4.0-2.0-3.0,,,,,,,,,,,,87.0,0.0,,567f59e0d18c640011e7ac0b,13:39:44,06/03/2024
,"<p style=""font-size:75px;"">...</p>",,ospan,iti,r8IbsS15H5hZX5BoUFDLrd3SwFk2,html-keyboard-response,140,804614,0.0-43.0-5.0-0.0-0.0,,,,,,,,,,,,,,,567f59e0d18c640011e7ac0b,13:39:44,06/03/2024
3945.0,,,ospan,symmetry,r8IbsS15H5hZX5BoUFDLrd3SwFk2,symmetry-judgement-task,141,810172,0.0-43.0-5.0-0.0-1.0-0.0,,,,,,,,,,1.0,1.0,,,,567f59e0d18c640011e7ac0b,13:39:44,06/03/2024
,"<div style=""font-size: 10rem; color: #0000FF"">J</div>",,ospan,letter,r8IbsS15H5hZX5BoUFDLrd3SwFk2,html-keyboard-response,142,811180,0.0-43.0-5.0-0.0-1.0-1.0,,,,,,,,,,,,,,,567f59e0d18c640011e7ac0b,13:39:44,06/03/2024
4135.0,,,ospan,symmetry,r8IbsS15H5hZX5BoUFDLrd3SwFk2,symmetry-judgement-task,143,817663,0.0-43.0-5.0-0.0-1.0-2.0,,,,,,,,,,1.0,1.0,,,,567f59e0d18c640011e7ac0b,13:39:44,06/03/2024
,"<div style=""font-size: 10rem; color: #0000FF"">K</div>",,ospan,letter,r8IbsS15H5hZX5BoUFDLrd3SwFk2,html-keyboard-response,144,818680,0.0-43.0-5.0-0.0-1.0-3.0,,,,,,,,,,,,,,,567f59e0d18c640011e7ac0b,13:39:44,06/03/2024
6493.0,,,ospan,symmetry,r8IbsS15H5hZX5BoUFDLrd3SwFk2,symmetry-judgement-task,145,827563,0.0-43.0-5.0-0.0-1.0-4.0,,,,,,,,,,1.0,1.0,,,,567f59e0d18c640011e7ac0b,13:39:44,06/03/2024
,"<div style=""font-size: 10rem; color: #0000FF"">Q</div>",,ospan,letter,r8IbsS15H5hZX5BoUFDLrd3SwFk2,html-keyboard-response,146,828572,0.0-43.0-5.0-0.0-1.0-5.0,,,,,,,,,,,,,,,567f59e0d18c640011e7ac0b,13:39:44,06/03/2024
3332.0,,,ospan,symmetry,r8IbsS15H5hZX5BoUFDLrd3SwFk2,symmetry-judgement-task,147,834260,0.0-43.0-5.0-0.0-1.0-6.0,,,,,,,,,,1.0,1.0,,,,567f59e0d18c640011e7ac0b,13:39:44,06/03/2024
,"<div style=""font-size: 10rem; color: #0000FF"">L</div>",,ospan,letter,r8IbsS15H5hZX5BoUFDLrd3SwFk2,html-keyboard-response,148,835263,0.0-43.0-5.0-0.0-1.0-7.0,,,,,,,,,,,,,,,567f59e0d18c640011e7ac0b,13:39:44,06/03/2024
5149.0,,,ospan,symmetry,r8IbsS15H5hZX5BoUFDLrd3SwFk2,symmetry-judgement-task,149,842752,0.0-43.0-5.0-0.0-1.0-8.0,,,,,,,,,,1.0,1.0,,,,567f59e0d18c640011e7ac0b,13:39:44,06/03/2024
,"<div style=""font-size: 10rem; color: #0000FF"">G</div>",,ospan,letter,r8IbsS15H5hZX5BoUFDLrd3SwFk2,html-keyboard-response,150,843763,0.0-43.0-5.0-0.0-1.0-9.0,,,,,,,,,,,,,,,567f59e0d18c640011e7ac0b,13:39:44,06/03/2024
4152.0,,,ospan,symmetry,r8IbsS15H5hZX5BoUFDLrd3SwFk2,symmetry-judgement-task,151,850310,0.0-43.0-5.0-0.0-1.0-10.0,,,,,,,,,,1.0,1.0,,,,567f59e0d18c640011e7ac0b,13:39:44,06/03/2024
,"<div style=""font-size: 10rem; color: #0000FF"">N</div>",,ospan,letter,r8IbsS15H5hZX5BoUFDLrd3SwFk2,html-keyboard-response,152,851314,0.0-43.0-5.0-0.0-1.0-11.0,,,,,,,,,,,,,,,567f59e0d18c640011e7ac0b,13:39:44,06/03/2024
7857.5,"<div class = numbox><p style=""font-size: 2.4rem"">Please recall the letters you saw to the best of your ability. If you do not remember a particular letter, use the SKIP button.<br><b>(When you are ready to lock in your answer, press ENTER)</b></p><button id = button_1 class = ""square num-button"" onclick = ""recordClick(this)""><div class = content><div class = numbers>C</div></div></button><button id = button_2 class = ""square num-button"" onclick = ""recordClick(this)""><div class = content><div class = numbers>G</div></div></button><button id = button_3 class = ""square num-button"" onclick = ""recordClick(this)""><div class = content><div class = numbers>H</div></div></button><button id = button_4 class = ""square num-button"" onclick = ""recordClick(this)""><div class = content><div class = numbers>J</div></div></button><button id = button_5 class = ""square num-button"" onclick = ""recordClick(this)""><div class = content><div class = numbers>K</div></div></button><button id = button_6 class = ""square num-button"" onclick = ""recordClick(this)""><div class = content><div class = numbers>L</div></div></button><button id = button_7 class = ""square num-button"" onclick = ""recordClick(this)""><div class = content><div class = numbers>N</div></div></button><button id = button_8 class = ""square num-button"" onclick = ""recordClick(this)""><div class = content><div class = numbers>P</div></div></button><button id = button_9 class = ""square num-button"" onclick = ""recordClick(this)""><div class = content><div class = numbers>Q</div></div></button><button id = button_10 class = ""square num-button"" onclick = ""recordClick(this)""><div class = content><div class = numbers>R</div></div></button><button id = button_11 class = ""square num-button"" onclick = ""recordClick(this)""><div class = content><div class = numbers>S</div></div></button><button id = button_12 class = ""square num-button"" onclick = ""recordClick(this)""><div class = content><div class = numbers>Y</div></div></button><button class = clear_button id = ""ClearButton"" onclick = ""clearResponse()"">BACKSPACE</button><button class = blank_button id = ""BlankButton"" onclick = ""blankResponse()"">SKIP</button><p style=""font-size: 2.4rem""><u><b>Current Answer:</b></u></p><br><br><div id=echoed_txt style=""font-size: 5rem; color:blue;""><b></b></div></div>",enter,ospan,retrieval,r8IbsS15H5hZX5BoUFDLrd3SwFk2,html-keyboard-response,153,859939,0.0-43.0-5.0-0.0-2.0,21,19,15,6.0,"[""J"",""K"",""Q"",""L"",""N""]","[""J"",""K"",""Q"",""L"",""G"",""N""]",0.0,4.0,,,,,,,567f59e0d18c640011e7ac0b,13:39:44,06/03/2024
1592.2000000029802,[''],0,ospan,feedback,r8IbsS15H5hZX5BoUFDLrd3SwFk2,html-button-response,154,862040,0.0-43.0-5.0-0.0-3.0,,,,,,,,,,,,90.0,0.0,,567f59e0d18c640011e7ac0b,13:39:44,06/03/2024
,"<p style=""font-size:75px;"">...</p>",,ospan,iti,r8IbsS15H5hZX5BoUFDLrd3SwFk2,html-keyboard-response,155,863045,0.0-43.0-5.0-1.0-0.0,,,,,,,,,,,,,,,567f59e0d18c640011e7ac0b,13:39:44,06/03/2024
3560.0,,,ospan,symmetry,r8IbsS15H5hZX5BoUFDLrd3SwFk2,symmetry-judgement-task,156,868180,0.0-43.0-5.0-1.0-1.0-0.0,,,,,,,,,,1.0,1.0,,,,567f59e0d18c640011e7ac0b,13:39:44,06/03/2024
,"<div style=""font-size: 10rem; color: #0000FF"">R</div>",,ospan,letter,r8IbsS15H5hZX5BoUFDLrd3SwFk2,html-keyboard-response,157,869196,0.0-43.0-5.0-1.0-1.0-1.0,,,,,,,,,,,,,,,567f59e0d18c640011e7ac0b,13:39:44,06/03/2024
3273.0,,,ospan,symmetry,r8IbsS15H5hZX5BoUFDLrd3SwFk2,symmetry-judgement-task,158,874819,0.0-43.0-5.0-1.0-1.0-2.0,,,,,,,,,,1.0,1.0,,,,567f59e0d18c640011e7ac0b,13:39:44,06/03/2024
,"<div style=""font-size: 10rem; color: #0000FF"">Q</div>",,ospan,letter,r8IbsS15H5hZX5BoUFDLrd3SwFk2,html-keyboard-response,159,875832,0.0-43.0-5.0-1.0-1.0-3.0,,,,,,,,,,,,,,,567f59e0d18c640011e7ac0b,13:39:44,06/03/2024
3084.0,,,ospan,symmetry,r8IbsS15H5hZX5BoUFDLrd3SwFk2,symmetry-judgement-task,160,881303,0.0-43.0-5.0-1.0-1.0-4.0,,,,,,,,,,0.0,0.0,,,,567f59e0d18c640011e7ac0b,13:39:44,06/03/2024
,"<div style=""font-size: 10rem; color: #0000FF"">K</div>",,ospan,letter,r8IbsS15H5hZX5BoUFDLrd3SwFk2,html-keyboard-response,161,882312,0.0-43.0-5.0-1.0-1.0-5.0,,,,,,,,,,,,,,,567f59e0d18c640011e7ac0b,13:39:44,06/03/2024
3433.0,,,ospan,symmetry,r8IbsS15H5hZX5BoUFDLrd3SwFk2,symmetry-judgement-task,162,888194,0.0-43.0-5.0-1.0-1.0-6.0,,,,,,,,,,1.0,1.0,,,,567f59e0d18c640011e7ac0b,13:39:44,06/03/2024
,"<div style=""font-size: 10rem; color: #0000FF"">P</div>",,ospan,letter,r8IbsS15H5hZX5BoUFDLrd3SwFk2,html-keyboard-response,163,889210,0.0-43.0-5.0-1.0-1.0-7.0,,,,,,,,,,,,,,,567f59e0d18c640011e7ac0b,13:39:44,06/03/2024
2324.0,,,ospan,symmetry,r8IbsS15H5hZX5BoUFDLrd3SwFk2,symmetry-judgement-task,164,893892,0.0-43.0-5.0-1.0-1.0-8.0,,,,,,,,,,1.0,1.0,,,,567f59e0d18c640011e7ac0b,13:39:44,06/03/2024
,"<div style=""font-size: 10rem; color: #0000FF"">J</div>",,ospan,letter,r8IbsS15H5hZX5BoUFDLrd3SwFk2,html-keyboard-response,165,894894,0.0-43.0-5.0-1.0-1.0-9.0,,,,,,,,,,,,,,,567f59e0d18c640011e7ac0b,13:39:44,06/03/2024
3210.0,,,ospan,symmetry,r8IbsS15H5hZX5BoUFDLrd3SwFk2,symmetry-judgement-task,166,900492,0.0-43.0-5.0-1.0-1.0-10.0,,,,,,,,,,1.0,1.0,,,,567f59e0d18c640011e7ac0b,13:39:44,06/03/2024
,"<div style=""font-size: 10rem; color: #0000FF"">N</div>",,ospan,letter,r8IbsS15H5hZX5BoUFDLrd3SwFk2,html-keyboard-response,167,901506,0.0-43.0-5.0-1.0-1.0-11.0,,,,,,,,,,,,,,,567f59e0d18c640011e7ac0b,13:39:44,06/03/2024
3572.0,,,ospan,symmetry,r8IbsS15H5hZX5BoUFDLrd3SwFk2,symmetry-judgement-task,168,907406,0.0-43.0-5.0-1.0-1.0-12.0,,,,,,,,,,1.0,1.0,,,,567f59e0d18c640011e7ac0b,13:39:44,06/03/2024
,"<div style=""font-size: 10rem; color: #0000FF"">S</div>",,ospan,letter,r8IbsS15H5hZX5BoUFDLrd3SwFk2,html-keyboard-response,169,908411,0.0-43.0-5.0-1.0-1.0-13.0,,,,,,,,,,,,,,,567f59e0d18c640011e7ac0b,13:39:44,06/03/2024
9935.79999999702,"<div class = numbox><p style=""font-size: 2.4rem"">Please recall the letters you saw to the best of your ability. If you do not remember a particular letter, use the SKIP button.<br><b>(When you are ready to lock in your answer, press ENTER)</b></p><button id = button_1 class = ""square num-button"" onclick = ""recordClick(this)""><div class = content><div class = numbers>C</div></div></button><button id = button_2 class = ""square num-button"" onclick = ""recordClick(this)""><div class = content><div class = numbers>G</div></div></button><button id = button_3 class = ""square num-button"" onclick = ""recordClick(this)""><div class = content><div class = numbers>H</div></div></button><button id = button_4 class = ""square num-button"" onclick = ""recordClick(this)""><div class = content><div class = numbers>J</div></div></button><button id = button_5 class = ""square num-button"" onclick = ""recordClick(this)""><div class = content><div class = numbers>K</div></div></button><button id = button_6 class = ""square num-button"" onclick = ""recordClick(this)""><div class = content><div class = numbers>L</div></div></button><button id = button_7 class = ""square num-button"" onclick = ""recordClick(this)""><div class = content><div class = numbers>N</div></div></button><button id = button_8 class = ""square num-button"" onclick = ""recordClick(this)""><div class = content><div class = numbers>P</div></div></button><button id = button_9 class = ""square num-button"" onclick = ""recordClick(this)""><div class = content><div class = numbers>Q</div></div></button><button id = button_10 class = ""square num-button"" onclick = ""recordClick(this)""><div class = content><div class = numbers>R</div></div></button><button id = button_11 class = ""square num-button"" onclick = ""recordClick(this)""><div class = content><div class = numbers>S</div></div></button><button id = button_12 class = ""square num-button"" onclick = ""recordClick(this)""><div class = content><div class = numbers>Y</div></div></button><button class = clear_button id = ""ClearButton"" onclick = ""clearResponse()"">BACKSPACE</button><button class = blank_button id = ""BlankButton"" onclick = ""blankResponse()"">SKIP</button><p style=""font-size: 2.4rem""><u><b>Current Answer:</b></u></p><br><br><div id=echoed_txt style=""font-size: 5rem; color:blue;""><b></b></div></div>",enter,ospan,retrieval,r8IbsS15H5hZX5BoUFDLrd3SwFk2,html-keyboard-response,170,919113,0.0-43.0-5.0-1.0-2.0,28,21,15,7.0,"[""R"",""Q"",""P"",""J"",""N"",""S""]","[""R"",""Q"",""K"",""P"",""J"",""N"",""S""]",0.0,2.0,,,,,,,567f59e0d18c640011e7ac0b,13:39:44,06/03/2024
1490.7000000029802,[''],0,ospan,feedback,r8IbsS15H5hZX5BoUFDLrd3SwFk2,html-button-response,171,921108,0.0-43.0-5.0-1.0-3.0,,,,,,,,,,,,89.0,0.0,,567f59e0d18c640011e7ac0b,13:39:44,06/03/2024
,"<p style=""font-size:75px;"">...</p>",,ospan,iti,r8IbsS15H5hZX5BoUFDLrd3SwFk2,html-keyboard-response,172,922119,0.0-43.0-6.0-0.0-0.0,,,,,,,,,,,,,,,567f59e0d18c640011e7ac0b,13:39:44,06/03/2024
3393.0,,,ospan,symmetry,r8IbsS15H5hZX5BoUFDLrd3SwFk2,symmetry-judgement-task,173,927121,0.0-43.0-6.0-0.0-1.0-0.0,,,,,,,,,,1.0,1.0,,,,567f59e0d18c640011e7ac0b,13:39:44,06/03/2024
,"<div style=""font-size: 10rem; color: #0000FF"">N</div>",,ospan,letter,r8IbsS15H5hZX5BoUFDLrd3SwFk2,html-keyboard-response,174,928126,0.0-43.0-6.0-0.0-1.0-1.0,,,,,,,,,,,,,,,567f59e0d18c640011e7ac0b,13:39:44,06/03/2024
3351.0,,,ospan,symmetry,r8IbsS15H5hZX5BoUFDLrd3SwFk2,symmetry-judgement-task,175,933858,0.0-43.0-6.0-0.0-1.0-2.0,,,,,,,,,,1.0,1.0,,,,567f59e0d18c640011e7ac0b,13:39:44,06/03/2024
,"<div style=""font-size: 10rem; color: #0000FF"">G</div>",,ospan,letter,r8IbsS15H5hZX5BoUFDLrd3SwFk2,html-keyboard-response,176,934874,0.0-43.0-6.0-0.0-1.0-3.0,,,,,,,,,,,,,,,567f59e0d18c640011e7ac0b,13:39:44,06/03/2024
2574.0,,,ospan,symmetry,r8IbsS15H5hZX5BoUFDLrd3SwFk2,symmetry-judgement-task,177,939823,0.0-43.0-6.0-0.0-1.0-4.0,,,,,,,,,,1.0,1.0,,,,567f59e0d18c640011e7ac0b,13:39:44,06/03/2024
,"<div style=""font-size: 10rem; color: #0000FF"">R</div>",,ospan,letter,r8IbsS15H5hZX5BoUFDLrd3SwFk2,html-keyboard-response,178,940826,0.0-43.0-6.0-0.0-1.0-5.0,,,,,,,,,,,,,,,567f59e0d18c640011e7ac0b,13:39:44,06/03/2024
2271.0,,,ospan,symmetry,r8IbsS15H5hZX5BoUFDLrd3SwFk2,symmetry-judgement-task,179,945474,0.0-43.0-6.0-0.0-1.0-6.0,,,,,,,,,,1.0,1.0,,,,567f59e0d18c640011e7ac0b,13:39:44,06/03/2024
,"<div style=""font-size: 10rem; color: #0000FF"">L</div>",,ospan,letter,r8IbsS15H5hZX5BoUFDLrd3SwFk2,html-keyboard-response,180,946475,0.0-43.0-6.0-0.0-1.0-7.0,,,,,,,,,,,,,,,567f59e0d18c640011e7ac0b,13:39:44,06/03/2024
3875.0,,,ospan,symmetry,r8IbsS15H5hZX5BoUFDLrd3SwFk2,symmetry-judgement-task,181,952989,0.0-43.0-6.0-0.0-1.0-8.0,,,,,,,,,,1.0,1.0,,,,567f59e0d18c640011e7ac0b,13:39:44,06/03/2024
,"<div style=""font-size: 10rem; color: #0000FF"">J</div>",,ospan,letter,r8IbsS15H5hZX5BoUFDLrd3SwFk2,html-keyboard-response,182,953992,0.0-43.0-6.0-0.0-1.0-9.0,,,,,,,,,,,,,,,567f59e0d18c640011e7ac0b,13:39:44,06/03/2024
10896.70000000298,"<div class = numbox><p style=""font-size: 2.4rem"">Please recall the letters you saw to the best of your ability. If you do not remember a particular letter, use the SKIP button.<br><b>(When you are ready to lock in your answer, press ENTER)</b></p><button id = button_1 class = ""square num-button"" onclick = ""recordClick(this)""><div class = content><div class = numbers>C</div></div></button><button id = button_2 class = ""square num-button"" onclick = ""recordClick(this)""><div class = content><div class = numbers>G</div></div></button><button id = button_3 class = ""square num-button"" onclick = ""recordClick(this)""><div class = content><div class = numbers>H</div></div></button><button id = button_4 class = ""square num-button"" onclick = ""recordClick(this)""><div class = content><div class = numbers>J</div></div></button><button id = button_5 class = ""square num-button"" onclick = ""recordClick(this)""><div class = content><div class = numbers>K</div></div></button><button id = button_6 class = ""square num-button"" onclick = ""recordClick(this)""><div class = content><div class = numbers>L</div></div></button><button id = button_7 class = ""square num-button"" onclick = ""recordClick(this)""><div class = content><div class = numbers>N</div></div></button><button id = button_8 class = ""square num-button"" onclick = ""recordClick(this)""><div class = content><div class = numbers>P</div></div></button><button id = button_9 class = ""square num-button"" onclick = ""recordClick(this)""><div class = content><div class = numbers>Q</div></div></button><button id = button_10 class = ""square num-button"" onclick = ""recordClick(this)""><div class = content><div class = numbers>R</div></div></button><button id = button_11 class = ""square num-button"" onclick = ""recordClick(this)""><div class = content><div class = numbers>S</div></div></button><button id = button_12 class = ""square num-button"" onclick = ""recordClick(this)""><div class = content><div class = numbers>Y</div></div></button><button class = clear_button id = ""ClearButton"" onclick = ""clearResponse()"">BACKSPACE</button><button class = blank_button id = ""BlankButton"" onclick = ""blankResponse()"">SKIP</button><p style=""font-size: 2.4rem""><u><b>Current Answer:</b></u></p><br><br><div id=echoed_txt style=""font-size: 5rem; color:blue;""><b></b></div></div>",enter,ospan,retrieval,r8IbsS15H5hZX5BoUFDLrd3SwFk2,html-keyboard-response,183,965641,0.0-43.0-6.0-0.0-2.0,33,26,20,5.0,"[""N"",""G"",""R"",""L"",""J""]","[""N"",""G"",""R"",""L"",""J""]",1.0,5.0,,,,,,,567f59e0d18c640011e7ac0b,13:39:44,06/03/2024
1208.3999999985099,[''],0,ospan,feedback,r8IbsS15H5hZX5BoUFDLrd3SwFk2,html-button-response,184,967352,0.0-43.0-6.0-0.0-3.0,,,,,,,,,,,,91.0,0.0,,567f59e0d18c640011e7ac0b,13:39:44,06/03/2024
,"<p style=""font-size:75px;"">...</p>",,ospan,iti,r8IbsS15H5hZX5BoUFDLrd3SwFk2,html-keyboard-response,185,968357,0.0-43.0-6.0-1.0-0.0,,,,,,,,,,,,,,,567f59e0d18c640011e7ac0b,13:39:44,06/03/2024
7060.0,,,ospan,symmetry,r8IbsS15H5hZX5BoUFDLrd3SwFk2,symmetry-judgement-task,186,976537,0.0-43.0-6.0-1.0-1.0-0.0,,,,,,,,,,1.0,1.0,,,,567f59e0d18c640011e7ac0b,13:39:44,06/03/2024
,"<div style=""font-size: 10rem; color: #0000FF"">H</div>",,ospan,letter,r8IbsS15H5hZX5BoUFDLrd3SwFk2,html-keyboard-response,187,977554,0.0-43.0-6.0-1.0-1.0-1.0,,,,,,,,,,,,,,,567f59e0d18c640011e7ac0b,13:39:44,06/03/2024
3606.0,,,ospan,symmetry,r8IbsS15H5hZX5BoUFDLrd3SwFk2,symmetry-judgement-task,188,983618,0.0-43.0-6.0-1.0-1.0-2.0,,,,,,,,,,1.0,1.0,,,,567f59e0d18c640011e7ac0b,13:39:44,06/03/2024
,"<div style=""font-size: 10rem; color: #0000FF"">R</div>",,ospan,letter,r8IbsS15H5hZX5BoUFDLrd3SwFk2,html-keyboard-response,189,984622,0.0-43.0-6.0-1.0-1.0-3.0,,,,,,,,,,,,,,,567f59e0d18c640011e7ac0b,13:39:44,06/03/2024
2424.0,,,ospan,symmetry,r8IbsS15H5hZX5BoUFDLrd3SwFk2,symmetry-judgement-task,190,989389,0.0-43.0-6.0-1.0-1.0-4.0,,,,,,,,,,1.0,1.0,,,,567f59e0d18c640011e7ac0b,13:39:44,06/03/2024
,"<div style=""font-size: 10rem; color: #0000FF"">Q</div>",,ospan,letter,r8IbsS15H5hZX5BoUFDLrd3SwFk2,html-keyboard-response,191,990405,0.0-43.0-6.0-1.0-1.0-5.0,,,,,,,,,,,,,,,567f59e0d18c640011e7ac0b,13:39:44,06/03/2024
4226.0,,,ospan,symmetry,r8IbsS15H5hZX5BoUFDLrd3SwFk2,symmetry-judgement-task,192,996963,0.0-43.0-6.0-1.0-1.0-6.0,,,,,,,,,,1.0,1.0,,,,567f59e0d18c640011e7ac0b,13:39:44,06/03/2024
,"<div style=""font-size: 10rem; color: #0000FF"">P</div>",,ospan,letter,r8IbsS15H5hZX5BoUFDLrd3SwFk2,html-keyboard-response,193,997972,0.0-43.0-6.0-1.0-1.0-7.0,,,,,,,,,,,,,,,567f59e0d18c640011e7ac0b,13:39:44,06/03/2024
3439.0,,,ospan,symmetry,r8IbsS15H5hZX5BoUFDLrd3SwFk2,symmetry-judgement-task,194,1003801,0.0-43.0-6.0-1.0-1.0-8.0,,,,,,,,,,1.0,1.0,,,,567f59e0d18c640011e7ac0b,13:39:44,06/03/2024
,"<div style=""font-size: 10rem; color: #0000FF"">C</div>",,ospan,letter,r8IbsS15H5hZX5BoUFDLrd3SwFk2,html-keyboard-response,195,1004805,0.0-43.0-6.0-1.0-1.0-9.0,,,,,,,,,,,,,,,567f59e0d18c640011e7ac0b,13:39:44,06/03/2024
2548.0,,,ospan,symmetry,r8IbsS15H5hZX5BoUFDLrd3SwFk2,symmetry-judgement-task,196,1009745,0.0-43.0-6.0-1.0-1.0-10.0,,,,,,,,,,1.0,1.0,,,,567f59e0d18c640011e7ac0b,13:39:44,06/03/2024
,"<div style=""font-size: 10rem; color: #0000FF"">J</div>",,ospan,letter,r8IbsS15H5hZX5BoUFDLrd3SwFk2,html-keyboard-response,197,1010753,0.0-43.0-6.0-1.0-1.0-11.0,,,,,,,,,,,,,,,567f59e0d18c640011e7ac0b,13:39:44,06/03/2024
2906.0,,,ospan,symmetry,r8IbsS15H5hZX5BoUFDLrd3SwFk2,symmetry-judgement-task,198,1016091,0.0-43.0-6.0-1.0-1.0-12.0,,,,,,,,,,1.0,1.0,,,,567f59e0d18c640011e7ac0b,13:39:44,06/03/2024
,"<div style=""font-size: 10rem; color: #0000FF"">S</div>",,ospan,letter,r8IbsS15H5hZX5BoUFDLrd3SwFk2,html-keyboard-response,199,1017104,0.0-43.0-6.0-1.0-1.0-13.0,,,,,,,,,,,,,,,567f59e0d18c640011e7ac0b,13:39:44,06/03/2024
3764.0,,,ospan,symmetry,r8IbsS15H5hZX5BoUFDLrd3SwFk2,symmetry-judgement-task,200,1023215,0.0-43.0-6.0-1.0-1.0-14.0,,,,,,,,,,1.0,1.0,,,,567f59e0d18c640011e7ac0b,13:39:44,06/03/2024
,"<div style=""font-size: 10rem; color: #0000FF"">G</div>",,ospan,letter,r8IbsS15H5hZX5BoUFDLrd3SwFk2,html-keyboard-response,201,1024227,0.0-43.0-6.0-1.0-1.0-15.0,,,,,,,,,,,,,,,567f59e0d18c640011e7ac0b,13:39:44,06/03/2024
11024.89999999851,"<div class = numbox><p style=""font-size: 2.4rem"">Please recall the letters you saw to the best of your ability. If you do not remember a particular letter, use the SKIP button.<br><b>(When you are ready to lock in your answer, press ENTER)</b></p><button id = button_1 class = ""square num-button"" onclick = ""recordClick(this)""><div class = content><div class = numbers>C</div></div></button><button id = button_2 class = ""square num-button"" onclick = ""recordClick(this)""><div class = content><div class = numbers>G</div></div></button><button id = button_3 class = ""square num-button"" onclick = ""recordClick(this)""><div class = content><div class = numbers>H</div></div></button><button id = button_4 class = ""square num-button"" onclick = ""recordClick(this)""><div class = content><div class = numbers>J</div></div></button><button id = button_5 class = ""square num-button"" onclick = ""recordClick(this)""><div class = content><div class = numbers>K</div></div></button><button id = button_6 class = ""square num-button"" onclick = ""recordClick(this)""><div class = content><div class = numbers>L</div></div></button><button id = button_7 class = ""square num-button"" onclick = ""recordClick(this)""><div class = content><div class = numbers>N</div></div></button><button id = button_8 class = ""square num-button"" onclick = ""recordClick(this)""><div class = content><div class = numbers>P</div></div></button><button id = button_9 class = ""square num-button"" onclick = ""recordClick(this)""><div class = content><div class = numbers>Q</div></div></button><button id = button_10 class = ""square num-button"" onclick = ""recordClick(this)""><div class = content><div class = numbers>R</div></div></button><button id = button_11 class = ""square num-button"" onclick = ""recordClick(this)""><div class = content><div class = numbers>S</div></div></button><button id = button_12 class = ""square num-button"" onclick = ""recordClick(this)""><div class = content><div class = numbers>Y</div></div></button><button class = clear_button id = ""ClearButton"" onclick = ""clearResponse()"">BACKSPACE</button><button class = blank_button id = ""BlankButton"" onclick = ""blankResponse()"">SKIP</button><p style=""font-size: 2.4rem""><u><b>Current Answer:</b></u></p><br><br><div id=echoed_txt style=""font-size: 5rem; color:blue;""><b></b></div></div>",enter,ospan,retrieval,r8IbsS15H5hZX5BoUFDLrd3SwFk2,html-keyboard-response,202,1036013,0.0-43.0-6.0-1.0-2.0,41,31,20,8.0,"[""H"",""R"",""Q"",""P"",""S"",""J"",""C""]","[""H"",""R"",""Q"",""P"",""C"",""J"",""S"",""G""]",0.0,5.0,,,,,,,567f59e0d18c640011e7ac0b,13:39:44,06/03/2024
1978.0,[''],0,ospan,feedback,r8IbsS15H5hZX5BoUFDLrd3SwFk2,html-button-response,203,1038501,0.0-43.0-6.0-1.0-3.0,,,,,,,,,,,,93.0,0.0,,567f59e0d18c640011e7ac0b,13:39:44,06/03/2024
5584.70000000298,,{'Q0': 'none'},ospan,survey_ospan,r8IbsS15H5hZX5BoUFDLrd3SwFk2,lmdlab-survey-text,204,1044850,0.0-43.0-7.0,,,,,,,,,,,,,,r8IbsS15H5hZX5BoUFDLrd3SwFk2,567f59e0d18c640011e7ac0b,13:39:44,06/03/2024
1390.7000000029802,<p><p style='font-size: 3rem'>Great work!<br><br>This completes the symmetry and memory task.</p><br><br><br>,0,ospan,finish,r8IbsS15H5hZX5BoUFDLrd3SwFk2,html-button-response,205,1046246,0.0-43.0-8.0,41,31,20,,,,,,,,,93.0,,,567f59e0d18c640011e7ac0b,13:39:44,06/03/2024
