rt,stimulus,response,exp_name,exp_stage,subjectID,trial_type,trial_index,time_elapsed,internal_node_id,ospan_shown,ospan_total,ospan_abs,length,resp_actual,resp_correct,full_correct,num_correct,feedback,accuracy,correct,math_acc,math_warning,databaseID,prolificID,start_time,date
3838.5,<div class = 'left_align' style='font-size: 3.25rem; line-height: 1.3;'><p class = 'center_align'><b>Welcome to the Symmetry and Memory Task</b><br><br><br><br></p>Press 'continue' to show the instructions.<br><br><br><br></div>,0,ospan,instruct,4240YWS7BWVdP8Q3FAhTF6Zk9Pf1,html-button-response,54,660408,0.0-46.0-0.0-0.0-0.0,,,,,,,,,,,,,,,657867e466a237b839df006a,10:41:03,03/04/2024
16512.099999904633,"<div class = 'left_align' style='font-size: 3.25rem; line-height: 1.3;'><p class = 'center_align'><b>Symmetry and Memory Task</b><br><br></p>In this task, you will try to memorize letters you see on the screen<br>while you also view black and white grid pictures.<br><br>In the next few minutes, you will have some practice to get you familiar<br>with how the task works.<br><br>It may be difficult sometimes, but please do not worry about making mistakes!<br><br>We will begin by practicing the letter part of the task.<br><br><br><br></div>",0,ospan,instruct,4240YWS7BWVdP8Q3FAhTF6Zk9Pf1,html-button-response,55,677173,0.0-46.0-0.0-0.0-1.0,,,,,,,,,,,,,,,657867e466a237b839df006a,10:41:03,03/04/2024
16840.799999952316,"<div class = 'left_align' style='font-size: 3.25rem; line-height: 1.3;'>For this practice part, letters will appear on the screen one at a time.<br><br>Try to remember each letter in the order presented.<br><br>After some letters have been shown, you will see a response screen. Your<br>goal is to report the letters you saw <b>in order</b>. If you do not remember<br>a particular letter, you will have the option to leave it blank.<br><br><br><br></div>",0,ospan,instruct,4240YWS7BWVdP8Q3FAhTF6Zk9Pf1,html-button-response,56,694273,0.0-46.0-0.0-0.0-2.0,,,,,,,,,,,,,,,657867e466a237b839df006a,10:41:03,03/04/2024
25672.699999928474,"<div class = 'left_align' style='font-size: 3.25rem; line-height: 1.3;'>Remember, it is very important to get the letters in the same<br>order as you see them.<br><br>When you are ready, you may begin the letter practice.</div><br><br><br><br>",0,ospan,instruct,4240YWS7BWVdP8Q3FAhTF6Zk9Pf1,html-button-response,57,720214,0.0-46.0-0.0-0.0-3.0,,,,,,,,,,,,,,,657867e466a237b839df006a,10:41:03,03/04/2024
,"<p style=""font-size:75px;"">...</p>",,ospan,iti,4240YWS7BWVdP8Q3FAhTF6Zk9Pf1,html-keyboard-response,58,721481,0.0-46.0-0.0-1.0-0.0,,,,,,,,,,,,,,,657867e466a237b839df006a,10:41:03,03/04/2024
,"<div style=""font-size: 10rem; color: #0000FF"">C</div>",,ospan,letter,4240YWS7BWVdP8Q3FAhTF6Zk9Pf1,html-keyboard-response,59,722492,0.0-46.0-0.0-1.0-1.0,,,,,,,,,,,,,,,657867e466a237b839df006a,10:41:03,03/04/2024
,"<div style=""font-size: 10rem; color: #0000FF"">K</div>",,ospan,letter,4240YWS7BWVdP8Q3FAhTF6Zk9Pf1,html-keyboard-response,60,724257,0.0-46.0-0.0-1.0-2.0,,,,,,,,,,,,,,,657867e466a237b839df006a,10:41:03,03/04/2024
27139.5,"<div class = numbox><p style=""font-size: 2.4rem"">Please recall the letters you saw to the best of your ability. If you do not remember a particular letter, use the SKIP button.<br><b>(When you are ready to lock in your answer, press ENTER)</b></p><button id = button_1 class = ""square num-button"" onclick = ""recordClick(this)""><div class = content><div class = numbers>C</div></div></button><button id = button_2 class = ""square num-button"" onclick = ""recordClick(this)""><div class = content><div class = numbers>G</div></div></button><button id = button_3 class = ""square num-button"" onclick = ""recordClick(this)""><div class = content><div class = numbers>H</div></div></button><button id = button_4 class = ""square num-button"" onclick = ""recordClick(this)""><div class = content><div class = numbers>J</div></div></button><button id = button_5 class = ""square num-button"" onclick = ""recordClick(this)""><div class = content><div class = numbers>K</div></div></button><button id = button_6 class = ""square num-button"" onclick = ""recordClick(this)""><div class = content><div class = numbers>L</div></div></button><button id = button_7 class = ""square num-button"" onclick = ""recordClick(this)""><div class = content><div class = numbers>N</div></div></button><button id = button_8 class = ""square num-button"" onclick = ""recordClick(this)""><div class = content><div class = numbers>P</div></div></button><button id = button_9 class = ""square num-button"" onclick = ""recordClick(this)""><div class = content><div class = numbers>Q</div></div></button><button id = button_10 class = ""square num-button"" onclick = ""recordClick(this)""><div class = content><div class = numbers>R</div></div></button><button id = button_11 class = ""square num-button"" onclick = ""recordClick(this)""><div class = content><div class = numbers>S</div></div></button><button id = button_12 class = ""square num-button"" onclick = ""recordClick(this)""><div class = content><div class = numbers>Y</div></div></button><button class = clear_button id = ""ClearButton"" onclick = ""clearResponse()"">BACKSPACE</button><button class = blank_button id = ""BlankButton"" onclick = ""blankResponse()"">SKIP</button><p style=""font-size: 2.4rem""><u><b>Current Answer:</b></u></p><br><br><div id=echoed_txt style=""font-size: 5rem; color:blue;""><b></b></div></div>",enter,ospan,retrieval,4240YWS7BWVdP8Q3FAhTF6Zk9Pf1,html-keyboard-response,61,752159,0.0-46.0-0.0-1.0-3.0,NA,NA,NA,2.0,"[""K""]","[""C"",""K""]",0.0,0.0,"['<font color=""red"">C</font>', '<font color=""red"">K</font>']",,,,,,657867e466a237b839df006a,10:41:03,03/04/2024
7264.799999952316,"['<p style=""font-size:44px"">Letters:<br><br><br><font color=""red"">C</font> <font color=""red"">K</font></p><br><br>']",0,ospan,practice_feedback,4240YWS7BWVdP8Q3FAhTF6Zk9Pf1,html-button-response,62,759943,0.0-46.0-0.0-1.0-4.0,,,,,,,,,,,,,,,657867e466a237b839df006a,10:41:03,03/04/2024
,"<p style=""font-size:75px;"">...</p>",,ospan,iti,4240YWS7BWVdP8Q3FAhTF6Zk9Pf1,html-keyboard-response,63,760945,0.0-46.0-0.0-2.0-0.0,,,,,,,,,,,,,,,657867e466a237b839df006a,10:41:03,03/04/2024
,"<div style=""font-size: 10rem; color: #0000FF"">R</div>",,ospan,letter,4240YWS7BWVdP8Q3FAhTF6Zk9Pf1,html-keyboard-response,64,761948,0.0-46.0-0.0-2.0-1.0,,,,,,,,,,,,,,,657867e466a237b839df006a,10:41:03,03/04/2024
,"<div style=""font-size: 10rem; color: #0000FF"">C</div>",,ospan,letter,4240YWS7BWVdP8Q3FAhTF6Zk9Pf1,html-keyboard-response,65,763719,0.0-46.0-0.0-2.0-2.0,,,,,,,,,,,,,,,657867e466a237b839df006a,10:41:03,03/04/2024
,"<div style=""font-size: 10rem; color: #0000FF"">Y</div>",,ospan,letter,4240YWS7BWVdP8Q3FAhTF6Zk9Pf1,html-keyboard-response,66,765488,0.0-46.0-0.0-2.0-3.0,,,,,,,,,,,,,,,657867e466a237b839df006a,10:41:03,03/04/2024
9164.5,"<div class = numbox><p style=""font-size: 2.4rem"">Please recall the letters you saw to the best of your ability. If you do not remember a particular letter, use the SKIP button.<br><b>(When you are ready to lock in your answer, press ENTER)</b></p><button id = button_1 class = ""square num-button"" onclick = ""recordClick(this)""><div class = content><div class = numbers>C</div></div></button><button id = button_2 class = ""square num-button"" onclick = ""recordClick(this)""><div class = content><div class = numbers>G</div></div></button><button id = button_3 class = ""square num-button"" onclick = ""recordClick(this)""><div class = content><div class = numbers>H</div></div></button><button id = button_4 class = ""square num-button"" onclick = ""recordClick(this)""><div class = content><div class = numbers>J</div></div></button><button id = button_5 class = ""square num-button"" onclick = ""recordClick(this)""><div class = content><div class = numbers>K</div></div></button><button id = button_6 class = ""square num-button"" onclick = ""recordClick(this)""><div class = content><div class = numbers>L</div></div></button><button id = button_7 class = ""square num-button"" onclick = ""recordClick(this)""><div class = content><div class = numbers>N</div></div></button><button id = button_8 class = ""square num-button"" onclick = ""recordClick(this)""><div class = content><div class = numbers>P</div></div></button><button id = button_9 class = ""square num-button"" onclick = ""recordClick(this)""><div class = content><div class = numbers>Q</div></div></button><button id = button_10 class = ""square num-button"" onclick = ""recordClick(this)""><div class = content><div class = numbers>R</div></div></button><button id = button_11 class = ""square num-button"" onclick = ""recordClick(this)""><div class = content><div class = numbers>S</div></div></button><button id = button_12 class = ""square num-button"" onclick = ""recordClick(this)""><div class = content><div class = numbers>Y</div></div></button><button class = clear_button id = ""ClearButton"" onclick = ""clearResponse()"">BACKSPACE</button><button class = blank_button id = ""BlankButton"" onclick = ""blankResponse()"">SKIP</button><p style=""font-size: 2.4rem""><u><b>Current Answer:</b></u></p><br><br><div id=echoed_txt style=""font-size: 5rem; color:blue;""><b></b></div></div>",enter,ospan,retrieval,4240YWS7BWVdP8Q3FAhTF6Zk9Pf1,html-keyboard-response,67,775419,0.0-46.0-0.0-2.0-4.0,NA,NA,NA,3.0,"[""R"",""C"",""Y""]","[""R"",""C"",""Y""]",1.0,3.0,"['<font color=""green"">R</font>', '<font color=""green"">C</font>', '<font color=""green"">Y</font>']",,,,,,657867e466a237b839df006a,10:41:03,03/04/2024
7979.0,"['<p style=""font-size:44px"">Letters:<br><br><br><font color=""green"">R</font> <font color=""green"">C</font> <font color=""green"">Y</font></p><br><br>']",0,ospan,practice_feedback,4240YWS7BWVdP8Q3FAhTF6Zk9Pf1,html-button-response,68,783911,0.0-46.0-0.0-2.0-5.0,,,,,,,,,,,,,,,657867e466a237b839df006a,10:41:03,03/04/2024
13523.0,"<div class = 'left_align' style='font-size: 3.25rem; line-height: 1.3;'>Now you will practice doing the <b>symmetry judgment part</b> of the experiment.<br><br>A black and white grid picture will appear on the screen and you have to judge if it is <br>symmetrical or asymetrical.<br><br>A picture is 'mirror' symmetrical if its left half is identical to the right half when flipped.<br>Here are examples of a symmetrical and an asymetrical picture:<br><br><center><img src='Stimuli/img/symm_instructions_extra.png' style='height:420px; width:900'></img></center><br>To judge symmetry, imagine you were to fold each picture down the middle, like a book –<br>would the left half match the right half when folded onto each other?<br><br></div><br>",0,ospan,instruct,4240YWS7BWVdP8Q3FAhTF6Zk9Pf1,html-button-response,69,797436,0.0-46.0-1.0-0.0-0.0,,,,,,,,,,,,,,,657867e466a237b839df006a,10:41:03,03/04/2024
7548.299999952316,"<div class = 'left_align' style='font-size: 3.25rem; line-height: 1.3;'>When you have viewed the picture and determined whether it is symmetrical or not,<br>you can <b>click the Yes or No button</b> below to answer.<br><br>If you take longer than 15 seconds, it will continue automatically<br>and record the answer as an error.</div><br>",0,ospan,instruct,4240YWS7BWVdP8Q3FAhTF6Zk9Pf1,html-button-response,70,805250,0.0-46.0-1.0-0.0-1.0,,,,,,,,,,,,,,,657867e466a237b839df006a,10:41:03,03/04/2024
1610.6999999284744,"<div class = 'left_align' style='font-size: 3.25rem; line-height: 1.3;'>It is <b>very</b> important that you make the symmetry judgment correctly.<br><br>It is also important that you try and judge the picture as quickly as you can.<br><br>When you are ready, click on the button below to try some practice problems.</div><br><br><br><br>",0,ospan,instruct,4240YWS7BWVdP8Q3FAhTF6Zk9Pf1,html-button-response,71,807122,0.0-46.0-1.0-0.0-2.0,,,,,,,,,,,,,,,657867e466a237b839df006a,10:41:03,03/04/2024
3101.0,,,ospan,symmetry,4240YWS7BWVdP8Q3FAhTF6Zk9Pf1,symmetry-judgement-task,72,811116,0.0-46.0-1.0-1.0-0.0,,,,,,,,,,1.0,1.0,,,,657867e466a237b839df006a,10:41:03,03/04/2024
,"<p style=""color:green; font-size: 35px"">Correct</p>",,ospan,feedback,4240YWS7BWVdP8Q3FAhTF6Zk9Pf1,html-keyboard-response,73,811876,0.0-46.0-1.0-1.0-1.0,,,,,,,,,,,,,,,657867e466a237b839df006a,10:41:03,03/04/2024
2210.0,,,ospan,symmetry,4240YWS7BWVdP8Q3FAhTF6Zk9Pf1,symmetry-judgement-task,74,816868,0.0-46.0-1.0-1.0-2.0,,,,,,,,,,1.0,1.0,,,,657867e466a237b839df006a,10:41:03,03/04/2024
,"<p style=""color:green; font-size: 35px"">Correct</p>",,ospan,feedback,4240YWS7BWVdP8Q3FAhTF6Zk9Pf1,html-keyboard-response,75,817623,0.0-46.0-1.0-1.0-3.0,,,,,,,,,,,,,,,657867e466a237b839df006a,10:41:03,03/04/2024
2065.0,,,ospan,symmetry,4240YWS7BWVdP8Q3FAhTF6Zk9Pf1,symmetry-judgement-task,76,822470,0.0-46.0-1.0-1.0-4.0,,,,,,,,,,1.0,1.0,,,,657867e466a237b839df006a,10:41:03,03/04/2024
,"<p style=""color:green; font-size: 35px"">Correct</p>",,ospan,feedback,4240YWS7BWVdP8Q3FAhTF6Zk9Pf1,html-keyboard-response,77,823235,0.0-46.0-1.0-1.0-5.0,,,,,,,,,,,,,,,657867e466a237b839df006a,10:41:03,03/04/2024
2685.0,"<p style=""font-size: 3rem;"">You responded correctly on 3 of 3 symmetry judgments. Good job!</p><br><br>",0,ospan,practice,4240YWS7BWVdP8Q3FAhTF6Zk9Pf1,html-button-response,78,827930,0.0-46.0-1.0-2.0,,,,,,,,,,,,,,,657867e466a237b839df006a,10:41:03,03/04/2024
10607.5,"<div class = 'left_align' style='font-size: 3.25rem; line-height: 1.3;'>Now you will practice doing both parts of the experiment at the same time.<br><br>In the next practice set, you will be given one grid picture to judge.<br>Then letter will appear on the screen. Try to remember the letter.<br><br>It is <b>very important</b> to make the symmetry judgment as quickly and accurately as possible.<br><br>Just as before, once you have make the symmetry judgment, you can click Yes or No.<br><b>Note that you will no longer see Correct or Incorrect feedback.</div><br><br><br><br>",0,ospan,instruct,4240YWS7BWVdP8Q3FAhTF6Zk9Pf1,html-button-response,79,838797,0.0-46.0-2.0-0.0-0.0,,,,,,,,,,,,,,,657867e466a237b839df006a,10:41:03,03/04/2024
2969.899999976158,"<div class = 'left_align' style='font-size: 3.25rem; line-height: 1.3;'>After the letter goes away, another grid picture will appear, and then<br>another letter.<br><br>At the end of each set of letters and grids, you will recall the letters to the best<br>of your ability. Remember, try your best to get the letters in the correct order.<br><br>It is important to <b>quickly</b> and <b>accurately</b> make the symmetry judgments.</div><br><br><br><br>",0,ospan,instruct,4240YWS7BWVdP8Q3FAhTF6Zk9Pf1,html-button-response,80,842023,0.0-46.0-2.0-0.0-1.0,,,,,,,,,,,,,,,657867e466a237b839df006a,10:41:03,03/04/2024
10868.799999952316,"<div class = 'left_align' style='font-size: 3.25rem; line-height: 1.3;'>On the feedback screen, if you are not doing well at the symmetry judgments,<br>you will also see a warning in the middle. This indicates your percent <br>correct for the grid pictures for the entire experiment.<br><br>It is <b>very</b> important for you to keep accuracy at least at 85%: <u>We can only use<br>data where the participant was at least 85% accurate on the judgments.</u> Therefore,<br> please try your best to perform well on the symmetry judgments, <b>at the same time</b><br>doing your best to recall as many letters as possible.<br><br>Click the button to try some practice problems.</div><br><br><br><br>",0,ospan,instruct,4240YWS7BWVdP8Q3FAhTF6Zk9Pf1,html-button-response,81,853151,0.0-46.0-2.0-0.0-2.0,,,,,,,,,,,,,,,657867e466a237b839df006a,10:41:03,03/04/2024
,"<p style=""font-size:75px;"">...</p>",,ospan,iti,4240YWS7BWVdP8Q3FAhTF6Zk9Pf1,html-keyboard-response,82,854427,0.0-46.0-2.0-1.0-0.0,,,,,,,,,,,,,,,657867e466a237b839df006a,10:41:03,03/04/2024
2916.0,,,ospan,symmetry,4240YWS7BWVdP8Q3FAhTF6Zk9Pf1,symmetry-judgement-task,83,858626,0.0-46.0-2.0-1.0-1.0-0.0,,,,,,,,,,1.0,1.0,,,,657867e466a237b839df006a,10:41:03,03/04/2024
,"<div style=""font-size: 10rem; color: #0000FF"">Y</div>",,ospan,letter,4240YWS7BWVdP8Q3FAhTF6Zk9Pf1,html-keyboard-response,84,859639,0.0-46.0-2.0-1.0-1.0-1.0,,,,,,,,,,,,,,,657867e466a237b839df006a,10:41:03,03/04/2024
3362.0,,,ospan,symmetry,4240YWS7BWVdP8Q3FAhTF6Zk9Pf1,symmetry-judgement-task,85,865046,0.0-46.0-2.0-1.0-1.0-2.0,,,,,,,,,,1.0,1.0,,,,657867e466a237b839df006a,10:41:03,03/04/2024
,"<div style=""font-size: 10rem; color: #0000FF"">H</div>",,ospan,letter,4240YWS7BWVdP8Q3FAhTF6Zk9Pf1,html-keyboard-response,86,866055,0.0-46.0-2.0-1.0-1.0-3.0,,,,,,,,,,,,,,,657867e466a237b839df006a,10:41:03,03/04/2024
2059.0,,,ospan,symmetry,4240YWS7BWVdP8Q3FAhTF6Zk9Pf1,symmetry-judgement-task,87,870188,0.0-46.0-2.0-1.0-1.0-4.0,,,,,,,,,,1.0,1.0,,,,657867e466a237b839df006a,10:41:03,03/04/2024
,"<div style=""font-size: 10rem; color: #0000FF"">N</div>",,ospan,letter,4240YWS7BWVdP8Q3FAhTF6Zk9Pf1,html-keyboard-response,88,871191,0.0-46.0-2.0-1.0-1.0-5.0,,,,,,,,,,,,,,,657867e466a237b839df006a,10:41:03,03/04/2024
24343.600000023842,"<div class = numbox><p style=""font-size: 2.4rem"">Please recall the letters you saw to the best of your ability. If you do not remember a particular letter, use the SKIP button.<br><b>(When you are ready to lock in your answer, press ENTER)</b></p><button id = button_1 class = ""square num-button"" onclick = ""recordClick(this)""><div class = content><div class = numbers>C</div></div></button><button id = button_2 class = ""square num-button"" onclick = ""recordClick(this)""><div class = content><div class = numbers>G</div></div></button><button id = button_3 class = ""square num-button"" onclick = ""recordClick(this)""><div class = content><div class = numbers>H</div></div></button><button id = button_4 class = ""square num-button"" onclick = ""recordClick(this)""><div class = content><div class = numbers>J</div></div></button><button id = button_5 class = ""square num-button"" onclick = ""recordClick(this)""><div class = content><div class = numbers>K</div></div></button><button id = button_6 class = ""square num-button"" onclick = ""recordClick(this)""><div class = content><div class = numbers>L</div></div></button><button id = button_7 class = ""square num-button"" onclick = ""recordClick(this)""><div class = content><div class = numbers>N</div></div></button><button id = button_8 class = ""square num-button"" onclick = ""recordClick(this)""><div class = content><div class = numbers>P</div></div></button><button id = button_9 class = ""square num-button"" onclick = ""recordClick(this)""><div class = content><div class = numbers>Q</div></div></button><button id = button_10 class = ""square num-button"" onclick = ""recordClick(this)""><div class = content><div class = numbers>R</div></div></button><button id = button_11 class = ""square num-button"" onclick = ""recordClick(this)""><div class = content><div class = numbers>S</div></div></button><button id = button_12 class = ""square num-button"" onclick = ""recordClick(this)""><div class = content><div class = numbers>Y</div></div></button><button class = clear_button id = ""ClearButton"" onclick = ""clearResponse()"">BACKSPACE</button><button class = blank_button id = ""BlankButton"" onclick = ""blankResponse()"">SKIP</button><p style=""font-size: 2.4rem""><u><b>Current Answer:</b></u></p><br><br><div id=echoed_txt style=""font-size: 5rem; color:blue;""><b></b></div></div>",enter,ospan,retrieval,4240YWS7BWVdP8Q3FAhTF6Zk9Pf1,html-keyboard-response,89,896297,0.0-46.0-2.0-1.0-2.0-0.0,NA,NA,NA,3.0,"[""C"",""Y"",""N""]","[""Y"",""H"",""N""]",0.0,1.0,"['<font color=""red"">Y</font>', '<font color=""red"">H</font>', '<font color=""green"">N</font>']",,,,,,657867e466a237b839df006a,10:41:03,03/04/2024
23555.600000023842,"['<p style=""font-size:44px"">Letters:<br><br><br><font color=""red"">Y</font> <font color=""red"">H</font> <font color=""green"">N</font></p><br><br><p style=""font-size:30px"">Symmetry:<br><br><font color=""green"">100%</font></p><br><br>']",0,ospan,practice_feedback,4240YWS7BWVdP8Q3FAhTF6Zk9Pf1,html-button-response,90,920361,0.0-46.0-2.0-1.0-2.0-1.0,,,,,,,,,,,,,,,657867e466a237b839df006a,10:41:03,03/04/2024
,"<p style=""font-size:75px;"">...</p>",,ospan,iti,4240YWS7BWVdP8Q3FAhTF6Zk9Pf1,html-keyboard-response,91,921371,0.0-46.0-2.0-2.0-0.0,,,,,,,,,,,,,,,657867e466a237b839df006a,10:41:03,03/04/2024
2730.0,,,ospan,symmetry,4240YWS7BWVdP8Q3FAhTF6Zk9Pf1,symmetry-judgement-task,92,925383,0.0-46.0-2.0-2.0-1.0-0.0,,,,,,,,,,1.0,1.0,,,,657867e466a237b839df006a,10:41:03,03/04/2024
,"<div style=""font-size: 10rem; color: #0000FF"">C</div>",,ospan,letter,4240YWS7BWVdP8Q3FAhTF6Zk9Pf1,html-keyboard-response,93,926396,0.0-46.0-2.0-2.0-1.0-1.0,,,,,,,,,,,,,,,657867e466a237b839df006a,10:41:03,03/04/2024
3212.0,,,ospan,symmetry,4240YWS7BWVdP8Q3FAhTF6Zk9Pf1,symmetry-judgement-task,94,931625,0.0-46.0-2.0-2.0-1.0-2.0,,,,,,,,,,1.0,1.0,,,,657867e466a237b839df006a,10:41:03,03/04/2024
,"<div style=""font-size: 10rem; color: #0000FF"">N</div>",,ospan,letter,4240YWS7BWVdP8Q3FAhTF6Zk9Pf1,html-keyboard-response,95,932640,0.0-46.0-2.0-2.0-1.0-3.0,,,,,,,,,,,,,,,657867e466a237b839df006a,10:41:03,03/04/2024
2719.0,,,ospan,symmetry,4240YWS7BWVdP8Q3FAhTF6Zk9Pf1,symmetry-judgement-task,96,937424,0.0-46.0-2.0-2.0-1.0-4.0,,,,,,,,,,1.0,1.0,,,,657867e466a237b839df006a,10:41:03,03/04/2024
,"<div style=""font-size: 10rem; color: #0000FF"">Q</div>",,ospan,letter,4240YWS7BWVdP8Q3FAhTF6Zk9Pf1,html-keyboard-response,97,938432,0.0-46.0-2.0-2.0-1.0-5.0,,,,,,,,,,,,,,,657867e466a237b839df006a,10:41:03,03/04/2024
10128.799999952316,"<div class = numbox><p style=""font-size: 2.4rem"">Please recall the letters you saw to the best of your ability. If you do not remember a particular letter, use the SKIP button.<br><b>(When you are ready to lock in your answer, press ENTER)</b></p><button id = button_1 class = ""square num-button"" onclick = ""recordClick(this)""><div class = content><div class = numbers>C</div></div></button><button id = button_2 class = ""square num-button"" onclick = ""recordClick(this)""><div class = content><div class = numbers>G</div></div></button><button id = button_3 class = ""square num-button"" onclick = ""recordClick(this)""><div class = content><div class = numbers>H</div></div></button><button id = button_4 class = ""square num-button"" onclick = ""recordClick(this)""><div class = content><div class = numbers>J</div></div></button><button id = button_5 class = ""square num-button"" onclick = ""recordClick(this)""><div class = content><div class = numbers>K</div></div></button><button id = button_6 class = ""square num-button"" onclick = ""recordClick(this)""><div class = content><div class = numbers>L</div></div></button><button id = button_7 class = ""square num-button"" onclick = ""recordClick(this)""><div class = content><div class = numbers>N</div></div></button><button id = button_8 class = ""square num-button"" onclick = ""recordClick(this)""><div class = content><div class = numbers>P</div></div></button><button id = button_9 class = ""square num-button"" onclick = ""recordClick(this)""><div class = content><div class = numbers>Q</div></div></button><button id = button_10 class = ""square num-button"" onclick = ""recordClick(this)""><div class = content><div class = numbers>R</div></div></button><button id = button_11 class = ""square num-button"" onclick = ""recordClick(this)""><div class = content><div class = numbers>S</div></div></button><button id = button_12 class = ""square num-button"" onclick = ""recordClick(this)""><div class = content><div class = numbers>Y</div></div></button><button class = clear_button id = ""ClearButton"" onclick = ""clearResponse()"">BACKSPACE</button><button class = blank_button id = ""BlankButton"" onclick = ""blankResponse()"">SKIP</button><p style=""font-size: 2.4rem""><u><b>Current Answer:</b></u></p><br><br><div id=echoed_txt style=""font-size: 5rem; color:blue;""><b></b></div></div>",enter,ospan,retrieval,4240YWS7BWVdP8Q3FAhTF6Zk9Pf1,html-keyboard-response,98,949326,0.0-46.0-2.0-2.0-2.0-0.0,NA,NA,NA,3.0,"[""C"",""N"",""Q""]","[""C"",""N"",""Q""]",1.0,3.0,"['<font color=""green"">C</font>', '<font color=""green"">N</font>', '<font color=""green"">Q</font>']",,,,,,657867e466a237b839df006a,10:41:03,03/04/2024
3011.0,"['<p style=""font-size:44px"">Letters:<br><br><br><font color=""green"">C</font> <font color=""green"">N</font> <font color=""green"">Q</font></p><br><br><p style=""font-size:30px"">Symmetry:<br><br><font color=""green"">100%</font></p><br><br>']",0,ospan,practice_feedback,4240YWS7BWVdP8Q3FAhTF6Zk9Pf1,html-button-response,99,952851,0.0-46.0-2.0-2.0-2.0-1.0,,,,,,,,,,,,,,,657867e466a237b839df006a,10:41:03,03/04/2024
10540.299999952316,"<div class = 'left_align' style='font-size: 3rem; line-height: 1.3;'><b>Great work! That is the end of practice.</b><br><br>The real trials will look just like the practice trials you just completed.<br><br><u>Here, you will not see feedback</u>. First, you will see an grid picture to judge,<br>then a letter to remember. When the recall screen appears, report the letters in the<br>order presented. If you forget a letter, remember to use the <b>blank</b> button to move to the<br>next letter. Some of the sets will have more symmetry grids and letters than others.<br><br>It is important that you do your best on both the symmetry judgments and the letter recall<br>parts of the experiment. For for the symmetry judgments, try to work as <b>quickly</b> and <br>as <b>accurately</b> as possible. Remember to keep your symmetry accuracy at 85% or above.<br><br><b>For the letters, do NOT use any external aid (e.g., writing on paper, electronic device).</b><br><br>It is <u>very important</u> to our experiment to have a <b>true</b> view of your real performance.<br><br>Do not worry if you miss some when it gets hard! This task is meant to be very challenging!<br><br>Click the button to begin.</div><br><br><br><br>",0,ospan,starting_real_here,4240YWS7BWVdP8Q3FAhTF6Zk9Pf1,html-button-response,100,963393,0.0-46.0-2.0-3.0,,,,,,,,,,,,,,,657867e466a237b839df006a,10:41:03,03/04/2024
,"<p style=""font-size:75px;"">...</p>",,ospan,iti,4240YWS7BWVdP8Q3FAhTF6Zk9Pf1,html-keyboard-response,101,964661,0.0-46.0-3.0-0.0-0.0,,,,,,,,,,,,,,,657867e466a237b839df006a,10:41:03,03/04/2024
2230.0,,,ospan,symmetry,4240YWS7BWVdP8Q3FAhTF6Zk9Pf1,symmetry-judgement-task,102,968193,0.0-46.0-3.0-0.0-1.0-0.0,,,,,,,,,,1.0,1.0,,,,657867e466a237b839df006a,10:41:03,03/04/2024
,"<div style=""font-size: 10rem; color: #0000FF"">C</div>",,ospan,letter,4240YWS7BWVdP8Q3FAhTF6Zk9Pf1,html-keyboard-response,103,969205,0.0-46.0-3.0-0.0-1.0-1.0,,,,,,,,,,,,,,,657867e466a237b839df006a,10:41:03,03/04/2024
3267.0,,,ospan,symmetry,4240YWS7BWVdP8Q3FAhTF6Zk9Pf1,symmetry-judgement-task,104,974532,0.0-46.0-3.0-0.0-1.0-2.0,,,,,,,,,,1.0,1.0,,,,657867e466a237b839df006a,10:41:03,03/04/2024
,"<div style=""font-size: 10rem; color: #0000FF"">Y</div>",,ospan,letter,4240YWS7BWVdP8Q3FAhTF6Zk9Pf1,html-keyboard-response,105,975534,0.0-46.0-3.0-0.0-1.0-3.0,,,,,,,,,,,,,,,657867e466a237b839df006a,10:41:03,03/04/2024
1460.0,,,ospan,symmetry,4240YWS7BWVdP8Q3FAhTF6Zk9Pf1,symmetry-judgement-task,106,979099,0.0-46.0-3.0-0.0-1.0-4.0,,,,,,,,,,1.0,1.0,,,,657867e466a237b839df006a,10:41:03,03/04/2024
,"<div style=""font-size: 10rem; color: #0000FF"">L</div>",,ospan,letter,4240YWS7BWVdP8Q3FAhTF6Zk9Pf1,html-keyboard-response,107,980101,0.0-46.0-3.0-0.0-1.0-5.0,,,,,,,,,,,,,,,657867e466a237b839df006a,10:41:03,03/04/2024
9327.600000023842,"<div class = numbox><p style=""font-size: 2.4rem"">Please recall the letters you saw to the best of your ability. If you do not remember a particular letter, use the SKIP button.<br><b>(When you are ready to lock in your answer, press ENTER)</b></p><button id = button_1 class = ""square num-button"" onclick = ""recordClick(this)""><div class = content><div class = numbers>C</div></div></button><button id = button_2 class = ""square num-button"" onclick = ""recordClick(this)""><div class = content><div class = numbers>G</div></div></button><button id = button_3 class = ""square num-button"" onclick = ""recordClick(this)""><div class = content><div class = numbers>H</div></div></button><button id = button_4 class = ""square num-button"" onclick = ""recordClick(this)""><div class = content><div class = numbers>J</div></div></button><button id = button_5 class = ""square num-button"" onclick = ""recordClick(this)""><div class = content><div class = numbers>K</div></div></button><button id = button_6 class = ""square num-button"" onclick = ""recordClick(this)""><div class = content><div class = numbers>L</div></div></button><button id = button_7 class = ""square num-button"" onclick = ""recordClick(this)""><div class = content><div class = numbers>N</div></div></button><button id = button_8 class = ""square num-button"" onclick = ""recordClick(this)""><div class = content><div class = numbers>P</div></div></button><button id = button_9 class = ""square num-button"" onclick = ""recordClick(this)""><div class = content><div class = numbers>Q</div></div></button><button id = button_10 class = ""square num-button"" onclick = ""recordClick(this)""><div class = content><div class = numbers>R</div></div></button><button id = button_11 class = ""square num-button"" onclick = ""recordClick(this)""><div class = content><div class = numbers>S</div></div></button><button id = button_12 class = ""square num-button"" onclick = ""recordClick(this)""><div class = content><div class = numbers>Y</div></div></button><button class = clear_button id = ""ClearButton"" onclick = ""clearResponse()"">BACKSPACE</button><button class = blank_button id = ""BlankButton"" onclick = ""blankResponse()"">SKIP</button><p style=""font-size: 2.4rem""><u><b>Current Answer:</b></u></p><br><br><div id=echoed_txt style=""font-size: 5rem; color:blue;""><b></b></div></div>",enter,ospan,retrieval,4240YWS7BWVdP8Q3FAhTF6Zk9Pf1,html-keyboard-response,108,990194,0.0-46.0-3.0-0.0-2.0,3,3,3,3.0,"[""C"",""Y"",""L""]","[""C"",""Y"",""L""]",1.0,3.0,,,,,,,657867e466a237b839df006a,10:41:03,03/04/2024
1844.7000000476837,[''],0,ospan,feedback,4240YWS7BWVdP8Q3FAhTF6Zk9Pf1,html-button-response,109,992552,0.0-46.0-3.0-0.0-3.0,,,,,,,,,,,,100.0,0.0,,657867e466a237b839df006a,10:41:03,03/04/2024
,"<p style=""font-size:75px;"">...</p>",,ospan,iti,4240YWS7BWVdP8Q3FAhTF6Zk9Pf1,html-keyboard-response,110,993567,0.0-46.0-4.0-0.0-0.0,,,,,,,,,,,,,,,657867e466a237b839df006a,10:41:03,03/04/2024
2452.0,,,ospan,symmetry,4240YWS7BWVdP8Q3FAhTF6Zk9Pf1,symmetry-judgement-task,111,997339,0.0-46.0-4.0-0.0-1.0-0.0,,,,,,,,,,1.0,1.0,,,,657867e466a237b839df006a,10:41:03,03/04/2024
,"<div style=""font-size: 10rem; color: #0000FF"">P</div>",,ospan,letter,4240YWS7BWVdP8Q3FAhTF6Zk9Pf1,html-keyboard-response,112,998355,0.0-46.0-4.0-0.0-1.0-1.0,,,,,,,,,,,,,,,657867e466a237b839df006a,10:41:03,03/04/2024
2137.0,,,ospan,symmetry,4240YWS7BWVdP8Q3FAhTF6Zk9Pf1,symmetry-judgement-task,113,1002546,0.0-46.0-4.0-0.0-1.0-2.0,,,,,,,,,,1.0,1.0,,,,657867e466a237b839df006a,10:41:03,03/04/2024
,"<div style=""font-size: 10rem; color: #0000FF"">S</div>",,ospan,letter,4240YWS7BWVdP8Q3FAhTF6Zk9Pf1,html-keyboard-response,114,1003552,0.0-46.0-4.0-0.0-1.0-3.0,,,,,,,,,,,,,,,657867e466a237b839df006a,10:41:03,03/04/2024
1582.0,,,ospan,symmetry,4240YWS7BWVdP8Q3FAhTF6Zk9Pf1,symmetry-judgement-task,115,1007258,0.0-46.0-4.0-0.0-1.0-4.0,,,,,,,,,,1.0,1.0,,,,657867e466a237b839df006a,10:41:03,03/04/2024
,"<div style=""font-size: 10rem; color: #0000FF"">K</div>",,ospan,letter,4240YWS7BWVdP8Q3FAhTF6Zk9Pf1,html-keyboard-response,116,1008267,0.0-46.0-4.0-0.0-1.0-5.0,,,,,,,,,,,,,,,657867e466a237b839df006a,10:41:03,03/04/2024
1891.0,,,ospan,symmetry,4240YWS7BWVdP8Q3FAhTF6Zk9Pf1,symmetry-judgement-task,117,1012440,0.0-46.0-4.0-0.0-1.0-6.0,,,,,,,,,,1.0,1.0,,,,657867e466a237b839df006a,10:41:03,03/04/2024
,"<div style=""font-size: 10rem; color: #0000FF"">C</div>",,ospan,letter,4240YWS7BWVdP8Q3FAhTF6Zk9Pf1,html-keyboard-response,118,1013441,0.0-46.0-4.0-0.0-1.0-7.0,,,,,,,,,,,,,,,657867e466a237b839df006a,10:41:03,03/04/2024
8332.5,"<div class = numbox><p style=""font-size: 2.4rem"">Please recall the letters you saw to the best of your ability. If you do not remember a particular letter, use the SKIP button.<br><b>(When you are ready to lock in your answer, press ENTER)</b></p><button id = button_1 class = ""square num-button"" onclick = ""recordClick(this)""><div class = content><div class = numbers>C</div></div></button><button id = button_2 class = ""square num-button"" onclick = ""recordClick(this)""><div class = content><div class = numbers>G</div></div></button><button id = button_3 class = ""square num-button"" onclick = ""recordClick(this)""><div class = content><div class = numbers>H</div></div></button><button id = button_4 class = ""square num-button"" onclick = ""recordClick(this)""><div class = content><div class = numbers>J</div></div></button><button id = button_5 class = ""square num-button"" onclick = ""recordClick(this)""><div class = content><div class = numbers>K</div></div></button><button id = button_6 class = ""square num-button"" onclick = ""recordClick(this)""><div class = content><div class = numbers>L</div></div></button><button id = button_7 class = ""square num-button"" onclick = ""recordClick(this)""><div class = content><div class = numbers>N</div></div></button><button id = button_8 class = ""square num-button"" onclick = ""recordClick(this)""><div class = content><div class = numbers>P</div></div></button><button id = button_9 class = ""square num-button"" onclick = ""recordClick(this)""><div class = content><div class = numbers>Q</div></div></button><button id = button_10 class = ""square num-button"" onclick = ""recordClick(this)""><div class = content><div class = numbers>R</div></div></button><button id = button_11 class = ""square num-button"" onclick = ""recordClick(this)""><div class = content><div class = numbers>S</div></div></button><button id = button_12 class = ""square num-button"" onclick = ""recordClick(this)""><div class = content><div class = numbers>Y</div></div></button><button class = clear_button id = ""ClearButton"" onclick = ""clearResponse()"">BACKSPACE</button><button class = blank_button id = ""BlankButton"" onclick = ""blankResponse()"">SKIP</button><p style=""font-size: 2.4rem""><u><b>Current Answer:</b></u></p><br><br><div id=echoed_txt style=""font-size: 5rem; color:blue;""><b></b></div></div>",enter,ospan,retrieval,4240YWS7BWVdP8Q3FAhTF6Zk9Pf1,html-keyboard-response,119,1022539,0.0-46.0-4.0-0.0-2.0,7,7,7,4.0,"[""P"",""S"",""K"",""C""]","[""P"",""S"",""K"",""C""]",1.0,4.0,,,,,,,657867e466a237b839df006a,10:41:03,03/04/2024
4523.799999952316,[''],0,ospan,feedback,4240YWS7BWVdP8Q3FAhTF6Zk9Pf1,html-button-response,120,1027577,0.0-46.0-4.0-0.0-3.0,,,,,,,,,,,,100.0,0.0,,657867e466a237b839df006a,10:41:03,03/04/2024
,"<p style=""font-size:75px;"">...</p>",,ospan,iti,4240YWS7BWVdP8Q3FAhTF6Zk9Pf1,html-keyboard-response,121,1028593,0.0-46.0-4.0-1.0-0.0,,,,,,,,,,,,,,,657867e466a237b839df006a,10:41:03,03/04/2024
3303.0,,,ospan,symmetry,4240YWS7BWVdP8Q3FAhTF6Zk9Pf1,symmetry-judgement-task,122,1033198,0.0-46.0-4.0-1.0-1.0-0.0,,,,,,,,,,1.0,1.0,,,,657867e466a237b839df006a,10:41:03,03/04/2024
,"<div style=""font-size: 10rem; color: #0000FF"">S</div>",,ospan,letter,4240YWS7BWVdP8Q3FAhTF6Zk9Pf1,html-keyboard-response,123,1034215,0.0-46.0-4.0-1.0-1.0-1.0,,,,,,,,,,,,,,,657867e466a237b839df006a,10:41:03,03/04/2024
3229.0,,,ospan,symmetry,4240YWS7BWVdP8Q3FAhTF6Zk9Pf1,symmetry-judgement-task,124,1039490,0.0-46.0-4.0-1.0-1.0-2.0,,,,,,,,,,1.0,1.0,,,,657867e466a237b839df006a,10:41:03,03/04/2024
,"<div style=""font-size: 10rem; color: #0000FF"">N</div>",,ospan,letter,4240YWS7BWVdP8Q3FAhTF6Zk9Pf1,html-keyboard-response,125,1040496,0.0-46.0-4.0-1.0-1.0-3.0,,,,,,,,,,,,,,,657867e466a237b839df006a,10:41:03,03/04/2024
1982.0,,,ospan,symmetry,4240YWS7BWVdP8Q3FAhTF6Zk9Pf1,symmetry-judgement-task,126,1044554,0.0-46.0-4.0-1.0-1.0-4.0,,,,,,,,,,1.0,1.0,,,,657867e466a237b839df006a,10:41:03,03/04/2024
,"<div style=""font-size: 10rem; color: #0000FF"">P</div>",,ospan,letter,4240YWS7BWVdP8Q3FAhTF6Zk9Pf1,html-keyboard-response,127,1045570,0.0-46.0-4.0-1.0-1.0-5.0,,,,,,,,,,,,,,,657867e466a237b839df006a,10:41:03,03/04/2024
1619.0,,,ospan,symmetry,4240YWS7BWVdP8Q3FAhTF6Zk9Pf1,symmetry-judgement-task,128,1049283,0.0-46.0-4.0-1.0-1.0-6.0,,,,,,,,,,1.0,1.0,,,,657867e466a237b839df006a,10:41:03,03/04/2024
,"<div style=""font-size: 10rem; color: #0000FF"">J</div>",,ospan,letter,4240YWS7BWVdP8Q3FAhTF6Zk9Pf1,html-keyboard-response,129,1050287,0.0-46.0-4.0-1.0-1.0-7.0,,,,,,,,,,,,,,,657867e466a237b839df006a,10:41:03,03/04/2024
1465.0,,,ospan,symmetry,4240YWS7BWVdP8Q3FAhTF6Zk9Pf1,symmetry-judgement-task,130,1053823,0.0-46.0-4.0-1.0-1.0-8.0,,,,,,,,,,1.0,1.0,,,,657867e466a237b839df006a,10:41:03,03/04/2024
,"<div style=""font-size: 10rem; color: #0000FF"">R</div>",,ospan,letter,4240YWS7BWVdP8Q3FAhTF6Zk9Pf1,html-keyboard-response,131,1054826,0.0-46.0-4.0-1.0-1.0-9.0,,,,,,,,,,,,,,,657867e466a237b839df006a,10:41:03,03/04/2024
13002.300000071526,"<div class = numbox><p style=""font-size: 2.4rem"">Please recall the letters you saw to the best of your ability. If you do not remember a particular letter, use the SKIP button.<br><b>(When you are ready to lock in your answer, press ENTER)</b></p><button id = button_1 class = ""square num-button"" onclick = ""recordClick(this)""><div class = content><div class = numbers>C</div></div></button><button id = button_2 class = ""square num-button"" onclick = ""recordClick(this)""><div class = content><div class = numbers>G</div></div></button><button id = button_3 class = ""square num-button"" onclick = ""recordClick(this)""><div class = content><div class = numbers>H</div></div></button><button id = button_4 class = ""square num-button"" onclick = ""recordClick(this)""><div class = content><div class = numbers>J</div></div></button><button id = button_5 class = ""square num-button"" onclick = ""recordClick(this)""><div class = content><div class = numbers>K</div></div></button><button id = button_6 class = ""square num-button"" onclick = ""recordClick(this)""><div class = content><div class = numbers>L</div></div></button><button id = button_7 class = ""square num-button"" onclick = ""recordClick(this)""><div class = content><div class = numbers>N</div></div></button><button id = button_8 class = ""square num-button"" onclick = ""recordClick(this)""><div class = content><div class = numbers>P</div></div></button><button id = button_9 class = ""square num-button"" onclick = ""recordClick(this)""><div class = content><div class = numbers>Q</div></div></button><button id = button_10 class = ""square num-button"" onclick = ""recordClick(this)""><div class = content><div class = numbers>R</div></div></button><button id = button_11 class = ""square num-button"" onclick = ""recordClick(this)""><div class = content><div class = numbers>S</div></div></button><button id = button_12 class = ""square num-button"" onclick = ""recordClick(this)""><div class = content><div class = numbers>Y</div></div></button><button class = clear_button id = ""ClearButton"" onclick = ""clearResponse()"">BACKSPACE</button><button class = blank_button id = ""BlankButton"" onclick = ""blankResponse()"">SKIP</button><p style=""font-size: 2.4rem""><u><b>Current Answer:</b></u></p><br><br><div id=echoed_txt style=""font-size: 5rem; color:blue;""><b></b></div></div>",enter,ospan,retrieval,4240YWS7BWVdP8Q3FAhTF6Zk9Pf1,html-keyboard-response,132,1068591,0.0-46.0-4.0-1.0-2.0,12,11,7,5.0,"[""C"",""N"",""P"",""J"",""R""]","[""S"",""N"",""P"",""J"",""R""]",0.0,4.0,,,,,,,657867e466a237b839df006a,10:41:03,03/04/2024
5133.699999928474,[''],0,ospan,feedback,4240YWS7BWVdP8Q3FAhTF6Zk9Pf1,html-button-response,133,1074229,0.0-46.0-4.0-1.0-3.0,,,,,,,,,,,,100.0,0.0,,657867e466a237b839df006a,10:41:03,03/04/2024
,"<p style=""font-size:75px;"">...</p>",,ospan,iti,4240YWS7BWVdP8Q3FAhTF6Zk9Pf1,html-keyboard-response,134,1075243,0.0-46.0-4.0-2.0-0.0,,,,,,,,,,,,,,,657867e466a237b839df006a,10:41:03,03/04/2024
1940.0,,,ospan,symmetry,4240YWS7BWVdP8Q3FAhTF6Zk9Pf1,symmetry-judgement-task,135,1078481,0.0-46.0-4.0-2.0-1.0-0.0,,,,,,,,,,1.0,1.0,,,,657867e466a237b839df006a,10:41:03,03/04/2024
,"<div style=""font-size: 10rem; color: #0000FF"">K</div>",,ospan,letter,4240YWS7BWVdP8Q3FAhTF6Zk9Pf1,html-keyboard-response,136,1079494,0.0-46.0-4.0-2.0-1.0-1.0,,,,,,,,,,,,,,,657867e466a237b839df006a,10:41:03,03/04/2024
2210.0,,,ospan,symmetry,4240YWS7BWVdP8Q3FAhTF6Zk9Pf1,symmetry-judgement-task,137,1083752,0.0-46.0-4.0-2.0-1.0-2.0,,,,,,,,,,1.0,1.0,,,,657867e466a237b839df006a,10:41:03,03/04/2024
,"<div style=""font-size: 10rem; color: #0000FF"">R</div>",,ospan,letter,4240YWS7BWVdP8Q3FAhTF6Zk9Pf1,html-keyboard-response,138,1084758,0.0-46.0-4.0-2.0-1.0-3.0,,,,,,,,,,,,,,,657867e466a237b839df006a,10:41:03,03/04/2024
2114.0,,,ospan,symmetry,4240YWS7BWVdP8Q3FAhTF6Zk9Pf1,symmetry-judgement-task,139,1088940,0.0-46.0-4.0-2.0-1.0-4.0,,,,,,,,,,1.0,1.0,,,,657867e466a237b839df006a,10:41:03,03/04/2024
,"<div style=""font-size: 10rem; color: #0000FF"">S</div>",,ospan,letter,4240YWS7BWVdP8Q3FAhTF6Zk9Pf1,html-keyboard-response,140,1089954,0.0-46.0-4.0-2.0-1.0-5.0,,,,,,,,,,,,,,,657867e466a237b839df006a,10:41:03,03/04/2024
7707.900000095367,"<div class = numbox><p style=""font-size: 2.4rem"">Please recall the letters you saw to the best of your ability. If you do not remember a particular letter, use the SKIP button.<br><b>(When you are ready to lock in your answer, press ENTER)</b></p><button id = button_1 class = ""square num-button"" onclick = ""recordClick(this)""><div class = content><div class = numbers>C</div></div></button><button id = button_2 class = ""square num-button"" onclick = ""recordClick(this)""><div class = content><div class = numbers>G</div></div></button><button id = button_3 class = ""square num-button"" onclick = ""recordClick(this)""><div class = content><div class = numbers>H</div></div></button><button id = button_4 class = ""square num-button"" onclick = ""recordClick(this)""><div class = content><div class = numbers>J</div></div></button><button id = button_5 class = ""square num-button"" onclick = ""recordClick(this)""><div class = content><div class = numbers>K</div></div></button><button id = button_6 class = ""square num-button"" onclick = ""recordClick(this)""><div class = content><div class = numbers>L</div></div></button><button id = button_7 class = ""square num-button"" onclick = ""recordClick(this)""><div class = content><div class = numbers>N</div></div></button><button id = button_8 class = ""square num-button"" onclick = ""recordClick(this)""><div class = content><div class = numbers>P</div></div></button><button id = button_9 class = ""square num-button"" onclick = ""recordClick(this)""><div class = content><div class = numbers>Q</div></div></button><button id = button_10 class = ""square num-button"" onclick = ""recordClick(this)""><div class = content><div class = numbers>R</div></div></button><button id = button_11 class = ""square num-button"" onclick = ""recordClick(this)""><div class = content><div class = numbers>S</div></div></button><button id = button_12 class = ""square num-button"" onclick = ""recordClick(this)""><div class = content><div class = numbers>Y</div></div></button><button class = clear_button id = ""ClearButton"" onclick = ""clearResponse()"">BACKSPACE</button><button class = blank_button id = ""BlankButton"" onclick = ""blankResponse()"">SKIP</button><p style=""font-size: 2.4rem""><u><b>Current Answer:</b></u></p><br><br><div id=echoed_txt style=""font-size: 5rem; color:blue;""><b></b></div></div>",enter,ospan,retrieval,4240YWS7BWVdP8Q3FAhTF6Zk9Pf1,html-keyboard-response,141,1098423,0.0-46.0-4.0-2.0-2.0,15,14,10,3.0,"[""K"",""R"",""S""]","[""K"",""R"",""S""]",1.0,3.0,,,,,,,657867e466a237b839df006a,10:41:03,03/04/2024
1886.5,[''],0,ospan,feedback,4240YWS7BWVdP8Q3FAhTF6Zk9Pf1,html-button-response,142,1100821,0.0-46.0-4.0-2.0-3.0,,,,,,,,,,,,100.0,0.0,,657867e466a237b839df006a,10:41:03,03/04/2024
,"<p style=""font-size:75px;"">...</p>",,ospan,iti,4240YWS7BWVdP8Q3FAhTF6Zk9Pf1,html-keyboard-response,143,1101827,0.0-46.0-5.0-0.0-0.0,,,,,,,,,,,,,,,657867e466a237b839df006a,10:41:03,03/04/2024
2484.0,,,ospan,symmetry,4240YWS7BWVdP8Q3FAhTF6Zk9Pf1,symmetry-judgement-task,144,1105587,0.0-46.0-5.0-0.0-1.0-0.0,,,,,,,,,,1.0,1.0,,,,657867e466a237b839df006a,10:41:03,03/04/2024
,"<div style=""font-size: 10rem; color: #0000FF"">K</div>",,ospan,letter,4240YWS7BWVdP8Q3FAhTF6Zk9Pf1,html-keyboard-response,145,1106590,0.0-46.0-5.0-0.0-1.0-1.0,,,,,,,,,,,,,,,657867e466a237b839df006a,10:41:03,03/04/2024
1732.0,,,ospan,symmetry,4240YWS7BWVdP8Q3FAhTF6Zk9Pf1,symmetry-judgement-task,146,1110365,0.0-46.0-5.0-0.0-1.0-2.0,,,,,,,,,,1.0,1.0,,,,657867e466a237b839df006a,10:41:03,03/04/2024
,"<div style=""font-size: 10rem; color: #0000FF"">R</div>",,ospan,letter,4240YWS7BWVdP8Q3FAhTF6Zk9Pf1,html-keyboard-response,147,1111370,0.0-46.0-5.0-0.0-1.0-3.0,,,,,,,,,,,,,,,657867e466a237b839df006a,10:41:03,03/04/2024
2684.0,,,ospan,symmetry,4240YWS7BWVdP8Q3FAhTF6Zk9Pf1,symmetry-judgement-task,148,1116117,0.0-46.0-5.0-0.0-1.0-4.0,,,,,,,,,,1.0,1.0,,,,657867e466a237b839df006a,10:41:03,03/04/2024
,"<div style=""font-size: 10rem; color: #0000FF"">P</div>",,ospan,letter,4240YWS7BWVdP8Q3FAhTF6Zk9Pf1,html-keyboard-response,149,1117123,0.0-46.0-5.0-0.0-1.0-5.0,,,,,,,,,,,,,,,657867e466a237b839df006a,10:41:03,03/04/2024
1208.0,,,ospan,symmetry,4240YWS7BWVdP8Q3FAhTF6Zk9Pf1,symmetry-judgement-task,150,1120437,0.0-46.0-5.0-0.0-1.0-6.0,,,,,,,,,,1.0,1.0,,,,657867e466a237b839df006a,10:41:03,03/04/2024
,"<div style=""font-size: 10rem; color: #0000FF"">L</div>",,ospan,letter,4240YWS7BWVdP8Q3FAhTF6Zk9Pf1,html-keyboard-response,151,1121440,0.0-46.0-5.0-0.0-1.0-7.0,,,,,,,,,,,,,,,657867e466a237b839df006a,10:41:03,03/04/2024
2251.0,,,ospan,symmetry,4240YWS7BWVdP8Q3FAhTF6Zk9Pf1,symmetry-judgement-task,152,1125762,0.0-46.0-5.0-0.0-1.0-8.0,,,,,,,,,,1.0,1.0,,,,657867e466a237b839df006a,10:41:03,03/04/2024
,"<div style=""font-size: 10rem; color: #0000FF"">G</div>",,ospan,letter,4240YWS7BWVdP8Q3FAhTF6Zk9Pf1,html-keyboard-response,153,1126769,0.0-46.0-5.0-0.0-1.0-9.0,,,,,,,,,,,,,,,657867e466a237b839df006a,10:41:03,03/04/2024
2075.0,,,ospan,symmetry,4240YWS7BWVdP8Q3FAhTF6Zk9Pf1,symmetry-judgement-task,154,1130891,0.0-46.0-5.0-0.0-1.0-10.0,,,,,,,,,,1.0,1.0,,,,657867e466a237b839df006a,10:41:03,03/04/2024
,"<div style=""font-size: 10rem; color: #0000FF"">H</div>",,ospan,letter,4240YWS7BWVdP8Q3FAhTF6Zk9Pf1,html-keyboard-response,155,1131892,0.0-46.0-5.0-0.0-1.0-11.0,,,,,,,,,,,,,,,657867e466a237b839df006a,10:41:03,03/04/2024
16313.200000047684,"<div class = numbox><p style=""font-size: 2.4rem"">Please recall the letters you saw to the best of your ability. If you do not remember a particular letter, use the SKIP button.<br><b>(When you are ready to lock in your answer, press ENTER)</b></p><button id = button_1 class = ""square num-button"" onclick = ""recordClick(this)""><div class = content><div class = numbers>C</div></div></button><button id = button_2 class = ""square num-button"" onclick = ""recordClick(this)""><div class = content><div class = numbers>G</div></div></button><button id = button_3 class = ""square num-button"" onclick = ""recordClick(this)""><div class = content><div class = numbers>H</div></div></button><button id = button_4 class = ""square num-button"" onclick = ""recordClick(this)""><div class = content><div class = numbers>J</div></div></button><button id = button_5 class = ""square num-button"" onclick = ""recordClick(this)""><div class = content><div class = numbers>K</div></div></button><button id = button_6 class = ""square num-button"" onclick = ""recordClick(this)""><div class = content><div class = numbers>L</div></div></button><button id = button_7 class = ""square num-button"" onclick = ""recordClick(this)""><div class = content><div class = numbers>N</div></div></button><button id = button_8 class = ""square num-button"" onclick = ""recordClick(this)""><div class = content><div class = numbers>P</div></div></button><button id = button_9 class = ""square num-button"" onclick = ""recordClick(this)""><div class = content><div class = numbers>Q</div></div></button><button id = button_10 class = ""square num-button"" onclick = ""recordClick(this)""><div class = content><div class = numbers>R</div></div></button><button id = button_11 class = ""square num-button"" onclick = ""recordClick(this)""><div class = content><div class = numbers>S</div></div></button><button id = button_12 class = ""square num-button"" onclick = ""recordClick(this)""><div class = content><div class = numbers>Y</div></div></button><button class = clear_button id = ""ClearButton"" onclick = ""clearResponse()"">BACKSPACE</button><button class = blank_button id = ""BlankButton"" onclick = ""blankResponse()"">SKIP</button><p style=""font-size: 2.4rem""><u><b>Current Answer:</b></u></p><br><br><div id=echoed_txt style=""font-size: 5rem; color:blue;""><b></b></div></div>",enter,ospan,retrieval,4240YWS7BWVdP8Q3FAhTF6Zk9Pf1,html-keyboard-response,156,1148966,0.0-46.0-5.0-0.0-2.0,21,20,16,6.0,"[""K"",""R"",""P"",""L"",""G"",""H""]","[""K"",""R"",""P"",""L"",""G"",""H""]",1.0,6.0,,,,,,,657867e466a237b839df006a,10:41:03,03/04/2024
5936.599999904633,[''],0,ospan,feedback,4240YWS7BWVdP8Q3FAhTF6Zk9Pf1,html-button-response,157,1155413,0.0-46.0-5.0-0.0-3.0,,,,,,,,,,,,100.0,0.0,,657867e466a237b839df006a,10:41:03,03/04/2024
,"<p style=""font-size:75px;"">...</p>",,ospan,iti,4240YWS7BWVdP8Q3FAhTF6Zk9Pf1,html-keyboard-response,158,1156417,0.0-46.0-5.0-1.0-0.0,,,,,,,,,,,,,,,657867e466a237b839df006a,10:41:03,03/04/2024
2609.0,,,ospan,symmetry,4240YWS7BWVdP8Q3FAhTF6Zk9Pf1,symmetry-judgement-task,159,1160346,0.0-46.0-5.0-1.0-1.0-0.0,,,,,,,,,,1.0,1.0,,,,657867e466a237b839df006a,10:41:03,03/04/2024
,"<div style=""font-size: 10rem; color: #0000FF"">H</div>",,ospan,letter,4240YWS7BWVdP8Q3FAhTF6Zk9Pf1,html-keyboard-response,160,1161352,0.0-46.0-5.0-1.0-1.0-1.0,,,,,,,,,,,,,,,657867e466a237b839df006a,10:41:03,03/04/2024
2911.0,,,ospan,symmetry,4240YWS7BWVdP8Q3FAhTF6Zk9Pf1,symmetry-judgement-task,161,1166324,0.0-46.0-5.0-1.0-1.0-2.0,,,,,,,,,,1.0,1.0,,,,657867e466a237b839df006a,10:41:03,03/04/2024
,"<div style=""font-size: 10rem; color: #0000FF"">N</div>",,ospan,letter,4240YWS7BWVdP8Q3FAhTF6Zk9Pf1,html-keyboard-response,162,1167329,0.0-46.0-5.0-1.0-1.0-3.0,,,,,,,,,,,,,,,657867e466a237b839df006a,10:41:03,03/04/2024
2438.0,,,ospan,symmetry,4240YWS7BWVdP8Q3FAhTF6Zk9Pf1,symmetry-judgement-task,163,1171806,0.0-46.0-5.0-1.0-1.0-4.0,,,,,,,,,,1.0,1.0,,,,657867e466a237b839df006a,10:41:03,03/04/2024
,"<div style=""font-size: 10rem; color: #0000FF"">L</div>",,ospan,letter,4240YWS7BWVdP8Q3FAhTF6Zk9Pf1,html-keyboard-response,164,1172809,0.0-46.0-5.0-1.0-1.0-5.0,,,,,,,,,,,,,,,657867e466a237b839df006a,10:41:03,03/04/2024
1768.0,,,ospan,symmetry,4240YWS7BWVdP8Q3FAhTF6Zk9Pf1,symmetry-judgement-task,165,1176647,0.0-46.0-5.0-1.0-1.0-6.0,,,,,,,,,,1.0,1.0,,,,657867e466a237b839df006a,10:41:03,03/04/2024
,"<div style=""font-size: 10rem; color: #0000FF"">Y</div>",,ospan,letter,4240YWS7BWVdP8Q3FAhTF6Zk9Pf1,html-keyboard-response,166,1177653,0.0-46.0-5.0-1.0-1.0-7.0,,,,,,,,,,,,,,,657867e466a237b839df006a,10:41:03,03/04/2024
1694.0,,,ospan,symmetry,4240YWS7BWVdP8Q3FAhTF6Zk9Pf1,symmetry-judgement-task,167,1181434,0.0-46.0-5.0-1.0-1.0-8.0,,,,,,,,,,1.0,1.0,,,,657867e466a237b839df006a,10:41:03,03/04/2024
,"<div style=""font-size: 10rem; color: #0000FF"">G</div>",,ospan,letter,4240YWS7BWVdP8Q3FAhTF6Zk9Pf1,html-keyboard-response,168,1182438,0.0-46.0-5.0-1.0-1.0-9.0,,,,,,,,,,,,,,,657867e466a237b839df006a,10:41:03,03/04/2024
1638.0,,,ospan,symmetry,4240YWS7BWVdP8Q3FAhTF6Zk9Pf1,symmetry-judgement-task,169,1186130,0.0-46.0-5.0-1.0-1.0-10.0,,,,,,,,,,1.0,1.0,,,,657867e466a237b839df006a,10:41:03,03/04/2024
,"<div style=""font-size: 10rem; color: #0000FF"">C</div>",,ospan,letter,4240YWS7BWVdP8Q3FAhTF6Zk9Pf1,html-keyboard-response,170,1187139,0.0-46.0-5.0-1.0-1.0-11.0,,,,,,,,,,,,,,,657867e466a237b839df006a,10:41:03,03/04/2024
1217.0,,,ospan,symmetry,4240YWS7BWVdP8Q3FAhTF6Zk9Pf1,symmetry-judgement-task,171,1190433,0.0-46.0-5.0-1.0-1.0-12.0,,,,,,,,,,1.0,1.0,,,,657867e466a237b839df006a,10:41:03,03/04/2024
,"<div style=""font-size: 10rem; color: #0000FF"">K</div>",,ospan,letter,4240YWS7BWVdP8Q3FAhTF6Zk9Pf1,html-keyboard-response,172,1191435,0.0-46.0-5.0-1.0-1.0-13.0,,,,,,,,,,,,,,,657867e466a237b839df006a,10:41:03,03/04/2024
14224.899999976158,"<div class = numbox><p style=""font-size: 2.4rem"">Please recall the letters you saw to the best of your ability. If you do not remember a particular letter, use the SKIP button.<br><b>(When you are ready to lock in your answer, press ENTER)</b></p><button id = button_1 class = ""square num-button"" onclick = ""recordClick(this)""><div class = content><div class = numbers>C</div></div></button><button id = button_2 class = ""square num-button"" onclick = ""recordClick(this)""><div class = content><div class = numbers>G</div></div></button><button id = button_3 class = ""square num-button"" onclick = ""recordClick(this)""><div class = content><div class = numbers>H</div></div></button><button id = button_4 class = ""square num-button"" onclick = ""recordClick(this)""><div class = content><div class = numbers>J</div></div></button><button id = button_5 class = ""square num-button"" onclick = ""recordClick(this)""><div class = content><div class = numbers>K</div></div></button><button id = button_6 class = ""square num-button"" onclick = ""recordClick(this)""><div class = content><div class = numbers>L</div></div></button><button id = button_7 class = ""square num-button"" onclick = ""recordClick(this)""><div class = content><div class = numbers>N</div></div></button><button id = button_8 class = ""square num-button"" onclick = ""recordClick(this)""><div class = content><div class = numbers>P</div></div></button><button id = button_9 class = ""square num-button"" onclick = ""recordClick(this)""><div class = content><div class = numbers>Q</div></div></button><button id = button_10 class = ""square num-button"" onclick = ""recordClick(this)""><div class = content><div class = numbers>R</div></div></button><button id = button_11 class = ""square num-button"" onclick = ""recordClick(this)""><div class = content><div class = numbers>S</div></div></button><button id = button_12 class = ""square num-button"" onclick = ""recordClick(this)""><div class = content><div class = numbers>Y</div></div></button><button class = clear_button id = ""ClearButton"" onclick = ""clearResponse()"">BACKSPACE</button><button class = blank_button id = ""BlankButton"" onclick = ""blankResponse()"">SKIP</button><p style=""font-size: 2.4rem""><u><b>Current Answer:</b></u></p><br><br><div id=echoed_txt style=""font-size: 5rem; color:blue;""><b></b></div></div>",enter,ospan,retrieval,4240YWS7BWVdP8Q3FAhTF6Zk9Pf1,html-keyboard-response,173,1206426,0.0-46.0-5.0-1.0-2.0,28,27,23,7.0,"[""H"",""N"",""L"",""Y"",""G"",""C"",""K""]","[""H"",""N"",""L"",""Y"",""G"",""C"",""K""]",1.0,7.0,,,,,,,657867e466a237b839df006a,10:41:03,03/04/2024
4240.300000071526,[''],0,ospan,feedback,4240YWS7BWVdP8Q3FAhTF6Zk9Pf1,html-button-response,174,1211172,0.0-46.0-5.0-1.0-3.0,,,,,,,,,,,,100.0,0.0,,657867e466a237b839df006a,10:41:03,03/04/2024
,"<p style=""font-size:75px;"">...</p>",,ospan,iti,4240YWS7BWVdP8Q3FAhTF6Zk9Pf1,html-keyboard-response,175,1212176,0.0-46.0-6.0-0.0-0.0,,,,,,,,,,,,,,,657867e466a237b839df006a,10:41:03,03/04/2024
2998.0,,,ospan,symmetry,4240YWS7BWVdP8Q3FAhTF6Zk9Pf1,symmetry-judgement-task,176,1216451,0.0-46.0-6.0-0.0-1.0-0.0,,,,,,,,,,1.0,1.0,,,,657867e466a237b839df006a,10:41:03,03/04/2024
,"<div style=""font-size: 10rem; color: #0000FF"">P</div>",,ospan,letter,4240YWS7BWVdP8Q3FAhTF6Zk9Pf1,html-keyboard-response,177,1217455,0.0-46.0-6.0-0.0-1.0-1.0,,,,,,,,,,,,,,,657867e466a237b839df006a,10:41:03,03/04/2024
2237.0,,,ospan,symmetry,4240YWS7BWVdP8Q3FAhTF6Zk9Pf1,symmetry-judgement-task,178,1221752,0.0-46.0-6.0-0.0-1.0-2.0,,,,,,,,,,1.0,1.0,,,,657867e466a237b839df006a,10:41:03,03/04/2024
,"<div style=""font-size: 10rem; color: #0000FF"">Y</div>",,ospan,letter,4240YWS7BWVdP8Q3FAhTF6Zk9Pf1,html-keyboard-response,179,1222756,0.0-46.0-6.0-0.0-1.0-3.0,,,,,,,,,,,,,,,657867e466a237b839df006a,10:41:03,03/04/2024
1674.0,,,ospan,symmetry,4240YWS7BWVdP8Q3FAhTF6Zk9Pf1,symmetry-judgement-task,180,1226524,0.0-46.0-6.0-0.0-1.0-4.0,,,,,,,,,,1.0,1.0,,,,657867e466a237b839df006a,10:41:03,03/04/2024
,"<div style=""font-size: 10rem; color: #0000FF"">J</div>",,ospan,letter,4240YWS7BWVdP8Q3FAhTF6Zk9Pf1,html-keyboard-response,181,1227527,0.0-46.0-6.0-0.0-1.0-5.0,,,,,,,,,,,,,,,657867e466a237b839df006a,10:41:03,03/04/2024
1656.0,,,ospan,symmetry,4240YWS7BWVdP8Q3FAhTF6Zk9Pf1,symmetry-judgement-task,182,1231219,0.0-46.0-6.0-0.0-1.0-6.0,,,,,,,,,,1.0,1.0,,,,657867e466a237b839df006a,10:41:03,03/04/2024
,"<div style=""font-size: 10rem; color: #0000FF"">L</div>",,ospan,letter,4240YWS7BWVdP8Q3FAhTF6Zk9Pf1,html-keyboard-response,183,1232224,0.0-46.0-6.0-0.0-1.0-7.0,,,,,,,,,,,,,,,657867e466a237b839df006a,10:41:03,03/04/2024
1781.0,,,ospan,symmetry,4240YWS7BWVdP8Q3FAhTF6Zk9Pf1,symmetry-judgement-task,184,1236048,0.0-46.0-6.0-0.0-1.0-8.0,,,,,,,,,,1.0,1.0,,,,657867e466a237b839df006a,10:41:03,03/04/2024
,"<div style=""font-size: 10rem; color: #0000FF"">C</div>",,ospan,letter,4240YWS7BWVdP8Q3FAhTF6Zk9Pf1,html-keyboard-response,185,1237054,0.0-46.0-6.0-0.0-1.0-9.0,,,,,,,,,,,,,,,657867e466a237b839df006a,10:41:03,03/04/2024
12195.200000047684,"<div class = numbox><p style=""font-size: 2.4rem"">Please recall the letters you saw to the best of your ability. If you do not remember a particular letter, use the SKIP button.<br><b>(When you are ready to lock in your answer, press ENTER)</b></p><button id = button_1 class = ""square num-button"" onclick = ""recordClick(this)""><div class = content><div class = numbers>C</div></div></button><button id = button_2 class = ""square num-button"" onclick = ""recordClick(this)""><div class = content><div class = numbers>G</div></div></button><button id = button_3 class = ""square num-button"" onclick = ""recordClick(this)""><div class = content><div class = numbers>H</div></div></button><button id = button_4 class = ""square num-button"" onclick = ""recordClick(this)""><div class = content><div class = numbers>J</div></div></button><button id = button_5 class = ""square num-button"" onclick = ""recordClick(this)""><div class = content><div class = numbers>K</div></div></button><button id = button_6 class = ""square num-button"" onclick = ""recordClick(this)""><div class = content><div class = numbers>L</div></div></button><button id = button_7 class = ""square num-button"" onclick = ""recordClick(this)""><div class = content><div class = numbers>N</div></div></button><button id = button_8 class = ""square num-button"" onclick = ""recordClick(this)""><div class = content><div class = numbers>P</div></div></button><button id = button_9 class = ""square num-button"" onclick = ""recordClick(this)""><div class = content><div class = numbers>Q</div></div></button><button id = button_10 class = ""square num-button"" onclick = ""recordClick(this)""><div class = content><div class = numbers>R</div></div></button><button id = button_11 class = ""square num-button"" onclick = ""recordClick(this)""><div class = content><div class = numbers>S</div></div></button><button id = button_12 class = ""square num-button"" onclick = ""recordClick(this)""><div class = content><div class = numbers>Y</div></div></button><button class = clear_button id = ""ClearButton"" onclick = ""clearResponse()"">BACKSPACE</button><button class = blank_button id = ""BlankButton"" onclick = ""blankResponse()"">SKIP</button><p style=""font-size: 2.4rem""><u><b>Current Answer:</b></u></p><br><br><div id=echoed_txt style=""font-size: 5rem; color:blue;""><b></b></div></div>",enter,ospan,retrieval,4240YWS7BWVdP8Q3FAhTF6Zk9Pf1,html-keyboard-response,186,1250012,0.0-46.0-6.0-0.0-2.0,33,32,28,5.0,"[""P"",""Y"",""J"",""L"",""C""]","[""P"",""Y"",""J"",""L"",""C""]",1.0,5.0,,,,,,,657867e466a237b839df006a,10:41:03,03/04/2024
1848.1000000238419,[''],0,ospan,feedback,4240YWS7BWVdP8Q3FAhTF6Zk9Pf1,html-button-response,187,1252364,0.0-46.0-6.0-0.0-3.0,,,,,,,,,,,,100.0,0.0,,657867e466a237b839df006a,10:41:03,03/04/2024
,"<p style=""font-size:75px;"">...</p>",,ospan,iti,4240YWS7BWVdP8Q3FAhTF6Zk9Pf1,html-keyboard-response,188,1253373,0.0-46.0-6.0-1.0-0.0,,,,,,,,,,,,,,,657867e466a237b839df006a,10:41:03,03/04/2024
5862.0,,,ospan,symmetry,4240YWS7BWVdP8Q3FAhTF6Zk9Pf1,symmetry-judgement-task,189,1260507,0.0-46.0-6.0-1.0-1.0-0.0,,,,,,,,,,1.0,1.0,,,,657867e466a237b839df006a,10:41:03,03/04/2024
,"<div style=""font-size: 10rem; color: #0000FF"">R</div>",,ospan,letter,4240YWS7BWVdP8Q3FAhTF6Zk9Pf1,html-keyboard-response,190,1261519,0.0-46.0-6.0-1.0-1.0-1.0,,,,,,,,,,,,,,,657867e466a237b839df006a,10:41:03,03/04/2024
2706.0,,,ospan,symmetry,4240YWS7BWVdP8Q3FAhTF6Zk9Pf1,symmetry-judgement-task,191,1266288,0.0-46.0-6.0-1.0-1.0-2.0,,,,,,,,,,1.0,1.0,,,,657867e466a237b839df006a,10:41:03,03/04/2024
,"<div style=""font-size: 10rem; color: #0000FF"">C</div>",,ospan,letter,4240YWS7BWVdP8Q3FAhTF6Zk9Pf1,html-keyboard-response,192,1267304,0.0-46.0-6.0-1.0-1.0-3.0,,,,,,,,,,,,,,,657867e466a237b839df006a,10:41:03,03/04/2024
2795.0,,,ospan,symmetry,4240YWS7BWVdP8Q3FAhTF6Zk9Pf1,symmetry-judgement-task,193,1272203,0.0-46.0-6.0-1.0-1.0-4.0,,,,,,,,,,1.0,1.0,,,,657867e466a237b839df006a,10:41:03,03/04/2024
,"<div style=""font-size: 10rem; color: #0000FF"">J</div>",,ospan,letter,4240YWS7BWVdP8Q3FAhTF6Zk9Pf1,html-keyboard-response,194,1273205,0.0-46.0-6.0-1.0-1.0-5.0,,,,,,,,,,,,,,,657867e466a237b839df006a,10:41:03,03/04/2024
1844.0,,,ospan,symmetry,4240YWS7BWVdP8Q3FAhTF6Zk9Pf1,symmetry-judgement-task,195,1277077,0.0-46.0-6.0-1.0-1.0-6.0,,,,,,,,,,1.0,1.0,,,,657867e466a237b839df006a,10:41:03,03/04/2024
,"<div style=""font-size: 10rem; color: #0000FF"">K</div>",,ospan,letter,4240YWS7BWVdP8Q3FAhTF6Zk9Pf1,html-keyboard-response,196,1278081,0.0-46.0-6.0-1.0-1.0-7.0,,,,,,,,,,,,,,,657867e466a237b839df006a,10:41:03,03/04/2024
1549.0,,,ospan,symmetry,4240YWS7BWVdP8Q3FAhTF6Zk9Pf1,symmetry-judgement-task,197,1281713,0.0-46.0-6.0-1.0-1.0-8.0,,,,,,,,,,1.0,1.0,,,,657867e466a237b839df006a,10:41:03,03/04/2024
,"<div style=""font-size: 10rem; color: #0000FF"">N</div>",,ospan,letter,4240YWS7BWVdP8Q3FAhTF6Zk9Pf1,html-keyboard-response,198,1282726,0.0-46.0-6.0-1.0-1.0-9.0,,,,,,,,,,,,,,,657867e466a237b839df006a,10:41:03,03/04/2024
1294.0,,,ospan,symmetry,4240YWS7BWVdP8Q3FAhTF6Zk9Pf1,symmetry-judgement-task,199,1286048,0.0-46.0-6.0-1.0-1.0-10.0,,,,,,,,,,1.0,1.0,,,,657867e466a237b839df006a,10:41:03,03/04/2024
,"<div style=""font-size: 10rem; color: #0000FF"">Y</div>",,ospan,letter,4240YWS7BWVdP8Q3FAhTF6Zk9Pf1,html-keyboard-response,200,1287051,0.0-46.0-6.0-1.0-1.0-11.0,,,,,,,,,,,,,,,657867e466a237b839df006a,10:41:03,03/04/2024
1839.0,,,ospan,symmetry,4240YWS7BWVdP8Q3FAhTF6Zk9Pf1,symmetry-judgement-task,201,1290945,0.0-46.0-6.0-1.0-1.0-12.0,,,,,,,,,,1.0,1.0,,,,657867e466a237b839df006a,10:41:03,03/04/2024
,"<div style=""font-size: 10rem; color: #0000FF"">S</div>",,ospan,letter,4240YWS7BWVdP8Q3FAhTF6Zk9Pf1,html-keyboard-response,202,1291949,0.0-46.0-6.0-1.0-1.0-13.0,,,,,,,,,,,,,,,657867e466a237b839df006a,10:41:03,03/04/2024
1887.0,,,ospan,symmetry,4240YWS7BWVdP8Q3FAhTF6Zk9Pf1,symmetry-judgement-task,203,1295899,0.0-46.0-6.0-1.0-1.0-14.0,,,,,,,,,,1.0,1.0,,,,657867e466a237b839df006a,10:41:03,03/04/2024
,"<div style=""font-size: 10rem; color: #0000FF"">L</div>",,ospan,letter,4240YWS7BWVdP8Q3FAhTF6Zk9Pf1,html-keyboard-response,204,1296916,0.0-46.0-6.0-1.0-1.0-15.0,,,,,,,,,,,,,,,657867e466a237b839df006a,10:41:03,03/04/2024
17098.5,"<div class = numbox><p style=""font-size: 2.4rem"">Please recall the letters you saw to the best of your ability. If you do not remember a particular letter, use the SKIP button.<br><b>(When you are ready to lock in your answer, press ENTER)</b></p><button id = button_1 class = ""square num-button"" onclick = ""recordClick(this)""><div class = content><div class = numbers>C</div></div></button><button id = button_2 class = ""square num-button"" onclick = ""recordClick(this)""><div class = content><div class = numbers>G</div></div></button><button id = button_3 class = ""square num-button"" onclick = ""recordClick(this)""><div class = content><div class = numbers>H</div></div></button><button id = button_4 class = ""square num-button"" onclick = ""recordClick(this)""><div class = content><div class = numbers>J</div></div></button><button id = button_5 class = ""square num-button"" onclick = ""recordClick(this)""><div class = content><div class = numbers>K</div></div></button><button id = button_6 class = ""square num-button"" onclick = ""recordClick(this)""><div class = content><div class = numbers>L</div></div></button><button id = button_7 class = ""square num-button"" onclick = ""recordClick(this)""><div class = content><div class = numbers>N</div></div></button><button id = button_8 class = ""square num-button"" onclick = ""recordClick(this)""><div class = content><div class = numbers>P</div></div></button><button id = button_9 class = ""square num-button"" onclick = ""recordClick(this)""><div class = content><div class = numbers>Q</div></div></button><button id = button_10 class = ""square num-button"" onclick = ""recordClick(this)""><div class = content><div class = numbers>R</div></div></button><button id = button_11 class = ""square num-button"" onclick = ""recordClick(this)""><div class = content><div class = numbers>S</div></div></button><button id = button_12 class = ""square num-button"" onclick = ""recordClick(this)""><div class = content><div class = numbers>Y</div></div></button><button class = clear_button id = ""ClearButton"" onclick = ""clearResponse()"">BACKSPACE</button><button class = blank_button id = ""BlankButton"" onclick = ""blankResponse()"">SKIP</button><p style=""font-size: 2.4rem""><u><b>Current Answer:</b></u></p><br><br><div id=echoed_txt style=""font-size: 5rem; color:blue;""><b></b></div></div>",enter,ospan,retrieval,4240YWS7BWVdP8Q3FAhTF6Zk9Pf1,html-keyboard-response,205,1314767,0.0-46.0-6.0-1.0-2.0,41,34,28,8.0,"[""R"",""J"",""C"",""Y"",""N"",""S"",""L""]","[""R"",""C"",""J"",""K"",""N"",""Y"",""S"",""L""]",0.0,2.0,,,,,,,657867e466a237b839df006a,10:41:03,03/04/2024
5253.899999976158,[''],0,ospan,feedback,4240YWS7BWVdP8Q3FAhTF6Zk9Pf1,html-button-response,206,1320531,0.0-46.0-6.0-1.0-3.0,,,,,,,,,,,,100.0,0.0,,657867e466a237b839df006a,10:41:03,03/04/2024
23389.400000095367,,{'Q0': 'this task was interesting than earlier'},ospan,survey_ospan,4240YWS7BWVdP8Q3FAhTF6Zk9Pf1,lmdlab-survey-text,207,1344688,0.0-46.0-7.0,,,,,,,,,,,,,,4240YWS7BWVdP8Q3FAhTF6Zk9Pf1,657867e466a237b839df006a,10:41:03,03/04/2024
1707.5,<p><p style='font-size: 3rem'>Great work!<br><br>This completes the symmetry and memory task.</p><br><br><br>,0,ospan,finish,4240YWS7BWVdP8Q3FAhTF6Zk9Pf1,html-button-response,208,1346399,0.0-46.0-8.0,41,34,28,,,,,,,,,100.0,,,657867e466a237b839df006a,10:41:03,03/04/2024
