rt,stimulus,response,exp_name,exp_stage,subjectID,trial_type,trial_index,time_elapsed,internal_node_id,ospan_shown,ospan_total,ospan_abs,length,resp_actual,resp_correct,full_correct,num_correct,feedback,accuracy,correct,math_acc,math_warning,databaseID,prolificID,start_time,date
885.8999999761581,<div class = 'left_align' style='font-size: 3.25rem; line-height: 1.3;'><p class = 'center_align'><b>Welcome to the Symmetry and Memory Task</b><br><br><br><br></p>Press 'continue' to show the instructions.<br><br><br><br></div>,0,ospan,instruct,IZUiCFw9QePInLb3TXdmBiFeJNZ2,html-button-response,51,425707,0.0-43.0-0.0-0.0-0.0,,,,,,,,,,,,,,,59a456d1ec2f75000124f081,17:40:51,06/03/2024
15625.0,"<div class = 'left_align' style='font-size: 3.25rem; line-height: 1.3;'><p class = 'center_align'><b>Symmetry and Memory Task</b><br><br></p>In this task, you will try to memorize letters you see on the screen<br>while you also view black and white grid pictures.<br><br>In the next few minutes, you will have some practice to get you familiar<br>with how the task works.<br><br>It may be difficult sometimes, but please do not worry about making mistakes!<br><br>We will begin by practicing the letter part of the task.<br><br><br><br></div>",0,ospan,instruct,IZUiCFw9QePInLb3TXdmBiFeJNZ2,html-button-response,52,441594,0.0-43.0-0.0-0.0-1.0,,,,,,,,,,,,,,,59a456d1ec2f75000124f081,17:40:51,06/03/2024
34370.199999928474,"<div class = 'left_align' style='font-size: 3.25rem; line-height: 1.3;'>For this practice part, letters will appear on the screen one at a time.<br><br>Try to remember each letter in the order presented.<br><br>After some letters have been shown, you will see a response screen. Your<br>goal is to report the letters you saw <b>in order</b>. If you do not remember<br>a particular letter, you will have the option to leave it blank.<br><br><br><br></div>",0,ospan,instruct,IZUiCFw9QePInLb3TXdmBiFeJNZ2,html-button-response,53,476220,0.0-43.0-0.0-0.0-2.0,,,,,,,,,,,,,,,59a456d1ec2f75000124f081,17:40:51,06/03/2024
3012.1999999284744,"<div class = 'left_align' style='font-size: 3.25rem; line-height: 1.3;'>Remember, it is very important to get the letters in the same<br>order as you see them.<br><br>When you are ready, you may begin the letter practice.</div><br><br><br><br>",0,ospan,instruct,IZUiCFw9QePInLb3TXdmBiFeJNZ2,html-button-response,54,479483,0.0-43.0-0.0-0.0-3.0,,,,,,,,,,,,,,,59a456d1ec2f75000124f081,17:40:51,06/03/2024
,"<p style=""font-size:75px;"">...</p>",,ospan,iti,IZUiCFw9QePInLb3TXdmBiFeJNZ2,html-keyboard-response,55,480739,0.0-43.0-0.0-1.0-0.0,,,,,,,,,,,,,,,59a456d1ec2f75000124f081,17:40:51,06/03/2024
,"<div style=""font-size: 10rem; color: #0000FF"">J</div>",,ospan,letter,IZUiCFw9QePInLb3TXdmBiFeJNZ2,html-keyboard-response,56,481745,0.0-43.0-0.0-1.0-1.0,,,,,,,,,,,,,,,59a456d1ec2f75000124f081,17:40:51,06/03/2024
,"<div style=""font-size: 10rem; color: #0000FF"">R</div>",,ospan,letter,IZUiCFw9QePInLb3TXdmBiFeJNZ2,html-keyboard-response,57,483518,0.0-43.0-0.0-1.0-2.0,,,,,,,,,,,,,,,59a456d1ec2f75000124f081,17:40:51,06/03/2024
12032.899999976158,"<div class = numbox><p style=""font-size: 2.4rem"">Please recall the letters you saw to the best of your ability. If you do not remember a particular letter, use the SKIP button.<br><b>(When you are ready to lock in your answer, press ENTER)</b></p><button id = button_1 class = ""square num-button"" onclick = ""recordClick(this)""><div class = content><div class = numbers>C</div></div></button><button id = button_2 class = ""square num-button"" onclick = ""recordClick(this)""><div class = content><div class = numbers>G</div></div></button><button id = button_3 class = ""square num-button"" onclick = ""recordClick(this)""><div class = content><div class = numbers>H</div></div></button><button id = button_4 class = ""square num-button"" onclick = ""recordClick(this)""><div class = content><div class = numbers>J</div></div></button><button id = button_5 class = ""square num-button"" onclick = ""recordClick(this)""><div class = content><div class = numbers>K</div></div></button><button id = button_6 class = ""square num-button"" onclick = ""recordClick(this)""><div class = content><div class = numbers>L</div></div></button><button id = button_7 class = ""square num-button"" onclick = ""recordClick(this)""><div class = content><div class = numbers>N</div></div></button><button id = button_8 class = ""square num-button"" onclick = ""recordClick(this)""><div class = content><div class = numbers>P</div></div></button><button id = button_9 class = ""square num-button"" onclick = ""recordClick(this)""><div class = content><div class = numbers>Q</div></div></button><button id = button_10 class = ""square num-button"" onclick = ""recordClick(this)""><div class = content><div class = numbers>R</div></div></button><button id = button_11 class = ""square num-button"" onclick = ""recordClick(this)""><div class = content><div class = numbers>S</div></div></button><button id = button_12 class = ""square num-button"" onclick = ""recordClick(this)""><div class = content><div class = numbers>Y</div></div></button><button class = clear_button id = ""ClearButton"" onclick = ""clearResponse()"">BACKSPACE</button><button class = blank_button id = ""BlankButton"" onclick = ""blankResponse()"">SKIP</button><p style=""font-size: 2.4rem""><u><b>Current Answer:</b></u></p><br><br><div id=echoed_txt style=""font-size: 5rem; color:blue;""><b></b></div></div>",enter,ospan,retrieval,IZUiCFw9QePInLb3TXdmBiFeJNZ2,html-keyboard-response,58,496313,0.0-43.0-0.0-1.0-3.0,NA,NA,NA,2.0,"[""J"",""R""]","[""J"",""R""]",1.0,2.0,"['<font color=""green"">J</font>', '<font color=""green"">R</font>']",,,,,,59a456d1ec2f75000124f081,17:40:51,06/03/2024
1585.3000000715256,"['<p style=""font-size:44px"">Letters:<br><br><br><font color=""green"">J</font> <font color=""green"">R</font></p><br><br>']",0,ospan,practice_feedback,IZUiCFw9QePInLb3TXdmBiFeJNZ2,html-button-response,59,498412,0.0-43.0-0.0-1.0-4.0,,,,,,,,,,,,,,,59a456d1ec2f75000124f081,17:40:51,06/03/2024
,"<p style=""font-size:75px;"">...</p>",,ospan,iti,IZUiCFw9QePInLb3TXdmBiFeJNZ2,html-keyboard-response,60,499423,0.0-43.0-0.0-2.0-0.0,,,,,,,,,,,,,,,59a456d1ec2f75000124f081,17:40:51,06/03/2024
,"<div style=""font-size: 10rem; color: #0000FF"">S</div>",,ospan,letter,IZUiCFw9QePInLb3TXdmBiFeJNZ2,html-keyboard-response,61,500430,0.0-43.0-0.0-2.0-1.0,,,,,,,,,,,,,,,59a456d1ec2f75000124f081,17:40:51,06/03/2024
,"<div style=""font-size: 10rem; color: #0000FF"">K</div>",,ospan,letter,IZUiCFw9QePInLb3TXdmBiFeJNZ2,html-keyboard-response,62,502183,0.0-43.0-0.0-2.0-2.0,,,,,,,,,,,,,,,59a456d1ec2f75000124f081,17:40:51,06/03/2024
,"<div style=""font-size: 10rem; color: #0000FF"">H</div>",,ospan,letter,IZUiCFw9QePInLb3TXdmBiFeJNZ2,html-keyboard-response,63,503939,0.0-43.0-0.0-2.0-3.0,,,,,,,,,,,,,,,59a456d1ec2f75000124f081,17:40:51,06/03/2024
7154.599999904633,"<div class = numbox><p style=""font-size: 2.4rem"">Please recall the letters you saw to the best of your ability. If you do not remember a particular letter, use the SKIP button.<br><b>(When you are ready to lock in your answer, press ENTER)</b></p><button id = button_1 class = ""square num-button"" onclick = ""recordClick(this)""><div class = content><div class = numbers>C</div></div></button><button id = button_2 class = ""square num-button"" onclick = ""recordClick(this)""><div class = content><div class = numbers>G</div></div></button><button id = button_3 class = ""square num-button"" onclick = ""recordClick(this)""><div class = content><div class = numbers>H</div></div></button><button id = button_4 class = ""square num-button"" onclick = ""recordClick(this)""><div class = content><div class = numbers>J</div></div></button><button id = button_5 class = ""square num-button"" onclick = ""recordClick(this)""><div class = content><div class = numbers>K</div></div></button><button id = button_6 class = ""square num-button"" onclick = ""recordClick(this)""><div class = content><div class = numbers>L</div></div></button><button id = button_7 class = ""square num-button"" onclick = ""recordClick(this)""><div class = content><div class = numbers>N</div></div></button><button id = button_8 class = ""square num-button"" onclick = ""recordClick(this)""><div class = content><div class = numbers>P</div></div></button><button id = button_9 class = ""square num-button"" onclick = ""recordClick(this)""><div class = content><div class = numbers>Q</div></div></button><button id = button_10 class = ""square num-button"" onclick = ""recordClick(this)""><div class = content><div class = numbers>R</div></div></button><button id = button_11 class = ""square num-button"" onclick = ""recordClick(this)""><div class = content><div class = numbers>S</div></div></button><button id = button_12 class = ""square num-button"" onclick = ""recordClick(this)""><div class = content><div class = numbers>Y</div></div></button><button class = clear_button id = ""ClearButton"" onclick = ""clearResponse()"">BACKSPACE</button><button class = blank_button id = ""BlankButton"" onclick = ""blankResponse()"">SKIP</button><p style=""font-size: 2.4rem""><u><b>Current Answer:</b></u></p><br><br><div id=echoed_txt style=""font-size: 5rem; color:blue;""><b></b></div></div>",enter,ospan,retrieval,IZUiCFw9QePInLb3TXdmBiFeJNZ2,html-keyboard-response,64,511853,0.0-43.0-0.0-2.0-4.0,NA,NA,NA,3.0,"[""S"",""K"",""H""]","[""S"",""K"",""H""]",1.0,3.0,"['<font color=""green"">S</font>', '<font color=""green"">K</font>', '<font color=""green"">H</font>']",,,,,,59a456d1ec2f75000124f081,17:40:51,06/03/2024
3201.1999999284744,"['<p style=""font-size:44px"">Letters:<br><br><br><font color=""green"">S</font> <font color=""green"">K</font> <font color=""green"">H</font></p><br><br>']",0,ospan,practice_feedback,IZUiCFw9QePInLb3TXdmBiFeJNZ2,html-button-response,65,515558,0.0-43.0-0.0-2.0-5.0,,,,,,,,,,,,,,,59a456d1ec2f75000124f081,17:40:51,06/03/2024
32631.100000023842,"<div class = 'left_align' style='font-size: 3.25rem; line-height: 1.3;'>Now you will practice doing the <b>symmetry judgment part</b> of the experiment.<br><br>A black and white grid picture will appear on the screen and you have to judge if it is <br>symmetrical or asymetrical.<br><br>A picture is 'mirror' symmetrical if its left half is identical to the right half when flipped.<br>Here are examples of a symmetrical and an asymetrical picture:<br><br><center><img src='Stimuli/img/symm_instructions_extra.png' style='height:420px; width:900'></img></center><br>To judge symmetry, imagine you were to fold each picture down the middle, like a book –<br>would the left half match the right half when folded onto each other?<br><br></div><br>",0,ospan,instruct,IZUiCFw9QePInLb3TXdmBiFeJNZ2,html-button-response,66,548190,0.0-43.0-1.0-0.0-0.0,,,,,,,,,,,,,,,59a456d1ec2f75000124f081,17:40:51,06/03/2024
4399.399999976158,"<div class = 'left_align' style='font-size: 3.25rem; line-height: 1.3;'>When you have viewed the picture and determined whether it is symmetrical or not,<br>you can <b>click the Yes or No button</b> below to answer.<br><br>If you take longer than 15 seconds, it will continue automatically<br>and record the answer as an error.</div><br>",0,ospan,instruct,IZUiCFw9QePInLb3TXdmBiFeJNZ2,html-button-response,67,552848,0.0-43.0-1.0-0.0-1.0,,,,,,,,,,,,,,,59a456d1ec2f75000124f081,17:40:51,06/03/2024
1301.1000000238419,"<div class = 'left_align' style='font-size: 3.25rem; line-height: 1.3;'>It is <b>very</b> important that you make the symmetry judgment correctly.<br><br>It is also important that you try and judge the picture as quickly as you can.<br><br>When you are ready, click on the button below to try some practice problems.</div><br><br><br><br>",0,ospan,instruct,IZUiCFw9QePInLb3TXdmBiFeJNZ2,html-button-response,68,554401,0.0-43.0-1.0-0.0-2.0,,,,,,,,,,,,,,,59a456d1ec2f75000124f081,17:40:51,06/03/2024
4711.0,,,ospan,symmetry,IZUiCFw9QePInLb3TXdmBiFeJNZ2,symmetry-judgement-task,69,559902,0.0-43.0-1.0-1.0-0.0,,,,,,,,,,1.0,1.0,,,,59a456d1ec2f75000124f081,17:40:51,06/03/2024
,"<p style=""color:green; font-size: 35px"">Correct</p>",,ospan,feedback,IZUiCFw9QePInLb3TXdmBiFeJNZ2,html-keyboard-response,70,560655,0.0-43.0-1.0-1.0-1.0,,,,,,,,,,,,,,,59a456d1ec2f75000124f081,17:40:51,06/03/2024
4392.0,,,ospan,symmetry,IZUiCFw9QePInLb3TXdmBiFeJNZ2,symmetry-judgement-task,71,567722,0.0-43.0-1.0-1.0-2.0,,,,,,,,,,1.0,1.0,,,,59a456d1ec2f75000124f081,17:40:51,06/03/2024
,"<p style=""color:green; font-size: 35px"">Correct</p>",,ospan,feedback,IZUiCFw9QePInLb3TXdmBiFeJNZ2,html-keyboard-response,72,568486,0.0-43.0-1.0-1.0-3.0,,,,,,,,,,,,,,,59a456d1ec2f75000124f081,17:40:51,06/03/2024
1879.0,,,ospan,symmetry,IZUiCFw9QePInLb3TXdmBiFeJNZ2,symmetry-judgement-task,73,573022,0.0-43.0-1.0-1.0-4.0,,,,,,,,,,1.0,1.0,,,,59a456d1ec2f75000124f081,17:40:51,06/03/2024
,"<p style=""color:green; font-size: 35px"">Correct</p>",,ospan,feedback,IZUiCFw9QePInLb3TXdmBiFeJNZ2,html-keyboard-response,74,573788,0.0-43.0-1.0-1.0-5.0,,,,,,,,,,,,,,,59a456d1ec2f75000124f081,17:40:51,06/03/2024
1221.6000000238419,"<p style=""font-size: 3rem;"">You responded correctly on 3 of 3 symmetry judgments. Good job!</p><br><br>",0,ospan,practice,IZUiCFw9QePInLb3TXdmBiFeJNZ2,html-button-response,75,577019,0.0-43.0-1.0-2.0,,,,,,,,,,,,,,,59a456d1ec2f75000124f081,17:40:51,06/03/2024
2055.5,"<div class = 'left_align' style='font-size: 3.25rem; line-height: 1.3;'>Now you will practice doing both parts of the experiment at the same time.<br><br>In the next practice set, you will be given one grid picture to judge.<br>Then letter will appear on the screen. Try to remember the letter.<br><br>It is <b>very important</b> to make the symmetry judgment as quickly and accurately as possible.<br><br>Just as before, once you have make the symmetry judgment, you can click Yes or No.<br><b>Note that you will no longer see Correct or Incorrect feedback.</div><br><br><br><br>",0,ospan,instruct,IZUiCFw9QePInLb3TXdmBiFeJNZ2,html-button-response,76,579326,0.0-43.0-2.0-0.0-0.0,,,,,,,,,,,,,,,59a456d1ec2f75000124f081,17:40:51,06/03/2024
1424.8000000715256,"<div class = 'left_align' style='font-size: 3.25rem; line-height: 1.3;'>After the letter goes away, another grid picture will appear, and then<br>another letter.<br><br>At the end of each set of letters and grids, you will recall the letters to the best<br>of your ability. Remember, try your best to get the letters in the correct order.<br><br>It is important to <b>quickly</b> and <b>accurately</b> make the symmetry judgments.</div><br><br><br><br>",0,ospan,instruct,IZUiCFw9QePInLb3TXdmBiFeJNZ2,html-button-response,77,581008,0.0-43.0-2.0-0.0-1.0,,,,,,,,,,,,,,,59a456d1ec2f75000124f081,17:40:51,06/03/2024
9611.699999928474,"<div class = 'left_align' style='font-size: 3.25rem; line-height: 1.3;'>On the feedback screen, if you are not doing well at the symmetry judgments,<br>you will also see a warning in the middle. This indicates your percent <br>correct for the grid pictures for the entire experiment.<br><br>It is <b>very</b> important for you to keep accuracy at least at 85%: <u>We can only use<br>data where the participant was at least 85% accurate on the judgments.</u> Therefore,<br> please try your best to perform well on the symmetry judgments, <b>at the same time</b><br>doing your best to recall as many letters as possible.<br><br>Click the button to try some practice problems.</div><br><br><br><br>",0,ospan,instruct,IZUiCFw9QePInLb3TXdmBiFeJNZ2,html-button-response,78,590872,0.0-43.0-2.0-0.0-2.0,,,,,,,,,,,,,,,59a456d1ec2f75000124f081,17:40:51,06/03/2024
,"<p style=""font-size:75px;"">...</p>",,ospan,iti,IZUiCFw9QePInLb3TXdmBiFeJNZ2,html-keyboard-response,79,592128,0.0-43.0-2.0-1.0-0.0,,,,,,,,,,,,,,,59a456d1ec2f75000124f081,17:40:51,06/03/2024
2745.0,,,ospan,symmetry,IZUiCFw9QePInLb3TXdmBiFeJNZ2,symmetry-judgement-task,80,595913,0.0-43.0-2.0-1.0-1.0-0.0,,,,,,,,,,1.0,1.0,,,,59a456d1ec2f75000124f081,17:40:51,06/03/2024
,"<div style=""font-size: 10rem; color: #0000FF"">L</div>",,ospan,letter,IZUiCFw9QePInLb3TXdmBiFeJNZ2,html-keyboard-response,81,596928,0.0-43.0-2.0-1.0-1.0-1.0,,,,,,,,,,,,,,,59a456d1ec2f75000124f081,17:40:51,06/03/2024
3503.0,,,ospan,symmetry,IZUiCFw9QePInLb3TXdmBiFeJNZ2,symmetry-judgement-task,82,602231,0.0-43.0-2.0-1.0-1.0-2.0,,,,,,,,,,1.0,1.0,,,,59a456d1ec2f75000124f081,17:40:51,06/03/2024
,"<div style=""font-size: 10rem; color: #0000FF"">H</div>",,ospan,letter,IZUiCFw9QePInLb3TXdmBiFeJNZ2,html-keyboard-response,83,603240,0.0-43.0-2.0-1.0-1.0-3.0,,,,,,,,,,,,,,,59a456d1ec2f75000124f081,17:40:51,06/03/2024
2205.0,,,ospan,symmetry,IZUiCFw9QePInLb3TXdmBiFeJNZ2,symmetry-judgement-task,84,607384,0.0-43.0-2.0-1.0-1.0-4.0,,,,,,,,,,1.0,1.0,,,,59a456d1ec2f75000124f081,17:40:51,06/03/2024
,"<div style=""font-size: 10rem; color: #0000FF"">Q</div>",,ospan,letter,IZUiCFw9QePInLb3TXdmBiFeJNZ2,html-keyboard-response,85,608396,0.0-43.0-2.0-1.0-1.0-5.0,,,,,,,,,,,,,,,59a456d1ec2f75000124f081,17:40:51,06/03/2024
5185.099999904633,"<div class = numbox><p style=""font-size: 2.4rem"">Please recall the letters you saw to the best of your ability. If you do not remember a particular letter, use the SKIP button.<br><b>(When you are ready to lock in your answer, press ENTER)</b></p><button id = button_1 class = ""square num-button"" onclick = ""recordClick(this)""><div class = content><div class = numbers>C</div></div></button><button id = button_2 class = ""square num-button"" onclick = ""recordClick(this)""><div class = content><div class = numbers>G</div></div></button><button id = button_3 class = ""square num-button"" onclick = ""recordClick(this)""><div class = content><div class = numbers>H</div></div></button><button id = button_4 class = ""square num-button"" onclick = ""recordClick(this)""><div class = content><div class = numbers>J</div></div></button><button id = button_5 class = ""square num-button"" onclick = ""recordClick(this)""><div class = content><div class = numbers>K</div></div></button><button id = button_6 class = ""square num-button"" onclick = ""recordClick(this)""><div class = content><div class = numbers>L</div></div></button><button id = button_7 class = ""square num-button"" onclick = ""recordClick(this)""><div class = content><div class = numbers>N</div></div></button><button id = button_8 class = ""square num-button"" onclick = ""recordClick(this)""><div class = content><div class = numbers>P</div></div></button><button id = button_9 class = ""square num-button"" onclick = ""recordClick(this)""><div class = content><div class = numbers>Q</div></div></button><button id = button_10 class = ""square num-button"" onclick = ""recordClick(this)""><div class = content><div class = numbers>R</div></div></button><button id = button_11 class = ""square num-button"" onclick = ""recordClick(this)""><div class = content><div class = numbers>S</div></div></button><button id = button_12 class = ""square num-button"" onclick = ""recordClick(this)""><div class = content><div class = numbers>Y</div></div></button><button class = clear_button id = ""ClearButton"" onclick = ""clearResponse()"">BACKSPACE</button><button class = blank_button id = ""BlankButton"" onclick = ""blankResponse()"">SKIP</button><p style=""font-size: 2.4rem""><u><b>Current Answer:</b></u></p><br><br><div id=echoed_txt style=""font-size: 5rem; color:blue;""><b></b></div></div>",enter,ospan,retrieval,IZUiCFw9QePInLb3TXdmBiFeJNZ2,html-keyboard-response,86,614334,0.0-43.0-2.0-1.0-2.0-0.0,NA,NA,NA,3.0,"[""L"",""H"",""Q""]","[""L"",""H"",""Q""]",1.0,3.0,"['<font color=""green"">L</font>', '<font color=""green"">H</font>', '<font color=""green"">Q</font>']",,,,,,59a456d1ec2f75000124f081,17:40:51,06/03/2024
5163.299999952316,"['<p style=""font-size:44px"">Letters:<br><br><br><font color=""green"">L</font> <font color=""green"">H</font> <font color=""green"">Q</font></p><br><br><p style=""font-size:30px"">Symmetry:<br><br><font color=""green"">100%</font></p><br><br>']",0,ospan,practice_feedback,IZUiCFw9QePInLb3TXdmBiFeJNZ2,html-button-response,87,620010,0.0-43.0-2.0-1.0-2.0-1.0,,,,,,,,,,,,,,,59a456d1ec2f75000124f081,17:40:51,06/03/2024
,"<p style=""font-size:75px;"">...</p>",,ospan,iti,IZUiCFw9QePInLb3TXdmBiFeJNZ2,html-keyboard-response,88,621024,0.0-43.0-2.0-2.0-0.0,,,,,,,,,,,,,,,59a456d1ec2f75000124f081,17:40:51,06/03/2024
3418.0,,,ospan,symmetry,IZUiCFw9QePInLb3TXdmBiFeJNZ2,symmetry-judgement-task,89,625606,0.0-43.0-2.0-2.0-1.0-0.0,,,,,,,,,,1.0,1.0,,,,59a456d1ec2f75000124f081,17:40:51,06/03/2024
,"<div style=""font-size: 10rem; color: #0000FF"">N</div>",,ospan,letter,IZUiCFw9QePInLb3TXdmBiFeJNZ2,html-keyboard-response,90,626618,0.0-43.0-2.0-2.0-1.0-1.0,,,,,,,,,,,,,,,59a456d1ec2f75000124f081,17:40:51,06/03/2024
2153.0,,,ospan,symmetry,IZUiCFw9QePInLb3TXdmBiFeJNZ2,symmetry-judgement-task,91,630705,0.0-43.0-2.0-2.0-1.0-2.0,,,,,,,,,,1.0,1.0,,,,59a456d1ec2f75000124f081,17:40:51,06/03/2024
,"<div style=""font-size: 10rem; color: #0000FF"">Q</div>",,ospan,letter,IZUiCFw9QePInLb3TXdmBiFeJNZ2,html-keyboard-response,92,631717,0.0-43.0-2.0-2.0-1.0-3.0,,,,,,,,,,,,,,,59a456d1ec2f75000124f081,17:40:51,06/03/2024
2307.0,,,ospan,symmetry,IZUiCFw9QePInLb3TXdmBiFeJNZ2,symmetry-judgement-task,93,635957,0.0-43.0-2.0-2.0-1.0-4.0,,,,,,,,,,1.0,1.0,,,,59a456d1ec2f75000124f081,17:40:51,06/03/2024
,"<div style=""font-size: 10rem; color: #0000FF"">K</div>",,ospan,letter,IZUiCFw9QePInLb3TXdmBiFeJNZ2,html-keyboard-response,94,636964,0.0-43.0-2.0-2.0-1.0-5.0,,,,,,,,,,,,,,,59a456d1ec2f75000124f081,17:40:51,06/03/2024
5502.799999952316,"<div class = numbox><p style=""font-size: 2.4rem"">Please recall the letters you saw to the best of your ability. If you do not remember a particular letter, use the SKIP button.<br><b>(When you are ready to lock in your answer, press ENTER)</b></p><button id = button_1 class = ""square num-button"" onclick = ""recordClick(this)""><div class = content><div class = numbers>C</div></div></button><button id = button_2 class = ""square num-button"" onclick = ""recordClick(this)""><div class = content><div class = numbers>G</div></div></button><button id = button_3 class = ""square num-button"" onclick = ""recordClick(this)""><div class = content><div class = numbers>H</div></div></button><button id = button_4 class = ""square num-button"" onclick = ""recordClick(this)""><div class = content><div class = numbers>J</div></div></button><button id = button_5 class = ""square num-button"" onclick = ""recordClick(this)""><div class = content><div class = numbers>K</div></div></button><button id = button_6 class = ""square num-button"" onclick = ""recordClick(this)""><div class = content><div class = numbers>L</div></div></button><button id = button_7 class = ""square num-button"" onclick = ""recordClick(this)""><div class = content><div class = numbers>N</div></div></button><button id = button_8 class = ""square num-button"" onclick = ""recordClick(this)""><div class = content><div class = numbers>P</div></div></button><button id = button_9 class = ""square num-button"" onclick = ""recordClick(this)""><div class = content><div class = numbers>Q</div></div></button><button id = button_10 class = ""square num-button"" onclick = ""recordClick(this)""><div class = content><div class = numbers>R</div></div></button><button id = button_11 class = ""square num-button"" onclick = ""recordClick(this)""><div class = content><div class = numbers>S</div></div></button><button id = button_12 class = ""square num-button"" onclick = ""recordClick(this)""><div class = content><div class = numbers>Y</div></div></button><button class = clear_button id = ""ClearButton"" onclick = ""clearResponse()"">BACKSPACE</button><button class = blank_button id = ""BlankButton"" onclick = ""blankResponse()"">SKIP</button><p style=""font-size: 2.4rem""><u><b>Current Answer:</b></u></p><br><br><div id=echoed_txt style=""font-size: 5rem; color:blue;""><b></b></div></div>",enter,ospan,retrieval,IZUiCFw9QePInLb3TXdmBiFeJNZ2,html-keyboard-response,95,643226,0.0-43.0-2.0-2.0-2.0-0.0,NA,NA,NA,3.0,"[""N"",""Q"",""K""]","[""N"",""Q"",""K""]",1.0,3.0,"['<font color=""green"">N</font>', '<font color=""green"">Q</font>', '<font color=""green"">K</font>']",,,,,,59a456d1ec2f75000124f081,17:40:51,06/03/2024
3327.4000000953674,"['<p style=""font-size:44px"">Letters:<br><br><br><font color=""green"">N</font> <font color=""green"">Q</font> <font color=""green"">K</font></p><br><br><p style=""font-size:30px"">Symmetry:<br><br><font color=""green"">100%</font></p><br><br>']",0,ospan,practice_feedback,IZUiCFw9QePInLb3TXdmBiFeJNZ2,html-button-response,96,647063,0.0-43.0-2.0-2.0-2.0-1.0,,,,,,,,,,,,,,,59a456d1ec2f75000124f081,17:40:51,06/03/2024
13587.200000047684,"<div class = 'left_align' style='font-size: 3rem; line-height: 1.3;'><b>Great work! That is the end of practice.</b><br><br>The real trials will look just like the practice trials you just completed.<br><br><u>Here, you will not see feedback</u>. First, you will see an grid picture to judge,<br>then a letter to remember. When the recall screen appears, report the letters in the<br>order presented. If you forget a letter, remember to use the <b>blank</b> button to move to the<br>next letter. Some of the sets will have more symmetry grids and letters than others.<br><br>It is important that you do your best on both the symmetry judgments and the letter recall<br>parts of the experiment. For for the symmetry judgments, try to work as <b>quickly</b> and <br>as <b>accurately</b> as possible. Remember to keep your symmetry accuracy at 85% or above.<br><br><b>For the letters, do NOT use any external aid (e.g., writing on paper, electronic device).</b><br><br>It is <u>very important</u> to our experiment to have a <b>true</b> view of your real performance.<br><br>Do not worry if you miss some when it gets hard! This task is meant to be very challenging!<br><br>Click the button to begin.</div><br><br><br><br>",0,ospan,starting_real_here,IZUiCFw9QePInLb3TXdmBiFeJNZ2,html-button-response,97,660652,0.0-43.0-2.0-3.0,,,,,,,,,,,,,,,59a456d1ec2f75000124f081,17:40:51,06/03/2024
,"<p style=""font-size:75px;"">...</p>",,ospan,iti,IZUiCFw9QePInLb3TXdmBiFeJNZ2,html-keyboard-response,98,661909,0.0-43.0-3.0-0.0-0.0,,,,,,,,,,,,,,,59a456d1ec2f75000124f081,17:40:51,06/03/2024
2919.0,,,ospan,symmetry,IZUiCFw9QePInLb3TXdmBiFeJNZ2,symmetry-judgement-task,99,666000,0.0-43.0-3.0-0.0-1.0-0.0,,,,,,,,,,1.0,1.0,,,,59a456d1ec2f75000124f081,17:40:51,06/03/2024
,"<div style=""font-size: 10rem; color: #0000FF"">Q</div>",,ospan,letter,IZUiCFw9QePInLb3TXdmBiFeJNZ2,html-keyboard-response,100,667002,0.0-43.0-3.0-0.0-1.0-1.0,,,,,,,,,,,,,,,59a456d1ec2f75000124f081,17:40:51,06/03/2024
1547.0,,,ospan,symmetry,IZUiCFw9QePInLb3TXdmBiFeJNZ2,symmetry-judgement-task,101,670475,0.0-43.0-3.0-0.0-1.0-2.0,,,,,,,,,,1.0,1.0,,,,59a456d1ec2f75000124f081,17:40:51,06/03/2024
,"<div style=""font-size: 10rem; color: #0000FF"">H</div>",,ospan,letter,IZUiCFw9QePInLb3TXdmBiFeJNZ2,html-keyboard-response,102,671491,0.0-43.0-3.0-0.0-1.0-3.0,,,,,,,,,,,,,,,59a456d1ec2f75000124f081,17:40:51,06/03/2024
1509.0,,,ospan,symmetry,IZUiCFw9QePInLb3TXdmBiFeJNZ2,symmetry-judgement-task,103,674950,0.0-43.0-3.0-0.0-1.0-4.0,,,,,,,,,,1.0,1.0,,,,59a456d1ec2f75000124f081,17:40:51,06/03/2024
,"<div style=""font-size: 10rem; color: #0000FF"">N</div>",,ospan,letter,IZUiCFw9QePInLb3TXdmBiFeJNZ2,html-keyboard-response,104,675965,0.0-43.0-3.0-0.0-1.0-5.0,,,,,,,,,,,,,,,59a456d1ec2f75000124f081,17:40:51,06/03/2024
3570.1999999284744,"<div class = numbox><p style=""font-size: 2.4rem"">Please recall the letters you saw to the best of your ability. If you do not remember a particular letter, use the SKIP button.<br><b>(When you are ready to lock in your answer, press ENTER)</b></p><button id = button_1 class = ""square num-button"" onclick = ""recordClick(this)""><div class = content><div class = numbers>C</div></div></button><button id = button_2 class = ""square num-button"" onclick = ""recordClick(this)""><div class = content><div class = numbers>G</div></div></button><button id = button_3 class = ""square num-button"" onclick = ""recordClick(this)""><div class = content><div class = numbers>H</div></div></button><button id = button_4 class = ""square num-button"" onclick = ""recordClick(this)""><div class = content><div class = numbers>J</div></div></button><button id = button_5 class = ""square num-button"" onclick = ""recordClick(this)""><div class = content><div class = numbers>K</div></div></button><button id = button_6 class = ""square num-button"" onclick = ""recordClick(this)""><div class = content><div class = numbers>L</div></div></button><button id = button_7 class = ""square num-button"" onclick = ""recordClick(this)""><div class = content><div class = numbers>N</div></div></button><button id = button_8 class = ""square num-button"" onclick = ""recordClick(this)""><div class = content><div class = numbers>P</div></div></button><button id = button_9 class = ""square num-button"" onclick = ""recordClick(this)""><div class = content><div class = numbers>Q</div></div></button><button id = button_10 class = ""square num-button"" onclick = ""recordClick(this)""><div class = content><div class = numbers>R</div></div></button><button id = button_11 class = ""square num-button"" onclick = ""recordClick(this)""><div class = content><div class = numbers>S</div></div></button><button id = button_12 class = ""square num-button"" onclick = ""recordClick(this)""><div class = content><div class = numbers>Y</div></div></button><button class = clear_button id = ""ClearButton"" onclick = ""clearResponse()"">BACKSPACE</button><button class = blank_button id = ""BlankButton"" onclick = ""blankResponse()"">SKIP</button><p style=""font-size: 2.4rem""><u><b>Current Answer:</b></u></p><br><br><div id=echoed_txt style=""font-size: 5rem; color:blue;""><b></b></div></div>",enter,ospan,retrieval,IZUiCFw9QePInLb3TXdmBiFeJNZ2,html-keyboard-response,105,680293,0.0-43.0-3.0-0.0-2.0,3,3,3,3.0,"[""Q"",""H"",""N""]","[""Q"",""H"",""N""]",1.0,3.0,,,,,,,59a456d1ec2f75000124f081,17:40:51,06/03/2024
1476.7999999523163,[''],0,ospan,feedback,IZUiCFw9QePInLb3TXdmBiFeJNZ2,html-button-response,106,682279,0.0-43.0-3.0-0.0-3.0,,,,,,,,,,,,100.0,0.0,,59a456d1ec2f75000124f081,17:40:51,06/03/2024
,"<p style=""font-size:75px;"">...</p>",,ospan,iti,IZUiCFw9QePInLb3TXdmBiFeJNZ2,html-keyboard-response,107,683290,0.0-43.0-4.0-0.0-0.0,,,,,,,,,,,,,,,59a456d1ec2f75000124f081,17:40:51,06/03/2024
1784.0,,,ospan,symmetry,IZUiCFw9QePInLb3TXdmBiFeJNZ2,symmetry-judgement-task,108,686230,0.0-43.0-4.0-0.0-1.0-0.0,,,,,,,,,,1.0,1.0,,,,59a456d1ec2f75000124f081,17:40:51,06/03/2024
,"<div style=""font-size: 10rem; color: #0000FF"">N</div>",,ospan,letter,IZUiCFw9QePInLb3TXdmBiFeJNZ2,html-keyboard-response,109,687243,0.0-43.0-4.0-0.0-1.0-1.0,,,,,,,,,,,,,,,59a456d1ec2f75000124f081,17:40:51,06/03/2024
2515.0,,,ospan,symmetry,IZUiCFw9QePInLb3TXdmBiFeJNZ2,symmetry-judgement-task,110,691721,0.0-43.0-4.0-0.0-1.0-2.0,,,,,,,,,,1.0,1.0,,,,59a456d1ec2f75000124f081,17:40:51,06/03/2024
,"<div style=""font-size: 10rem; color: #0000FF"">J</div>",,ospan,letter,IZUiCFw9QePInLb3TXdmBiFeJNZ2,html-keyboard-response,111,692732,0.0-43.0-4.0-0.0-1.0-3.0,,,,,,,,,,,,,,,59a456d1ec2f75000124f081,17:40:51,06/03/2024
2536.0,,,ospan,symmetry,IZUiCFw9QePInLb3TXdmBiFeJNZ2,symmetry-judgement-task,112,697172,0.0-43.0-4.0-0.0-1.0-4.0,,,,,,,,,,1.0,1.0,,,,59a456d1ec2f75000124f081,17:40:51,06/03/2024
,"<div style=""font-size: 10rem; color: #0000FF"">P</div>",,ospan,letter,IZUiCFw9QePInLb3TXdmBiFeJNZ2,html-keyboard-response,113,698184,0.0-43.0-4.0-0.0-1.0-5.0,,,,,,,,,,,,,,,59a456d1ec2f75000124f081,17:40:51,06/03/2024
1666.0,,,ospan,symmetry,IZUiCFw9QePInLb3TXdmBiFeJNZ2,symmetry-judgement-task,114,701770,0.0-43.0-4.0-0.0-1.0-6.0,,,,,,,,,,1.0,1.0,,,,59a456d1ec2f75000124f081,17:40:51,06/03/2024
,"<div style=""font-size: 10rem; color: #0000FF"">S</div>",,ospan,letter,IZUiCFw9QePInLb3TXdmBiFeJNZ2,html-keyboard-response,115,702771,0.0-43.0-4.0-0.0-1.0-7.0,,,,,,,,,,,,,,,59a456d1ec2f75000124f081,17:40:51,06/03/2024
5870.100000023842,"<div class = numbox><p style=""font-size: 2.4rem"">Please recall the letters you saw to the best of your ability. If you do not remember a particular letter, use the SKIP button.<br><b>(When you are ready to lock in your answer, press ENTER)</b></p><button id = button_1 class = ""square num-button"" onclick = ""recordClick(this)""><div class = content><div class = numbers>C</div></div></button><button id = button_2 class = ""square num-button"" onclick = ""recordClick(this)""><div class = content><div class = numbers>G</div></div></button><button id = button_3 class = ""square num-button"" onclick = ""recordClick(this)""><div class = content><div class = numbers>H</div></div></button><button id = button_4 class = ""square num-button"" onclick = ""recordClick(this)""><div class = content><div class = numbers>J</div></div></button><button id = button_5 class = ""square num-button"" onclick = ""recordClick(this)""><div class = content><div class = numbers>K</div></div></button><button id = button_6 class = ""square num-button"" onclick = ""recordClick(this)""><div class = content><div class = numbers>L</div></div></button><button id = button_7 class = ""square num-button"" onclick = ""recordClick(this)""><div class = content><div class = numbers>N</div></div></button><button id = button_8 class = ""square num-button"" onclick = ""recordClick(this)""><div class = content><div class = numbers>P</div></div></button><button id = button_9 class = ""square num-button"" onclick = ""recordClick(this)""><div class = content><div class = numbers>Q</div></div></button><button id = button_10 class = ""square num-button"" onclick = ""recordClick(this)""><div class = content><div class = numbers>R</div></div></button><button id = button_11 class = ""square num-button"" onclick = ""recordClick(this)""><div class = content><div class = numbers>S</div></div></button><button id = button_12 class = ""square num-button"" onclick = ""recordClick(this)""><div class = content><div class = numbers>Y</div></div></button><button class = clear_button id = ""ClearButton"" onclick = ""clearResponse()"">BACKSPACE</button><button class = blank_button id = ""BlankButton"" onclick = ""blankResponse()"">SKIP</button><p style=""font-size: 2.4rem""><u><b>Current Answer:</b></u></p><br><br><div id=echoed_txt style=""font-size: 5rem; color:blue;""><b></b></div></div>",enter,ospan,retrieval,IZUiCFw9QePInLb3TXdmBiFeJNZ2,html-keyboard-response,116,709392,0.0-43.0-4.0-0.0-2.0,7,7,7,4.0,"[""N"",""J"",""P"",""S""]","[""N"",""J"",""P"",""S""]",1.0,4.0,,,,,,,59a456d1ec2f75000124f081,17:40:51,06/03/2024
2935.100000023842,[''],0,ospan,feedback,IZUiCFw9QePInLb3TXdmBiFeJNZ2,html-button-response,117,712836,0.0-43.0-4.0-0.0-3.0,,,,,,,,,,,,100.0,0.0,,59a456d1ec2f75000124f081,17:40:51,06/03/2024
,"<p style=""font-size:75px;"">...</p>",,ospan,iti,IZUiCFw9QePInLb3TXdmBiFeJNZ2,html-keyboard-response,118,713831,0.0-43.0-4.0-1.0-0.0,,,,,,,,,,,,,,,59a456d1ec2f75000124f081,17:40:51,06/03/2024
2238.0,,,ospan,symmetry,IZUiCFw9QePInLb3TXdmBiFeJNZ2,symmetry-judgement-task,119,717116,0.0-43.0-4.0-1.0-1.0-0.0,,,,,,,,,,1.0,1.0,,,,59a456d1ec2f75000124f081,17:40:51,06/03/2024
,"<div style=""font-size: 10rem; color: #0000FF"">N</div>",,ospan,letter,IZUiCFw9QePInLb3TXdmBiFeJNZ2,html-keyboard-response,120,718129,0.0-43.0-4.0-1.0-1.0-1.0,,,,,,,,,,,,,,,59a456d1ec2f75000124f081,17:40:51,06/03/2024
1396.0,,,ospan,symmetry,IZUiCFw9QePInLb3TXdmBiFeJNZ2,symmetry-judgement-task,121,721470,0.0-43.0-4.0-1.0-1.0-2.0,,,,,,,,,,1.0,1.0,,,,59a456d1ec2f75000124f081,17:40:51,06/03/2024
,"<div style=""font-size: 10rem; color: #0000FF"">H</div>",,ospan,letter,IZUiCFw9QePInLb3TXdmBiFeJNZ2,html-keyboard-response,122,722481,0.0-43.0-4.0-1.0-1.0-3.0,,,,,,,,,,,,,,,59a456d1ec2f75000124f081,17:40:51,06/03/2024
1794.0,,,ospan,symmetry,IZUiCFw9QePInLb3TXdmBiFeJNZ2,symmetry-judgement-task,123,726194,0.0-43.0-4.0-1.0-1.0-4.0,,,,,,,,,,1.0,1.0,,,,59a456d1ec2f75000124f081,17:40:51,06/03/2024
,"<div style=""font-size: 10rem; color: #0000FF"">L</div>",,ospan,letter,IZUiCFw9QePInLb3TXdmBiFeJNZ2,html-keyboard-response,124,727204,0.0-43.0-4.0-1.0-1.0-5.0,,,,,,,,,,,,,,,59a456d1ec2f75000124f081,17:40:51,06/03/2024
1905.0,,,ospan,symmetry,IZUiCFw9QePInLb3TXdmBiFeJNZ2,symmetry-judgement-task,125,731076,0.0-43.0-4.0-1.0-1.0-6.0,,,,,,,,,,1.0,1.0,,,,59a456d1ec2f75000124f081,17:40:51,06/03/2024
,"<div style=""font-size: 10rem; color: #0000FF"">S</div>",,ospan,letter,IZUiCFw9QePInLb3TXdmBiFeJNZ2,html-keyboard-response,126,732080,0.0-43.0-4.0-1.0-1.0-7.0,,,,,,,,,,,,,,,59a456d1ec2f75000124f081,17:40:51,06/03/2024
2396.0,,,ospan,symmetry,IZUiCFw9QePInLb3TXdmBiFeJNZ2,symmetry-judgement-task,127,736405,0.0-43.0-4.0-1.0-1.0-8.0,,,,,,,,,,1.0,1.0,,,,59a456d1ec2f75000124f081,17:40:51,06/03/2024
,"<div style=""font-size: 10rem; color: #0000FF"">P</div>",,ospan,letter,IZUiCFw9QePInLb3TXdmBiFeJNZ2,html-keyboard-response,128,737406,0.0-43.0-4.0-1.0-1.0-9.0,,,,,,,,,,,,,,,59a456d1ec2f75000124f081,17:40:51,06/03/2024
4898.900000095367,"<div class = numbox><p style=""font-size: 2.4rem"">Please recall the letters you saw to the best of your ability. If you do not remember a particular letter, use the SKIP button.<br><b>(When you are ready to lock in your answer, press ENTER)</b></p><button id = button_1 class = ""square num-button"" onclick = ""recordClick(this)""><div class = content><div class = numbers>C</div></div></button><button id = button_2 class = ""square num-button"" onclick = ""recordClick(this)""><div class = content><div class = numbers>G</div></div></button><button id = button_3 class = ""square num-button"" onclick = ""recordClick(this)""><div class = content><div class = numbers>H</div></div></button><button id = button_4 class = ""square num-button"" onclick = ""recordClick(this)""><div class = content><div class = numbers>J</div></div></button><button id = button_5 class = ""square num-button"" onclick = ""recordClick(this)""><div class = content><div class = numbers>K</div></div></button><button id = button_6 class = ""square num-button"" onclick = ""recordClick(this)""><div class = content><div class = numbers>L</div></div></button><button id = button_7 class = ""square num-button"" onclick = ""recordClick(this)""><div class = content><div class = numbers>N</div></div></button><button id = button_8 class = ""square num-button"" onclick = ""recordClick(this)""><div class = content><div class = numbers>P</div></div></button><button id = button_9 class = ""square num-button"" onclick = ""recordClick(this)""><div class = content><div class = numbers>Q</div></div></button><button id = button_10 class = ""square num-button"" onclick = ""recordClick(this)""><div class = content><div class = numbers>R</div></div></button><button id = button_11 class = ""square num-button"" onclick = ""recordClick(this)""><div class = content><div class = numbers>S</div></div></button><button id = button_12 class = ""square num-button"" onclick = ""recordClick(this)""><div class = content><div class = numbers>Y</div></div></button><button class = clear_button id = ""ClearButton"" onclick = ""clearResponse()"">BACKSPACE</button><button class = blank_button id = ""BlankButton"" onclick = ""blankResponse()"">SKIP</button><p style=""font-size: 2.4rem""><u><b>Current Answer:</b></u></p><br><br><div id=echoed_txt style=""font-size: 5rem; color:blue;""><b></b></div></div>",enter,ospan,retrieval,IZUiCFw9QePInLb3TXdmBiFeJNZ2,html-keyboard-response,129,743071,0.0-43.0-4.0-1.0-2.0,12,12,12,5.0,"[""N"",""H"",""L"",""S"",""P""]","[""N"",""H"",""L"",""S"",""P""]",1.0,5.0,,,,,,,59a456d1ec2f75000124f081,17:40:51,06/03/2024
7184.799999952316,[''],0,ospan,feedback,IZUiCFw9QePInLb3TXdmBiFeJNZ2,html-button-response,130,750764,0.0-43.0-4.0-1.0-3.0,,,,,,,,,,,,100.0,0.0,,59a456d1ec2f75000124f081,17:40:51,06/03/2024
,"<p style=""font-size:75px;"">...</p>",,ospan,iti,IZUiCFw9QePInLb3TXdmBiFeJNZ2,html-keyboard-response,131,751778,0.0-43.0-4.0-2.0-0.0,,,,,,,,,,,,,,,59a456d1ec2f75000124f081,17:40:51,06/03/2024
1328.0,,,ospan,symmetry,IZUiCFw9QePInLb3TXdmBiFeJNZ2,symmetry-judgement-task,132,754271,0.0-43.0-4.0-2.0-1.0-0.0,,,,,,,,,,1.0,1.0,,,,59a456d1ec2f75000124f081,17:40:51,06/03/2024
,"<div style=""font-size: 10rem; color: #0000FF"">P</div>",,ospan,letter,IZUiCFw9QePInLb3TXdmBiFeJNZ2,html-keyboard-response,133,755275,0.0-43.0-4.0-2.0-1.0-1.0,,,,,,,,,,,,,,,59a456d1ec2f75000124f081,17:40:51,06/03/2024
2052.0,,,ospan,symmetry,IZUiCFw9QePInLb3TXdmBiFeJNZ2,symmetry-judgement-task,134,759132,0.0-43.0-4.0-2.0-1.0-2.0,,,,,,,,,,1.0,1.0,,,,59a456d1ec2f75000124f081,17:40:51,06/03/2024
,"<div style=""font-size: 10rem; color: #0000FF"">R</div>",,ospan,letter,IZUiCFw9QePInLb3TXdmBiFeJNZ2,html-keyboard-response,135,760145,0.0-43.0-4.0-2.0-1.0-3.0,,,,,,,,,,,,,,,59a456d1ec2f75000124f081,17:40:51,06/03/2024
2855.0,,,ospan,symmetry,IZUiCFw9QePInLb3TXdmBiFeJNZ2,symmetry-judgement-task,136,764949,0.0-43.0-4.0-2.0-1.0-4.0,,,,,,,,,,1.0,1.0,,,,59a456d1ec2f75000124f081,17:40:51,06/03/2024
,"<div style=""font-size: 10rem; color: #0000FF"">G</div>",,ospan,letter,IZUiCFw9QePInLb3TXdmBiFeJNZ2,html-keyboard-response,137,765962,0.0-43.0-4.0-2.0-1.0-5.0,,,,,,,,,,,,,,,59a456d1ec2f75000124f081,17:40:51,06/03/2024
4164.400000095367,"<div class = numbox><p style=""font-size: 2.4rem"">Please recall the letters you saw to the best of your ability. If you do not remember a particular letter, use the SKIP button.<br><b>(When you are ready to lock in your answer, press ENTER)</b></p><button id = button_1 class = ""square num-button"" onclick = ""recordClick(this)""><div class = content><div class = numbers>C</div></div></button><button id = button_2 class = ""square num-button"" onclick = ""recordClick(this)""><div class = content><div class = numbers>G</div></div></button><button id = button_3 class = ""square num-button"" onclick = ""recordClick(this)""><div class = content><div class = numbers>H</div></div></button><button id = button_4 class = ""square num-button"" onclick = ""recordClick(this)""><div class = content><div class = numbers>J</div></div></button><button id = button_5 class = ""square num-button"" onclick = ""recordClick(this)""><div class = content><div class = numbers>K</div></div></button><button id = button_6 class = ""square num-button"" onclick = ""recordClick(this)""><div class = content><div class = numbers>L</div></div></button><button id = button_7 class = ""square num-button"" onclick = ""recordClick(this)""><div class = content><div class = numbers>N</div></div></button><button id = button_8 class = ""square num-button"" onclick = ""recordClick(this)""><div class = content><div class = numbers>P</div></div></button><button id = button_9 class = ""square num-button"" onclick = ""recordClick(this)""><div class = content><div class = numbers>Q</div></div></button><button id = button_10 class = ""square num-button"" onclick = ""recordClick(this)""><div class = content><div class = numbers>R</div></div></button><button id = button_11 class = ""square num-button"" onclick = ""recordClick(this)""><div class = content><div class = numbers>S</div></div></button><button id = button_12 class = ""square num-button"" onclick = ""recordClick(this)""><div class = content><div class = numbers>Y</div></div></button><button class = clear_button id = ""ClearButton"" onclick = ""clearResponse()"">BACKSPACE</button><button class = blank_button id = ""BlankButton"" onclick = ""blankResponse()"">SKIP</button><p style=""font-size: 2.4rem""><u><b>Current Answer:</b></u></p><br><br><div id=echoed_txt style=""font-size: 5rem; color:blue;""><b></b></div></div>",enter,ospan,retrieval,IZUiCFw9QePInLb3TXdmBiFeJNZ2,html-keyboard-response,138,770886,0.0-43.0-4.0-2.0-2.0,15,15,15,3.0,"[""P"",""R"",""G""]","[""P"",""R"",""G""]",1.0,3.0,,,,,,,59a456d1ec2f75000124f081,17:40:51,06/03/2024
22242.600000023842,[''],0,ospan,feedback,IZUiCFw9QePInLb3TXdmBiFeJNZ2,html-button-response,139,793639,0.0-43.0-4.0-2.0-3.0,,,,,,,,,,,,100.0,0.0,,59a456d1ec2f75000124f081,17:40:51,06/03/2024
,"<p style=""font-size:75px;"">...</p>",,ospan,iti,IZUiCFw9QePInLb3TXdmBiFeJNZ2,html-keyboard-response,140,794653,0.0-43.0-5.0-0.0-0.0,,,,,,,,,,,,,,,59a456d1ec2f75000124f081,17:40:51,06/03/2024
2469.0,,,ospan,symmetry,IZUiCFw9QePInLb3TXdmBiFeJNZ2,symmetry-judgement-task,141,798290,0.0-43.0-5.0-0.0-1.0-0.0,,,,,,,,,,1.0,1.0,,,,59a456d1ec2f75000124f081,17:40:51,06/03/2024
,"<div style=""font-size: 10rem; color: #0000FF"">H</div>",,ospan,letter,IZUiCFw9QePInLb3TXdmBiFeJNZ2,html-keyboard-response,142,799307,0.0-43.0-5.0-0.0-1.0-1.0,,,,,,,,,,,,,,,59a456d1ec2f75000124f081,17:40:51,06/03/2024
3075.0,,,ospan,symmetry,IZUiCFw9QePInLb3TXdmBiFeJNZ2,symmetry-judgement-task,143,804306,0.0-43.0-5.0-0.0-1.0-2.0,,,,,,,,,,1.0,1.0,,,,59a456d1ec2f75000124f081,17:40:51,06/03/2024
,"<div style=""font-size: 10rem; color: #0000FF"">S</div>",,ospan,letter,IZUiCFw9QePInLb3TXdmBiFeJNZ2,html-keyboard-response,144,805322,0.0-43.0-5.0-0.0-1.0-3.0,,,,,,,,,,,,,,,59a456d1ec2f75000124f081,17:40:51,06/03/2024
1721.0,,,ospan,symmetry,IZUiCFw9QePInLb3TXdmBiFeJNZ2,symmetry-judgement-task,145,808978,0.0-43.0-5.0-0.0-1.0-4.0,,,,,,,,,,1.0,1.0,,,,59a456d1ec2f75000124f081,17:40:51,06/03/2024
,"<div style=""font-size: 10rem; color: #0000FF"">J</div>",,ospan,letter,IZUiCFw9QePInLb3TXdmBiFeJNZ2,html-keyboard-response,146,809993,0.0-43.0-5.0-0.0-1.0-5.0,,,,,,,,,,,,,,,59a456d1ec2f75000124f081,17:40:51,06/03/2024
1709.0,,,ospan,symmetry,IZUiCFw9QePInLb3TXdmBiFeJNZ2,symmetry-judgement-task,147,813628,0.0-43.0-5.0-0.0-1.0-6.0,,,,,,,,,,1.0,1.0,,,,59a456d1ec2f75000124f081,17:40:51,06/03/2024
,"<div style=""font-size: 10rem; color: #0000FF"">P</div>",,ospan,letter,IZUiCFw9QePInLb3TXdmBiFeJNZ2,html-keyboard-response,148,814629,0.0-43.0-5.0-0.0-1.0-7.0,,,,,,,,,,,,,,,59a456d1ec2f75000124f081,17:40:51,06/03/2024
6074.0,,,ospan,symmetry,IZUiCFw9QePInLb3TXdmBiFeJNZ2,symmetry-judgement-task,149,822637,0.0-43.0-5.0-0.0-1.0-8.0,,,,,,,,,,1.0,1.0,,,,59a456d1ec2f75000124f081,17:40:51,06/03/2024
,"<div style=""font-size: 10rem; color: #0000FF"">K</div>",,ospan,letter,IZUiCFw9QePInLb3TXdmBiFeJNZ2,html-keyboard-response,150,823646,0.0-43.0-5.0-0.0-1.0-9.0,,,,,,,,,,,,,,,59a456d1ec2f75000124f081,17:40:51,06/03/2024
1173.0,,,ospan,symmetry,IZUiCFw9QePInLb3TXdmBiFeJNZ2,symmetry-judgement-task,151,826743,0.0-43.0-5.0-0.0-1.0-10.0,,,,,,,,,,1.0,1.0,,,,59a456d1ec2f75000124f081,17:40:51,06/03/2024
,"<div style=""font-size: 10rem; color: #0000FF"">C</div>",,ospan,letter,IZUiCFw9QePInLb3TXdmBiFeJNZ2,html-keyboard-response,152,827755,0.0-43.0-5.0-0.0-1.0-11.0,,,,,,,,,,,,,,,59a456d1ec2f75000124f081,17:40:51,06/03/2024
6056.0,"<div class = numbox><p style=""font-size: 2.4rem"">Please recall the letters you saw to the best of your ability. If you do not remember a particular letter, use the SKIP button.<br><b>(When you are ready to lock in your answer, press ENTER)</b></p><button id = button_1 class = ""square num-button"" onclick = ""recordClick(this)""><div class = content><div class = numbers>C</div></div></button><button id = button_2 class = ""square num-button"" onclick = ""recordClick(this)""><div class = content><div class = numbers>G</div></div></button><button id = button_3 class = ""square num-button"" onclick = ""recordClick(this)""><div class = content><div class = numbers>H</div></div></button><button id = button_4 class = ""square num-button"" onclick = ""recordClick(this)""><div class = content><div class = numbers>J</div></div></button><button id = button_5 class = ""square num-button"" onclick = ""recordClick(this)""><div class = content><div class = numbers>K</div></div></button><button id = button_6 class = ""square num-button"" onclick = ""recordClick(this)""><div class = content><div class = numbers>L</div></div></button><button id = button_7 class = ""square num-button"" onclick = ""recordClick(this)""><div class = content><div class = numbers>N</div></div></button><button id = button_8 class = ""square num-button"" onclick = ""recordClick(this)""><div class = content><div class = numbers>P</div></div></button><button id = button_9 class = ""square num-button"" onclick = ""recordClick(this)""><div class = content><div class = numbers>Q</div></div></button><button id = button_10 class = ""square num-button"" onclick = ""recordClick(this)""><div class = content><div class = numbers>R</div></div></button><button id = button_11 class = ""square num-button"" onclick = ""recordClick(this)""><div class = content><div class = numbers>S</div></div></button><button id = button_12 class = ""square num-button"" onclick = ""recordClick(this)""><div class = content><div class = numbers>Y</div></div></button><button class = clear_button id = ""ClearButton"" onclick = ""clearResponse()"">BACKSPACE</button><button class = blank_button id = ""BlankButton"" onclick = ""blankResponse()"">SKIP</button><p style=""font-size: 2.4rem""><u><b>Current Answer:</b></u></p><br><br><div id=echoed_txt style=""font-size: 5rem; color:blue;""><b></b></div></div>",enter,ospan,retrieval,IZUiCFw9QePInLb3TXdmBiFeJNZ2,html-keyboard-response,153,834564,0.0-43.0-5.0-0.0-2.0,21,21,21,6.0,"[""H"",""S"",""J"",""P"",""K"",""C""]","[""H"",""S"",""J"",""P"",""K"",""C""]",1.0,6.0,,,,,,,59a456d1ec2f75000124f081,17:40:51,06/03/2024
1170.1000000238419,[''],0,ospan,feedback,IZUiCFw9QePInLb3TXdmBiFeJNZ2,html-button-response,154,836236,0.0-43.0-5.0-0.0-3.0,,,,,,,,,,,,100.0,0.0,,59a456d1ec2f75000124f081,17:40:51,06/03/2024
,"<p style=""font-size:75px;"">...</p>",,ospan,iti,IZUiCFw9QePInLb3TXdmBiFeJNZ2,html-keyboard-response,155,837243,0.0-43.0-5.0-1.0-0.0,,,,,,,,,,,,,,,59a456d1ec2f75000124f081,17:40:51,06/03/2024
3507.0,,,ospan,symmetry,IZUiCFw9QePInLb3TXdmBiFeJNZ2,symmetry-judgement-task,156,841784,0.0-43.0-5.0-1.0-1.0-0.0,,,,,,,,,,1.0,1.0,,,,59a456d1ec2f75000124f081,17:40:51,06/03/2024
,"<div style=""font-size: 10rem; color: #0000FF"">H</div>",,ospan,letter,IZUiCFw9QePInLb3TXdmBiFeJNZ2,html-keyboard-response,157,842794,0.0-43.0-5.0-1.0-1.0-1.0,,,,,,,,,,,,,,,59a456d1ec2f75000124f081,17:40:51,06/03/2024
4133.0,,,ospan,symmetry,IZUiCFw9QePInLb3TXdmBiFeJNZ2,symmetry-judgement-task,158,848856,0.0-43.0-5.0-1.0-1.0-2.0,,,,,,,,,,1.0,1.0,,,,59a456d1ec2f75000124f081,17:40:51,06/03/2024
,"<div style=""font-size: 10rem; color: #0000FF"">G</div>",,ospan,letter,IZUiCFw9QePInLb3TXdmBiFeJNZ2,html-keyboard-response,159,849867,0.0-43.0-5.0-1.0-1.0-3.0,,,,,,,,,,,,,,,59a456d1ec2f75000124f081,17:40:51,06/03/2024
2939.0,,,ospan,symmetry,IZUiCFw9QePInLb3TXdmBiFeJNZ2,symmetry-judgement-task,160,854743,0.0-43.0-5.0-1.0-1.0-4.0,,,,,,,,,,1.0,1.0,,,,59a456d1ec2f75000124f081,17:40:51,06/03/2024
,"<div style=""font-size: 10rem; color: #0000FF"">Y</div>",,ospan,letter,IZUiCFw9QePInLb3TXdmBiFeJNZ2,html-keyboard-response,161,855759,0.0-43.0-5.0-1.0-1.0-5.0,,,,,,,,,,,,,,,59a456d1ec2f75000124f081,17:40:51,06/03/2024
2058.0,,,ospan,symmetry,IZUiCFw9QePInLb3TXdmBiFeJNZ2,symmetry-judgement-task,162,859761,0.0-43.0-5.0-1.0-1.0-6.0,,,,,,,,,,1.0,1.0,,,,59a456d1ec2f75000124f081,17:40:51,06/03/2024
,"<div style=""font-size: 10rem; color: #0000FF"">L</div>",,ospan,letter,IZUiCFw9QePInLb3TXdmBiFeJNZ2,html-keyboard-response,163,860772,0.0-43.0-5.0-1.0-1.0-7.0,,,,,,,,,,,,,,,59a456d1ec2f75000124f081,17:40:51,06/03/2024
2737.0,,,ospan,symmetry,IZUiCFw9QePInLb3TXdmBiFeJNZ2,symmetry-judgement-task,164,865452,0.0-43.0-5.0-1.0-1.0-8.0,,,,,,,,,,1.0,1.0,,,,59a456d1ec2f75000124f081,17:40:51,06/03/2024
,"<div style=""font-size: 10rem; color: #0000FF"">R</div>",,ospan,letter,IZUiCFw9QePInLb3TXdmBiFeJNZ2,html-keyboard-response,165,866456,0.0-43.0-5.0-1.0-1.0-9.0,,,,,,,,,,,,,,,59a456d1ec2f75000124f081,17:40:51,06/03/2024
2103.0,,,ospan,symmetry,IZUiCFw9QePInLb3TXdmBiFeJNZ2,symmetry-judgement-task,166,870496,0.0-43.0-5.0-1.0-1.0-10.0,,,,,,,,,,1.0,1.0,,,,59a456d1ec2f75000124f081,17:40:51,06/03/2024
,"<div style=""font-size: 10rem; color: #0000FF"">C</div>",,ospan,letter,IZUiCFw9QePInLb3TXdmBiFeJNZ2,html-keyboard-response,167,871507,0.0-43.0-5.0-1.0-1.0-11.0,,,,,,,,,,,,,,,59a456d1ec2f75000124f081,17:40:51,06/03/2024
1849.0,,,ospan,symmetry,IZUiCFw9QePInLb3TXdmBiFeJNZ2,symmetry-judgement-task,168,875287,0.0-43.0-5.0-1.0-1.0-12.0,,,,,,,,,,1.0,1.0,,,,59a456d1ec2f75000124f081,17:40:51,06/03/2024
,"<div style=""font-size: 10rem; color: #0000FF"">S</div>",,ospan,letter,IZUiCFw9QePInLb3TXdmBiFeJNZ2,html-keyboard-response,169,876299,0.0-43.0-5.0-1.0-1.0-13.0,,,,,,,,,,,,,,,59a456d1ec2f75000124f081,17:40:51,06/03/2024
7115.899999976158,"<div class = numbox><p style=""font-size: 2.4rem"">Please recall the letters you saw to the best of your ability. If you do not remember a particular letter, use the SKIP button.<br><b>(When you are ready to lock in your answer, press ENTER)</b></p><button id = button_1 class = ""square num-button"" onclick = ""recordClick(this)""><div class = content><div class = numbers>C</div></div></button><button id = button_2 class = ""square num-button"" onclick = ""recordClick(this)""><div class = content><div class = numbers>G</div></div></button><button id = button_3 class = ""square num-button"" onclick = ""recordClick(this)""><div class = content><div class = numbers>H</div></div></button><button id = button_4 class = ""square num-button"" onclick = ""recordClick(this)""><div class = content><div class = numbers>J</div></div></button><button id = button_5 class = ""square num-button"" onclick = ""recordClick(this)""><div class = content><div class = numbers>K</div></div></button><button id = button_6 class = ""square num-button"" onclick = ""recordClick(this)""><div class = content><div class = numbers>L</div></div></button><button id = button_7 class = ""square num-button"" onclick = ""recordClick(this)""><div class = content><div class = numbers>N</div></div></button><button id = button_8 class = ""square num-button"" onclick = ""recordClick(this)""><div class = content><div class = numbers>P</div></div></button><button id = button_9 class = ""square num-button"" onclick = ""recordClick(this)""><div class = content><div class = numbers>Q</div></div></button><button id = button_10 class = ""square num-button"" onclick = ""recordClick(this)""><div class = content><div class = numbers>R</div></div></button><button id = button_11 class = ""square num-button"" onclick = ""recordClick(this)""><div class = content><div class = numbers>S</div></div></button><button id = button_12 class = ""square num-button"" onclick = ""recordClick(this)""><div class = content><div class = numbers>Y</div></div></button><button class = clear_button id = ""ClearButton"" onclick = ""clearResponse()"">BACKSPACE</button><button class = blank_button id = ""BlankButton"" onclick = ""blankResponse()"">SKIP</button><p style=""font-size: 2.4rem""><u><b>Current Answer:</b></u></p><br><br><div id=echoed_txt style=""font-size: 5rem; color:blue;""><b></b></div></div>",enter,ospan,retrieval,IZUiCFw9QePInLb3TXdmBiFeJNZ2,html-keyboard-response,170,884168,0.0-43.0-5.0-1.0-2.0,28,25,21,7.0,"[""H"",""L"",""G"",""Y"",""R"",""C"",""S""]","[""H"",""G"",""Y"",""L"",""R"",""C"",""S""]",0.0,4.0,,,,,,,59a456d1ec2f75000124f081,17:40:51,06/03/2024
1096.8999999761581,[''],0,ospan,feedback,IZUiCFw9QePInLb3TXdmBiFeJNZ2,html-button-response,171,885768,0.0-43.0-5.0-1.0-3.0,,,,,,,,,,,,100.0,0.0,,59a456d1ec2f75000124f081,17:40:51,06/03/2024
,"<p style=""font-size:75px;"">...</p>",,ospan,iti,IZUiCFw9QePInLb3TXdmBiFeJNZ2,html-keyboard-response,172,886779,0.0-43.0-6.0-0.0-0.0,,,,,,,,,,,,,,,59a456d1ec2f75000124f081,17:40:51,06/03/2024
1460.0,,,ospan,symmetry,IZUiCFw9QePInLb3TXdmBiFeJNZ2,symmetry-judgement-task,173,889274,0.0-43.0-6.0-0.0-1.0-0.0,,,,,,,,,,1.0,1.0,,,,59a456d1ec2f75000124f081,17:40:51,06/03/2024
,"<div style=""font-size: 10rem; color: #0000FF"">C</div>",,ospan,letter,IZUiCFw9QePInLb3TXdmBiFeJNZ2,html-keyboard-response,174,890281,0.0-43.0-6.0-0.0-1.0-1.0,,,,,,,,,,,,,,,59a456d1ec2f75000124f081,17:40:51,06/03/2024
1542.0,,,ospan,symmetry,IZUiCFw9QePInLb3TXdmBiFeJNZ2,symmetry-judgement-task,175,893750,0.0-43.0-6.0-0.0-1.0-2.0,,,,,,,,,,1.0,1.0,,,,59a456d1ec2f75000124f081,17:40:51,06/03/2024
,"<div style=""font-size: 10rem; color: #0000FF"">G</div>",,ospan,letter,IZUiCFw9QePInLb3TXdmBiFeJNZ2,html-keyboard-response,176,894756,0.0-43.0-6.0-0.0-1.0-3.0,,,,,,,,,,,,,,,59a456d1ec2f75000124f081,17:40:51,06/03/2024
3019.0,,,ospan,symmetry,IZUiCFw9QePInLb3TXdmBiFeJNZ2,symmetry-judgement-task,177,899681,0.0-43.0-6.0-0.0-1.0-4.0,,,,,,,,,,1.0,1.0,,,,59a456d1ec2f75000124f081,17:40:51,06/03/2024
,"<div style=""font-size: 10rem; color: #0000FF"">S</div>",,ospan,letter,IZUiCFw9QePInLb3TXdmBiFeJNZ2,html-keyboard-response,178,900694,0.0-43.0-6.0-0.0-1.0-5.0,,,,,,,,,,,,,,,59a456d1ec2f75000124f081,17:40:51,06/03/2024
2939.0,,,ospan,symmetry,IZUiCFw9QePInLb3TXdmBiFeJNZ2,symmetry-judgement-task,179,905579,0.0-43.0-6.0-0.0-1.0-6.0,,,,,,,,,,1.0,1.0,,,,59a456d1ec2f75000124f081,17:40:51,06/03/2024
,"<div style=""font-size: 10rem; color: #0000FF"">N</div>",,ospan,letter,IZUiCFw9QePInLb3TXdmBiFeJNZ2,html-keyboard-response,180,906592,0.0-43.0-6.0-0.0-1.0-7.0,,,,,,,,,,,,,,,59a456d1ec2f75000124f081,17:40:51,06/03/2024
1740.0,,,ospan,symmetry,IZUiCFw9QePInLb3TXdmBiFeJNZ2,symmetry-judgement-task,181,910250,0.0-43.0-6.0-0.0-1.0-8.0,,,,,,,,,,1.0,1.0,,,,59a456d1ec2f75000124f081,17:40:51,06/03/2024
,"<div style=""font-size: 10rem; color: #0000FF"">K</div>",,ospan,letter,IZUiCFw9QePInLb3TXdmBiFeJNZ2,html-keyboard-response,182,911256,0.0-43.0-6.0-0.0-1.0-9.0,,,,,,,,,,,,,,,59a456d1ec2f75000124f081,17:40:51,06/03/2024
5130.399999976158,"<div class = numbox><p style=""font-size: 2.4rem"">Please recall the letters you saw to the best of your ability. If you do not remember a particular letter, use the SKIP button.<br><b>(When you are ready to lock in your answer, press ENTER)</b></p><button id = button_1 class = ""square num-button"" onclick = ""recordClick(this)""><div class = content><div class = numbers>C</div></div></button><button id = button_2 class = ""square num-button"" onclick = ""recordClick(this)""><div class = content><div class = numbers>G</div></div></button><button id = button_3 class = ""square num-button"" onclick = ""recordClick(this)""><div class = content><div class = numbers>H</div></div></button><button id = button_4 class = ""square num-button"" onclick = ""recordClick(this)""><div class = content><div class = numbers>J</div></div></button><button id = button_5 class = ""square num-button"" onclick = ""recordClick(this)""><div class = content><div class = numbers>K</div></div></button><button id = button_6 class = ""square num-button"" onclick = ""recordClick(this)""><div class = content><div class = numbers>L</div></div></button><button id = button_7 class = ""square num-button"" onclick = ""recordClick(this)""><div class = content><div class = numbers>N</div></div></button><button id = button_8 class = ""square num-button"" onclick = ""recordClick(this)""><div class = content><div class = numbers>P</div></div></button><button id = button_9 class = ""square num-button"" onclick = ""recordClick(this)""><div class = content><div class = numbers>Q</div></div></button><button id = button_10 class = ""square num-button"" onclick = ""recordClick(this)""><div class = content><div class = numbers>R</div></div></button><button id = button_11 class = ""square num-button"" onclick = ""recordClick(this)""><div class = content><div class = numbers>S</div></div></button><button id = button_12 class = ""square num-button"" onclick = ""recordClick(this)""><div class = content><div class = numbers>Y</div></div></button><button class = clear_button id = ""ClearButton"" onclick = ""clearResponse()"">BACKSPACE</button><button class = blank_button id = ""BlankButton"" onclick = ""blankResponse()"">SKIP</button><p style=""font-size: 2.4rem""><u><b>Current Answer:</b></u></p><br><br><div id=echoed_txt style=""font-size: 5rem; color:blue;""><b></b></div></div>",enter,ospan,retrieval,IZUiCFw9QePInLb3TXdmBiFeJNZ2,html-keyboard-response,183,917144,0.0-43.0-6.0-0.0-2.0,33,30,26,5.0,"[""C"",""G"",""S"",""N"",""K""]","[""C"",""G"",""S"",""N"",""K""]",1.0,5.0,,,,,,,59a456d1ec2f75000124f081,17:40:51,06/03/2024
860.5,[''],0,ospan,feedback,IZUiCFw9QePInLb3TXdmBiFeJNZ2,html-button-response,184,918521,0.0-43.0-6.0-0.0-3.0,,,,,,,,,,,,100.0,0.0,,59a456d1ec2f75000124f081,17:40:51,06/03/2024
,"<p style=""font-size:75px;"">...</p>",,ospan,iti,IZUiCFw9QePInLb3TXdmBiFeJNZ2,html-keyboard-response,185,919538,0.0-43.0-6.0-1.0-0.0,,,,,,,,,,,,,,,59a456d1ec2f75000124f081,17:40:51,06/03/2024
1267.0,,,ospan,symmetry,IZUiCFw9QePInLb3TXdmBiFeJNZ2,symmetry-judgement-task,186,921840,0.0-43.0-6.0-1.0-1.0-0.0,,,,,,,,,,1.0,1.0,,,,59a456d1ec2f75000124f081,17:40:51,06/03/2024
,"<div style=""font-size: 10rem; color: #0000FF"">J</div>",,ospan,letter,IZUiCFw9QePInLb3TXdmBiFeJNZ2,html-keyboard-response,187,922842,0.0-43.0-6.0-1.0-1.0-1.0,,,,,,,,,,,,,,,59a456d1ec2f75000124f081,17:40:51,06/03/2024
1576.0,,,ospan,symmetry,IZUiCFw9QePInLb3TXdmBiFeJNZ2,symmetry-judgement-task,188,926371,0.0-43.0-6.0-1.0-1.0-2.0,,,,,,,,,,1.0,1.0,,,,59a456d1ec2f75000124f081,17:40:51,06/03/2024
,"<div style=""font-size: 10rem; color: #0000FF"">C</div>",,ospan,letter,IZUiCFw9QePInLb3TXdmBiFeJNZ2,html-keyboard-response,189,927373,0.0-43.0-6.0-1.0-1.0-3.0,,,,,,,,,,,,,,,59a456d1ec2f75000124f081,17:40:51,06/03/2024
2429.0,,,ospan,symmetry,IZUiCFw9QePInLb3TXdmBiFeJNZ2,symmetry-judgement-task,190,931730,0.0-43.0-6.0-1.0-1.0-4.0,,,,,,,,,,1.0,1.0,,,,59a456d1ec2f75000124f081,17:40:51,06/03/2024
,"<div style=""font-size: 10rem; color: #0000FF"">N</div>",,ospan,letter,IZUiCFw9QePInLb3TXdmBiFeJNZ2,html-keyboard-response,191,932745,0.0-43.0-6.0-1.0-1.0-5.0,,,,,,,,,,,,,,,59a456d1ec2f75000124f081,17:40:51,06/03/2024
1291.0,,,ospan,symmetry,IZUiCFw9QePInLb3TXdmBiFeJNZ2,symmetry-judgement-task,192,935975,0.0-43.0-6.0-1.0-1.0-6.0,,,,,,,,,,1.0,1.0,,,,59a456d1ec2f75000124f081,17:40:51,06/03/2024
,"<div style=""font-size: 10rem; color: #0000FF"">H</div>",,ospan,letter,IZUiCFw9QePInLb3TXdmBiFeJNZ2,html-keyboard-response,193,936987,0.0-43.0-6.0-1.0-1.0-7.0,,,,,,,,,,,,,,,59a456d1ec2f75000124f081,17:40:51,06/03/2024
2543.0,,,ospan,symmetry,IZUiCFw9QePInLb3TXdmBiFeJNZ2,symmetry-judgement-task,194,941459,0.0-43.0-6.0-1.0-1.0-8.0,,,,,,,,,,1.0,1.0,,,,59a456d1ec2f75000124f081,17:40:51,06/03/2024
,"<div style=""font-size: 10rem; color: #0000FF"">L</div>",,ospan,letter,IZUiCFw9QePInLb3TXdmBiFeJNZ2,html-keyboard-response,195,942475,0.0-43.0-6.0-1.0-1.0-9.0,,,,,,,,,,,,,,,59a456d1ec2f75000124f081,17:40:51,06/03/2024
2291.0,,,ospan,symmetry,IZUiCFw9QePInLb3TXdmBiFeJNZ2,symmetry-judgement-task,196,946714,0.0-43.0-6.0-1.0-1.0-10.0,,,,,,,,,,1.0,1.0,,,,59a456d1ec2f75000124f081,17:40:51,06/03/2024
,"<div style=""font-size: 10rem; color: #0000FF"">S</div>",,ospan,letter,IZUiCFw9QePInLb3TXdmBiFeJNZ2,html-keyboard-response,197,947722,0.0-43.0-6.0-1.0-1.0-11.0,,,,,,,,,,,,,,,59a456d1ec2f75000124f081,17:40:51,06/03/2024
3835.0,,,ospan,symmetry,IZUiCFw9QePInLb3TXdmBiFeJNZ2,symmetry-judgement-task,198,953486,0.0-43.0-6.0-1.0-1.0-12.0,,,,,,,,,,1.0,1.0,,,,59a456d1ec2f75000124f081,17:40:51,06/03/2024
,"<div style=""font-size: 10rem; color: #0000FF"">Q</div>",,ospan,letter,IZUiCFw9QePInLb3TXdmBiFeJNZ2,html-keyboard-response,199,954494,0.0-43.0-6.0-1.0-1.0-13.0,,,,,,,,,,,,,,,59a456d1ec2f75000124f081,17:40:51,06/03/2024
1386.0,,,ospan,symmetry,IZUiCFw9QePInLb3TXdmBiFeJNZ2,symmetry-judgement-task,200,957818,0.0-43.0-6.0-1.0-1.0-14.0,,,,,,,,,,1.0,1.0,,,,59a456d1ec2f75000124f081,17:40:51,06/03/2024
,"<div style=""font-size: 10rem; color: #0000FF"">G</div>",,ospan,letter,IZUiCFw9QePInLb3TXdmBiFeJNZ2,html-keyboard-response,201,958835,0.0-43.0-6.0-1.0-1.0-15.0,,,,,,,,,,,,,,,59a456d1ec2f75000124f081,17:40:51,06/03/2024
11129.900000095367,"<div class = numbox><p style=""font-size: 2.4rem"">Please recall the letters you saw to the best of your ability. If you do not remember a particular letter, use the SKIP button.<br><b>(When you are ready to lock in your answer, press ENTER)</b></p><button id = button_1 class = ""square num-button"" onclick = ""recordClick(this)""><div class = content><div class = numbers>C</div></div></button><button id = button_2 class = ""square num-button"" onclick = ""recordClick(this)""><div class = content><div class = numbers>G</div></div></button><button id = button_3 class = ""square num-button"" onclick = ""recordClick(this)""><div class = content><div class = numbers>H</div></div></button><button id = button_4 class = ""square num-button"" onclick = ""recordClick(this)""><div class = content><div class = numbers>J</div></div></button><button id = button_5 class = ""square num-button"" onclick = ""recordClick(this)""><div class = content><div class = numbers>K</div></div></button><button id = button_6 class = ""square num-button"" onclick = ""recordClick(this)""><div class = content><div class = numbers>L</div></div></button><button id = button_7 class = ""square num-button"" onclick = ""recordClick(this)""><div class = content><div class = numbers>N</div></div></button><button id = button_8 class = ""square num-button"" onclick = ""recordClick(this)""><div class = content><div class = numbers>P</div></div></button><button id = button_9 class = ""square num-button"" onclick = ""recordClick(this)""><div class = content><div class = numbers>Q</div></div></button><button id = button_10 class = ""square num-button"" onclick = ""recordClick(this)""><div class = content><div class = numbers>R</div></div></button><button id = button_11 class = ""square num-button"" onclick = ""recordClick(this)""><div class = content><div class = numbers>S</div></div></button><button id = button_12 class = ""square num-button"" onclick = ""recordClick(this)""><div class = content><div class = numbers>Y</div></div></button><button class = clear_button id = ""ClearButton"" onclick = ""clearResponse()"">BACKSPACE</button><button class = blank_button id = ""BlankButton"" onclick = ""blankResponse()"">SKIP</button><p style=""font-size: 2.4rem""><u><b>Current Answer:</b></u></p><br><br><div id=echoed_txt style=""font-size: 5rem; color:blue;""><b></b></div></div>",enter,ospan,retrieval,IZUiCFw9QePInLb3TXdmBiFeJNZ2,html-keyboard-response,202,970732,0.0-43.0-6.0-1.0-2.0,41,35,26,8.0,"[""J"",""C"",""L"",""N"",""H"",""S"",""Q"",""G""]","[""J"",""C"",""N"",""H"",""L"",""S"",""Q"",""G""]",0.0,5.0,,,,,,,59a456d1ec2f75000124f081,17:40:51,06/03/2024
1018.6000000238419,[''],0,ospan,feedback,IZUiCFw9QePInLb3TXdmBiFeJNZ2,html-button-response,203,972264,0.0-43.0-6.0-1.0-3.0,,,,,,,,,,,,100.0,0.0,,59a456d1ec2f75000124f081,17:40:51,06/03/2024
48291.10000002384,,"{'Q0': 'Enjoyable, I, obviously, found the longer symmetry ones harder, and was quite tough on the brain!'}",ospan,survey_ospan,IZUiCFw9QePInLb3TXdmBiFeJNZ2,lmdlab-survey-text,204,1021314,0.0-43.0-7.0,,,,,,,,,,,,,,IZUiCFw9QePInLb3TXdmBiFeJNZ2,59a456d1ec2f75000124f081,17:40:51,06/03/2024
786.4000000953674,<p><p style='font-size: 3rem'>Great work!<br><br>This completes the symmetry and memory task.</p><br><br><br>,0,ospan,finish,IZUiCFw9QePInLb3TXdmBiFeJNZ2,html-button-response,205,1022102,0.0-43.0-8.0,41,35,26,,,,,,,,,100.0,,,59a456d1ec2f75000124f081,17:40:51,06/03/2024
