rt,stimulus,response,exp_name,exp_stage,subjectID,trial_type,trial_index,time_elapsed,internal_node_id,ospan_shown,ospan_total,ospan_abs,length,resp_actual,resp_correct,full_correct,num_correct,feedback,accuracy,correct,math_acc,math_warning,databaseID,prolificID,start_time,date
4099.600000000093,<div class = 'left_align' style='font-size: 3.25rem; line-height: 1.3;'><p class = 'center_align'><b>Welcome to the Symmetry and Memory Task</b><br><br><br><br></p>Press 'continue' to show the instructions.<br><br><br><br></div>,0,ospan,instruct,dQEtH5EyAeTo2fw6F6Ok8oB3wSx2,html-button-response,54,844926,0.0-46.0-0.0-0.0-0.0,,,,,,,,,,,,,,,631a1897a8f28243082da8ef,10:04:12,03/04/2024
55677.89999999991,"<div class = 'left_align' style='font-size: 3.25rem; line-height: 1.3;'><p class = 'center_align'><b>Symmetry and Memory Task</b><br><br></p>In this task, you will try to memorize letters you see on the screen<br>while you also view black and white grid pictures.<br><br>In the next few minutes, you will have some practice to get you familiar<br>with how the task works.<br><br>It may be difficult sometimes, but please do not worry about making mistakes!<br><br>We will begin by practicing the letter part of the task.<br><br><br><br></div>",0,ospan,instruct,dQEtH5EyAeTo2fw6F6Ok8oB3wSx2,html-button-response,55,900861,0.0-46.0-0.0-0.0-1.0,,,,,,,,,,,,,,,631a1897a8f28243082da8ef,10:04:12,03/04/2024
22979.300000000047,"<div class = 'left_align' style='font-size: 3.25rem; line-height: 1.3;'>For this practice part, letters will appear on the screen one at a time.<br><br>Try to remember each letter in the order presented.<br><br>After some letters have been shown, you will see a response screen. Your<br>goal is to report the letters you saw <b>in order</b>. If you do not remember<br>a particular letter, you will have the option to leave it blank.<br><br><br><br></div>",0,ospan,instruct,dQEtH5EyAeTo2fw6F6Ok8oB3wSx2,html-button-response,56,924093,0.0-46.0-0.0-0.0-2.0,,,,,,,,,,,,,,,631a1897a8f28243082da8ef,10:04:12,03/04/2024
35561.5,"<div class = 'left_align' style='font-size: 3.25rem; line-height: 1.3;'>Remember, it is very important to get the letters in the same<br>order as you see them.<br><br>When you are ready, you may begin the letter practice.</div><br><br><br><br>",0,ospan,instruct,dQEtH5EyAeTo2fw6F6Ok8oB3wSx2,html-button-response,57,959911,0.0-46.0-0.0-0.0-3.0,,,,,,,,,,,,,,,631a1897a8f28243082da8ef,10:04:12,03/04/2024
,"<p style=""font-size:75px;"">...</p>",,ospan,iti,dQEtH5EyAeTo2fw6F6Ok8oB3wSx2,html-keyboard-response,58,961171,0.0-46.0-0.0-1.0-0.0,,,,,,,,,,,,,,,631a1897a8f28243082da8ef,10:04:12,03/04/2024
,"<div style=""font-size: 10rem; color: #0000FF"">G</div>",,ospan,letter,dQEtH5EyAeTo2fw6F6Ok8oB3wSx2,html-keyboard-response,59,962176,0.0-46.0-0.0-1.0-1.0,,,,,,,,,,,,,,,631a1897a8f28243082da8ef,10:04:12,03/04/2024
,"<div style=""font-size: 10rem; color: #0000FF"">S</div>",,ospan,letter,dQEtH5EyAeTo2fw6F6Ok8oB3wSx2,html-keyboard-response,60,963939,0.0-46.0-0.0-1.0-2.0,,,,,,,,,,,,,,,631a1897a8f28243082da8ef,10:04:12,03/04/2024
6068.399999999907,"<div class = numbox><p style=""font-size: 2.4rem"">Please recall the letters you saw to the best of your ability. If you do not remember a particular letter, use the SKIP button.<br><b>(When you are ready to lock in your answer, press ENTER)</b></p><button id = button_1 class = ""square num-button"" onclick = ""recordClick(this)""><div class = content><div class = numbers>C</div></div></button><button id = button_2 class = ""square num-button"" onclick = ""recordClick(this)""><div class = content><div class = numbers>G</div></div></button><button id = button_3 class = ""square num-button"" onclick = ""recordClick(this)""><div class = content><div class = numbers>H</div></div></button><button id = button_4 class = ""square num-button"" onclick = ""recordClick(this)""><div class = content><div class = numbers>J</div></div></button><button id = button_5 class = ""square num-button"" onclick = ""recordClick(this)""><div class = content><div class = numbers>K</div></div></button><button id = button_6 class = ""square num-button"" onclick = ""recordClick(this)""><div class = content><div class = numbers>L</div></div></button><button id = button_7 class = ""square num-button"" onclick = ""recordClick(this)""><div class = content><div class = numbers>N</div></div></button><button id = button_8 class = ""square num-button"" onclick = ""recordClick(this)""><div class = content><div class = numbers>P</div></div></button><button id = button_9 class = ""square num-button"" onclick = ""recordClick(this)""><div class = content><div class = numbers>Q</div></div></button><button id = button_10 class = ""square num-button"" onclick = ""recordClick(this)""><div class = content><div class = numbers>R</div></div></button><button id = button_11 class = ""square num-button"" onclick = ""recordClick(this)""><div class = content><div class = numbers>S</div></div></button><button id = button_12 class = ""square num-button"" onclick = ""recordClick(this)""><div class = content><div class = numbers>Y</div></div></button><button class = clear_button id = ""ClearButton"" onclick = ""clearResponse()"">BACKSPACE</button><button class = blank_button id = ""BlankButton"" onclick = ""blankResponse()"">SKIP</button><p style=""font-size: 2.4rem""><u><b>Current Answer:</b></u></p><br><br><div id=echoed_txt style=""font-size: 5rem; color:blue;""><b></b></div></div>",enter,ospan,retrieval,dQEtH5EyAeTo2fw6F6Ok8oB3wSx2,html-keyboard-response,61,970765,0.0-46.0-0.0-1.0-3.0,NA,NA,NA,2.0,"[""G"",""S""]","[""G"",""S""]",1.0,2.0,"['<font color=""green"">G</font>', '<font color=""green"">S</font>']",,,,,,631a1897a8f28243082da8ef,10:04:12,03/04/2024
1556.6999999999534,"['<p style=""font-size:44px"">Letters:<br><br><br><font color=""green"">G</font> <font color=""green"">S</font></p><br><br>']",0,ospan,practice_feedback,dQEtH5EyAeTo2fw6F6Ok8oB3wSx2,html-button-response,62,972827,0.0-46.0-0.0-1.0-4.0,,,,,,,,,,,,,,,631a1897a8f28243082da8ef,10:04:12,03/04/2024
,"<p style=""font-size:75px;"">...</p>",,ospan,iti,dQEtH5EyAeTo2fw6F6Ok8oB3wSx2,html-keyboard-response,63,973835,0.0-46.0-0.0-2.0-0.0,,,,,,,,,,,,,,,631a1897a8f28243082da8ef,10:04:12,03/04/2024
,"<div style=""font-size: 10rem; color: #0000FF"">P</div>",,ospan,letter,dQEtH5EyAeTo2fw6F6Ok8oB3wSx2,html-keyboard-response,64,974842,0.0-46.0-0.0-2.0-1.0,,,,,,,,,,,,,,,631a1897a8f28243082da8ef,10:04:12,03/04/2024
,"<div style=""font-size: 10rem; color: #0000FF"">L</div>",,ospan,letter,dQEtH5EyAeTo2fw6F6Ok8oB3wSx2,html-keyboard-response,65,976605,0.0-46.0-0.0-2.0-2.0,,,,,,,,,,,,,,,631a1897a8f28243082da8ef,10:04:12,03/04/2024
,"<div style=""font-size: 10rem; color: #0000FF"">C</div>",,ospan,letter,dQEtH5EyAeTo2fw6F6Ok8oB3wSx2,html-keyboard-response,66,978367,0.0-46.0-0.0-2.0-3.0,,,,,,,,,,,,,,,631a1897a8f28243082da8ef,10:04:12,03/04/2024
3603.199999999837,"<div class = numbox><p style=""font-size: 2.4rem"">Please recall the letters you saw to the best of your ability. If you do not remember a particular letter, use the SKIP button.<br><b>(When you are ready to lock in your answer, press ENTER)</b></p><button id = button_1 class = ""square num-button"" onclick = ""recordClick(this)""><div class = content><div class = numbers>C</div></div></button><button id = button_2 class = ""square num-button"" onclick = ""recordClick(this)""><div class = content><div class = numbers>G</div></div></button><button id = button_3 class = ""square num-button"" onclick = ""recordClick(this)""><div class = content><div class = numbers>H</div></div></button><button id = button_4 class = ""square num-button"" onclick = ""recordClick(this)""><div class = content><div class = numbers>J</div></div></button><button id = button_5 class = ""square num-button"" onclick = ""recordClick(this)""><div class = content><div class = numbers>K</div></div></button><button id = button_6 class = ""square num-button"" onclick = ""recordClick(this)""><div class = content><div class = numbers>L</div></div></button><button id = button_7 class = ""square num-button"" onclick = ""recordClick(this)""><div class = content><div class = numbers>N</div></div></button><button id = button_8 class = ""square num-button"" onclick = ""recordClick(this)""><div class = content><div class = numbers>P</div></div></button><button id = button_9 class = ""square num-button"" onclick = ""recordClick(this)""><div class = content><div class = numbers>Q</div></div></button><button id = button_10 class = ""square num-button"" onclick = ""recordClick(this)""><div class = content><div class = numbers>R</div></div></button><button id = button_11 class = ""square num-button"" onclick = ""recordClick(this)""><div class = content><div class = numbers>S</div></div></button><button id = button_12 class = ""square num-button"" onclick = ""recordClick(this)""><div class = content><div class = numbers>Y</div></div></button><button class = clear_button id = ""ClearButton"" onclick = ""clearResponse()"">BACKSPACE</button><button class = blank_button id = ""BlankButton"" onclick = ""blankResponse()"">SKIP</button><p style=""font-size: 2.4rem""><u><b>Current Answer:</b></u></p><br><br><div id=echoed_txt style=""font-size: 5rem; color:blue;""><b></b></div></div>",enter,ospan,retrieval,dQEtH5EyAeTo2fw6F6Ok8oB3wSx2,html-keyboard-response,67,982728,0.0-46.0-0.0-2.0-4.0,NA,NA,NA,3.0,"[""P"",""L"",""C""]","[""P"",""L"",""C""]",1.0,3.0,"['<font color=""green"">P</font>', '<font color=""green"">L</font>', '<font color=""green"">C</font>']",,,,,,631a1897a8f28243082da8ef,10:04:12,03/04/2024
846.0,"['<p style=""font-size:44px"">Letters:<br><br><br><font color=""green"">P</font> <font color=""green"">L</font> <font color=""green"">C</font></p><br><br>']",0,ospan,practice_feedback,dQEtH5EyAeTo2fw6F6Ok8oB3wSx2,html-button-response,68,984077,0.0-46.0-0.0-2.0-5.0,,,,,,,,,,,,,,,631a1897a8f28243082da8ef,10:04:12,03/04/2024
115116.6000000001,"<div class = 'left_align' style='font-size: 3.25rem; line-height: 1.3;'>Now you will practice doing the <b>symmetry judgment part</b> of the experiment.<br><br>A black and white grid picture will appear on the screen and you have to judge if it is <br>symmetrical or asymetrical.<br><br>A picture is 'mirror' symmetrical if its left half is identical to the right half when flipped.<br>Here are examples of a symmetrical and an asymetrical picture:<br><br><center><img src='Stimuli/img/symm_instructions_extra.png' style='height:420px; width:900'></img></center><br>To judge symmetry, imagine you were to fold each picture down the middle, like a book –<br>would the left half match the right half when folded onto each other?<br><br></div><br>",0,ospan,instruct,dQEtH5EyAeTo2fw6F6Ok8oB3wSx2,html-button-response,69,1099195,0.0-46.0-1.0-0.0-0.0,,,,,,,,,,,,,,,631a1897a8f28243082da8ef,10:04:12,03/04/2024
6678.300000000047,"<div class = 'left_align' style='font-size: 3.25rem; line-height: 1.3;'>When you have viewed the picture and determined whether it is symmetrical or not,<br>you can <b>click the Yes or No button</b> below to answer.<br><br>If you take longer than 15 seconds, it will continue automatically<br>and record the answer as an error.</div><br>",0,ospan,instruct,dQEtH5EyAeTo2fw6F6Ok8oB3wSx2,html-button-response,70,1106129,0.0-46.0-1.0-0.0-1.0,,,,,,,,,,,,,,,631a1897a8f28243082da8ef,10:04:12,03/04/2024
6079.300000000047,"<div class = 'left_align' style='font-size: 3.25rem; line-height: 1.3;'>It is <b>very</b> important that you make the symmetry judgment correctly.<br><br>It is also important that you try and judge the picture as quickly as you can.<br><br>When you are ready, click on the button below to try some practice problems.</div><br><br><br><br>",0,ospan,instruct,dQEtH5EyAeTo2fw6F6Ok8oB3wSx2,html-button-response,71,1112462,0.0-46.0-1.0-0.0-2.0,,,,,,,,,,,,,,,631a1897a8f28243082da8ef,10:04:12,03/04/2024
2148.0,,,ospan,symmetry,dQEtH5EyAeTo2fw6F6Ok8oB3wSx2,symmetry-judgement-task,72,1115416,0.0-46.0-1.0-1.0-0.0,,,,,,,,,,0.0,0.0,,,,631a1897a8f28243082da8ef,10:04:12,03/04/2024
,"<p style=""color:red; font-size: 35px"">Incorrect</p>",,ospan,feedback,dQEtH5EyAeTo2fw6F6Ok8oB3wSx2,html-keyboard-response,73,1116173,0.0-46.0-1.0-1.0-1.0,,,,,,,,,,,,,,,631a1897a8f28243082da8ef,10:04:12,03/04/2024
3427.0,,,ospan,symmetry,dQEtH5EyAeTo2fw6F6Ok8oB3wSx2,symmetry-judgement-task,74,1122216,0.0-46.0-1.0-1.0-2.0,,,,,,,,,,1.0,1.0,,,,631a1897a8f28243082da8ef,10:04:12,03/04/2024
,"<p style=""color:green; font-size: 35px"">Correct</p>",,ospan,feedback,dQEtH5EyAeTo2fw6F6Ok8oB3wSx2,html-keyboard-response,75,1122973,0.0-46.0-1.0-1.0-3.0,,,,,,,,,,,,,,,631a1897a8f28243082da8ef,10:04:12,03/04/2024
3121.0,,,ospan,symmetry,dQEtH5EyAeTo2fw6F6Ok8oB3wSx2,symmetry-judgement-task,76,1128714,0.0-46.0-1.0-1.0-4.0,,,,,,,,,,0.0,0.0,,,,631a1897a8f28243082da8ef,10:04:12,03/04/2024
,"<p style=""color:red; font-size: 35px"">Incorrect</p>",,ospan,feedback,dQEtH5EyAeTo2fw6F6Ok8oB3wSx2,html-keyboard-response,77,1129472,0.0-46.0-1.0-1.0-5.0,,,,,,,,,,,,,,,631a1897a8f28243082da8ef,10:04:12,03/04/2024
6132.300000000047,"<p style=""font-size: 3rem;"">You only responded correctly on 1 of 3 symmetry judgments.<br><br><b>In the main task, you must try harder to answer accurately.</b></p><br><br>",0,ospan,practice,dQEtH5EyAeTo2fw6F6Ok8oB3wSx2,html-button-response,78,1137613,0.0-46.0-1.0-2.0,,,,,,,,,,,,,,,631a1897a8f28243082da8ef,10:04:12,03/04/2024
80349.30000000005,"<div class = 'left_align' style='font-size: 3.25rem; line-height: 1.3;'>Now you will practice doing both parts of the experiment at the same time.<br><br>In the next practice set, you will be given one grid picture to judge.<br>Then letter will appear on the screen. Try to remember the letter.<br><br>It is <b>very important</b> to make the symmetry judgment as quickly and accurately as possible.<br><br>Just as before, once you have make the symmetry judgment, you can click Yes or No.<br><b>Note that you will no longer see Correct or Incorrect feedback.</div><br><br><br><br>",0,ospan,instruct,dQEtH5EyAeTo2fw6F6Ok8oB3wSx2,html-button-response,79,1218213,0.0-46.0-2.0-0.0-0.0,,,,,,,,,,,,,,,631a1897a8f28243082da8ef,10:04:12,03/04/2024
27760.600000000093,"<div class = 'left_align' style='font-size: 3.25rem; line-height: 1.3;'>After the letter goes away, another grid picture will appear, and then<br>another letter.<br><br>At the end of each set of letters and grids, you will recall the letters to the best<br>of your ability. Remember, try your best to get the letters in the correct order.<br><br>It is important to <b>quickly</b> and <b>accurately</b> make the symmetry judgments.</div><br><br><br><br>",0,ospan,instruct,dQEtH5EyAeTo2fw6F6Ok8oB3wSx2,html-button-response,80,1246230,0.0-46.0-2.0-0.0-1.0,,,,,,,,,,,,,,,631a1897a8f28243082da8ef,10:04:12,03/04/2024
16061.100000000093,"<div class = 'left_align' style='font-size: 3.25rem; line-height: 1.3;'>On the feedback screen, if you are not doing well at the symmetry judgments,<br>you will also see a warning in the middle. This indicates your percent <br>correct for the grid pictures for the entire experiment.<br><br>It is <b>very</b> important for you to keep accuracy at least at 85%: <u>We can only use<br>data where the participant was at least 85% accurate on the judgments.</u> Therefore,<br> please try your best to perform well on the symmetry judgments, <b>at the same time</b><br>doing your best to recall as many letters as possible.<br><br>Click the button to try some practice problems.</div><br><br><br><br>",0,ospan,instruct,dQEtH5EyAeTo2fw6F6Ok8oB3wSx2,html-button-response,81,1262546,0.0-46.0-2.0-0.0-2.0,,,,,,,,,,,,,,,631a1897a8f28243082da8ef,10:04:12,03/04/2024
,"<p style=""font-size:75px;"">...</p>",,ospan,iti,dQEtH5EyAeTo2fw6F6Ok8oB3wSx2,html-keyboard-response,82,1263806,0.0-46.0-2.0-1.0-0.0,,,,,,,,,,,,,,,631a1897a8f28243082da8ef,10:04:12,03/04/2024
3239.0,,,ospan,symmetry,dQEtH5EyAeTo2fw6F6Ok8oB3wSx2,symmetry-judgement-task,83,1268170,0.0-46.0-2.0-1.0-1.0-0.0,,,,,,,,,,1.0,1.0,,,,631a1897a8f28243082da8ef,10:04:12,03/04/2024
,"<div style=""font-size: 10rem; color: #0000FF"">Q</div>",,ospan,letter,dQEtH5EyAeTo2fw6F6Ok8oB3wSx2,html-keyboard-response,84,1269177,0.0-46.0-2.0-1.0-1.0-1.0,,,,,,,,,,,,,,,631a1897a8f28243082da8ef,10:04:12,03/04/2024
3163.0,,,ospan,symmetry,dQEtH5EyAeTo2fw6F6Ok8oB3wSx2,symmetry-judgement-task,85,1274203,0.0-46.0-2.0-1.0-1.0-2.0,,,,,,,,,,1.0,1.0,,,,631a1897a8f28243082da8ef,10:04:12,03/04/2024
,"<div style=""font-size: 10rem; color: #0000FF"">R</div>",,ospan,letter,dQEtH5EyAeTo2fw6F6Ok8oB3wSx2,html-keyboard-response,86,1275207,0.0-46.0-2.0-1.0-1.0-3.0,,,,,,,,,,,,,,,631a1897a8f28243082da8ef,10:04:12,03/04/2024
3101.0,,,ospan,symmetry,dQEtH5EyAeTo2fw6F6Ok8oB3wSx2,symmetry-judgement-task,87,1280169,0.0-46.0-2.0-1.0-1.0-4.0,,,,,,,,,,1.0,1.0,,,,631a1897a8f28243082da8ef,10:04:12,03/04/2024
,"<div style=""font-size: 10rem; color: #0000FF"">N</div>",,ospan,letter,dQEtH5EyAeTo2fw6F6Ok8oB3wSx2,html-keyboard-response,88,1281176,0.0-46.0-2.0-1.0-1.0-5.0,,,,,,,,,,,,,,,631a1897a8f28243082da8ef,10:04:12,03/04/2024
3225.6999999999534,"<div class = numbox><p style=""font-size: 2.4rem"">Please recall the letters you saw to the best of your ability. If you do not remember a particular letter, use the SKIP button.<br><b>(When you are ready to lock in your answer, press ENTER)</b></p><button id = button_1 class = ""square num-button"" onclick = ""recordClick(this)""><div class = content><div class = numbers>C</div></div></button><button id = button_2 class = ""square num-button"" onclick = ""recordClick(this)""><div class = content><div class = numbers>G</div></div></button><button id = button_3 class = ""square num-button"" onclick = ""recordClick(this)""><div class = content><div class = numbers>H</div></div></button><button id = button_4 class = ""square num-button"" onclick = ""recordClick(this)""><div class = content><div class = numbers>J</div></div></button><button id = button_5 class = ""square num-button"" onclick = ""recordClick(this)""><div class = content><div class = numbers>K</div></div></button><button id = button_6 class = ""square num-button"" onclick = ""recordClick(this)""><div class = content><div class = numbers>L</div></div></button><button id = button_7 class = ""square num-button"" onclick = ""recordClick(this)""><div class = content><div class = numbers>N</div></div></button><button id = button_8 class = ""square num-button"" onclick = ""recordClick(this)""><div class = content><div class = numbers>P</div></div></button><button id = button_9 class = ""square num-button"" onclick = ""recordClick(this)""><div class = content><div class = numbers>Q</div></div></button><button id = button_10 class = ""square num-button"" onclick = ""recordClick(this)""><div class = content><div class = numbers>R</div></div></button><button id = button_11 class = ""square num-button"" onclick = ""recordClick(this)""><div class = content><div class = numbers>S</div></div></button><button id = button_12 class = ""square num-button"" onclick = ""recordClick(this)""><div class = content><div class = numbers>Y</div></div></button><button class = clear_button id = ""ClearButton"" onclick = ""clearResponse()"">BACKSPACE</button><button class = blank_button id = ""BlankButton"" onclick = ""blankResponse()"">SKIP</button><p style=""font-size: 2.4rem""><u><b>Current Answer:</b></u></p><br><br><div id=echoed_txt style=""font-size: 5rem; color:blue;""><b></b></div></div>",enter,ospan,retrieval,dQEtH5EyAeTo2fw6F6Ok8oB3wSx2,html-keyboard-response,89,1285160,0.0-46.0-2.0-1.0-2.0-0.0,NA,NA,NA,3.0,"[""Q"",""R"",""N""]","[""Q"",""R"",""N""]",1.0,3.0,"['<font color=""green"">Q</font>', '<font color=""green"">R</font>', '<font color=""green"">N</font>']",,,,,,631a1897a8f28243082da8ef,10:04:12,03/04/2024
3833.1999999999534,"['<p style=""font-size:44px"">Letters:<br><br><br><font color=""green"">Q</font> <font color=""green"">R</font> <font color=""green"">N</font></p><br><br><p style=""font-size:30px"">Symmetry:<br><br><font color=""green"">100%</font></p><br><br>']",0,ospan,practice_feedback,dQEtH5EyAeTo2fw6F6Ok8oB3wSx2,html-button-response,90,1289496,0.0-46.0-2.0-1.0-2.0-1.0,,,,,,,,,,,,,,,631a1897a8f28243082da8ef,10:04:12,03/04/2024
,"<p style=""font-size:75px;"">...</p>",,ospan,iti,dQEtH5EyAeTo2fw6F6Ok8oB3wSx2,html-keyboard-response,91,1290504,0.0-46.0-2.0-2.0-0.0,,,,,,,,,,,,,,,631a1897a8f28243082da8ef,10:04:12,03/04/2024
2728.0,,,ospan,symmetry,dQEtH5EyAeTo2fw6F6Ok8oB3wSx2,symmetry-judgement-task,92,1294354,0.0-46.0-2.0-2.0-1.0-0.0,,,,,,,,,,1.0,1.0,,,,631a1897a8f28243082da8ef,10:04:12,03/04/2024
,"<div style=""font-size: 10rem; color: #0000FF"">G</div>",,ospan,letter,dQEtH5EyAeTo2fw6F6Ok8oB3wSx2,html-keyboard-response,93,1295359,0.0-46.0-2.0-2.0-1.0-1.0,,,,,,,,,,,,,,,631a1897a8f28243082da8ef,10:04:12,03/04/2024
3232.0,,,ospan,symmetry,dQEtH5EyAeTo2fw6F6Ok8oB3wSx2,symmetry-judgement-task,94,1300453,0.0-46.0-2.0-2.0-1.0-2.0,,,,,,,,,,1.0,1.0,,,,631a1897a8f28243082da8ef,10:04:12,03/04/2024
,"<div style=""font-size: 10rem; color: #0000FF"">K</div>",,ospan,letter,dQEtH5EyAeTo2fw6F6Ok8oB3wSx2,html-keyboard-response,95,1301457,0.0-46.0-2.0-2.0-1.0-3.0,,,,,,,,,,,,,,,631a1897a8f28243082da8ef,10:04:12,03/04/2024
2086.0,,,ospan,symmetry,dQEtH5EyAeTo2fw6F6Ok8oB3wSx2,symmetry-judgement-task,96,1305420,0.0-46.0-2.0-2.0-1.0-4.0,,,,,,,,,,1.0,1.0,,,,631a1897a8f28243082da8ef,10:04:12,03/04/2024
,"<div style=""font-size: 10rem; color: #0000FF"">H</div>",,ospan,letter,dQEtH5EyAeTo2fw6F6Ok8oB3wSx2,html-keyboard-response,97,1306428,0.0-46.0-2.0-2.0-1.0-5.0,,,,,,,,,,,,,,,631a1897a8f28243082da8ef,10:04:12,03/04/2024
4547.300000000047,"<div class = numbox><p style=""font-size: 2.4rem"">Please recall the letters you saw to the best of your ability. If you do not remember a particular letter, use the SKIP button.<br><b>(When you are ready to lock in your answer, press ENTER)</b></p><button id = button_1 class = ""square num-button"" onclick = ""recordClick(this)""><div class = content><div class = numbers>C</div></div></button><button id = button_2 class = ""square num-button"" onclick = ""recordClick(this)""><div class = content><div class = numbers>G</div></div></button><button id = button_3 class = ""square num-button"" onclick = ""recordClick(this)""><div class = content><div class = numbers>H</div></div></button><button id = button_4 class = ""square num-button"" onclick = ""recordClick(this)""><div class = content><div class = numbers>J</div></div></button><button id = button_5 class = ""square num-button"" onclick = ""recordClick(this)""><div class = content><div class = numbers>K</div></div></button><button id = button_6 class = ""square num-button"" onclick = ""recordClick(this)""><div class = content><div class = numbers>L</div></div></button><button id = button_7 class = ""square num-button"" onclick = ""recordClick(this)""><div class = content><div class = numbers>N</div></div></button><button id = button_8 class = ""square num-button"" onclick = ""recordClick(this)""><div class = content><div class = numbers>P</div></div></button><button id = button_9 class = ""square num-button"" onclick = ""recordClick(this)""><div class = content><div class = numbers>Q</div></div></button><button id = button_10 class = ""square num-button"" onclick = ""recordClick(this)""><div class = content><div class = numbers>R</div></div></button><button id = button_11 class = ""square num-button"" onclick = ""recordClick(this)""><div class = content><div class = numbers>S</div></div></button><button id = button_12 class = ""square num-button"" onclick = ""recordClick(this)""><div class = content><div class = numbers>Y</div></div></button><button class = clear_button id = ""ClearButton"" onclick = ""clearResponse()"">BACKSPACE</button><button class = blank_button id = ""BlankButton"" onclick = ""blankResponse()"">SKIP</button><p style=""font-size: 2.4rem""><u><b>Current Answer:</b></u></p><br><br><div id=echoed_txt style=""font-size: 5rem; color:blue;""><b></b></div></div>",enter,ospan,retrieval,dQEtH5EyAeTo2fw6F6Ok8oB3wSx2,html-keyboard-response,98,1311731,0.0-46.0-2.0-2.0-2.0-0.0,NA,NA,NA,3.0,"[""G"",""K"",""H""]","[""G"",""K"",""H""]",1.0,3.0,"['<font color=""green"">G</font>', '<font color=""green"">K</font>', '<font color=""green"">H</font>']",,,,,,631a1897a8f28243082da8ef,10:04:12,03/04/2024
2627.899999999907,"['<p style=""font-size:44px"">Letters:<br><br><br><font color=""green"">G</font> <font color=""green"">K</font> <font color=""green"">H</font></p><br><br><p style=""font-size:30px"">Symmetry:<br><br><font color=""green"">100%</font></p><br><br>']",0,ospan,practice_feedback,dQEtH5EyAeTo2fw6F6Ok8oB3wSx2,html-button-response,99,1314864,0.0-46.0-2.0-2.0-2.0-1.0,,,,,,,,,,,,,,,631a1897a8f28243082da8ef,10:04:12,03/04/2024
82366.6000000001,"<div class = 'left_align' style='font-size: 3rem; line-height: 1.3;'><b>Great work! That is the end of practice.</b><br><br>The real trials will look just like the practice trials you just completed.<br><br><u>Here, you will not see feedback</u>. First, you will see an grid picture to judge,<br>then a letter to remember. When the recall screen appears, report the letters in the<br>order presented. If you forget a letter, remember to use the <b>blank</b> button to move to the<br>next letter. Some of the sets will have more symmetry grids and letters than others.<br><br>It is important that you do your best on both the symmetry judgments and the letter recall<br>parts of the experiment. For for the symmetry judgments, try to work as <b>quickly</b> and <br>as <b>accurately</b> as possible. Remember to keep your symmetry accuracy at 85% or above.<br><br><b>For the letters, do NOT use any external aid (e.g., writing on paper, electronic device).</b><br><br>It is <u>very important</u> to our experiment to have a <b>true</b> view of your real performance.<br><br>Do not worry if you miss some when it gets hard! This task is meant to be very challenging!<br><br>Click the button to begin.</div><br><br><br><br>",0,ospan,starting_real_here,dQEtH5EyAeTo2fw6F6Ok8oB3wSx2,html-button-response,100,1397231,0.0-46.0-2.0-3.0,,,,,,,,,,,,,,,631a1897a8f28243082da8ef,10:04:12,03/04/2024
,"<p style=""font-size:75px;"">...</p>",,ospan,iti,dQEtH5EyAeTo2fw6F6Ok8oB3wSx2,html-keyboard-response,101,1398492,0.0-46.0-3.0-0.0-0.0,,,,,,,,,,,,,,,631a1897a8f28243082da8ef,10:04:12,03/04/2024
2196.0,,,ospan,symmetry,dQEtH5EyAeTo2fw6F6Ok8oB3wSx2,symmetry-judgement-task,102,1401801,0.0-46.0-3.0-0.0-1.0-0.0,,,,,,,,,,1.0,1.0,,,,631a1897a8f28243082da8ef,10:04:12,03/04/2024
,"<div style=""font-size: 10rem; color: #0000FF"">S</div>",,ospan,letter,dQEtH5EyAeTo2fw6F6Ok8oB3wSx2,html-keyboard-response,103,1402804,0.0-46.0-3.0-0.0-1.0-1.0,,,,,,,,,,,,,,,631a1897a8f28243082da8ef,10:04:12,03/04/2024
2210.0,,,ospan,symmetry,dQEtH5EyAeTo2fw6F6Ok8oB3wSx2,symmetry-judgement-task,104,1406871,0.0-46.0-3.0-0.0-1.0-2.0,,,,,,,,,,0.0,0.0,,,,631a1897a8f28243082da8ef,10:04:12,03/04/2024
,"<div style=""font-size: 10rem; color: #0000FF"">R</div>",,ospan,letter,dQEtH5EyAeTo2fw6F6Ok8oB3wSx2,html-keyboard-response,105,1407877,0.0-46.0-3.0-0.0-1.0-3.0,,,,,,,,,,,,,,,631a1897a8f28243082da8ef,10:04:12,03/04/2024
2472.0,,,ospan,symmetry,dQEtH5EyAeTo2fw6F6Ok8oB3wSx2,symmetry-judgement-task,106,1412221,0.0-46.0-3.0-0.0-1.0-4.0,,,,,,,,,,1.0,1.0,,,,631a1897a8f28243082da8ef,10:04:12,03/04/2024
,"<div style=""font-size: 10rem; color: #0000FF"">Q</div>",,ospan,letter,dQEtH5EyAeTo2fw6F6Ok8oB3wSx2,html-keyboard-response,107,1413228,0.0-46.0-3.0-0.0-1.0-5.0,,,,,,,,,,,,,,,631a1897a8f28243082da8ef,10:04:12,03/04/2024
2957.0999999998603,"<div class = numbox><p style=""font-size: 2.4rem"">Please recall the letters you saw to the best of your ability. If you do not remember a particular letter, use the SKIP button.<br><b>(When you are ready to lock in your answer, press ENTER)</b></p><button id = button_1 class = ""square num-button"" onclick = ""recordClick(this)""><div class = content><div class = numbers>C</div></div></button><button id = button_2 class = ""square num-button"" onclick = ""recordClick(this)""><div class = content><div class = numbers>G</div></div></button><button id = button_3 class = ""square num-button"" onclick = ""recordClick(this)""><div class = content><div class = numbers>H</div></div></button><button id = button_4 class = ""square num-button"" onclick = ""recordClick(this)""><div class = content><div class = numbers>J</div></div></button><button id = button_5 class = ""square num-button"" onclick = ""recordClick(this)""><div class = content><div class = numbers>K</div></div></button><button id = button_6 class = ""square num-button"" onclick = ""recordClick(this)""><div class = content><div class = numbers>L</div></div></button><button id = button_7 class = ""square num-button"" onclick = ""recordClick(this)""><div class = content><div class = numbers>N</div></div></button><button id = button_8 class = ""square num-button"" onclick = ""recordClick(this)""><div class = content><div class = numbers>P</div></div></button><button id = button_9 class = ""square num-button"" onclick = ""recordClick(this)""><div class = content><div class = numbers>Q</div></div></button><button id = button_10 class = ""square num-button"" onclick = ""recordClick(this)""><div class = content><div class = numbers>R</div></div></button><button id = button_11 class = ""square num-button"" onclick = ""recordClick(this)""><div class = content><div class = numbers>S</div></div></button><button id = button_12 class = ""square num-button"" onclick = ""recordClick(this)""><div class = content><div class = numbers>Y</div></div></button><button class = clear_button id = ""ClearButton"" onclick = ""clearResponse()"">BACKSPACE</button><button class = blank_button id = ""BlankButton"" onclick = ""blankResponse()"">SKIP</button><p style=""font-size: 2.4rem""><u><b>Current Answer:</b></u></p><br><br><div id=echoed_txt style=""font-size: 5rem; color:blue;""><b></b></div></div>",enter,ospan,retrieval,dQEtH5EyAeTo2fw6F6Ok8oB3wSx2,html-keyboard-response,108,1416943,0.0-46.0-3.0-0.0-2.0,3,3,3,3.0,"[""S"",""R"",""Q""]","[""S"",""R"",""Q""]",1.0,3.0,,,,,,,631a1897a8f28243082da8ef,10:04:12,03/04/2024
2751.8000000000466,"['<p style=""font-size: 3.75rem"">Low symmetry accuracy!<br><br><br><font color=""red"">67%</font><br><br></p>']",0,ospan,feedback,dQEtH5EyAeTo2fw6F6Ok8oB3wSx2,html-button-response,109,1420198,0.0-46.0-3.0-0.0-3.0,,,,,,,,,,,,67.0,1.0,,631a1897a8f28243082da8ef,10:04:12,03/04/2024
,"<p style=""font-size:75px;"">...</p>",,ospan,iti,dQEtH5EyAeTo2fw6F6Ok8oB3wSx2,html-keyboard-response,110,1421206,0.0-46.0-4.0-0.0-0.0,,,,,,,,,,,,,,,631a1897a8f28243082da8ef,10:04:12,03/04/2024
2701.0,,,ospan,symmetry,dQEtH5EyAeTo2fw6F6Ok8oB3wSx2,symmetry-judgement-task,111,1425033,0.0-46.0-4.0-0.0-1.0-0.0,,,,,,,,,,1.0,1.0,,,,631a1897a8f28243082da8ef,10:04:12,03/04/2024
,"<div style=""font-size: 10rem; color: #0000FF"">R</div>",,ospan,letter,dQEtH5EyAeTo2fw6F6Ok8oB3wSx2,html-keyboard-response,112,1426036,0.0-46.0-4.0-0.0-1.0-1.0,,,,,,,,,,,,,,,631a1897a8f28243082da8ef,10:04:12,03/04/2024
2143.0,,,ospan,symmetry,dQEtH5EyAeTo2fw6F6Ok8oB3wSx2,symmetry-judgement-task,113,1430054,0.0-46.0-4.0-0.0-1.0-2.0,,,,,,,,,,1.0,1.0,,,,631a1897a8f28243082da8ef,10:04:12,03/04/2024
,"<div style=""font-size: 10rem; color: #0000FF"">N</div>",,ospan,letter,dQEtH5EyAeTo2fw6F6Ok8oB3wSx2,html-keyboard-response,114,1431060,0.0-46.0-4.0-0.0-1.0-3.0,,,,,,,,,,,,,,,631a1897a8f28243082da8ef,10:04:12,03/04/2024
1957.0,,,ospan,symmetry,dQEtH5EyAeTo2fw6F6Ok8oB3wSx2,symmetry-judgement-task,115,1434888,0.0-46.0-4.0-0.0-1.0-4.0,,,,,,,,,,1.0,1.0,,,,631a1897a8f28243082da8ef,10:04:12,03/04/2024
,"<div style=""font-size: 10rem; color: #0000FF"">K</div>",,ospan,letter,dQEtH5EyAeTo2fw6F6Ok8oB3wSx2,html-keyboard-response,116,1435890,0.0-46.0-4.0-0.0-1.0-5.0,,,,,,,,,,,,,,,631a1897a8f28243082da8ef,10:04:12,03/04/2024
2726.0,,,ospan,symmetry,dQEtH5EyAeTo2fw6F6Ok8oB3wSx2,symmetry-judgement-task,117,1440489,0.0-46.0-4.0-0.0-1.0-6.0,,,,,,,,,,1.0,1.0,,,,631a1897a8f28243082da8ef,10:04:12,03/04/2024
,"<div style=""font-size: 10rem; color: #0000FF"">Q</div>",,ospan,letter,dQEtH5EyAeTo2fw6F6Ok8oB3wSx2,html-keyboard-response,118,1441495,0.0-46.0-4.0-0.0-1.0-7.0,,,,,,,,,,,,,,,631a1897a8f28243082da8ef,10:04:12,03/04/2024
3883.7999999998137,"<div class = numbox><p style=""font-size: 2.4rem"">Please recall the letters you saw to the best of your ability. If you do not remember a particular letter, use the SKIP button.<br><b>(When you are ready to lock in your answer, press ENTER)</b></p><button id = button_1 class = ""square num-button"" onclick = ""recordClick(this)""><div class = content><div class = numbers>C</div></div></button><button id = button_2 class = ""square num-button"" onclick = ""recordClick(this)""><div class = content><div class = numbers>G</div></div></button><button id = button_3 class = ""square num-button"" onclick = ""recordClick(this)""><div class = content><div class = numbers>H</div></div></button><button id = button_4 class = ""square num-button"" onclick = ""recordClick(this)""><div class = content><div class = numbers>J</div></div></button><button id = button_5 class = ""square num-button"" onclick = ""recordClick(this)""><div class = content><div class = numbers>K</div></div></button><button id = button_6 class = ""square num-button"" onclick = ""recordClick(this)""><div class = content><div class = numbers>L</div></div></button><button id = button_7 class = ""square num-button"" onclick = ""recordClick(this)""><div class = content><div class = numbers>N</div></div></button><button id = button_8 class = ""square num-button"" onclick = ""recordClick(this)""><div class = content><div class = numbers>P</div></div></button><button id = button_9 class = ""square num-button"" onclick = ""recordClick(this)""><div class = content><div class = numbers>Q</div></div></button><button id = button_10 class = ""square num-button"" onclick = ""recordClick(this)""><div class = content><div class = numbers>R</div></div></button><button id = button_11 class = ""square num-button"" onclick = ""recordClick(this)""><div class = content><div class = numbers>S</div></div></button><button id = button_12 class = ""square num-button"" onclick = ""recordClick(this)""><div class = content><div class = numbers>Y</div></div></button><button class = clear_button id = ""ClearButton"" onclick = ""clearResponse()"">BACKSPACE</button><button class = blank_button id = ""BlankButton"" onclick = ""blankResponse()"">SKIP</button><p style=""font-size: 2.4rem""><u><b>Current Answer:</b></u></p><br><br><div id=echoed_txt style=""font-size: 5rem; color:blue;""><b></b></div></div>",enter,ospan,retrieval,dQEtH5EyAeTo2fw6F6Ok8oB3wSx2,html-keyboard-response,119,1446136,0.0-46.0-4.0-0.0-2.0,7,7,7,4.0,"[""R"",""N"",""K"",""Q""]","[""R"",""N"",""K"",""Q""]",1.0,4.0,,,,,,,631a1897a8f28243082da8ef,10:04:12,03/04/2024
1306.9000000001397,[''],0,ospan,feedback,dQEtH5EyAeTo2fw6F6Ok8oB3wSx2,html-button-response,120,1447948,0.0-46.0-4.0-0.0-3.0,,,,,,,,,,,,86.0,0.0,,631a1897a8f28243082da8ef,10:04:12,03/04/2024
,"<p style=""font-size:75px;"">...</p>",,ospan,iti,dQEtH5EyAeTo2fw6F6Ok8oB3wSx2,html-keyboard-response,121,1448952,0.0-46.0-4.0-1.0-0.0,,,,,,,,,,,,,,,631a1897a8f28243082da8ef,10:04:12,03/04/2024
4007.0,,,ospan,symmetry,dQEtH5EyAeTo2fw6F6Ok8oB3wSx2,symmetry-judgement-task,122,1454000,0.0-46.0-4.0-1.0-1.0-0.0,,,,,,,,,,1.0,1.0,,,,631a1897a8f28243082da8ef,10:04:12,03/04/2024
,"<div style=""font-size: 10rem; color: #0000FF"">N</div>",,ospan,letter,dQEtH5EyAeTo2fw6F6Ok8oB3wSx2,html-keyboard-response,123,1455008,0.0-46.0-4.0-1.0-1.0-1.0,,,,,,,,,,,,,,,631a1897a8f28243082da8ef,10:04:12,03/04/2024
2672.0,,,ospan,symmetry,dQEtH5EyAeTo2fw6F6Ok8oB3wSx2,symmetry-judgement-task,124,1459555,0.0-46.0-4.0-1.0-1.0-2.0,,,,,,,,,,1.0,1.0,,,,631a1897a8f28243082da8ef,10:04:12,03/04/2024
,"<div style=""font-size: 10rem; color: #0000FF"">K</div>",,ospan,letter,dQEtH5EyAeTo2fw6F6Ok8oB3wSx2,html-keyboard-response,125,1460559,0.0-46.0-4.0-1.0-1.0-3.0,,,,,,,,,,,,,,,631a1897a8f28243082da8ef,10:04:12,03/04/2024
2282.0,,,ospan,symmetry,dQEtH5EyAeTo2fw6F6Ok8oB3wSx2,symmetry-judgement-task,126,1464705,0.0-46.0-4.0-1.0-1.0-4.0,,,,,,,,,,1.0,1.0,,,,631a1897a8f28243082da8ef,10:04:12,03/04/2024
,"<div style=""font-size: 10rem; color: #0000FF"">J</div>",,ospan,letter,dQEtH5EyAeTo2fw6F6Ok8oB3wSx2,html-keyboard-response,127,1465712,0.0-46.0-4.0-1.0-1.0-5.0,,,,,,,,,,,,,,,631a1897a8f28243082da8ef,10:04:12,03/04/2024
2502.0,,,ospan,symmetry,dQEtH5EyAeTo2fw6F6Ok8oB3wSx2,symmetry-judgement-task,128,1470088,0.0-46.0-4.0-1.0-1.0-6.0,,,,,,,,,,1.0,1.0,,,,631a1897a8f28243082da8ef,10:04:12,03/04/2024
,"<div style=""font-size: 10rem; color: #0000FF"">C</div>",,ospan,letter,dQEtH5EyAeTo2fw6F6Ok8oB3wSx2,html-keyboard-response,129,1471091,0.0-46.0-4.0-1.0-1.0-7.0,,,,,,,,,,,,,,,631a1897a8f28243082da8ef,10:04:12,03/04/2024
2603.0,,,ospan,symmetry,dQEtH5EyAeTo2fw6F6Ok8oB3wSx2,symmetry-judgement-task,130,1475572,0.0-46.0-4.0-1.0-1.0-8.0,,,,,,,,,,1.0,1.0,,,,631a1897a8f28243082da8ef,10:04:12,03/04/2024
,"<div style=""font-size: 10rem; color: #0000FF"">L</div>",,ospan,letter,dQEtH5EyAeTo2fw6F6Ok8oB3wSx2,html-keyboard-response,131,1476578,0.0-46.0-4.0-1.0-1.0-9.0,,,,,,,,,,,,,,,631a1897a8f28243082da8ef,10:04:12,03/04/2024
6432.100000000093,"<div class = numbox><p style=""font-size: 2.4rem"">Please recall the letters you saw to the best of your ability. If you do not remember a particular letter, use the SKIP button.<br><b>(When you are ready to lock in your answer, press ENTER)</b></p><button id = button_1 class = ""square num-button"" onclick = ""recordClick(this)""><div class = content><div class = numbers>C</div></div></button><button id = button_2 class = ""square num-button"" onclick = ""recordClick(this)""><div class = content><div class = numbers>G</div></div></button><button id = button_3 class = ""square num-button"" onclick = ""recordClick(this)""><div class = content><div class = numbers>H</div></div></button><button id = button_4 class = ""square num-button"" onclick = ""recordClick(this)""><div class = content><div class = numbers>J</div></div></button><button id = button_5 class = ""square num-button"" onclick = ""recordClick(this)""><div class = content><div class = numbers>K</div></div></button><button id = button_6 class = ""square num-button"" onclick = ""recordClick(this)""><div class = content><div class = numbers>L</div></div></button><button id = button_7 class = ""square num-button"" onclick = ""recordClick(this)""><div class = content><div class = numbers>N</div></div></button><button id = button_8 class = ""square num-button"" onclick = ""recordClick(this)""><div class = content><div class = numbers>P</div></div></button><button id = button_9 class = ""square num-button"" onclick = ""recordClick(this)""><div class = content><div class = numbers>Q</div></div></button><button id = button_10 class = ""square num-button"" onclick = ""recordClick(this)""><div class = content><div class = numbers>R</div></div></button><button id = button_11 class = ""square num-button"" onclick = ""recordClick(this)""><div class = content><div class = numbers>S</div></div></button><button id = button_12 class = ""square num-button"" onclick = ""recordClick(this)""><div class = content><div class = numbers>Y</div></div></button><button class = clear_button id = ""ClearButton"" onclick = ""clearResponse()"">BACKSPACE</button><button class = blank_button id = ""BlankButton"" onclick = ""blankResponse()"">SKIP</button><p style=""font-size: 2.4rem""><u><b>Current Answer:</b></u></p><br><br><div id=echoed_txt style=""font-size: 5rem; color:blue;""><b></b></div></div>",enter,ospan,retrieval,dQEtH5EyAeTo2fw6F6Ok8oB3wSx2,html-keyboard-response,132,1483768,0.0-46.0-4.0-1.0-2.0,12,12,12,5.0,"[""N"",""K"",""J"",""C"",""L""]","[""N"",""K"",""J"",""C"",""L""]",1.0,5.0,,,,,,,631a1897a8f28243082da8ef,10:04:12,03/04/2024
1175.6999999999534,[''],0,ospan,feedback,dQEtH5EyAeTo2fw6F6Ok8oB3wSx2,html-button-response,133,1485448,0.0-46.0-4.0-1.0-3.0,,,,,,,,,,,,92.0,0.0,,631a1897a8f28243082da8ef,10:04:12,03/04/2024
,"<p style=""font-size:75px;"">...</p>",,ospan,iti,dQEtH5EyAeTo2fw6F6Ok8oB3wSx2,html-keyboard-response,134,1486452,0.0-46.0-4.0-2.0-0.0,,,,,,,,,,,,,,,631a1897a8f28243082da8ef,10:04:12,03/04/2024
4122.0,,,ospan,symmetry,dQEtH5EyAeTo2fw6F6Ok8oB3wSx2,symmetry-judgement-task,135,1491621,0.0-46.0-4.0-2.0-1.0-0.0,,,,,,,,,,1.0,1.0,,,,631a1897a8f28243082da8ef,10:04:12,03/04/2024
,"<div style=""font-size: 10rem; color: #0000FF"">K</div>",,ospan,letter,dQEtH5EyAeTo2fw6F6Ok8oB3wSx2,html-keyboard-response,136,1492628,0.0-46.0-4.0-2.0-1.0-1.0,,,,,,,,,,,,,,,631a1897a8f28243082da8ef,10:04:12,03/04/2024
2423.0,,,ospan,symmetry,dQEtH5EyAeTo2fw6F6Ok8oB3wSx2,symmetry-judgement-task,137,1496922,0.0-46.0-4.0-2.0-1.0-2.0,,,,,,,,,,1.0,1.0,,,,631a1897a8f28243082da8ef,10:04:12,03/04/2024
,"<div style=""font-size: 10rem; color: #0000FF"">L</div>",,ospan,letter,dQEtH5EyAeTo2fw6F6Ok8oB3wSx2,html-keyboard-response,138,1497928,0.0-46.0-4.0-2.0-1.0-3.0,,,,,,,,,,,,,,,631a1897a8f28243082da8ef,10:04:12,03/04/2024
3269.0,,,ospan,symmetry,dQEtH5EyAeTo2fw6F6Ok8oB3wSx2,symmetry-judgement-task,139,1503071,0.0-46.0-4.0-2.0-1.0-4.0,,,,,,,,,,1.0,1.0,,,,631a1897a8f28243082da8ef,10:04:12,03/04/2024
,"<div style=""font-size: 10rem; color: #0000FF"">S</div>",,ospan,letter,dQEtH5EyAeTo2fw6F6Ok8oB3wSx2,html-keyboard-response,140,1504078,0.0-46.0-4.0-2.0-1.0-5.0,,,,,,,,,,,,,,,631a1897a8f28243082da8ef,10:04:12,03/04/2024
3445.5,"<div class = numbox><p style=""font-size: 2.4rem"">Please recall the letters you saw to the best of your ability. If you do not remember a particular letter, use the SKIP button.<br><b>(When you are ready to lock in your answer, press ENTER)</b></p><button id = button_1 class = ""square num-button"" onclick = ""recordClick(this)""><div class = content><div class = numbers>C</div></div></button><button id = button_2 class = ""square num-button"" onclick = ""recordClick(this)""><div class = content><div class = numbers>G</div></div></button><button id = button_3 class = ""square num-button"" onclick = ""recordClick(this)""><div class = content><div class = numbers>H</div></div></button><button id = button_4 class = ""square num-button"" onclick = ""recordClick(this)""><div class = content><div class = numbers>J</div></div></button><button id = button_5 class = ""square num-button"" onclick = ""recordClick(this)""><div class = content><div class = numbers>K</div></div></button><button id = button_6 class = ""square num-button"" onclick = ""recordClick(this)""><div class = content><div class = numbers>L</div></div></button><button id = button_7 class = ""square num-button"" onclick = ""recordClick(this)""><div class = content><div class = numbers>N</div></div></button><button id = button_8 class = ""square num-button"" onclick = ""recordClick(this)""><div class = content><div class = numbers>P</div></div></button><button id = button_9 class = ""square num-button"" onclick = ""recordClick(this)""><div class = content><div class = numbers>Q</div></div></button><button id = button_10 class = ""square num-button"" onclick = ""recordClick(this)""><div class = content><div class = numbers>R</div></div></button><button id = button_11 class = ""square num-button"" onclick = ""recordClick(this)""><div class = content><div class = numbers>S</div></div></button><button id = button_12 class = ""square num-button"" onclick = ""recordClick(this)""><div class = content><div class = numbers>Y</div></div></button><button class = clear_button id = ""ClearButton"" onclick = ""clearResponse()"">BACKSPACE</button><button class = blank_button id = ""BlankButton"" onclick = ""blankResponse()"">SKIP</button><p style=""font-size: 2.4rem""><u><b>Current Answer:</b></u></p><br><br><div id=echoed_txt style=""font-size: 5rem; color:blue;""><b></b></div></div>",enter,ospan,retrieval,dQEtH5EyAeTo2fw6F6Ok8oB3wSx2,html-keyboard-response,141,1508280,0.0-46.0-4.0-2.0-2.0,15,15,15,3.0,"[""K"",""L"",""S""]","[""K"",""L"",""S""]",1.0,3.0,,,,,,,631a1897a8f28243082da8ef,10:04:12,03/04/2024
1482.5,[''],0,ospan,feedback,dQEtH5EyAeTo2fw6F6Ok8oB3wSx2,html-button-response,142,1510266,0.0-46.0-4.0-2.0-3.0,,,,,,,,,,,,93.0,0.0,,631a1897a8f28243082da8ef,10:04:12,03/04/2024
,"<p style=""font-size:75px;"">...</p>",,ospan,iti,dQEtH5EyAeTo2fw6F6Ok8oB3wSx2,html-keyboard-response,143,1511274,0.0-46.0-5.0-0.0-0.0,,,,,,,,,,,,,,,631a1897a8f28243082da8ef,10:04:12,03/04/2024
2358.0,,,ospan,symmetry,dQEtH5EyAeTo2fw6F6Ok8oB3wSx2,symmetry-judgement-task,144,1514671,0.0-46.0-5.0-0.0-1.0-0.0,,,,,,,,,,1.0,1.0,,,,631a1897a8f28243082da8ef,10:04:12,03/04/2024
,"<div style=""font-size: 10rem; color: #0000FF"">Y</div>",,ospan,letter,dQEtH5EyAeTo2fw6F6Ok8oB3wSx2,html-keyboard-response,145,1515677,0.0-46.0-5.0-0.0-1.0-1.0,,,,,,,,,,,,,,,631a1897a8f28243082da8ef,10:04:12,03/04/2024
3672.0,,,ospan,symmetry,dQEtH5EyAeTo2fw6F6Ok8oB3wSx2,symmetry-judgement-task,146,1521202,0.0-46.0-5.0-0.0-1.0-2.0,,,,,,,,,,1.0,1.0,,,,631a1897a8f28243082da8ef,10:04:12,03/04/2024
,"<div style=""font-size: 10rem; color: #0000FF"">R</div>",,ospan,letter,dQEtH5EyAeTo2fw6F6Ok8oB3wSx2,html-keyboard-response,147,1522209,0.0-46.0-5.0-0.0-1.0-3.0,,,,,,,,,,,,,,,631a1897a8f28243082da8ef,10:04:12,03/04/2024
2724.0,,,ospan,symmetry,dQEtH5EyAeTo2fw6F6Ok8oB3wSx2,symmetry-judgement-task,148,1526802,0.0-46.0-5.0-0.0-1.0-4.0,,,,,,,,,,1.0,1.0,,,,631a1897a8f28243082da8ef,10:04:12,03/04/2024
,"<div style=""font-size: 10rem; color: #0000FF"">C</div>",,ospan,letter,dQEtH5EyAeTo2fw6F6Ok8oB3wSx2,html-keyboard-response,149,1527805,0.0-46.0-5.0-0.0-1.0-5.0,,,,,,,,,,,,,,,631a1897a8f28243082da8ef,10:04:12,03/04/2024
2819.0,,,ospan,symmetry,dQEtH5EyAeTo2fw6F6Ok8oB3wSx2,symmetry-judgement-task,150,1532502,0.0-46.0-5.0-0.0-1.0-6.0,,,,,,,,,,1.0,1.0,,,,631a1897a8f28243082da8ef,10:04:12,03/04/2024
,"<div style=""font-size: 10rem; color: #0000FF"">G</div>",,ospan,letter,dQEtH5EyAeTo2fw6F6Ok8oB3wSx2,html-keyboard-response,151,1533509,0.0-46.0-5.0-0.0-1.0-7.0,,,,,,,,,,,,,,,631a1897a8f28243082da8ef,10:04:12,03/04/2024
3372.0,,,ospan,symmetry,dQEtH5EyAeTo2fw6F6Ok8oB3wSx2,symmetry-judgement-task,152,1538754,0.0-46.0-5.0-0.0-1.0-8.0,,,,,,,,,,1.0,1.0,,,,631a1897a8f28243082da8ef,10:04:12,03/04/2024
,"<div style=""font-size: 10rem; color: #0000FF"">K</div>",,ospan,letter,dQEtH5EyAeTo2fw6F6Ok8oB3wSx2,html-keyboard-response,153,1539757,0.0-46.0-5.0-0.0-1.0-9.0,,,,,,,,,,,,,,,631a1897a8f28243082da8ef,10:04:12,03/04/2024
2153.0,,,ospan,symmetry,dQEtH5EyAeTo2fw6F6Ok8oB3wSx2,symmetry-judgement-task,154,1543789,0.0-46.0-5.0-0.0-1.0-10.0,,,,,,,,,,1.0,1.0,,,,631a1897a8f28243082da8ef,10:04:12,03/04/2024
,"<div style=""font-size: 10rem; color: #0000FF"">J</div>",,ospan,letter,dQEtH5EyAeTo2fw6F6Ok8oB3wSx2,html-keyboard-response,155,1544796,0.0-46.0-5.0-0.0-1.0-11.0,,,,,,,,,,,,,,,631a1897a8f28243082da8ef,10:04:12,03/04/2024
9144.0,"<div class = numbox><p style=""font-size: 2.4rem"">Please recall the letters you saw to the best of your ability. If you do not remember a particular letter, use the SKIP button.<br><b>(When you are ready to lock in your answer, press ENTER)</b></p><button id = button_1 class = ""square num-button"" onclick = ""recordClick(this)""><div class = content><div class = numbers>C</div></div></button><button id = button_2 class = ""square num-button"" onclick = ""recordClick(this)""><div class = content><div class = numbers>G</div></div></button><button id = button_3 class = ""square num-button"" onclick = ""recordClick(this)""><div class = content><div class = numbers>H</div></div></button><button id = button_4 class = ""square num-button"" onclick = ""recordClick(this)""><div class = content><div class = numbers>J</div></div></button><button id = button_5 class = ""square num-button"" onclick = ""recordClick(this)""><div class = content><div class = numbers>K</div></div></button><button id = button_6 class = ""square num-button"" onclick = ""recordClick(this)""><div class = content><div class = numbers>L</div></div></button><button id = button_7 class = ""square num-button"" onclick = ""recordClick(this)""><div class = content><div class = numbers>N</div></div></button><button id = button_8 class = ""square num-button"" onclick = ""recordClick(this)""><div class = content><div class = numbers>P</div></div></button><button id = button_9 class = ""square num-button"" onclick = ""recordClick(this)""><div class = content><div class = numbers>Q</div></div></button><button id = button_10 class = ""square num-button"" onclick = ""recordClick(this)""><div class = content><div class = numbers>R</div></div></button><button id = button_11 class = ""square num-button"" onclick = ""recordClick(this)""><div class = content><div class = numbers>S</div></div></button><button id = button_12 class = ""square num-button"" onclick = ""recordClick(this)""><div class = content><div class = numbers>Y</div></div></button><button class = clear_button id = ""ClearButton"" onclick = ""clearResponse()"">BACKSPACE</button><button class = blank_button id = ""BlankButton"" onclick = ""blankResponse()"">SKIP</button><p style=""font-size: 2.4rem""><u><b>Current Answer:</b></u></p><br><br><div id=echoed_txt style=""font-size: 5rem; color:blue;""><b></b></div></div>",enter,ospan,retrieval,dQEtH5EyAeTo2fw6F6Ok8oB3wSx2,html-keyboard-response,156,1554697,0.0-46.0-5.0-0.0-2.0,21,19,15,6.0,"[""Y"",""C"",""S"",""G"",""K"",""J""]","[""Y"",""R"",""C"",""G"",""K"",""J""]",0.0,4.0,,,,,,,631a1897a8f28243082da8ef,10:04:12,03/04/2024
1198.3000000000466,[''],0,ospan,feedback,dQEtH5EyAeTo2fw6F6Ok8oB3wSx2,html-button-response,157,1556399,0.0-46.0-5.0-0.0-3.0,,,,,,,,,,,,95.0,0.0,,631a1897a8f28243082da8ef,10:04:12,03/04/2024
,"<p style=""font-size:75px;"">...</p>",,ospan,iti,dQEtH5EyAeTo2fw6F6Ok8oB3wSx2,html-keyboard-response,158,1557402,0.0-46.0-5.0-1.0-0.0,,,,,,,,,,,,,,,631a1897a8f28243082da8ef,10:04:12,03/04/2024
3383.0,,,ospan,symmetry,dQEtH5EyAeTo2fw6F6Ok8oB3wSx2,symmetry-judgement-task,159,1561906,0.0-46.0-5.0-1.0-1.0-0.0,,,,,,,,,,1.0,1.0,,,,631a1897a8f28243082da8ef,10:04:12,03/04/2024
,"<div style=""font-size: 10rem; color: #0000FF"">R</div>",,ospan,letter,dQEtH5EyAeTo2fw6F6Ok8oB3wSx2,html-keyboard-response,160,1562912,0.0-46.0-5.0-1.0-1.0-1.0,,,,,,,,,,,,,,,631a1897a8f28243082da8ef,10:04:12,03/04/2024
3851.0,,,ospan,symmetry,dQEtH5EyAeTo2fw6F6Ok8oB3wSx2,symmetry-judgement-task,161,1568623,0.0-46.0-5.0-1.0-1.0-2.0,,,,,,,,,,1.0,1.0,,,,631a1897a8f28243082da8ef,10:04:12,03/04/2024
,"<div style=""font-size: 10rem; color: #0000FF"">S</div>",,ospan,letter,dQEtH5EyAeTo2fw6F6Ok8oB3wSx2,html-keyboard-response,162,1569630,0.0-46.0-5.0-1.0-1.0-3.0,,,,,,,,,,,,,,,631a1897a8f28243082da8ef,10:04:12,03/04/2024
2785.0,,,ospan,symmetry,dQEtH5EyAeTo2fw6F6Ok8oB3wSx2,symmetry-judgement-task,163,1574272,0.0-46.0-5.0-1.0-1.0-4.0,,,,,,,,,,1.0,1.0,,,,631a1897a8f28243082da8ef,10:04:12,03/04/2024
,"<div style=""font-size: 10rem; color: #0000FF"">J</div>",,ospan,letter,dQEtH5EyAeTo2fw6F6Ok8oB3wSx2,html-keyboard-response,164,1575278,0.0-46.0-5.0-1.0-1.0-5.0,,,,,,,,,,,,,,,631a1897a8f28243082da8ef,10:04:12,03/04/2024
2444.0,,,ospan,symmetry,dQEtH5EyAeTo2fw6F6Ok8oB3wSx2,symmetry-judgement-task,165,1579588,0.0-46.0-5.0-1.0-1.0-6.0,,,,,,,,,,1.0,1.0,,,,631a1897a8f28243082da8ef,10:04:12,03/04/2024
,"<div style=""font-size: 10rem; color: #0000FF"">P</div>",,ospan,letter,dQEtH5EyAeTo2fw6F6Ok8oB3wSx2,html-keyboard-response,166,1580596,0.0-46.0-5.0-1.0-1.0-7.0,,,,,,,,,,,,,,,631a1897a8f28243082da8ef,10:04:12,03/04/2024
2852.0,,,ospan,symmetry,dQEtH5EyAeTo2fw6F6Ok8oB3wSx2,symmetry-judgement-task,167,1585306,0.0-46.0-5.0-1.0-1.0-8.0,,,,,,,,,,1.0,1.0,,,,631a1897a8f28243082da8ef,10:04:12,03/04/2024
,"<div style=""font-size: 10rem; color: #0000FF"">L</div>",,ospan,letter,dQEtH5EyAeTo2fw6F6Ok8oB3wSx2,html-keyboard-response,168,1586313,0.0-46.0-5.0-1.0-1.0-9.0,,,,,,,,,,,,,,,631a1897a8f28243082da8ef,10:04:12,03/04/2024
2261.0,,,ospan,symmetry,dQEtH5EyAeTo2fw6F6Ok8oB3wSx2,symmetry-judgement-task,169,1590439,0.0-46.0-5.0-1.0-1.0-10.0,,,,,,,,,,1.0,1.0,,,,631a1897a8f28243082da8ef,10:04:12,03/04/2024
,"<div style=""font-size: 10rem; color: #0000FF"">C</div>",,ospan,letter,dQEtH5EyAeTo2fw6F6Ok8oB3wSx2,html-keyboard-response,170,1591443,0.0-46.0-5.0-1.0-1.0-11.0,,,,,,,,,,,,,,,631a1897a8f28243082da8ef,10:04:12,03/04/2024
2238.0,,,ospan,symmetry,dQEtH5EyAeTo2fw6F6Ok8oB3wSx2,symmetry-judgement-task,171,1595555,0.0-46.0-5.0-1.0-1.0-12.0,,,,,,,,,,1.0,1.0,,,,631a1897a8f28243082da8ef,10:04:12,03/04/2024
,"<div style=""font-size: 10rem; color: #0000FF"">H</div>",,ospan,letter,dQEtH5EyAeTo2fw6F6Ok8oB3wSx2,html-keyboard-response,172,1596562,0.0-46.0-5.0-1.0-1.0-13.0,,,,,,,,,,,,,,,631a1897a8f28243082da8ef,10:04:12,03/04/2024
6513.59999999986,"<div class = numbox><p style=""font-size: 2.4rem"">Please recall the letters you saw to the best of your ability. If you do not remember a particular letter, use the SKIP button.<br><b>(When you are ready to lock in your answer, press ENTER)</b></p><button id = button_1 class = ""square num-button"" onclick = ""recordClick(this)""><div class = content><div class = numbers>C</div></div></button><button id = button_2 class = ""square num-button"" onclick = ""recordClick(this)""><div class = content><div class = numbers>G</div></div></button><button id = button_3 class = ""square num-button"" onclick = ""recordClick(this)""><div class = content><div class = numbers>H</div></div></button><button id = button_4 class = ""square num-button"" onclick = ""recordClick(this)""><div class = content><div class = numbers>J</div></div></button><button id = button_5 class = ""square num-button"" onclick = ""recordClick(this)""><div class = content><div class = numbers>K</div></div></button><button id = button_6 class = ""square num-button"" onclick = ""recordClick(this)""><div class = content><div class = numbers>L</div></div></button><button id = button_7 class = ""square num-button"" onclick = ""recordClick(this)""><div class = content><div class = numbers>N</div></div></button><button id = button_8 class = ""square num-button"" onclick = ""recordClick(this)""><div class = content><div class = numbers>P</div></div></button><button id = button_9 class = ""square num-button"" onclick = ""recordClick(this)""><div class = content><div class = numbers>Q</div></div></button><button id = button_10 class = ""square num-button"" onclick = ""recordClick(this)""><div class = content><div class = numbers>R</div></div></button><button id = button_11 class = ""square num-button"" onclick = ""recordClick(this)""><div class = content><div class = numbers>S</div></div></button><button id = button_12 class = ""square num-button"" onclick = ""recordClick(this)""><div class = content><div class = numbers>Y</div></div></button><button class = clear_button id = ""ClearButton"" onclick = ""clearResponse()"">BACKSPACE</button><button class = blank_button id = ""BlankButton"" onclick = ""blankResponse()"">SKIP</button><p style=""font-size: 2.4rem""><u><b>Current Answer:</b></u></p><br><br><div id=echoed_txt style=""font-size: 5rem; color:blue;""><b></b></div></div>",enter,ospan,retrieval,dQEtH5EyAeTo2fw6F6Ok8oB3wSx2,html-keyboard-response,173,1603833,0.0-46.0-5.0-1.0-2.0,28,19,15,7.0,"[""Y"",""J"",""P"",""L"",""C""]","[""R"",""S"",""J"",""P"",""L"",""C"",""H""]",0.0,0.0,,,,,,,631a1897a8f28243082da8ef,10:04:12,03/04/2024
1646.3000000000466,[''],0,ospan,feedback,dQEtH5EyAeTo2fw6F6Ok8oB3wSx2,html-button-response,174,1605982,0.0-46.0-5.0-1.0-3.0,,,,,,,,,,,,96.0,0.0,,631a1897a8f28243082da8ef,10:04:12,03/04/2024
,"<p style=""font-size:75px;"">...</p>",,ospan,iti,dQEtH5EyAeTo2fw6F6Ok8oB3wSx2,html-keyboard-response,175,1606990,0.0-46.0-6.0-0.0-0.0,,,,,,,,,,,,,,,631a1897a8f28243082da8ef,10:04:12,03/04/2024
1832.0,,,ospan,symmetry,dQEtH5EyAeTo2fw6F6Ok8oB3wSx2,symmetry-judgement-task,176,1609939,0.0-46.0-6.0-0.0-1.0-0.0,,,,,,,,,,1.0,1.0,,,,631a1897a8f28243082da8ef,10:04:12,03/04/2024
,"<div style=""font-size: 10rem; color: #0000FF"">G</div>",,ospan,letter,dQEtH5EyAeTo2fw6F6Ok8oB3wSx2,html-keyboard-response,177,1610947,0.0-46.0-6.0-0.0-1.0-1.0,,,,,,,,,,,,,,,631a1897a8f28243082da8ef,10:04:12,03/04/2024
3056.0,,,ospan,symmetry,dQEtH5EyAeTo2fw6F6Ok8oB3wSx2,symmetry-judgement-task,178,1615871,0.0-46.0-6.0-0.0-1.0-2.0,,,,,,,,,,1.0,1.0,,,,631a1897a8f28243082da8ef,10:04:12,03/04/2024
,"<div style=""font-size: 10rem; color: #0000FF"">Q</div>",,ospan,letter,dQEtH5EyAeTo2fw6F6Ok8oB3wSx2,html-keyboard-response,179,1616879,0.0-46.0-6.0-0.0-1.0-3.0,,,,,,,,,,,,,,,631a1897a8f28243082da8ef,10:04:12,03/04/2024
4122.0,,,ospan,symmetry,dQEtH5EyAeTo2fw6F6Ok8oB3wSx2,symmetry-judgement-task,180,1622868,0.0-46.0-6.0-0.0-1.0-4.0,,,,,,,,,,0.0,0.0,,,,631a1897a8f28243082da8ef,10:04:12,03/04/2024
,"<div style=""font-size: 10rem; color: #0000FF"">Y</div>",,ospan,letter,dQEtH5EyAeTo2fw6F6Ok8oB3wSx2,html-keyboard-response,181,1623876,0.0-46.0-6.0-0.0-1.0-5.0,,,,,,,,,,,,,,,631a1897a8f28243082da8ef,10:04:12,03/04/2024
2291.0,,,ospan,symmetry,dQEtH5EyAeTo2fw6F6Ok8oB3wSx2,symmetry-judgement-task,182,1628040,0.0-46.0-6.0-0.0-1.0-6.0,,,,,,,,,,1.0,1.0,,,,631a1897a8f28243082da8ef,10:04:12,03/04/2024
,"<div style=""font-size: 10rem; color: #0000FF"">K</div>",,ospan,letter,dQEtH5EyAeTo2fw6F6Ok8oB3wSx2,html-keyboard-response,183,1629047,0.0-46.0-6.0-0.0-1.0-7.0,,,,,,,,,,,,,,,631a1897a8f28243082da8ef,10:04:12,03/04/2024
1851.0,,,ospan,symmetry,dQEtH5EyAeTo2fw6F6Ok8oB3wSx2,symmetry-judgement-task,184,1632773,0.0-46.0-6.0-0.0-1.0-8.0,,,,,,,,,,0.0,0.0,,,,631a1897a8f28243082da8ef,10:04:12,03/04/2024
,"<div style=""font-size: 10rem; color: #0000FF"">N</div>",,ospan,letter,dQEtH5EyAeTo2fw6F6Ok8oB3wSx2,html-keyboard-response,185,1633777,0.0-46.0-6.0-0.0-1.0-9.0,,,,,,,,,,,,,,,631a1897a8f28243082da8ef,10:04:12,03/04/2024
6678.699999999953,"<div class = numbox><p style=""font-size: 2.4rem"">Please recall the letters you saw to the best of your ability. If you do not remember a particular letter, use the SKIP button.<br><b>(When you are ready to lock in your answer, press ENTER)</b></p><button id = button_1 class = ""square num-button"" onclick = ""recordClick(this)""><div class = content><div class = numbers>C</div></div></button><button id = button_2 class = ""square num-button"" onclick = ""recordClick(this)""><div class = content><div class = numbers>G</div></div></button><button id = button_3 class = ""square num-button"" onclick = ""recordClick(this)""><div class = content><div class = numbers>H</div></div></button><button id = button_4 class = ""square num-button"" onclick = ""recordClick(this)""><div class = content><div class = numbers>J</div></div></button><button id = button_5 class = ""square num-button"" onclick = ""recordClick(this)""><div class = content><div class = numbers>K</div></div></button><button id = button_6 class = ""square num-button"" onclick = ""recordClick(this)""><div class = content><div class = numbers>L</div></div></button><button id = button_7 class = ""square num-button"" onclick = ""recordClick(this)""><div class = content><div class = numbers>N</div></div></button><button id = button_8 class = ""square num-button"" onclick = ""recordClick(this)""><div class = content><div class = numbers>P</div></div></button><button id = button_9 class = ""square num-button"" onclick = ""recordClick(this)""><div class = content><div class = numbers>Q</div></div></button><button id = button_10 class = ""square num-button"" onclick = ""recordClick(this)""><div class = content><div class = numbers>R</div></div></button><button id = button_11 class = ""square num-button"" onclick = ""recordClick(this)""><div class = content><div class = numbers>S</div></div></button><button id = button_12 class = ""square num-button"" onclick = ""recordClick(this)""><div class = content><div class = numbers>Y</div></div></button><button class = clear_button id = ""ClearButton"" onclick = ""clearResponse()"">BACKSPACE</button><button class = blank_button id = ""BlankButton"" onclick = ""blankResponse()"">SKIP</button><p style=""font-size: 2.4rem""><u><b>Current Answer:</b></u></p><br><br><div id=echoed_txt style=""font-size: 5rem; color:blue;""><b></b></div></div>",enter,ospan,retrieval,dQEtH5EyAeTo2fw6F6Ok8oB3wSx2,html-keyboard-response,186,1641213,0.0-46.0-6.0-0.0-2.0,33,21,15,5.0,"[""G"",""Q"",""K"",""N"",""Y""]","[""G"",""Q"",""Y"",""K"",""N""]",0.0,2.0,,,,,,,631a1897a8f28243082da8ef,10:04:12,03/04/2024
933.0,[''],0,ospan,feedback,dQEtH5EyAeTo2fw6F6Ok8oB3wSx2,html-button-response,187,1642649,0.0-46.0-6.0-0.0-3.0,,,,,,,,,,,,91.0,0.0,,631a1897a8f28243082da8ef,10:04:12,03/04/2024
,"<p style=""font-size:75px;"">...</p>",,ospan,iti,dQEtH5EyAeTo2fw6F6Ok8oB3wSx2,html-keyboard-response,188,1643658,0.0-46.0-6.0-1.0-0.0,,,,,,,,,,,,,,,631a1897a8f28243082da8ef,10:04:12,03/04/2024
3608.0,,,ospan,symmetry,dQEtH5EyAeTo2fw6F6Ok8oB3wSx2,symmetry-judgement-task,189,1648373,0.0-46.0-6.0-1.0-1.0-0.0,,,,,,,,,,1.0,1.0,,,,631a1897a8f28243082da8ef,10:04:12,03/04/2024
,"<div style=""font-size: 10rem; color: #0000FF"">H</div>",,ospan,letter,dQEtH5EyAeTo2fw6F6Ok8oB3wSx2,html-keyboard-response,190,1649377,0.0-46.0-6.0-1.0-1.0-1.0,,,,,,,,,,,,,,,631a1897a8f28243082da8ef,10:04:12,03/04/2024
3022.0,,,ospan,symmetry,dQEtH5EyAeTo2fw6F6Ok8oB3wSx2,symmetry-judgement-task,191,1654273,0.0-46.0-6.0-1.0-1.0-2.0,,,,,,,,,,1.0,1.0,,,,631a1897a8f28243082da8ef,10:04:12,03/04/2024
,"<div style=""font-size: 10rem; color: #0000FF"">L</div>",,ospan,letter,dQEtH5EyAeTo2fw6F6Ok8oB3wSx2,html-keyboard-response,192,1655280,0.0-46.0-6.0-1.0-1.0-3.0,,,,,,,,,,,,,,,631a1897a8f28243082da8ef,10:04:12,03/04/2024
3836.0,,,ospan,symmetry,dQEtH5EyAeTo2fw6F6Ok8oB3wSx2,symmetry-judgement-task,193,1660989,0.0-46.0-6.0-1.0-1.0-4.0,,,,,,,,,,1.0,1.0,,,,631a1897a8f28243082da8ef,10:04:12,03/04/2024
,"<div style=""font-size: 10rem; color: #0000FF"">P</div>",,ospan,letter,dQEtH5EyAeTo2fw6F6Ok8oB3wSx2,html-keyboard-response,194,1661996,0.0-46.0-6.0-1.0-1.0-5.0,,,,,,,,,,,,,,,631a1897a8f28243082da8ef,10:04:12,03/04/2024
2573.0,,,ospan,symmetry,dQEtH5EyAeTo2fw6F6Ok8oB3wSx2,symmetry-judgement-task,195,1666439,0.0-46.0-6.0-1.0-1.0-6.0,,,,,,,,,,1.0,1.0,,,,631a1897a8f28243082da8ef,10:04:12,03/04/2024
,"<div style=""font-size: 10rem; color: #0000FF"">Y</div>",,ospan,letter,dQEtH5EyAeTo2fw6F6Ok8oB3wSx2,html-keyboard-response,196,1667446,0.0-46.0-6.0-1.0-1.0-7.0,,,,,,,,,,,,,,,631a1897a8f28243082da8ef,10:04:12,03/04/2024
1732.0,,,ospan,symmetry,dQEtH5EyAeTo2fw6F6Ok8oB3wSx2,symmetry-judgement-task,197,1671040,0.0-46.0-6.0-1.0-1.0-8.0,,,,,,,,,,1.0,1.0,,,,631a1897a8f28243082da8ef,10:04:12,03/04/2024
,"<div style=""font-size: 10rem; color: #0000FF"">R</div>",,ospan,letter,dQEtH5EyAeTo2fw6F6Ok8oB3wSx2,html-keyboard-response,198,1672047,0.0-46.0-6.0-1.0-1.0-9.0,,,,,,,,,,,,,,,631a1897a8f28243082da8ef,10:04:12,03/04/2024
1673.0,,,ospan,symmetry,dQEtH5EyAeTo2fw6F6Ok8oB3wSx2,symmetry-judgement-task,199,1675590,0.0-46.0-6.0-1.0-1.0-10.0,,,,,,,,,,1.0,1.0,,,,631a1897a8f28243082da8ef,10:04:12,03/04/2024
,"<div style=""font-size: 10rem; color: #0000FF"">S</div>",,ospan,letter,dQEtH5EyAeTo2fw6F6Ok8oB3wSx2,html-keyboard-response,200,1676596,0.0-46.0-6.0-1.0-1.0-11.0,,,,,,,,,,,,,,,631a1897a8f28243082da8ef,10:04:12,03/04/2024
2316.0,,,ospan,symmetry,dQEtH5EyAeTo2fw6F6Ok8oB3wSx2,symmetry-judgement-task,201,1680789,0.0-46.0-6.0-1.0-1.0-12.0,,,,,,,,,,1.0,1.0,,,,631a1897a8f28243082da8ef,10:04:12,03/04/2024
,"<div style=""font-size: 10rem; color: #0000FF"">Q</div>",,ospan,letter,dQEtH5EyAeTo2fw6F6Ok8oB3wSx2,html-keyboard-response,202,1681797,0.0-46.0-6.0-1.0-1.0-13.0,,,,,,,,,,,,,,,631a1897a8f28243082da8ef,10:04:12,03/04/2024
2291.0,,,ospan,symmetry,dQEtH5EyAeTo2fw6F6Ok8oB3wSx2,symmetry-judgement-task,203,1685951,0.0-46.0-6.0-1.0-1.0-14.0,,,,,,,,,,1.0,1.0,,,,631a1897a8f28243082da8ef,10:04:12,03/04/2024
,"<div style=""font-size: 10rem; color: #0000FF"">G</div>",,ospan,letter,dQEtH5EyAeTo2fw6F6Ok8oB3wSx2,html-keyboard-response,204,1686958,0.0-46.0-6.0-1.0-1.0-15.0,,,,,,,,,,,,,,,631a1897a8f28243082da8ef,10:04:12,03/04/2024
6919.399999999907,"<div class = numbox><p style=""font-size: 2.4rem"">Please recall the letters you saw to the best of your ability. If you do not remember a particular letter, use the SKIP button.<br><b>(When you are ready to lock in your answer, press ENTER)</b></p><button id = button_1 class = ""square num-button"" onclick = ""recordClick(this)""><div class = content><div class = numbers>C</div></div></button><button id = button_2 class = ""square num-button"" onclick = ""recordClick(this)""><div class = content><div class = numbers>G</div></div></button><button id = button_3 class = ""square num-button"" onclick = ""recordClick(this)""><div class = content><div class = numbers>H</div></div></button><button id = button_4 class = ""square num-button"" onclick = ""recordClick(this)""><div class = content><div class = numbers>J</div></div></button><button id = button_5 class = ""square num-button"" onclick = ""recordClick(this)""><div class = content><div class = numbers>K</div></div></button><button id = button_6 class = ""square num-button"" onclick = ""recordClick(this)""><div class = content><div class = numbers>L</div></div></button><button id = button_7 class = ""square num-button"" onclick = ""recordClick(this)""><div class = content><div class = numbers>N</div></div></button><button id = button_8 class = ""square num-button"" onclick = ""recordClick(this)""><div class = content><div class = numbers>P</div></div></button><button id = button_9 class = ""square num-button"" onclick = ""recordClick(this)""><div class = content><div class = numbers>Q</div></div></button><button id = button_10 class = ""square num-button"" onclick = ""recordClick(this)""><div class = content><div class = numbers>R</div></div></button><button id = button_11 class = ""square num-button"" onclick = ""recordClick(this)""><div class = content><div class = numbers>S</div></div></button><button id = button_12 class = ""square num-button"" onclick = ""recordClick(this)""><div class = content><div class = numbers>Y</div></div></button><button class = clear_button id = ""ClearButton"" onclick = ""clearResponse()"">BACKSPACE</button><button class = blank_button id = ""BlankButton"" onclick = ""blankResponse()"">SKIP</button><p style=""font-size: 2.4rem""><u><b>Current Answer:</b></u></p><br><br><div id=echoed_txt style=""font-size: 5rem; color:blue;""><b></b></div></div>",enter,ospan,retrieval,dQEtH5EyAeTo2fw6F6Ok8oB3wSx2,html-keyboard-response,205,1694635,0.0-46.0-6.0-1.0-2.0,41,24,15,8.0,"[""H"",""L"",""R"",""P"",""Y"",""S"",""G""]","[""H"",""L"",""P"",""Y"",""R"",""S"",""Q"",""G""]",0.0,3.0,,,,,,,631a1897a8f28243082da8ef,10:04:12,03/04/2024
912.0,[''],0,ospan,feedback,dQEtH5EyAeTo2fw6F6Ok8oB3wSx2,html-button-response,206,1696050,0.0-46.0-6.0-1.0-3.0,,,,,,,,,,,,93.0,0.0,,631a1897a8f28243082da8ef,10:04:12,03/04/2024
26015.0,,"{'Q0': ""I didn't enjoy how quickly i had to figure out which was symmetrical or not""}",ospan,survey_ospan,dQEtH5EyAeTo2fw6F6Ok8oB3wSx2,lmdlab-survey-text,207,1722823,0.0-46.0-7.0,,,,,,,,,,,,,,dQEtH5EyAeTo2fw6F6Ok8oB3wSx2,631a1897a8f28243082da8ef,10:04:12,03/04/2024
1724.6999999999534,<p><p style='font-size: 3rem'>Great work!<br><br>This completes the symmetry and memory task.</p><br><br><br>,0,ospan,finish,dQEtH5EyAeTo2fw6F6Ok8oB3wSx2,html-button-response,208,1724550,0.0-46.0-8.0,41,24,15,,,,,,,,,93.0,,,631a1897a8f28243082da8ef,10:04:12,03/04/2024
