rt,stimulus,response,exp_name,exp_stage,subjectID,trial_type,trial_index,time_elapsed,internal_node_id,ospan_shown,ospan_total,ospan_abs,length,resp_actual,resp_correct,full_correct,num_correct,feedback,accuracy,correct,math_acc,math_warning,databaseID,prolificID,start_time,date
2369.2000000476837,<div class = 'left_align' style='font-size: 3.25rem; line-height: 1.3;'><p class = 'center_align'><b>Welcome to the Symmetry and Memory Task</b><br><br><br><br></p>Press 'continue' to show the instructions.<br><br><br><br></div>,0,ospan,instruct,dcGYwt90tlQfYDWqVXZbDammIar1,html-button-response,54,516939,0.0-46.0-0.0-0.0-0.0,,,,,,,,,,,,,,,5b08185856655d0001bbfb1b,11:37:26,03/04/2024
10695.700000047684,"<div class = 'left_align' style='font-size: 3.25rem; line-height: 1.3;'><p class = 'center_align'><b>Symmetry and Memory Task</b><br><br></p>In this task, you will try to memorize letters you see on the screen<br>while you also view black and white grid pictures.<br><br>In the next few minutes, you will have some practice to get you familiar<br>with how the task works.<br><br>It may be difficult sometimes, but please do not worry about making mistakes!<br><br>We will begin by practicing the letter part of the task.<br><br><br><br></div>",0,ospan,instruct,dcGYwt90tlQfYDWqVXZbDammIar1,html-button-response,55,527891,0.0-46.0-0.0-0.0-1.0,,,,,,,,,,,,,,,5b08185856655d0001bbfb1b,11:37:26,03/04/2024
10235.5,"<div class = 'left_align' style='font-size: 3.25rem; line-height: 1.3;'>For this practice part, letters will appear on the screen one at a time.<br><br>Try to remember each letter in the order presented.<br><br>After some letters have been shown, you will see a response screen. Your<br>goal is to report the letters you saw <b>in order</b>. If you do not remember<br>a particular letter, you will have the option to leave it blank.<br><br><br><br></div>",0,ospan,instruct,dcGYwt90tlQfYDWqVXZbDammIar1,html-button-response,56,538380,0.0-46.0-0.0-0.0-2.0,,,,,,,,,,,,,,,5b08185856655d0001bbfb1b,11:37:26,03/04/2024
1629.8000001907349,"<div class = 'left_align' style='font-size: 3.25rem; line-height: 1.3;'>Remember, it is very important to get the letters in the same<br>order as you see them.<br><br>When you are ready, you may begin the letter practice.</div><br><br><br><br>",0,ospan,instruct,dcGYwt90tlQfYDWqVXZbDammIar1,html-button-response,57,540276,0.0-46.0-0.0-0.0-3.0,,,,,,,,,,,,,,,5b08185856655d0001bbfb1b,11:37:26,03/04/2024
,"<p style=""font-size:75px;"">...</p>",,ospan,iti,dcGYwt90tlQfYDWqVXZbDammIar1,html-keyboard-response,58,541545,0.0-46.0-0.0-1.0-0.0,,,,,,,,,,,,,,,5b08185856655d0001bbfb1b,11:37:26,03/04/2024
,"<div style=""font-size: 10rem; color: #0000FF"">S</div>",,ospan,letter,dcGYwt90tlQfYDWqVXZbDammIar1,html-keyboard-response,59,542556,0.0-46.0-0.0-1.0-1.0,,,,,,,,,,,,,,,5b08185856655d0001bbfb1b,11:37:26,03/04/2024
,"<div style=""font-size: 10rem; color: #0000FF"">R</div>",,ospan,letter,dcGYwt90tlQfYDWqVXZbDammIar1,html-keyboard-response,60,544326,0.0-46.0-0.0-1.0-2.0,,,,,,,,,,,,,,,5b08185856655d0001bbfb1b,11:37:26,03/04/2024
5861.5,"<div class = numbox><p style=""font-size: 2.4rem"">Please recall the letters you saw to the best of your ability. If you do not remember a particular letter, use the SKIP button.<br><b>(When you are ready to lock in your answer, press ENTER)</b></p><button id = button_1 class = ""square num-button"" onclick = ""recordClick(this)""><div class = content><div class = numbers>C</div></div></button><button id = button_2 class = ""square num-button"" onclick = ""recordClick(this)""><div class = content><div class = numbers>G</div></div></button><button id = button_3 class = ""square num-button"" onclick = ""recordClick(this)""><div class = content><div class = numbers>H</div></div></button><button id = button_4 class = ""square num-button"" onclick = ""recordClick(this)""><div class = content><div class = numbers>J</div></div></button><button id = button_5 class = ""square num-button"" onclick = ""recordClick(this)""><div class = content><div class = numbers>K</div></div></button><button id = button_6 class = ""square num-button"" onclick = ""recordClick(this)""><div class = content><div class = numbers>L</div></div></button><button id = button_7 class = ""square num-button"" onclick = ""recordClick(this)""><div class = content><div class = numbers>N</div></div></button><button id = button_8 class = ""square num-button"" onclick = ""recordClick(this)""><div class = content><div class = numbers>P</div></div></button><button id = button_9 class = ""square num-button"" onclick = ""recordClick(this)""><div class = content><div class = numbers>Q</div></div></button><button id = button_10 class = ""square num-button"" onclick = ""recordClick(this)""><div class = content><div class = numbers>R</div></div></button><button id = button_11 class = ""square num-button"" onclick = ""recordClick(this)""><div class = content><div class = numbers>S</div></div></button><button id = button_12 class = ""square num-button"" onclick = ""recordClick(this)""><div class = content><div class = numbers>Y</div></div></button><button class = clear_button id = ""ClearButton"" onclick = ""clearResponse()"">BACKSPACE</button><button class = blank_button id = ""BlankButton"" onclick = ""blankResponse()"">SKIP</button><p style=""font-size: 2.4rem""><u><b>Current Answer:</b></u></p><br><br><div id=echoed_txt style=""font-size: 5rem; color:blue;""><b></b></div></div>",enter,ospan,retrieval,dcGYwt90tlQfYDWqVXZbDammIar1,html-keyboard-response,61,550949,0.0-46.0-0.0-1.0-3.0,NA,NA,NA,2.0,"[""S"",""R""]","[""S"",""R""]",1.0,2.0,"['<font color=""green"">S</font>', '<font color=""green"">R</font>']",,,,,,5b08185856655d0001bbfb1b,11:37:26,03/04/2024
3571.4000000953674,"['<p style=""font-size:44px"">Letters:<br><br><br><font color=""green"">S</font> <font color=""green"">R</font></p><br><br>']",0,ospan,practice_feedback,dcGYwt90tlQfYDWqVXZbDammIar1,html-button-response,62,555028,0.0-46.0-0.0-1.0-4.0,,,,,,,,,,,,,,,5b08185856655d0001bbfb1b,11:37:26,03/04/2024
,"<p style=""font-size:75px;"">...</p>",,ospan,iti,dcGYwt90tlQfYDWqVXZbDammIar1,html-keyboard-response,63,556030,0.0-46.0-0.0-2.0-0.0,,,,,,,,,,,,,,,5b08185856655d0001bbfb1b,11:37:26,03/04/2024
,"<div style=""font-size: 10rem; color: #0000FF"">C</div>",,ospan,letter,dcGYwt90tlQfYDWqVXZbDammIar1,html-keyboard-response,64,557032,0.0-46.0-0.0-2.0-1.0,,,,,,,,,,,,,,,5b08185856655d0001bbfb1b,11:37:26,03/04/2024
,"<div style=""font-size: 10rem; color: #0000FF"">K</div>",,ospan,letter,dcGYwt90tlQfYDWqVXZbDammIar1,html-keyboard-response,65,558806,0.0-46.0-0.0-2.0-2.0,,,,,,,,,,,,,,,5b08185856655d0001bbfb1b,11:37:26,03/04/2024
,"<div style=""font-size: 10rem; color: #0000FF"">S</div>",,ospan,letter,dcGYwt90tlQfYDWqVXZbDammIar1,html-keyboard-response,66,560570,0.0-46.0-0.0-2.0-3.0,,,,,,,,,,,,,,,5b08185856655d0001bbfb1b,11:37:26,03/04/2024
4744.0,"<div class = numbox><p style=""font-size: 2.4rem"">Please recall the letters you saw to the best of your ability. If you do not remember a particular letter, use the SKIP button.<br><b>(When you are ready to lock in your answer, press ENTER)</b></p><button id = button_1 class = ""square num-button"" onclick = ""recordClick(this)""><div class = content><div class = numbers>C</div></div></button><button id = button_2 class = ""square num-button"" onclick = ""recordClick(this)""><div class = content><div class = numbers>G</div></div></button><button id = button_3 class = ""square num-button"" onclick = ""recordClick(this)""><div class = content><div class = numbers>H</div></div></button><button id = button_4 class = ""square num-button"" onclick = ""recordClick(this)""><div class = content><div class = numbers>J</div></div></button><button id = button_5 class = ""square num-button"" onclick = ""recordClick(this)""><div class = content><div class = numbers>K</div></div></button><button id = button_6 class = ""square num-button"" onclick = ""recordClick(this)""><div class = content><div class = numbers>L</div></div></button><button id = button_7 class = ""square num-button"" onclick = ""recordClick(this)""><div class = content><div class = numbers>N</div></div></button><button id = button_8 class = ""square num-button"" onclick = ""recordClick(this)""><div class = content><div class = numbers>P</div></div></button><button id = button_9 class = ""square num-button"" onclick = ""recordClick(this)""><div class = content><div class = numbers>Q</div></div></button><button id = button_10 class = ""square num-button"" onclick = ""recordClick(this)""><div class = content><div class = numbers>R</div></div></button><button id = button_11 class = ""square num-button"" onclick = ""recordClick(this)""><div class = content><div class = numbers>S</div></div></button><button id = button_12 class = ""square num-button"" onclick = ""recordClick(this)""><div class = content><div class = numbers>Y</div></div></button><button class = clear_button id = ""ClearButton"" onclick = ""clearResponse()"">BACKSPACE</button><button class = blank_button id = ""BlankButton"" onclick = ""blankResponse()"">SKIP</button><p style=""font-size: 2.4rem""><u><b>Current Answer:</b></u></p><br><br><div id=echoed_txt style=""font-size: 5rem; color:blue;""><b></b></div></div>",enter,ospan,retrieval,dcGYwt90tlQfYDWqVXZbDammIar1,html-keyboard-response,67,566074,0.0-46.0-0.0-2.0-4.0,NA,NA,NA,3.0,"[""C"",""K"",""S""]","[""C"",""K"",""S""]",1.0,3.0,"['<font color=""green"">C</font>', '<font color=""green"">K</font>', '<font color=""green"">S</font>']",,,,,,5b08185856655d0001bbfb1b,11:37:26,03/04/2024
794.7999999523163,"['<p style=""font-size:44px"">Letters:<br><br><br><font color=""green"">C</font> <font color=""green"">K</font> <font color=""green"">S</font></p><br><br>']",0,ospan,practice_feedback,dcGYwt90tlQfYDWqVXZbDammIar1,html-button-response,68,567372,0.0-46.0-0.0-2.0-5.0,,,,,,,,,,,,,,,5b08185856655d0001bbfb1b,11:37:26,03/04/2024
15694.799999952316,"<div class = 'left_align' style='font-size: 3.25rem; line-height: 1.3;'>Now you will practice doing the <b>symmetry judgment part</b> of the experiment.<br><br>A black and white grid picture will appear on the screen and you have to judge if it is <br>symmetrical or asymetrical.<br><br>A picture is 'mirror' symmetrical if its left half is identical to the right half when flipped.<br>Here are examples of a symmetrical and an asymetrical picture:<br><br><center><img src='Stimuli/img/symm_instructions_extra.png' style='height:420px; width:900'></img></center><br>To judge symmetry, imagine you were to fold each picture down the middle, like a book –<br>would the left half match the right half when folded onto each other?<br><br></div><br>",0,ospan,instruct,dcGYwt90tlQfYDWqVXZbDammIar1,html-button-response,69,583069,0.0-46.0-1.0-0.0-0.0,,,,,,,,,,,,,,,5b08185856655d0001bbfb1b,11:37:26,03/04/2024
3962.7000000476837,"<div class = 'left_align' style='font-size: 3.25rem; line-height: 1.3;'>When you have viewed the picture and determined whether it is symmetrical or not,<br>you can <b>click the Yes or No button</b> below to answer.<br><br>If you take longer than 15 seconds, it will continue automatically<br>and record the answer as an error.</div><br>",0,ospan,instruct,dcGYwt90tlQfYDWqVXZbDammIar1,html-button-response,70,587285,0.0-46.0-1.0-0.0-1.0,,,,,,,,,,,,,,,5b08185856655d0001bbfb1b,11:37:26,03/04/2024
4215.700000047684,"<div class = 'left_align' style='font-size: 3.25rem; line-height: 1.3;'>It is <b>very</b> important that you make the symmetry judgment correctly.<br><br>It is also important that you try and judge the picture as quickly as you can.<br><br>When you are ready, click on the button below to try some practice problems.</div><br><br><br><br>",0,ospan,instruct,dcGYwt90tlQfYDWqVXZbDammIar1,html-button-response,71,591757,0.0-46.0-1.0-0.0-2.0,,,,,,,,,,,,,,,5b08185856655d0001bbfb1b,11:37:26,03/04/2024
2362.0,,,ospan,symmetry,dcGYwt90tlQfYDWqVXZbDammIar1,symmetry-judgement-task,72,594958,0.0-46.0-1.0-1.0-0.0,,,,,,,,,,1.0,1.0,,,,5b08185856655d0001bbfb1b,11:37:26,03/04/2024
,"<p style=""color:green; font-size: 35px"">Correct</p>",,ospan,feedback,dcGYwt90tlQfYDWqVXZbDammIar1,html-keyboard-response,73,595713,0.0-46.0-1.0-1.0-1.0,,,,,,,,,,,,,,,5b08185856655d0001bbfb1b,11:37:26,03/04/2024
1746.0,,,ospan,symmetry,dcGYwt90tlQfYDWqVXZbDammIar1,symmetry-judgement-task,74,600220,0.0-46.0-1.0-1.0-2.0,,,,,,,,,,1.0,1.0,,,,5b08185856655d0001bbfb1b,11:37:26,03/04/2024
,"<p style=""color:green; font-size: 35px"">Correct</p>",,ospan,feedback,dcGYwt90tlQfYDWqVXZbDammIar1,html-keyboard-response,75,600978,0.0-46.0-1.0-1.0-3.0,,,,,,,,,,,,,,,5b08185856655d0001bbfb1b,11:37:26,03/04/2024
1469.0,,,ospan,symmetry,dcGYwt90tlQfYDWqVXZbDammIar1,symmetry-judgement-task,76,605192,0.0-46.0-1.0-1.0-4.0,,,,,,,,,,1.0,1.0,,,,5b08185856655d0001bbfb1b,11:37:26,03/04/2024
,"<p style=""color:green; font-size: 35px"">Correct</p>",,ospan,feedback,dcGYwt90tlQfYDWqVXZbDammIar1,html-keyboard-response,77,605945,0.0-46.0-1.0-1.0-5.0,,,,,,,,,,,,,,,5b08185856655d0001bbfb1b,11:37:26,03/04/2024
1786.1000001430511,"<p style=""font-size: 3rem;"">You responded correctly on 3 of 3 symmetry judgments. Good job!</p><br><br>",0,ospan,practice,dcGYwt90tlQfYDWqVXZbDammIar1,html-button-response,78,609741,0.0-46.0-1.0-2.0,,,,,,,,,,,,,,,5b08185856655d0001bbfb1b,11:37:26,03/04/2024
5136.099999904633,"<div class = 'left_align' style='font-size: 3.25rem; line-height: 1.3;'>Now you will practice doing both parts of the experiment at the same time.<br><br>In the next practice set, you will be given one grid picture to judge.<br>Then letter will appear on the screen. Try to remember the letter.<br><br>It is <b>very important</b> to make the symmetry judgment as quickly and accurately as possible.<br><br>Just as before, once you have make the symmetry judgment, you can click Yes or No.<br><b>Note that you will no longer see Correct or Incorrect feedback.</div><br><br><br><br>",0,ospan,instruct,dcGYwt90tlQfYDWqVXZbDammIar1,html-button-response,79,615134,0.0-46.0-2.0-0.0-0.0,,,,,,,,,,,,,,,5b08185856655d0001bbfb1b,11:37:26,03/04/2024
4784.200000047684,"<div class = 'left_align' style='font-size: 3.25rem; line-height: 1.3;'>After the letter goes away, another grid picture will appear, and then<br>another letter.<br><br>At the end of each set of letters and grids, you will recall the letters to the best<br>of your ability. Remember, try your best to get the letters in the correct order.<br><br>It is important to <b>quickly</b> and <b>accurately</b> make the symmetry judgments.</div><br><br><br><br>",0,ospan,instruct,dcGYwt90tlQfYDWqVXZbDammIar1,html-button-response,80,620174,0.0-46.0-2.0-0.0-1.0,,,,,,,,,,,,,,,5b08185856655d0001bbfb1b,11:37:26,03/04/2024
10257.900000095367,"<div class = 'left_align' style='font-size: 3.25rem; line-height: 1.3;'>On the feedback screen, if you are not doing well at the symmetry judgments,<br>you will also see a warning in the middle. This indicates your percent <br>correct for the grid pictures for the entire experiment.<br><br>It is <b>very</b> important for you to keep accuracy at least at 85%: <u>We can only use<br>data where the participant was at least 85% accurate on the judgments.</u> Therefore,<br> please try your best to perform well on the symmetry judgments, <b>at the same time</b><br>doing your best to recall as many letters as possible.<br><br>Click the button to try some practice problems.</div><br><br><br><br>",0,ospan,instruct,dcGYwt90tlQfYDWqVXZbDammIar1,html-button-response,81,630695,0.0-46.0-2.0-0.0-2.0,,,,,,,,,,,,,,,5b08185856655d0001bbfb1b,11:37:26,03/04/2024
,"<p style=""font-size:75px;"">...</p>",,ospan,iti,dcGYwt90tlQfYDWqVXZbDammIar1,html-keyboard-response,82,631952,0.0-46.0-2.0-1.0-0.0,,,,,,,,,,,,,,,5b08185856655d0001bbfb1b,11:37:26,03/04/2024
1635.0,,,ospan,symmetry,dcGYwt90tlQfYDWqVXZbDammIar1,symmetry-judgement-task,83,634658,0.0-46.0-2.0-1.0-1.0-0.0,,,,,,,,,,1.0,1.0,,,,5b08185856655d0001bbfb1b,11:37:26,03/04/2024
,"<div style=""font-size: 10rem; color: #0000FF"">G</div>",,ospan,letter,dcGYwt90tlQfYDWqVXZbDammIar1,html-keyboard-response,84,635669,0.0-46.0-2.0-1.0-1.0-1.0,,,,,,,,,,,,,,,5b08185856655d0001bbfb1b,11:37:26,03/04/2024
1185.0,,,ospan,symmetry,dcGYwt90tlQfYDWqVXZbDammIar1,symmetry-judgement-task,85,638847,0.0-46.0-2.0-1.0-1.0-2.0,,,,,,,,,,1.0,1.0,,,,5b08185856655d0001bbfb1b,11:37:26,03/04/2024
,"<div style=""font-size: 10rem; color: #0000FF"">K</div>",,ospan,letter,dcGYwt90tlQfYDWqVXZbDammIar1,html-keyboard-response,86,639862,0.0-46.0-2.0-1.0-1.0-3.0,,,,,,,,,,,,,,,5b08185856655d0001bbfb1b,11:37:26,03/04/2024
1170.0,,,ospan,symmetry,dcGYwt90tlQfYDWqVXZbDammIar1,symmetry-judgement-task,87,643041,0.0-46.0-2.0-1.0-1.0-4.0,,,,,,,,,,1.0,1.0,,,,5b08185856655d0001bbfb1b,11:37:26,03/04/2024
,"<div style=""font-size: 10rem; color: #0000FF"">H</div>",,ospan,letter,dcGYwt90tlQfYDWqVXZbDammIar1,html-keyboard-response,88,644047,0.0-46.0-2.0-1.0-1.0-5.0,,,,,,,,,,,,,,,5b08185856655d0001bbfb1b,11:37:26,03/04/2024
3033.399999856949,"<div class = numbox><p style=""font-size: 2.4rem"">Please recall the letters you saw to the best of your ability. If you do not remember a particular letter, use the SKIP button.<br><b>(When you are ready to lock in your answer, press ENTER)</b></p><button id = button_1 class = ""square num-button"" onclick = ""recordClick(this)""><div class = content><div class = numbers>C</div></div></button><button id = button_2 class = ""square num-button"" onclick = ""recordClick(this)""><div class = content><div class = numbers>G</div></div></button><button id = button_3 class = ""square num-button"" onclick = ""recordClick(this)""><div class = content><div class = numbers>H</div></div></button><button id = button_4 class = ""square num-button"" onclick = ""recordClick(this)""><div class = content><div class = numbers>J</div></div></button><button id = button_5 class = ""square num-button"" onclick = ""recordClick(this)""><div class = content><div class = numbers>K</div></div></button><button id = button_6 class = ""square num-button"" onclick = ""recordClick(this)""><div class = content><div class = numbers>L</div></div></button><button id = button_7 class = ""square num-button"" onclick = ""recordClick(this)""><div class = content><div class = numbers>N</div></div></button><button id = button_8 class = ""square num-button"" onclick = ""recordClick(this)""><div class = content><div class = numbers>P</div></div></button><button id = button_9 class = ""square num-button"" onclick = ""recordClick(this)""><div class = content><div class = numbers>Q</div></div></button><button id = button_10 class = ""square num-button"" onclick = ""recordClick(this)""><div class = content><div class = numbers>R</div></div></button><button id = button_11 class = ""square num-button"" onclick = ""recordClick(this)""><div class = content><div class = numbers>S</div></div></button><button id = button_12 class = ""square num-button"" onclick = ""recordClick(this)""><div class = content><div class = numbers>Y</div></div></button><button class = clear_button id = ""ClearButton"" onclick = ""clearResponse()"">BACKSPACE</button><button class = blank_button id = ""BlankButton"" onclick = ""blankResponse()"">SKIP</button><p style=""font-size: 2.4rem""><u><b>Current Answer:</b></u></p><br><br><div id=echoed_txt style=""font-size: 5rem; color:blue;""><b></b></div></div>",enter,ospan,retrieval,dcGYwt90tlQfYDWqVXZbDammIar1,html-keyboard-response,89,647848,0.0-46.0-2.0-1.0-2.0-0.0,NA,NA,NA,3.0,"[""G"",""K"",""H""]","[""G"",""K"",""H""]",1.0,3.0,"['<font color=""green"">G</font>', '<font color=""green"">K</font>', '<font color=""green"">H</font>']",,,,,,5b08185856655d0001bbfb1b,11:37:26,03/04/2024
1482.2000000476837,"['<p style=""font-size:44px"">Letters:<br><br><br><font color=""green"">G</font> <font color=""green"">K</font> <font color=""green"">H</font></p><br><br><p style=""font-size:30px"">Symmetry:<br><br><font color=""green"">100%</font></p><br><br>']",0,ospan,practice_feedback,dcGYwt90tlQfYDWqVXZbDammIar1,html-button-response,90,649839,0.0-46.0-2.0-1.0-2.0-1.0,,,,,,,,,,,,,,,5b08185856655d0001bbfb1b,11:37:26,03/04/2024
,"<p style=""font-size:75px;"">...</p>",,ospan,iti,dcGYwt90tlQfYDWqVXZbDammIar1,html-keyboard-response,91,650845,0.0-46.0-2.0-2.0-0.0,,,,,,,,,,,,,,,5b08185856655d0001bbfb1b,11:37:26,03/04/2024
1623.0,,,ospan,symmetry,dcGYwt90tlQfYDWqVXZbDammIar1,symmetry-judgement-task,92,653538,0.0-46.0-2.0-2.0-1.0-0.0,,,,,,,,,,1.0,1.0,,,,5b08185856655d0001bbfb1b,11:37:26,03/04/2024
,"<div style=""font-size: 10rem; color: #0000FF"">P</div>",,ospan,letter,dcGYwt90tlQfYDWqVXZbDammIar1,html-keyboard-response,93,654550,0.0-46.0-2.0-2.0-1.0-1.0,,,,,,,,,,,,,,,5b08185856655d0001bbfb1b,11:37:26,03/04/2024
958.0,,,ospan,symmetry,dcGYwt90tlQfYDWqVXZbDammIar1,symmetry-judgement-task,94,657511,0.0-46.0-2.0-2.0-1.0-2.0,,,,,,,,,,1.0,1.0,,,,5b08185856655d0001bbfb1b,11:37:26,03/04/2024
,"<div style=""font-size: 10rem; color: #0000FF"">G</div>",,ospan,letter,dcGYwt90tlQfYDWqVXZbDammIar1,html-keyboard-response,95,658526,0.0-46.0-2.0-2.0-1.0-3.0,,,,,,,,,,,,,,,5b08185856655d0001bbfb1b,11:37:26,03/04/2024
908.0,,,ospan,symmetry,dcGYwt90tlQfYDWqVXZbDammIar1,symmetry-judgement-task,96,661419,0.0-46.0-2.0-2.0-1.0-4.0,,,,,,,,,,1.0,1.0,,,,5b08185856655d0001bbfb1b,11:37:26,03/04/2024
,"<div style=""font-size: 10rem; color: #0000FF"">S</div>",,ospan,letter,dcGYwt90tlQfYDWqVXZbDammIar1,html-keyboard-response,97,662429,0.0-46.0-2.0-2.0-1.0-5.0,,,,,,,,,,,,,,,5b08185856655d0001bbfb1b,11:37:26,03/04/2024
3158.5,"<div class = numbox><p style=""font-size: 2.4rem"">Please recall the letters you saw to the best of your ability. If you do not remember a particular letter, use the SKIP button.<br><b>(When you are ready to lock in your answer, press ENTER)</b></p><button id = button_1 class = ""square num-button"" onclick = ""recordClick(this)""><div class = content><div class = numbers>C</div></div></button><button id = button_2 class = ""square num-button"" onclick = ""recordClick(this)""><div class = content><div class = numbers>G</div></div></button><button id = button_3 class = ""square num-button"" onclick = ""recordClick(this)""><div class = content><div class = numbers>H</div></div></button><button id = button_4 class = ""square num-button"" onclick = ""recordClick(this)""><div class = content><div class = numbers>J</div></div></button><button id = button_5 class = ""square num-button"" onclick = ""recordClick(this)""><div class = content><div class = numbers>K</div></div></button><button id = button_6 class = ""square num-button"" onclick = ""recordClick(this)""><div class = content><div class = numbers>L</div></div></button><button id = button_7 class = ""square num-button"" onclick = ""recordClick(this)""><div class = content><div class = numbers>N</div></div></button><button id = button_8 class = ""square num-button"" onclick = ""recordClick(this)""><div class = content><div class = numbers>P</div></div></button><button id = button_9 class = ""square num-button"" onclick = ""recordClick(this)""><div class = content><div class = numbers>Q</div></div></button><button id = button_10 class = ""square num-button"" onclick = ""recordClick(this)""><div class = content><div class = numbers>R</div></div></button><button id = button_11 class = ""square num-button"" onclick = ""recordClick(this)""><div class = content><div class = numbers>S</div></div></button><button id = button_12 class = ""square num-button"" onclick = ""recordClick(this)""><div class = content><div class = numbers>Y</div></div></button><button class = clear_button id = ""ClearButton"" onclick = ""clearResponse()"">BACKSPACE</button><button class = blank_button id = ""BlankButton"" onclick = ""blankResponse()"">SKIP</button><p style=""font-size: 2.4rem""><u><b>Current Answer:</b></u></p><br><br><div id=echoed_txt style=""font-size: 5rem; color:blue;""><b></b></div></div>",enter,ospan,retrieval,dcGYwt90tlQfYDWqVXZbDammIar1,html-keyboard-response,98,666356,0.0-46.0-2.0-2.0-2.0-0.0,NA,NA,NA,3.0,"[""P"",""G"",""S""]","[""P"",""G"",""S""]",1.0,3.0,"['<font color=""green"">P</font>', '<font color=""green"">G</font>', '<font color=""green"">S</font>']",,,,,,5b08185856655d0001bbfb1b,11:37:26,03/04/2024
770.9000000953674,"['<p style=""font-size:44px"">Letters:<br><br><br><font color=""green"">P</font> <font color=""green"">G</font> <font color=""green"">S</font></p><br><br><p style=""font-size:30px"">Symmetry:<br><br><font color=""green"">100%</font></p><br><br>']",0,ospan,practice_feedback,dcGYwt90tlQfYDWqVXZbDammIar1,html-button-response,99,667632,0.0-46.0-2.0-2.0-2.0-1.0,,,,,,,,,,,,,,,5b08185856655d0001bbfb1b,11:37:26,03/04/2024
22230.700000047684,"<div class = 'left_align' style='font-size: 3rem; line-height: 1.3;'><b>Great work! That is the end of practice.</b><br><br>The real trials will look just like the practice trials you just completed.<br><br><u>Here, you will not see feedback</u>. First, you will see an grid picture to judge,<br>then a letter to remember. When the recall screen appears, report the letters in the<br>order presented. If you forget a letter, remember to use the <b>blank</b> button to move to the<br>next letter. Some of the sets will have more symmetry grids and letters than others.<br><br>It is important that you do your best on both the symmetry judgments and the letter recall<br>parts of the experiment. For for the symmetry judgments, try to work as <b>quickly</b> and <br>as <b>accurately</b> as possible. Remember to keep your symmetry accuracy at 85% or above.<br><br><b>For the letters, do NOT use any external aid (e.g., writing on paper, electronic device).</b><br><br>It is <u>very important</u> to our experiment to have a <b>true</b> view of your real performance.<br><br>Do not worry if you miss some when it gets hard! This task is meant to be very challenging!<br><br>Click the button to begin.</div><br><br><br><br>",0,ospan,starting_real_here,dcGYwt90tlQfYDWqVXZbDammIar1,html-button-response,100,689864,0.0-46.0-2.0-3.0,,,,,,,,,,,,,,,5b08185856655d0001bbfb1b,11:37:26,03/04/2024
,"<p style=""font-size:75px;"">...</p>",,ospan,iti,dcGYwt90tlQfYDWqVXZbDammIar1,html-keyboard-response,101,691146,0.0-46.0-3.0-0.0-0.0,,,,,,,,,,,,,,,5b08185856655d0001bbfb1b,11:37:26,03/04/2024
1665.0,,,ospan,symmetry,dcGYwt90tlQfYDWqVXZbDammIar1,symmetry-judgement-task,102,693876,0.0-46.0-3.0-0.0-1.0-0.0,,,,,,,,,,1.0,1.0,,,,5b08185856655d0001bbfb1b,11:37:26,03/04/2024
,"<div style=""font-size: 10rem; color: #0000FF"">P</div>",,ospan,letter,dcGYwt90tlQfYDWqVXZbDammIar1,html-keyboard-response,103,694893,0.0-46.0-3.0-0.0-1.0-1.0,,,,,,,,,,,,,,,5b08185856655d0001bbfb1b,11:37:26,03/04/2024
1410.0,,,ospan,symmetry,dcGYwt90tlQfYDWqVXZbDammIar1,symmetry-judgement-task,104,698320,0.0-46.0-3.0-0.0-1.0-2.0,,,,,,,,,,1.0,1.0,,,,5b08185856655d0001bbfb1b,11:37:26,03/04/2024
,"<div style=""font-size: 10rem; color: #0000FF"">S</div>",,ospan,letter,dcGYwt90tlQfYDWqVXZbDammIar1,html-keyboard-response,105,699329,0.0-46.0-3.0-0.0-1.0-3.0,,,,,,,,,,,,,,,5b08185856655d0001bbfb1b,11:37:26,03/04/2024
1287.0,,,ospan,symmetry,dcGYwt90tlQfYDWqVXZbDammIar1,symmetry-judgement-task,106,702632,0.0-46.0-3.0-0.0-1.0-4.0,,,,,,,,,,1.0,1.0,,,,5b08185856655d0001bbfb1b,11:37:26,03/04/2024
,"<div style=""font-size: 10rem; color: #0000FF"">N</div>",,ospan,letter,dcGYwt90tlQfYDWqVXZbDammIar1,html-keyboard-response,107,703644,0.0-46.0-3.0-0.0-1.0-5.0,,,,,,,,,,,,,,,5b08185856655d0001bbfb1b,11:37:26,03/04/2024
2621.4000000953674,"<div class = numbox><p style=""font-size: 2.4rem"">Please recall the letters you saw to the best of your ability. If you do not remember a particular letter, use the SKIP button.<br><b>(When you are ready to lock in your answer, press ENTER)</b></p><button id = button_1 class = ""square num-button"" onclick = ""recordClick(this)""><div class = content><div class = numbers>C</div></div></button><button id = button_2 class = ""square num-button"" onclick = ""recordClick(this)""><div class = content><div class = numbers>G</div></div></button><button id = button_3 class = ""square num-button"" onclick = ""recordClick(this)""><div class = content><div class = numbers>H</div></div></button><button id = button_4 class = ""square num-button"" onclick = ""recordClick(this)""><div class = content><div class = numbers>J</div></div></button><button id = button_5 class = ""square num-button"" onclick = ""recordClick(this)""><div class = content><div class = numbers>K</div></div></button><button id = button_6 class = ""square num-button"" onclick = ""recordClick(this)""><div class = content><div class = numbers>L</div></div></button><button id = button_7 class = ""square num-button"" onclick = ""recordClick(this)""><div class = content><div class = numbers>N</div></div></button><button id = button_8 class = ""square num-button"" onclick = ""recordClick(this)""><div class = content><div class = numbers>P</div></div></button><button id = button_9 class = ""square num-button"" onclick = ""recordClick(this)""><div class = content><div class = numbers>Q</div></div></button><button id = button_10 class = ""square num-button"" onclick = ""recordClick(this)""><div class = content><div class = numbers>R</div></div></button><button id = button_11 class = ""square num-button"" onclick = ""recordClick(this)""><div class = content><div class = numbers>S</div></div></button><button id = button_12 class = ""square num-button"" onclick = ""recordClick(this)""><div class = content><div class = numbers>Y</div></div></button><button class = clear_button id = ""ClearButton"" onclick = ""clearResponse()"">BACKSPACE</button><button class = blank_button id = ""BlankButton"" onclick = ""blankResponse()"">SKIP</button><p style=""font-size: 2.4rem""><u><b>Current Answer:</b></u></p><br><br><div id=echoed_txt style=""font-size: 5rem; color:blue;""><b></b></div></div>",enter,ospan,retrieval,dcGYwt90tlQfYDWqVXZbDammIar1,html-keyboard-response,108,707030,0.0-46.0-3.0-0.0-2.0,3,3,3,3.0,"[""P"",""S"",""N""]","[""P"",""S"",""N""]",1.0,3.0,,,,,,,5b08185856655d0001bbfb1b,11:37:26,03/04/2024
893.5999999046326,[''],0,ospan,feedback,dcGYwt90tlQfYDWqVXZbDammIar1,html-button-response,109,708433,0.0-46.0-3.0-0.0-3.0,,,,,,,,,,,,100.0,0.0,,5b08185856655d0001bbfb1b,11:37:26,03/04/2024
,"<p style=""font-size:75px;"">...</p>",,ospan,iti,dcGYwt90tlQfYDWqVXZbDammIar1,html-keyboard-response,110,709437,0.0-46.0-4.0-0.0-0.0,,,,,,,,,,,,,,,5b08185856655d0001bbfb1b,11:37:26,03/04/2024
1536.0,,,ospan,symmetry,dcGYwt90tlQfYDWqVXZbDammIar1,symmetry-judgement-task,111,712047,0.0-46.0-4.0-0.0-1.0-0.0,,,,,,,,,,1.0,1.0,,,,5b08185856655d0001bbfb1b,11:37:26,03/04/2024
,"<div style=""font-size: 10rem; color: #0000FF"">P</div>",,ospan,letter,dcGYwt90tlQfYDWqVXZbDammIar1,html-keyboard-response,112,713061,0.0-46.0-4.0-0.0-1.0-1.0,,,,,,,,,,,,,,,5b08185856655d0001bbfb1b,11:37:26,03/04/2024
1220.0,,,ospan,symmetry,dcGYwt90tlQfYDWqVXZbDammIar1,symmetry-judgement-task,113,716285,0.0-46.0-4.0-0.0-1.0-2.0,,,,,,,,,,1.0,1.0,,,,5b08185856655d0001bbfb1b,11:37:26,03/04/2024
,"<div style=""font-size: 10rem; color: #0000FF"">J</div>",,ospan,letter,dcGYwt90tlQfYDWqVXZbDammIar1,html-keyboard-response,114,717300,0.0-46.0-4.0-0.0-1.0-3.0,,,,,,,,,,,,,,,5b08185856655d0001bbfb1b,11:37:26,03/04/2024
1472.0,,,ospan,symmetry,dcGYwt90tlQfYDWqVXZbDammIar1,symmetry-judgement-task,115,720761,0.0-46.0-4.0-0.0-1.0-4.0,,,,,,,,,,1.0,1.0,,,,5b08185856655d0001bbfb1b,11:37:26,03/04/2024
,"<div style=""font-size: 10rem; color: #0000FF"">Y</div>",,ospan,letter,dcGYwt90tlQfYDWqVXZbDammIar1,html-keyboard-response,116,721768,0.0-46.0-4.0-0.0-1.0-5.0,,,,,,,,,,,,,,,5b08185856655d0001bbfb1b,11:37:26,03/04/2024
1316.0,,,ospan,symmetry,dcGYwt90tlQfYDWqVXZbDammIar1,symmetry-judgement-task,117,725069,0.0-46.0-4.0-0.0-1.0-6.0,,,,,,,,,,1.0,1.0,,,,5b08185856655d0001bbfb1b,11:37:26,03/04/2024
,"<div style=""font-size: 10rem; color: #0000FF"">Q</div>",,ospan,letter,dcGYwt90tlQfYDWqVXZbDammIar1,html-keyboard-response,118,726074,0.0-46.0-4.0-0.0-1.0-7.0,,,,,,,,,,,,,,,5b08185856655d0001bbfb1b,11:37:26,03/04/2024
8294.0,"<div class = numbox><p style=""font-size: 2.4rem"">Please recall the letters you saw to the best of your ability. If you do not remember a particular letter, use the SKIP button.<br><b>(When you are ready to lock in your answer, press ENTER)</b></p><button id = button_1 class = ""square num-button"" onclick = ""recordClick(this)""><div class = content><div class = numbers>C</div></div></button><button id = button_2 class = ""square num-button"" onclick = ""recordClick(this)""><div class = content><div class = numbers>G</div></div></button><button id = button_3 class = ""square num-button"" onclick = ""recordClick(this)""><div class = content><div class = numbers>H</div></div></button><button id = button_4 class = ""square num-button"" onclick = ""recordClick(this)""><div class = content><div class = numbers>J</div></div></button><button id = button_5 class = ""square num-button"" onclick = ""recordClick(this)""><div class = content><div class = numbers>K</div></div></button><button id = button_6 class = ""square num-button"" onclick = ""recordClick(this)""><div class = content><div class = numbers>L</div></div></button><button id = button_7 class = ""square num-button"" onclick = ""recordClick(this)""><div class = content><div class = numbers>N</div></div></button><button id = button_8 class = ""square num-button"" onclick = ""recordClick(this)""><div class = content><div class = numbers>P</div></div></button><button id = button_9 class = ""square num-button"" onclick = ""recordClick(this)""><div class = content><div class = numbers>Q</div></div></button><button id = button_10 class = ""square num-button"" onclick = ""recordClick(this)""><div class = content><div class = numbers>R</div></div></button><button id = button_11 class = ""square num-button"" onclick = ""recordClick(this)""><div class = content><div class = numbers>S</div></div></button><button id = button_12 class = ""square num-button"" onclick = ""recordClick(this)""><div class = content><div class = numbers>Y</div></div></button><button class = clear_button id = ""ClearButton"" onclick = ""clearResponse()"">BACKSPACE</button><button class = blank_button id = ""BlankButton"" onclick = ""blankResponse()"">SKIP</button><p style=""font-size: 2.4rem""><u><b>Current Answer:</b></u></p><br><br><div id=echoed_txt style=""font-size: 5rem; color:blue;""><b></b></div></div>",enter,ospan,retrieval,dcGYwt90tlQfYDWqVXZbDammIar1,html-keyboard-response,119,735131,0.0-46.0-4.0-0.0-2.0,7,7,7,4.0,"[""P"",""J"",""Y"",""Q""]","[""P"",""J"",""Y"",""Q""]",1.0,4.0,,,,,,,5b08185856655d0001bbfb1b,11:37:26,03/04/2024
874.2000000476837,[''],0,ospan,feedback,dcGYwt90tlQfYDWqVXZbDammIar1,html-button-response,120,736514,0.0-46.0-4.0-0.0-3.0,,,,,,,,,,,,100.0,0.0,,5b08185856655d0001bbfb1b,11:37:26,03/04/2024
,"<p style=""font-size:75px;"">...</p>",,ospan,iti,dcGYwt90tlQfYDWqVXZbDammIar1,html-keyboard-response,121,737522,0.0-46.0-4.0-1.0-0.0,,,,,,,,,,,,,,,5b08185856655d0001bbfb1b,11:37:26,03/04/2024
1221.0,,,ospan,symmetry,dcGYwt90tlQfYDWqVXZbDammIar1,symmetry-judgement-task,122,740009,0.0-46.0-4.0-1.0-1.0-0.0,,,,,,,,,,1.0,1.0,,,,5b08185856655d0001bbfb1b,11:37:26,03/04/2024
,"<div style=""font-size: 10rem; color: #0000FF"">J</div>",,ospan,letter,dcGYwt90tlQfYDWqVXZbDammIar1,html-keyboard-response,123,741021,0.0-46.0-4.0-1.0-1.0-1.0,,,,,,,,,,,,,,,5b08185856655d0001bbfb1b,11:37:26,03/04/2024
1245.0,,,ospan,symmetry,dcGYwt90tlQfYDWqVXZbDammIar1,symmetry-judgement-task,124,744250,0.0-46.0-4.0-1.0-1.0-2.0,,,,,,,,,,1.0,1.0,,,,5b08185856655d0001bbfb1b,11:37:26,03/04/2024
,"<div style=""font-size: 10rem; color: #0000FF"">C</div>",,ospan,letter,dcGYwt90tlQfYDWqVXZbDammIar1,html-keyboard-response,125,745263,0.0-46.0-4.0-1.0-1.0-3.0,,,,,,,,,,,,,,,5b08185856655d0001bbfb1b,11:37:26,03/04/2024
1040.0,,,ospan,symmetry,dcGYwt90tlQfYDWqVXZbDammIar1,symmetry-judgement-task,126,748314,0.0-46.0-4.0-1.0-1.0-4.0,,,,,,,,,,1.0,1.0,,,,5b08185856655d0001bbfb1b,11:37:26,03/04/2024
,"<div style=""font-size: 10rem; color: #0000FF"">Y</div>",,ospan,letter,dcGYwt90tlQfYDWqVXZbDammIar1,html-keyboard-response,127,749322,0.0-46.0-4.0-1.0-1.0-5.0,,,,,,,,,,,,,,,5b08185856655d0001bbfb1b,11:37:26,03/04/2024
914.0,,,ospan,symmetry,dcGYwt90tlQfYDWqVXZbDammIar1,symmetry-judgement-task,128,752224,0.0-46.0-4.0-1.0-1.0-6.0,,,,,,,,,,1.0,1.0,,,,5b08185856655d0001bbfb1b,11:37:26,03/04/2024
,"<div style=""font-size: 10rem; color: #0000FF"">L</div>",,ospan,letter,dcGYwt90tlQfYDWqVXZbDammIar1,html-keyboard-response,129,753234,0.0-46.0-4.0-1.0-1.0-7.0,,,,,,,,,,,,,,,5b08185856655d0001bbfb1b,11:37:26,03/04/2024
1261.0,,,ospan,symmetry,dcGYwt90tlQfYDWqVXZbDammIar1,symmetry-judgement-task,130,756489,0.0-46.0-4.0-1.0-1.0-8.0,,,,,,,,,,1.0,1.0,,,,5b08185856655d0001bbfb1b,11:37:26,03/04/2024
,"<div style=""font-size: 10rem; color: #0000FF"">N</div>",,ospan,letter,dcGYwt90tlQfYDWqVXZbDammIar1,html-keyboard-response,131,757500,0.0-46.0-4.0-1.0-1.0-9.0,,,,,,,,,,,,,,,5b08185856655d0001bbfb1b,11:37:26,03/04/2024
4276.900000095367,"<div class = numbox><p style=""font-size: 2.4rem"">Please recall the letters you saw to the best of your ability. If you do not remember a particular letter, use the SKIP button.<br><b>(When you are ready to lock in your answer, press ENTER)</b></p><button id = button_1 class = ""square num-button"" onclick = ""recordClick(this)""><div class = content><div class = numbers>C</div></div></button><button id = button_2 class = ""square num-button"" onclick = ""recordClick(this)""><div class = content><div class = numbers>G</div></div></button><button id = button_3 class = ""square num-button"" onclick = ""recordClick(this)""><div class = content><div class = numbers>H</div></div></button><button id = button_4 class = ""square num-button"" onclick = ""recordClick(this)""><div class = content><div class = numbers>J</div></div></button><button id = button_5 class = ""square num-button"" onclick = ""recordClick(this)""><div class = content><div class = numbers>K</div></div></button><button id = button_6 class = ""square num-button"" onclick = ""recordClick(this)""><div class = content><div class = numbers>L</div></div></button><button id = button_7 class = ""square num-button"" onclick = ""recordClick(this)""><div class = content><div class = numbers>N</div></div></button><button id = button_8 class = ""square num-button"" onclick = ""recordClick(this)""><div class = content><div class = numbers>P</div></div></button><button id = button_9 class = ""square num-button"" onclick = ""recordClick(this)""><div class = content><div class = numbers>Q</div></div></button><button id = button_10 class = ""square num-button"" onclick = ""recordClick(this)""><div class = content><div class = numbers>R</div></div></button><button id = button_11 class = ""square num-button"" onclick = ""recordClick(this)""><div class = content><div class = numbers>S</div></div></button><button id = button_12 class = ""square num-button"" onclick = ""recordClick(this)""><div class = content><div class = numbers>Y</div></div></button><button class = clear_button id = ""ClearButton"" onclick = ""clearResponse()"">BACKSPACE</button><button class = blank_button id = ""BlankButton"" onclick = ""blankResponse()"">SKIP</button><p style=""font-size: 2.4rem""><u><b>Current Answer:</b></u></p><br><br><div id=echoed_txt style=""font-size: 5rem; color:blue;""><b></b></div></div>",enter,ospan,retrieval,dcGYwt90tlQfYDWqVXZbDammIar1,html-keyboard-response,132,762543,0.0-46.0-4.0-1.0-2.0,12,12,12,5.0,"[""J"",""C"",""Y"",""L"",""N""]","[""J"",""C"",""Y"",""L"",""N""]",1.0,5.0,,,,,,,5b08185856655d0001bbfb1b,11:37:26,03/04/2024
925.7999999523163,[''],0,ospan,feedback,dcGYwt90tlQfYDWqVXZbDammIar1,html-button-response,133,763979,0.0-46.0-4.0-1.0-3.0,,,,,,,,,,,,100.0,0.0,,5b08185856655d0001bbfb1b,11:37:26,03/04/2024
,"<p style=""font-size:75px;"">...</p>",,ospan,iti,dcGYwt90tlQfYDWqVXZbDammIar1,html-keyboard-response,134,764983,0.0-46.0-4.0-2.0-0.0,,,,,,,,,,,,,,,5b08185856655d0001bbfb1b,11:37:26,03/04/2024
1745.0,,,ospan,symmetry,dcGYwt90tlQfYDWqVXZbDammIar1,symmetry-judgement-task,135,767971,0.0-46.0-4.0-2.0-1.0-0.0,,,,,,,,,,1.0,1.0,,,,5b08185856655d0001bbfb1b,11:37:26,03/04/2024
,"<div style=""font-size: 10rem; color: #0000FF"">L</div>",,ospan,letter,dcGYwt90tlQfYDWqVXZbDammIar1,html-keyboard-response,136,768981,0.0-46.0-4.0-2.0-1.0-1.0,,,,,,,,,,,,,,,5b08185856655d0001bbfb1b,11:37:26,03/04/2024
1165.0,,,ospan,symmetry,dcGYwt90tlQfYDWqVXZbDammIar1,symmetry-judgement-task,137,772146,0.0-46.0-4.0-2.0-1.0-2.0,,,,,,,,,,1.0,1.0,,,,5b08185856655d0001bbfb1b,11:37:26,03/04/2024
,"<div style=""font-size: 10rem; color: #0000FF"">N</div>",,ospan,letter,dcGYwt90tlQfYDWqVXZbDammIar1,html-keyboard-response,138,773158,0.0-46.0-4.0-2.0-1.0-3.0,,,,,,,,,,,,,,,5b08185856655d0001bbfb1b,11:37:26,03/04/2024
880.0,,,ospan,symmetry,dcGYwt90tlQfYDWqVXZbDammIar1,symmetry-judgement-task,139,776034,0.0-46.0-4.0-2.0-1.0-4.0,,,,,,,,,,1.0,1.0,,,,5b08185856655d0001bbfb1b,11:37:26,03/04/2024
,"<div style=""font-size: 10rem; color: #0000FF"">C</div>",,ospan,letter,dcGYwt90tlQfYDWqVXZbDammIar1,html-keyboard-response,140,777037,0.0-46.0-4.0-2.0-1.0-5.0,,,,,,,,,,,,,,,5b08185856655d0001bbfb1b,11:37:26,03/04/2024
3284.4000000953674,"<div class = numbox><p style=""font-size: 2.4rem"">Please recall the letters you saw to the best of your ability. If you do not remember a particular letter, use the SKIP button.<br><b>(When you are ready to lock in your answer, press ENTER)</b></p><button id = button_1 class = ""square num-button"" onclick = ""recordClick(this)""><div class = content><div class = numbers>C</div></div></button><button id = button_2 class = ""square num-button"" onclick = ""recordClick(this)""><div class = content><div class = numbers>G</div></div></button><button id = button_3 class = ""square num-button"" onclick = ""recordClick(this)""><div class = content><div class = numbers>H</div></div></button><button id = button_4 class = ""square num-button"" onclick = ""recordClick(this)""><div class = content><div class = numbers>J</div></div></button><button id = button_5 class = ""square num-button"" onclick = ""recordClick(this)""><div class = content><div class = numbers>K</div></div></button><button id = button_6 class = ""square num-button"" onclick = ""recordClick(this)""><div class = content><div class = numbers>L</div></div></button><button id = button_7 class = ""square num-button"" onclick = ""recordClick(this)""><div class = content><div class = numbers>N</div></div></button><button id = button_8 class = ""square num-button"" onclick = ""recordClick(this)""><div class = content><div class = numbers>P</div></div></button><button id = button_9 class = ""square num-button"" onclick = ""recordClick(this)""><div class = content><div class = numbers>Q</div></div></button><button id = button_10 class = ""square num-button"" onclick = ""recordClick(this)""><div class = content><div class = numbers>R</div></div></button><button id = button_11 class = ""square num-button"" onclick = ""recordClick(this)""><div class = content><div class = numbers>S</div></div></button><button id = button_12 class = ""square num-button"" onclick = ""recordClick(this)""><div class = content><div class = numbers>Y</div></div></button><button class = clear_button id = ""ClearButton"" onclick = ""clearResponse()"">BACKSPACE</button><button class = blank_button id = ""BlankButton"" onclick = ""blankResponse()"">SKIP</button><p style=""font-size: 2.4rem""><u><b>Current Answer:</b></u></p><br><br><div id=echoed_txt style=""font-size: 5rem; color:blue;""><b></b></div></div>",enter,ospan,retrieval,dcGYwt90tlQfYDWqVXZbDammIar1,html-keyboard-response,141,781088,0.0-46.0-4.0-2.0-2.0,15,15,15,3.0,"[""L"",""N"",""C""]","[""L"",""N"",""C""]",1.0,3.0,,,,,,,5b08185856655d0001bbfb1b,11:37:26,03/04/2024
652.7999999523163,[''],0,ospan,feedback,dcGYwt90tlQfYDWqVXZbDammIar1,html-button-response,142,782244,0.0-46.0-4.0-2.0-3.0,,,,,,,,,,,,100.0,0.0,,5b08185856655d0001bbfb1b,11:37:26,03/04/2024
,"<p style=""font-size:75px;"">...</p>",,ospan,iti,dcGYwt90tlQfYDWqVXZbDammIar1,html-keyboard-response,143,783255,0.0-46.0-5.0-0.0-0.0,,,,,,,,,,,,,,,5b08185856655d0001bbfb1b,11:37:26,03/04/2024
2771.0,,,ospan,symmetry,dcGYwt90tlQfYDWqVXZbDammIar1,symmetry-judgement-task,144,787088,0.0-46.0-5.0-0.0-1.0-0.0,,,,,,,,,,1.0,1.0,,,,5b08185856655d0001bbfb1b,11:37:26,03/04/2024
,"<div style=""font-size: 10rem; color: #0000FF"">K</div>",,ospan,letter,dcGYwt90tlQfYDWqVXZbDammIar1,html-keyboard-response,145,788093,0.0-46.0-5.0-0.0-1.0-1.0,,,,,,,,,,,,,,,5b08185856655d0001bbfb1b,11:37:26,03/04/2024
1220.0,,,ospan,symmetry,dcGYwt90tlQfYDWqVXZbDammIar1,symmetry-judgement-task,146,791294,0.0-46.0-5.0-0.0-1.0-2.0,,,,,,,,,,1.0,1.0,,,,5b08185856655d0001bbfb1b,11:37:26,03/04/2024
,"<div style=""font-size: 10rem; color: #0000FF"">L</div>",,ospan,letter,dcGYwt90tlQfYDWqVXZbDammIar1,html-keyboard-response,147,792309,0.0-46.0-5.0-0.0-1.0-3.0,,,,,,,,,,,,,,,5b08185856655d0001bbfb1b,11:37:26,03/04/2024
1346.0,,,ospan,symmetry,dcGYwt90tlQfYDWqVXZbDammIar1,symmetry-judgement-task,148,795662,0.0-46.0-5.0-0.0-1.0-4.0,,,,,,,,,,1.0,1.0,,,,5b08185856655d0001bbfb1b,11:37:26,03/04/2024
,"<div style=""font-size: 10rem; color: #0000FF"">G</div>",,ospan,letter,dcGYwt90tlQfYDWqVXZbDammIar1,html-keyboard-response,149,796671,0.0-46.0-5.0-0.0-1.0-5.0,,,,,,,,,,,,,,,5b08185856655d0001bbfb1b,11:37:26,03/04/2024
1197.0,,,ospan,symmetry,dcGYwt90tlQfYDWqVXZbDammIar1,symmetry-judgement-task,150,799846,0.0-46.0-5.0-0.0-1.0-6.0,,,,,,,,,,1.0,1.0,,,,5b08185856655d0001bbfb1b,11:37:26,03/04/2024
,"<div style=""font-size: 10rem; color: #0000FF"">P</div>",,ospan,letter,dcGYwt90tlQfYDWqVXZbDammIar1,html-keyboard-response,151,800862,0.0-46.0-5.0-0.0-1.0-7.0,,,,,,,,,,,,,,,5b08185856655d0001bbfb1b,11:37:26,03/04/2024
1451.0,,,ospan,symmetry,dcGYwt90tlQfYDWqVXZbDammIar1,symmetry-judgement-task,152,804308,0.0-46.0-5.0-0.0-1.0-8.0,,,,,,,,,,1.0,1.0,,,,5b08185856655d0001bbfb1b,11:37:26,03/04/2024
,"<div style=""font-size: 10rem; color: #0000FF"">Y</div>",,ospan,letter,dcGYwt90tlQfYDWqVXZbDammIar1,html-keyboard-response,153,805315,0.0-46.0-5.0-0.0-1.0-9.0,,,,,,,,,,,,,,,5b08185856655d0001bbfb1b,11:37:26,03/04/2024
1054.0,,,ospan,symmetry,dcGYwt90tlQfYDWqVXZbDammIar1,symmetry-judgement-task,154,808366,0.0-46.0-5.0-0.0-1.0-10.0,,,,,,,,,,1.0,1.0,,,,5b08185856655d0001bbfb1b,11:37:26,03/04/2024
,"<div style=""font-size: 10rem; color: #0000FF"">R</div>",,ospan,letter,dcGYwt90tlQfYDWqVXZbDammIar1,html-keyboard-response,155,809371,0.0-46.0-5.0-0.0-1.0-11.0,,,,,,,,,,,,,,,5b08185856655d0001bbfb1b,11:37:26,03/04/2024
6742.099999904633,"<div class = numbox><p style=""font-size: 2.4rem"">Please recall the letters you saw to the best of your ability. If you do not remember a particular letter, use the SKIP button.<br><b>(When you are ready to lock in your answer, press ENTER)</b></p><button id = button_1 class = ""square num-button"" onclick = ""recordClick(this)""><div class = content><div class = numbers>C</div></div></button><button id = button_2 class = ""square num-button"" onclick = ""recordClick(this)""><div class = content><div class = numbers>G</div></div></button><button id = button_3 class = ""square num-button"" onclick = ""recordClick(this)""><div class = content><div class = numbers>H</div></div></button><button id = button_4 class = ""square num-button"" onclick = ""recordClick(this)""><div class = content><div class = numbers>J</div></div></button><button id = button_5 class = ""square num-button"" onclick = ""recordClick(this)""><div class = content><div class = numbers>K</div></div></button><button id = button_6 class = ""square num-button"" onclick = ""recordClick(this)""><div class = content><div class = numbers>L</div></div></button><button id = button_7 class = ""square num-button"" onclick = ""recordClick(this)""><div class = content><div class = numbers>N</div></div></button><button id = button_8 class = ""square num-button"" onclick = ""recordClick(this)""><div class = content><div class = numbers>P</div></div></button><button id = button_9 class = ""square num-button"" onclick = ""recordClick(this)""><div class = content><div class = numbers>Q</div></div></button><button id = button_10 class = ""square num-button"" onclick = ""recordClick(this)""><div class = content><div class = numbers>R</div></div></button><button id = button_11 class = ""square num-button"" onclick = ""recordClick(this)""><div class = content><div class = numbers>S</div></div></button><button id = button_12 class = ""square num-button"" onclick = ""recordClick(this)""><div class = content><div class = numbers>Y</div></div></button><button class = clear_button id = ""ClearButton"" onclick = ""clearResponse()"">BACKSPACE</button><button class = blank_button id = ""BlankButton"" onclick = ""blankResponse()"">SKIP</button><p style=""font-size: 2.4rem""><u><b>Current Answer:</b></u></p><br><br><div id=echoed_txt style=""font-size: 5rem; color:blue;""><b></b></div></div>",enter,ospan,retrieval,dcGYwt90tlQfYDWqVXZbDammIar1,html-keyboard-response,156,816868,0.0-46.0-5.0-0.0-2.0,21,21,21,6.0,"[""K"",""L"",""G"",""P"",""Y"",""R""]","[""K"",""L"",""G"",""P"",""Y"",""R""]",1.0,6.0,,,,,,,5b08185856655d0001bbfb1b,11:37:26,03/04/2024
4623.400000095367,[''],0,ospan,feedback,dcGYwt90tlQfYDWqVXZbDammIar1,html-button-response,157,821997,0.0-46.0-5.0-0.0-3.0,,,,,,,,,,,,100.0,0.0,,5b08185856655d0001bbfb1b,11:37:26,03/04/2024
,"<p style=""font-size:75px;"">...</p>",,ospan,iti,dcGYwt90tlQfYDWqVXZbDammIar1,html-keyboard-response,158,823013,0.0-46.0-5.0-1.0-0.0,,,,,,,,,,,,,,,5b08185856655d0001bbfb1b,11:37:26,03/04/2024
1485.0,,,ospan,symmetry,dcGYwt90tlQfYDWqVXZbDammIar1,symmetry-judgement-task,159,825750,0.0-46.0-5.0-1.0-1.0-0.0,,,,,,,,,,1.0,1.0,,,,5b08185856655d0001bbfb1b,11:37:26,03/04/2024
,"<div style=""font-size: 10rem; color: #0000FF"">K</div>",,ospan,letter,dcGYwt90tlQfYDWqVXZbDammIar1,html-keyboard-response,160,826762,0.0-46.0-5.0-1.0-1.0-1.0,,,,,,,,,,,,,,,5b08185856655d0001bbfb1b,11:37:26,03/04/2024
1012.0,,,ospan,symmetry,dcGYwt90tlQfYDWqVXZbDammIar1,symmetry-judgement-task,161,829754,0.0-46.0-5.0-1.0-1.0-2.0,,,,,,,,,,1.0,1.0,,,,5b08185856655d0001bbfb1b,11:37:26,03/04/2024
,"<div style=""font-size: 10rem; color: #0000FF"">S</div>",,ospan,letter,dcGYwt90tlQfYDWqVXZbDammIar1,html-keyboard-response,162,830763,0.0-46.0-5.0-1.0-1.0-3.0,,,,,,,,,,,,,,,5b08185856655d0001bbfb1b,11:37:26,03/04/2024
1110.0,,,ospan,symmetry,dcGYwt90tlQfYDWqVXZbDammIar1,symmetry-judgement-task,163,833865,0.0-46.0-5.0-1.0-1.0-4.0,,,,,,,,,,0.0,0.0,,,,5b08185856655d0001bbfb1b,11:37:26,03/04/2024
,"<div style=""font-size: 10rem; color: #0000FF"">P</div>",,ospan,letter,dcGYwt90tlQfYDWqVXZbDammIar1,html-keyboard-response,164,834869,0.0-46.0-5.0-1.0-1.0-5.0,,,,,,,,,,,,,,,5b08185856655d0001bbfb1b,11:37:26,03/04/2024
1452.0,,,ospan,symmetry,dcGYwt90tlQfYDWqVXZbDammIar1,symmetry-judgement-task,165,838344,0.0-46.0-5.0-1.0-1.0-6.0,,,,,,,,,,1.0,1.0,,,,5b08185856655d0001bbfb1b,11:37:26,03/04/2024
,"<div style=""font-size: 10rem; color: #0000FF"">Y</div>",,ospan,letter,dcGYwt90tlQfYDWqVXZbDammIar1,html-keyboard-response,166,839361,0.0-46.0-5.0-1.0-1.0-7.0,,,,,,,,,,,,,,,5b08185856655d0001bbfb1b,11:37:26,03/04/2024
851.0,,,ospan,symmetry,dcGYwt90tlQfYDWqVXZbDammIar1,symmetry-judgement-task,167,842204,0.0-46.0-5.0-1.0-1.0-8.0,,,,,,,,,,1.0,1.0,,,,5b08185856655d0001bbfb1b,11:37:26,03/04/2024
,"<div style=""font-size: 10rem; color: #0000FF"">C</div>",,ospan,letter,dcGYwt90tlQfYDWqVXZbDammIar1,html-keyboard-response,168,843218,0.0-46.0-5.0-1.0-1.0-9.0,,,,,,,,,,,,,,,5b08185856655d0001bbfb1b,11:37:26,03/04/2024
1466.0,,,ospan,symmetry,dcGYwt90tlQfYDWqVXZbDammIar1,symmetry-judgement-task,169,846676,0.0-46.0-5.0-1.0-1.0-10.0,,,,,,,,,,1.0,1.0,,,,5b08185856655d0001bbfb1b,11:37:26,03/04/2024
,"<div style=""font-size: 10rem; color: #0000FF"">H</div>",,ospan,letter,dcGYwt90tlQfYDWqVXZbDammIar1,html-keyboard-response,170,847679,0.0-46.0-5.0-1.0-1.0-11.0,,,,,,,,,,,,,,,5b08185856655d0001bbfb1b,11:37:26,03/04/2024
1057.0,,,ospan,symmetry,dcGYwt90tlQfYDWqVXZbDammIar1,symmetry-judgement-task,171,850740,0.0-46.0-5.0-1.0-1.0-12.0,,,,,,,,,,1.0,1.0,,,,5b08185856655d0001bbfb1b,11:37:26,03/04/2024
,"<div style=""font-size: 10rem; color: #0000FF"">R</div>",,ospan,letter,dcGYwt90tlQfYDWqVXZbDammIar1,html-keyboard-response,172,851748,0.0-46.0-5.0-1.0-1.0-13.0,,,,,,,,,,,,,,,5b08185856655d0001bbfb1b,11:37:26,03/04/2024
13292.0,"<div class = numbox><p style=""font-size: 2.4rem"">Please recall the letters you saw to the best of your ability. If you do not remember a particular letter, use the SKIP button.<br><b>(When you are ready to lock in your answer, press ENTER)</b></p><button id = button_1 class = ""square num-button"" onclick = ""recordClick(this)""><div class = content><div class = numbers>C</div></div></button><button id = button_2 class = ""square num-button"" onclick = ""recordClick(this)""><div class = content><div class = numbers>G</div></div></button><button id = button_3 class = ""square num-button"" onclick = ""recordClick(this)""><div class = content><div class = numbers>H</div></div></button><button id = button_4 class = ""square num-button"" onclick = ""recordClick(this)""><div class = content><div class = numbers>J</div></div></button><button id = button_5 class = ""square num-button"" onclick = ""recordClick(this)""><div class = content><div class = numbers>K</div></div></button><button id = button_6 class = ""square num-button"" onclick = ""recordClick(this)""><div class = content><div class = numbers>L</div></div></button><button id = button_7 class = ""square num-button"" onclick = ""recordClick(this)""><div class = content><div class = numbers>N</div></div></button><button id = button_8 class = ""square num-button"" onclick = ""recordClick(this)""><div class = content><div class = numbers>P</div></div></button><button id = button_9 class = ""square num-button"" onclick = ""recordClick(this)""><div class = content><div class = numbers>Q</div></div></button><button id = button_10 class = ""square num-button"" onclick = ""recordClick(this)""><div class = content><div class = numbers>R</div></div></button><button id = button_11 class = ""square num-button"" onclick = ""recordClick(this)""><div class = content><div class = numbers>S</div></div></button><button id = button_12 class = ""square num-button"" onclick = ""recordClick(this)""><div class = content><div class = numbers>Y</div></div></button><button class = clear_button id = ""ClearButton"" onclick = ""clearResponse()"">BACKSPACE</button><button class = blank_button id = ""BlankButton"" onclick = ""blankResponse()"">SKIP</button><p style=""font-size: 2.4rem""><u><b>Current Answer:</b></u></p><br><br><div id=echoed_txt style=""font-size: 5rem; color:blue;""><b></b></div></div>",enter,ospan,retrieval,dcGYwt90tlQfYDWqVXZbDammIar1,html-keyboard-response,173,865794,0.0-46.0-5.0-1.0-2.0,28,24,21,7.0,"[""K"",""Y"",""P"",""S"",""R"",""H""]","[""K"",""S"",""P"",""Y"",""C"",""H"",""R""]",0.0,3.0,,,,,,,5b08185856655d0001bbfb1b,11:37:26,03/04/2024
811.4000000953674,[''],0,ospan,feedback,dcGYwt90tlQfYDWqVXZbDammIar1,html-button-response,174,867118,0.0-46.0-5.0-1.0-3.0,,,,,,,,,,,,96.0,0.0,,5b08185856655d0001bbfb1b,11:37:26,03/04/2024
,"<p style=""font-size:75px;"">...</p>",,ospan,iti,dcGYwt90tlQfYDWqVXZbDammIar1,html-keyboard-response,175,868123,0.0-46.0-6.0-0.0-0.0,,,,,,,,,,,,,,,5b08185856655d0001bbfb1b,11:37:26,03/04/2024
904.0,,,ospan,symmetry,dcGYwt90tlQfYDWqVXZbDammIar1,symmetry-judgement-task,176,870295,0.0-46.0-6.0-0.0-1.0-0.0,,,,,,,,,,1.0,1.0,,,,5b08185856655d0001bbfb1b,11:37:26,03/04/2024
,"<div style=""font-size: 10rem; color: #0000FF"">L</div>",,ospan,letter,dcGYwt90tlQfYDWqVXZbDammIar1,html-keyboard-response,177,871306,0.0-46.0-6.0-0.0-1.0-1.0,,,,,,,,,,,,,,,5b08185856655d0001bbfb1b,11:37:26,03/04/2024
1423.0,,,ospan,symmetry,dcGYwt90tlQfYDWqVXZbDammIar1,symmetry-judgement-task,178,874729,0.0-46.0-6.0-0.0-1.0-2.0,,,,,,,,,,1.0,1.0,,,,5b08185856655d0001bbfb1b,11:37:26,03/04/2024
,"<div style=""font-size: 10rem; color: #0000FF"">N</div>",,ospan,letter,dcGYwt90tlQfYDWqVXZbDammIar1,html-keyboard-response,179,875737,0.0-46.0-6.0-0.0-1.0-3.0,,,,,,,,,,,,,,,5b08185856655d0001bbfb1b,11:37:26,03/04/2024
2358.0,,,ospan,symmetry,dcGYwt90tlQfYDWqVXZbDammIar1,symmetry-judgement-task,180,880082,0.0-46.0-6.0-0.0-1.0-4.0,,,,,,,,,,1.0,1.0,,,,5b08185856655d0001bbfb1b,11:37:26,03/04/2024
,"<div style=""font-size: 10rem; color: #0000FF"">C</div>",,ospan,letter,dcGYwt90tlQfYDWqVXZbDammIar1,html-keyboard-response,181,881096,0.0-46.0-6.0-0.0-1.0-5.0,,,,,,,,,,,,,,,5b08185856655d0001bbfb1b,11:37:26,03/04/2024
1507.0,,,ospan,symmetry,dcGYwt90tlQfYDWqVXZbDammIar1,symmetry-judgement-task,182,884635,0.0-46.0-6.0-0.0-1.0-6.0,,,,,,,,,,1.0,1.0,,,,5b08185856655d0001bbfb1b,11:37:26,03/04/2024
,"<div style=""font-size: 10rem; color: #0000FF"">S</div>",,ospan,letter,dcGYwt90tlQfYDWqVXZbDammIar1,html-keyboard-response,183,885640,0.0-46.0-6.0-0.0-1.0-7.0,,,,,,,,,,,,,,,5b08185856655d0001bbfb1b,11:37:26,03/04/2024
1257.0,,,ospan,symmetry,dcGYwt90tlQfYDWqVXZbDammIar1,symmetry-judgement-task,184,888886,0.0-46.0-6.0-0.0-1.0-8.0,,,,,,,,,,1.0,1.0,,,,5b08185856655d0001bbfb1b,11:37:26,03/04/2024
,"<div style=""font-size: 10rem; color: #0000FF"">K</div>",,ospan,letter,dcGYwt90tlQfYDWqVXZbDammIar1,html-keyboard-response,185,889903,0.0-46.0-6.0-0.0-1.0-9.0,,,,,,,,,,,,,,,5b08185856655d0001bbfb1b,11:37:26,03/04/2024
5098.399999856949,"<div class = numbox><p style=""font-size: 2.4rem"">Please recall the letters you saw to the best of your ability. If you do not remember a particular letter, use the SKIP button.<br><b>(When you are ready to lock in your answer, press ENTER)</b></p><button id = button_1 class = ""square num-button"" onclick = ""recordClick(this)""><div class = content><div class = numbers>C</div></div></button><button id = button_2 class = ""square num-button"" onclick = ""recordClick(this)""><div class = content><div class = numbers>G</div></div></button><button id = button_3 class = ""square num-button"" onclick = ""recordClick(this)""><div class = content><div class = numbers>H</div></div></button><button id = button_4 class = ""square num-button"" onclick = ""recordClick(this)""><div class = content><div class = numbers>J</div></div></button><button id = button_5 class = ""square num-button"" onclick = ""recordClick(this)""><div class = content><div class = numbers>K</div></div></button><button id = button_6 class = ""square num-button"" onclick = ""recordClick(this)""><div class = content><div class = numbers>L</div></div></button><button id = button_7 class = ""square num-button"" onclick = ""recordClick(this)""><div class = content><div class = numbers>N</div></div></button><button id = button_8 class = ""square num-button"" onclick = ""recordClick(this)""><div class = content><div class = numbers>P</div></div></button><button id = button_9 class = ""square num-button"" onclick = ""recordClick(this)""><div class = content><div class = numbers>Q</div></div></button><button id = button_10 class = ""square num-button"" onclick = ""recordClick(this)""><div class = content><div class = numbers>R</div></div></button><button id = button_11 class = ""square num-button"" onclick = ""recordClick(this)""><div class = content><div class = numbers>S</div></div></button><button id = button_12 class = ""square num-button"" onclick = ""recordClick(this)""><div class = content><div class = numbers>Y</div></div></button><button class = clear_button id = ""ClearButton"" onclick = ""clearResponse()"">BACKSPACE</button><button class = blank_button id = ""BlankButton"" onclick = ""blankResponse()"">SKIP</button><p style=""font-size: 2.4rem""><u><b>Current Answer:</b></u></p><br><br><div id=echoed_txt style=""font-size: 5rem; color:blue;""><b></b></div></div>",enter,ospan,retrieval,dcGYwt90tlQfYDWqVXZbDammIar1,html-keyboard-response,186,895755,0.0-46.0-6.0-0.0-2.0,33,29,26,5.0,"[""L"",""N"",""C"",""S"",""K""]","[""L"",""N"",""C"",""S"",""K""]",1.0,5.0,,,,,,,5b08185856655d0001bbfb1b,11:37:26,03/04/2024
788.5999999046326,[''],0,ospan,feedback,dcGYwt90tlQfYDWqVXZbDammIar1,html-button-response,187,897047,0.0-46.0-6.0-0.0-3.0,,,,,,,,,,,,97.0,0.0,,5b08185856655d0001bbfb1b,11:37:26,03/04/2024
,"<p style=""font-size:75px;"">...</p>",,ospan,iti,dcGYwt90tlQfYDWqVXZbDammIar1,html-keyboard-response,188,898065,0.0-46.0-6.0-1.0-0.0,,,,,,,,,,,,,,,5b08185856655d0001bbfb1b,11:37:26,03/04/2024
1498.0,,,ospan,symmetry,dcGYwt90tlQfYDWqVXZbDammIar1,symmetry-judgement-task,189,900799,0.0-46.0-6.0-1.0-1.0-0.0,,,,,,,,,,1.0,1.0,,,,5b08185856655d0001bbfb1b,11:37:26,03/04/2024
,"<div style=""font-size: 10rem; color: #0000FF"">C</div>",,ospan,letter,dcGYwt90tlQfYDWqVXZbDammIar1,html-keyboard-response,190,901806,0.0-46.0-6.0-1.0-1.0-1.0,,,,,,,,,,,,,,,5b08185856655d0001bbfb1b,11:37:26,03/04/2024
1647.0,,,ospan,symmetry,dcGYwt90tlQfYDWqVXZbDammIar1,symmetry-judgement-task,191,905449,0.0-46.0-6.0-1.0-1.0-2.0,,,,,,,,,,1.0,1.0,,,,5b08185856655d0001bbfb1b,11:37:26,03/04/2024
,"<div style=""font-size: 10rem; color: #0000FF"">N</div>",,ospan,letter,dcGYwt90tlQfYDWqVXZbDammIar1,html-keyboard-response,192,906461,0.0-46.0-6.0-1.0-1.0-3.0,,,,,,,,,,,,,,,5b08185856655d0001bbfb1b,11:37:26,03/04/2024
977.0,,,ospan,symmetry,dcGYwt90tlQfYDWqVXZbDammIar1,symmetry-judgement-task,193,909440,0.0-46.0-6.0-1.0-1.0-4.0,,,,,,,,,,1.0,1.0,,,,5b08185856655d0001bbfb1b,11:37:26,03/04/2024
,"<div style=""font-size: 10rem; color: #0000FF"">P</div>",,ospan,letter,dcGYwt90tlQfYDWqVXZbDammIar1,html-keyboard-response,194,910449,0.0-46.0-6.0-1.0-1.0-5.0,,,,,,,,,,,,,,,5b08185856655d0001bbfb1b,11:37:26,03/04/2024
861.0,,,ospan,symmetry,dcGYwt90tlQfYDWqVXZbDammIar1,symmetry-judgement-task,195,913322,0.0-46.0-6.0-1.0-1.0-6.0,,,,,,,,,,1.0,1.0,,,,5b08185856655d0001bbfb1b,11:37:26,03/04/2024
,"<div style=""font-size: 10rem; color: #0000FF"">K</div>",,ospan,letter,dcGYwt90tlQfYDWqVXZbDammIar1,html-keyboard-response,196,914330,0.0-46.0-6.0-1.0-1.0-7.0,,,,,,,,,,,,,,,5b08185856655d0001bbfb1b,11:37:26,03/04/2024
1836.0,,,ospan,symmetry,dcGYwt90tlQfYDWqVXZbDammIar1,symmetry-judgement-task,197,918144,0.0-46.0-6.0-1.0-1.0-8.0,,,,,,,,,,1.0,1.0,,,,5b08185856655d0001bbfb1b,11:37:26,03/04/2024
,"<div style=""font-size: 10rem; color: #0000FF"">Q</div>",,ospan,letter,dcGYwt90tlQfYDWqVXZbDammIar1,html-keyboard-response,198,919149,0.0-46.0-6.0-1.0-1.0-9.0,,,,,,,,,,,,,,,5b08185856655d0001bbfb1b,11:37:26,03/04/2024
1050.0,,,ospan,symmetry,dcGYwt90tlQfYDWqVXZbDammIar1,symmetry-judgement-task,199,922192,0.0-46.0-6.0-1.0-1.0-10.0,,,,,,,,,,1.0,1.0,,,,5b08185856655d0001bbfb1b,11:37:26,03/04/2024
,"<div style=""font-size: 10rem; color: #0000FF"">Y</div>",,ospan,letter,dcGYwt90tlQfYDWqVXZbDammIar1,html-keyboard-response,200,923201,0.0-46.0-6.0-1.0-1.0-11.0,,,,,,,,,,,,,,,5b08185856655d0001bbfb1b,11:37:26,03/04/2024
1182.0,,,ospan,symmetry,dcGYwt90tlQfYDWqVXZbDammIar1,symmetry-judgement-task,201,926385,0.0-46.0-6.0-1.0-1.0-12.0,,,,,,,,,,1.0,1.0,,,,5b08185856655d0001bbfb1b,11:37:26,03/04/2024
,"<div style=""font-size: 10rem; color: #0000FF"">H</div>",,ospan,letter,dcGYwt90tlQfYDWqVXZbDammIar1,html-keyboard-response,202,927391,0.0-46.0-6.0-1.0-1.0-13.0,,,,,,,,,,,,,,,5b08185856655d0001bbfb1b,11:37:26,03/04/2024
902.0,,,ospan,symmetry,dcGYwt90tlQfYDWqVXZbDammIar1,symmetry-judgement-task,203,930309,0.0-46.0-6.0-1.0-1.0-14.0,,,,,,,,,,0.0,0.0,,,,5b08185856655d0001bbfb1b,11:37:26,03/04/2024
,"<div style=""font-size: 10rem; color: #0000FF"">S</div>",,ospan,letter,dcGYwt90tlQfYDWqVXZbDammIar1,html-keyboard-response,204,931326,0.0-46.0-6.0-1.0-1.0-15.0,,,,,,,,,,,,,,,5b08185856655d0001bbfb1b,11:37:26,03/04/2024
9421.099999904633,"<div class = numbox><p style=""font-size: 2.4rem"">Please recall the letters you saw to the best of your ability. If you do not remember a particular letter, use the SKIP button.<br><b>(When you are ready to lock in your answer, press ENTER)</b></p><button id = button_1 class = ""square num-button"" onclick = ""recordClick(this)""><div class = content><div class = numbers>C</div></div></button><button id = button_2 class = ""square num-button"" onclick = ""recordClick(this)""><div class = content><div class = numbers>G</div></div></button><button id = button_3 class = ""square num-button"" onclick = ""recordClick(this)""><div class = content><div class = numbers>H</div></div></button><button id = button_4 class = ""square num-button"" onclick = ""recordClick(this)""><div class = content><div class = numbers>J</div></div></button><button id = button_5 class = ""square num-button"" onclick = ""recordClick(this)""><div class = content><div class = numbers>K</div></div></button><button id = button_6 class = ""square num-button"" onclick = ""recordClick(this)""><div class = content><div class = numbers>L</div></div></button><button id = button_7 class = ""square num-button"" onclick = ""recordClick(this)""><div class = content><div class = numbers>N</div></div></button><button id = button_8 class = ""square num-button"" onclick = ""recordClick(this)""><div class = content><div class = numbers>P</div></div></button><button id = button_9 class = ""square num-button"" onclick = ""recordClick(this)""><div class = content><div class = numbers>Q</div></div></button><button id = button_10 class = ""square num-button"" onclick = ""recordClick(this)""><div class = content><div class = numbers>R</div></div></button><button id = button_11 class = ""square num-button"" onclick = ""recordClick(this)""><div class = content><div class = numbers>S</div></div></button><button id = button_12 class = ""square num-button"" onclick = ""recordClick(this)""><div class = content><div class = numbers>Y</div></div></button><button class = clear_button id = ""ClearButton"" onclick = ""clearResponse()"">BACKSPACE</button><button class = blank_button id = ""BlankButton"" onclick = ""blankResponse()"">SKIP</button><p style=""font-size: 2.4rem""><u><b>Current Answer:</b></u></p><br><br><div id=echoed_txt style=""font-size: 5rem; color:blue;""><b></b></div></div>",enter,ospan,retrieval,dcGYwt90tlQfYDWqVXZbDammIar1,html-keyboard-response,205,941500,0.0-46.0-6.0-1.0-2.0,41,34,26,8.0,"[""C"",""N"",""P"",""Q"",""K"",""Y"",""H""]","[""C"",""N"",""P"",""K"",""Q"",""Y"",""H"",""S""]",0.0,5.0,,,,,,,5b08185856655d0001bbfb1b,11:37:26,03/04/2024
921.2999999523163,[''],0,ospan,feedback,dcGYwt90tlQfYDWqVXZbDammIar1,html-button-response,206,942929,0.0-46.0-6.0-1.0-3.0,,,,,,,,,,,,95.0,0.0,,5b08185856655d0001bbfb1b,11:37:26,03/04/2024
53208.0,,"{'Q0': 'I found it so much harder than I thought. I think the knowing I had to 85% threw me too, because I know I made an error on a symmetry one and it threw me off knowing this, which then made me lose where I was with the letters'}",ospan,survey_ospan,dcGYwt90tlQfYDWqVXZbDammIar1,lmdlab-survey-text,207,996890,0.0-46.0-7.0,,,,,,,,,,,,,,dcGYwt90tlQfYDWqVXZbDammIar1,5b08185856655d0001bbfb1b,11:37:26,03/04/2024
1429.9000000953674,<p><p style='font-size: 3rem'>Great work!<br><br>This completes the symmetry and memory task.</p><br><br><br>,0,ospan,finish,dcGYwt90tlQfYDWqVXZbDammIar1,html-button-response,208,998323,0.0-46.0-8.0,41,34,26,,,,,,,,,95.0,,,5b08185856655d0001bbfb1b,11:37:26,03/04/2024
