rt,stimulus,response,exp_name,exp_stage,subjectID,trial_type,trial_index,time_elapsed,internal_node_id,ospan_shown,ospan_total,ospan_abs,length,resp_actual,resp_correct,full_correct,num_correct,feedback,accuracy,correct,math_acc,math_warning,databaseID,prolificID,start_time,date
2378.800000000745,<div class = 'left_align' style='font-size: 3.25rem; line-height: 1.3;'><p class = 'center_align'><b>Welcome to the Symmetry and Memory Task</b><br><br><br><br></p>Press 'continue' to show the instructions.<br><br><br><br></div>,0,ospan,instruct,iQyP0sRE7hVkkV98y7jVZivUM903,html-button-response,54,681245,0.0-46.0-0.0-0.0-0.0,,,,,,,,,,,,,,,60ce59806a88034d7e9456da,19:25:54,03/04/2024
7932.0,"<div class = 'left_align' style='font-size: 3.25rem; line-height: 1.3;'><p class = 'center_align'><b>Symmetry and Memory Task</b><br><br></p>In this task, you will try to memorize letters you see on the screen<br>while you also view black and white grid pictures.<br><br>In the next few minutes, you will have some practice to get you familiar<br>with how the task works.<br><br>It may be difficult sometimes, but please do not worry about making mistakes!<br><br>We will begin by practicing the letter part of the task.<br><br><br><br></div>",0,ospan,instruct,iQyP0sRE7hVkkV98y7jVZivUM903,html-button-response,55,689430,0.0-46.0-0.0-0.0-1.0,,,,,,,,,,,,,,,60ce59806a88034d7e9456da,19:25:54,03/04/2024
18281.800000000745,"<div class = 'left_align' style='font-size: 3.25rem; line-height: 1.3;'>For this practice part, letters will appear on the screen one at a time.<br><br>Try to remember each letter in the order presented.<br><br>After some letters have been shown, you will see a response screen. Your<br>goal is to report the letters you saw <b>in order</b>. If you do not remember<br>a particular letter, you will have the option to leave it blank.<br><br><br><br></div>",0,ospan,instruct,iQyP0sRE7hVkkV98y7jVZivUM903,html-button-response,56,707964,0.0-46.0-0.0-0.0-2.0,,,,,,,,,,,,,,,60ce59806a88034d7e9456da,19:25:54,03/04/2024
4743.5,"<div class = 'left_align' style='font-size: 3.25rem; line-height: 1.3;'>Remember, it is very important to get the letters in the same<br>order as you see them.<br><br>When you are ready, you may begin the letter practice.</div><br><br><br><br>",0,ospan,instruct,iQyP0sRE7hVkkV98y7jVZivUM903,html-button-response,57,712971,0.0-46.0-0.0-0.0-3.0,,,,,,,,,,,,,,,60ce59806a88034d7e9456da,19:25:54,03/04/2024
,"<p style=""font-size:75px;"">...</p>",,ospan,iti,iQyP0sRE7hVkkV98y7jVZivUM903,html-keyboard-response,58,714245,0.0-46.0-0.0-1.0-0.0,,,,,,,,,,,,,,,60ce59806a88034d7e9456da,19:25:54,03/04/2024
,"<div style=""font-size: 10rem; color: #0000FF"">R</div>",,ospan,letter,iQyP0sRE7hVkkV98y7jVZivUM903,html-keyboard-response,59,715256,0.0-46.0-0.0-1.0-1.0,,,,,,,,,,,,,,,60ce59806a88034d7e9456da,19:25:54,03/04/2024
,"<div style=""font-size: 10rem; color: #0000FF"">S</div>",,ospan,letter,iQyP0sRE7hVkkV98y7jVZivUM903,html-keyboard-response,60,717022,0.0-46.0-0.0-1.0-2.0,,,,,,,,,,,,,,,60ce59806a88034d7e9456da,19:25:54,03/04/2024
8203.599999999627,"<div class = numbox><p style=""font-size: 2.4rem"">Please recall the letters you saw to the best of your ability. If you do not remember a particular letter, use the SKIP button.<br><b>(When you are ready to lock in your answer, press ENTER)</b></p><button id = button_1 class = ""square num-button"" onclick = ""recordClick(this)""><div class = content><div class = numbers>C</div></div></button><button id = button_2 class = ""square num-button"" onclick = ""recordClick(this)""><div class = content><div class = numbers>G</div></div></button><button id = button_3 class = ""square num-button"" onclick = ""recordClick(this)""><div class = content><div class = numbers>H</div></div></button><button id = button_4 class = ""square num-button"" onclick = ""recordClick(this)""><div class = content><div class = numbers>J</div></div></button><button id = button_5 class = ""square num-button"" onclick = ""recordClick(this)""><div class = content><div class = numbers>K</div></div></button><button id = button_6 class = ""square num-button"" onclick = ""recordClick(this)""><div class = content><div class = numbers>L</div></div></button><button id = button_7 class = ""square num-button"" onclick = ""recordClick(this)""><div class = content><div class = numbers>N</div></div></button><button id = button_8 class = ""square num-button"" onclick = ""recordClick(this)""><div class = content><div class = numbers>P</div></div></button><button id = button_9 class = ""square num-button"" onclick = ""recordClick(this)""><div class = content><div class = numbers>Q</div></div></button><button id = button_10 class = ""square num-button"" onclick = ""recordClick(this)""><div class = content><div class = numbers>R</div></div></button><button id = button_11 class = ""square num-button"" onclick = ""recordClick(this)""><div class = content><div class = numbers>S</div></div></button><button id = button_12 class = ""square num-button"" onclick = ""recordClick(this)""><div class = content><div class = numbers>Y</div></div></button><button class = clear_button id = ""ClearButton"" onclick = ""clearResponse()"">BACKSPACE</button><button class = blank_button id = ""BlankButton"" onclick = ""blankResponse()"">SKIP</button><p style=""font-size: 2.4rem""><u><b>Current Answer:</b></u></p><br><br><div id=echoed_txt style=""font-size: 5rem; color:blue;""><b></b></div></div>",enter,ospan,retrieval,iQyP0sRE7hVkkV98y7jVZivUM903,html-keyboard-response,61,725986,0.0-46.0-0.0-1.0-3.0,NA,NA,NA,2.0,"[""R"",""S""]","[""R"",""S""]",1.0,2.0,"['<font color=""green"">R</font>', '<font color=""green"">S</font>']",,,,,,60ce59806a88034d7e9456da,19:25:54,03/04/2024
1195.4000000003725,"['<p style=""font-size:44px"">Letters:<br><br><br><font color=""green"">R</font> <font color=""green"">S</font></p><br><br>']",0,ospan,practice_feedback,iQyP0sRE7hVkkV98y7jVZivUM903,html-button-response,62,727685,0.0-46.0-0.0-1.0-4.0,,,,,,,,,,,,,,,60ce59806a88034d7e9456da,19:25:54,03/04/2024
,"<p style=""font-size:75px;"">...</p>",,ospan,iti,iQyP0sRE7hVkkV98y7jVZivUM903,html-keyboard-response,63,728695,0.0-46.0-0.0-2.0-0.0,,,,,,,,,,,,,,,60ce59806a88034d7e9456da,19:25:54,03/04/2024
,"<div style=""font-size: 10rem; color: #0000FF"">S</div>",,ospan,letter,iQyP0sRE7hVkkV98y7jVZivUM903,html-keyboard-response,64,729706,0.0-46.0-0.0-2.0-1.0,,,,,,,,,,,,,,,60ce59806a88034d7e9456da,19:25:54,03/04/2024
,"<div style=""font-size: 10rem; color: #0000FF"">J</div>",,ospan,letter,iQyP0sRE7hVkkV98y7jVZivUM903,html-keyboard-response,65,731474,0.0-46.0-0.0-2.0-2.0,,,,,,,,,,,,,,,60ce59806a88034d7e9456da,19:25:54,03/04/2024
,"<div style=""font-size: 10rem; color: #0000FF"">P</div>",,ospan,letter,iQyP0sRE7hVkkV98y7jVZivUM903,html-keyboard-response,66,733243,0.0-46.0-0.0-2.0-3.0,,,,,,,,,,,,,,,60ce59806a88034d7e9456da,19:25:54,03/04/2024
4200.5999999996275,"<div class = numbox><p style=""font-size: 2.4rem"">Please recall the letters you saw to the best of your ability. If you do not remember a particular letter, use the SKIP button.<br><b>(When you are ready to lock in your answer, press ENTER)</b></p><button id = button_1 class = ""square num-button"" onclick = ""recordClick(this)""><div class = content><div class = numbers>C</div></div></button><button id = button_2 class = ""square num-button"" onclick = ""recordClick(this)""><div class = content><div class = numbers>G</div></div></button><button id = button_3 class = ""square num-button"" onclick = ""recordClick(this)""><div class = content><div class = numbers>H</div></div></button><button id = button_4 class = ""square num-button"" onclick = ""recordClick(this)""><div class = content><div class = numbers>J</div></div></button><button id = button_5 class = ""square num-button"" onclick = ""recordClick(this)""><div class = content><div class = numbers>K</div></div></button><button id = button_6 class = ""square num-button"" onclick = ""recordClick(this)""><div class = content><div class = numbers>L</div></div></button><button id = button_7 class = ""square num-button"" onclick = ""recordClick(this)""><div class = content><div class = numbers>N</div></div></button><button id = button_8 class = ""square num-button"" onclick = ""recordClick(this)""><div class = content><div class = numbers>P</div></div></button><button id = button_9 class = ""square num-button"" onclick = ""recordClick(this)""><div class = content><div class = numbers>Q</div></div></button><button id = button_10 class = ""square num-button"" onclick = ""recordClick(this)""><div class = content><div class = numbers>R</div></div></button><button id = button_11 class = ""square num-button"" onclick = ""recordClick(this)""><div class = content><div class = numbers>S</div></div></button><button id = button_12 class = ""square num-button"" onclick = ""recordClick(this)""><div class = content><div class = numbers>Y</div></div></button><button class = clear_button id = ""ClearButton"" onclick = ""clearResponse()"">BACKSPACE</button><button class = blank_button id = ""BlankButton"" onclick = ""blankResponse()"">SKIP</button><p style=""font-size: 2.4rem""><u><b>Current Answer:</b></u></p><br><br><div id=echoed_txt style=""font-size: 5rem; color:blue;""><b></b></div></div>",enter,ospan,retrieval,iQyP0sRE7hVkkV98y7jVZivUM903,html-keyboard-response,67,738202,0.0-46.0-0.0-2.0-4.0,NA,NA,NA,3.0,"[""S"",""J"",""P""]","[""S"",""J"",""P""]",1.0,3.0,"['<font color=""green"">S</font>', '<font color=""green"">J</font>', '<font color=""green"">P</font>']",,,,,,60ce59806a88034d7e9456da,19:25:54,03/04/2024
1182.0999999996275,"['<p style=""font-size:44px"">Letters:<br><br><br><font color=""green"">S</font> <font color=""green"">J</font> <font color=""green"">P</font></p><br><br>']",0,ospan,practice_feedback,iQyP0sRE7hVkkV98y7jVZivUM903,html-button-response,68,739889,0.0-46.0-0.0-2.0-5.0,,,,,,,,,,,,,,,60ce59806a88034d7e9456da,19:25:54,03/04/2024
16568.699999999255,"<div class = 'left_align' style='font-size: 3.25rem; line-height: 1.3;'>Now you will practice doing the <b>symmetry judgment part</b> of the experiment.<br><br>A black and white grid picture will appear on the screen and you have to judge if it is <br>symmetrical or asymetrical.<br><br>A picture is 'mirror' symmetrical if its left half is identical to the right half when flipped.<br>Here are examples of a symmetrical and an asymetrical picture:<br><br><center><img src='Stimuli/img/symm_instructions_extra.png' style='height:420px; width:900'></img></center><br>To judge symmetry, imagine you were to fold each picture down the middle, like a book –<br>would the left half match the right half when folded onto each other?<br><br></div><br>",0,ospan,instruct,iQyP0sRE7hVkkV98y7jVZivUM903,html-button-response,69,756459,0.0-46.0-1.0-0.0-0.0,,,,,,,,,,,,,,,60ce59806a88034d7e9456da,19:25:54,03/04/2024
6933.199999999255,"<div class = 'left_align' style='font-size: 3.25rem; line-height: 1.3;'>When you have viewed the picture and determined whether it is symmetrical or not,<br>you can <b>click the Yes or No button</b> below to answer.<br><br>If you take longer than 15 seconds, it will continue automatically<br>and record the answer as an error.</div><br>",0,ospan,instruct,iQyP0sRE7hVkkV98y7jVZivUM903,html-button-response,70,763654,0.0-46.0-1.0-0.0-1.0,,,,,,,,,,,,,,,60ce59806a88034d7e9456da,19:25:54,03/04/2024
3934.9000000003725,"<div class = 'left_align' style='font-size: 3.25rem; line-height: 1.3;'>It is <b>very</b> important that you make the symmetry judgment correctly.<br><br>It is also important that you try and judge the picture as quickly as you can.<br><br>When you are ready, click on the button below to try some practice problems.</div><br><br><br><br>",0,ospan,instruct,iQyP0sRE7hVkkV98y7jVZivUM903,html-button-response,71,767840,0.0-46.0-1.0-0.0-2.0,,,,,,,,,,,,,,,60ce59806a88034d7e9456da,19:25:54,03/04/2024
2501.0,,,ospan,symmetry,iQyP0sRE7hVkkV98y7jVZivUM903,symmetry-judgement-task,72,771132,0.0-46.0-1.0-1.0-0.0,,,,,,,,,,1.0,1.0,,,,60ce59806a88034d7e9456da,19:25:54,03/04/2024
,"<p style=""color:green; font-size: 35px"">Correct</p>",,ospan,feedback,iQyP0sRE7hVkkV98y7jVZivUM903,html-keyboard-response,73,771888,0.0-46.0-1.0-1.0-1.0,,,,,,,,,,,,,,,60ce59806a88034d7e9456da,19:25:54,03/04/2024
1220.0,,,ospan,symmetry,iQyP0sRE7hVkkV98y7jVZivUM903,symmetry-judgement-task,74,775715,0.0-46.0-1.0-1.0-2.0,,,,,,,,,,1.0,1.0,,,,60ce59806a88034d7e9456da,19:25:54,03/04/2024
,"<p style=""color:green; font-size: 35px"">Correct</p>",,ospan,feedback,iQyP0sRE7hVkkV98y7jVZivUM903,html-keyboard-response,75,776474,0.0-46.0-1.0-1.0-3.0,,,,,,,,,,,,,,,60ce59806a88034d7e9456da,19:25:54,03/04/2024
2021.0,,,ospan,symmetry,iQyP0sRE7hVkkV98y7jVZivUM903,symmetry-judgement-task,76,781023,0.0-46.0-1.0-1.0-4.0,,,,,,,,,,1.0,1.0,,,,60ce59806a88034d7e9456da,19:25:54,03/04/2024
,"<p style=""color:green; font-size: 35px"">Correct</p>",,ospan,feedback,iQyP0sRE7hVkkV98y7jVZivUM903,html-keyboard-response,77,781776,0.0-46.0-1.0-1.0-5.0,,,,,,,,,,,,,,,60ce59806a88034d7e9456da,19:25:54,03/04/2024
1732.5,"<p style=""font-size: 3rem;"">You responded correctly on 3 of 3 symmetry judgments. Good job!</p><br><br>",0,ospan,practice,iQyP0sRE7hVkkV98y7jVZivUM903,html-button-response,78,785512,0.0-46.0-1.0-2.0,,,,,,,,,,,,,,,60ce59806a88034d7e9456da,19:25:54,03/04/2024
6991.4000000003725,"<div class = 'left_align' style='font-size: 3.25rem; line-height: 1.3;'>Now you will practice doing both parts of the experiment at the same time.<br><br>In the next practice set, you will be given one grid picture to judge.<br>Then letter will appear on the screen. Try to remember the letter.<br><br>It is <b>very important</b> to make the symmetry judgment as quickly and accurately as possible.<br><br>Just as before, once you have make the symmetry judgment, you can click Yes or No.<br><b>Note that you will no longer see Correct or Incorrect feedback.</div><br><br><br><br>",0,ospan,instruct,iQyP0sRE7hVkkV98y7jVZivUM903,html-button-response,79,792756,0.0-46.0-2.0-0.0-0.0,,,,,,,,,,,,,,,60ce59806a88034d7e9456da,19:25:54,03/04/2024
9623.199999999255,"<div class = 'left_align' style='font-size: 3.25rem; line-height: 1.3;'>After the letter goes away, another grid picture will appear, and then<br>another letter.<br><br>At the end of each set of letters and grids, you will recall the letters to the best<br>of your ability. Remember, try your best to get the letters in the correct order.<br><br>It is important to <b>quickly</b> and <b>accurately</b> make the symmetry judgments.</div><br><br><br><br>",0,ospan,instruct,iQyP0sRE7hVkkV98y7jVZivUM903,html-button-response,80,802645,0.0-46.0-2.0-0.0-1.0,,,,,,,,,,,,,,,60ce59806a88034d7e9456da,19:25:54,03/04/2024
16052.599999999627,"<div class = 'left_align' style='font-size: 3.25rem; line-height: 1.3;'>On the feedback screen, if you are not doing well at the symmetry judgments,<br>you will also see a warning in the middle. This indicates your percent <br>correct for the grid pictures for the entire experiment.<br><br>It is <b>very</b> important for you to keep accuracy at least at 85%: <u>We can only use<br>data where the participant was at least 85% accurate on the judgments.</u> Therefore,<br> please try your best to perform well on the symmetry judgments, <b>at the same time</b><br>doing your best to recall as many letters as possible.<br><br>Click the button to try some practice problems.</div><br><br><br><br>",0,ospan,instruct,iQyP0sRE7hVkkV98y7jVZivUM903,html-button-response,81,818950,0.0-46.0-2.0-0.0-2.0,,,,,,,,,,,,,,,60ce59806a88034d7e9456da,19:25:54,03/04/2024
,"<p style=""font-size:75px;"">...</p>",,ospan,iti,iQyP0sRE7hVkkV98y7jVZivUM903,html-keyboard-response,82,820218,0.0-46.0-2.0-1.0-0.0,,,,,,,,,,,,,,,60ce59806a88034d7e9456da,19:25:54,03/04/2024
2126.0,,,ospan,symmetry,iQyP0sRE7hVkkV98y7jVZivUM903,symmetry-judgement-task,83,823373,0.0-46.0-2.0-1.0-1.0-0.0,,,,,,,,,,1.0,1.0,,,,60ce59806a88034d7e9456da,19:25:54,03/04/2024
,"<div style=""font-size: 10rem; color: #0000FF"">J</div>",,ospan,letter,iQyP0sRE7hVkkV98y7jVZivUM903,html-keyboard-response,84,824383,0.0-46.0-2.0-1.0-1.0-1.0,,,,,,,,,,,,,,,60ce59806a88034d7e9456da,19:25:54,03/04/2024
1079.0,,,ospan,symmetry,iQyP0sRE7hVkkV98y7jVZivUM903,symmetry-judgement-task,85,827320,0.0-46.0-2.0-1.0-1.0-2.0,,,,,,,,,,1.0,1.0,,,,60ce59806a88034d7e9456da,19:25:54,03/04/2024
,"<div style=""font-size: 10rem; color: #0000FF"">S</div>",,ospan,letter,iQyP0sRE7hVkkV98y7jVZivUM903,html-keyboard-response,86,828331,0.0-46.0-2.0-1.0-1.0-3.0,,,,,,,,,,,,,,,60ce59806a88034d7e9456da,19:25:54,03/04/2024
944.0,,,ospan,symmetry,iQyP0sRE7hVkkV98y7jVZivUM903,symmetry-judgement-task,87,831134,0.0-46.0-2.0-1.0-1.0-4.0,,,,,,,,,,1.0,1.0,,,,60ce59806a88034d7e9456da,19:25:54,03/04/2024
,"<div style=""font-size: 10rem; color: #0000FF"">Q</div>",,ospan,letter,iQyP0sRE7hVkkV98y7jVZivUM903,html-keyboard-response,88,832139,0.0-46.0-2.0-1.0-1.0-5.0,,,,,,,,,,,,,,,60ce59806a88034d7e9456da,19:25:54,03/04/2024
4329.5,"<div class = numbox><p style=""font-size: 2.4rem"">Please recall the letters you saw to the best of your ability. If you do not remember a particular letter, use the SKIP button.<br><b>(When you are ready to lock in your answer, press ENTER)</b></p><button id = button_1 class = ""square num-button"" onclick = ""recordClick(this)""><div class = content><div class = numbers>C</div></div></button><button id = button_2 class = ""square num-button"" onclick = ""recordClick(this)""><div class = content><div class = numbers>G</div></div></button><button id = button_3 class = ""square num-button"" onclick = ""recordClick(this)""><div class = content><div class = numbers>H</div></div></button><button id = button_4 class = ""square num-button"" onclick = ""recordClick(this)""><div class = content><div class = numbers>J</div></div></button><button id = button_5 class = ""square num-button"" onclick = ""recordClick(this)""><div class = content><div class = numbers>K</div></div></button><button id = button_6 class = ""square num-button"" onclick = ""recordClick(this)""><div class = content><div class = numbers>L</div></div></button><button id = button_7 class = ""square num-button"" onclick = ""recordClick(this)""><div class = content><div class = numbers>N</div></div></button><button id = button_8 class = ""square num-button"" onclick = ""recordClick(this)""><div class = content><div class = numbers>P</div></div></button><button id = button_9 class = ""square num-button"" onclick = ""recordClick(this)""><div class = content><div class = numbers>Q</div></div></button><button id = button_10 class = ""square num-button"" onclick = ""recordClick(this)""><div class = content><div class = numbers>R</div></div></button><button id = button_11 class = ""square num-button"" onclick = ""recordClick(this)""><div class = content><div class = numbers>S</div></div></button><button id = button_12 class = ""square num-button"" onclick = ""recordClick(this)""><div class = content><div class = numbers>Y</div></div></button><button class = clear_button id = ""ClearButton"" onclick = ""clearResponse()"">BACKSPACE</button><button class = blank_button id = ""BlankButton"" onclick = ""blankResponse()"">SKIP</button><p style=""font-size: 2.4rem""><u><b>Current Answer:</b></u></p><br><br><div id=echoed_txt style=""font-size: 5rem; color:blue;""><b></b></div></div>",enter,ospan,retrieval,iQyP0sRE7hVkkV98y7jVZivUM903,html-keyboard-response,89,837233,0.0-46.0-2.0-1.0-2.0-0.0,NA,NA,NA,3.0,"[""J"",""S"",""Q""]","[""J"",""S"",""Q""]",1.0,3.0,"['<font color=""green"">J</font>', '<font color=""green"">S</font>', '<font color=""green"">Q</font>']",,,,,,60ce59806a88034d7e9456da,19:25:54,03/04/2024
713.5,"['<p style=""font-size:44px"">Letters:<br><br><br><font color=""green"">J</font> <font color=""green"">S</font> <font color=""green"">Q</font></p><br><br><p style=""font-size:30px"">Symmetry:<br><br><font color=""green"">100%</font></p><br><br>']",0,ospan,practice_feedback,iQyP0sRE7hVkkV98y7jVZivUM903,html-button-response,90,838449,0.0-46.0-2.0-1.0-2.0-1.0,,,,,,,,,,,,,,,60ce59806a88034d7e9456da,19:25:54,03/04/2024
,"<p style=""font-size:75px;"">...</p>",,ospan,iti,iQyP0sRE7hVkkV98y7jVZivUM903,html-keyboard-response,91,839461,0.0-46.0-2.0-2.0-0.0,,,,,,,,,,,,,,,60ce59806a88034d7e9456da,19:25:54,03/04/2024
1270.0,,,ospan,symmetry,iQyP0sRE7hVkkV98y7jVZivUM903,symmetry-judgement-task,92,841834,0.0-46.0-2.0-2.0-1.0-0.0,,,,,,,,,,1.0,1.0,,,,60ce59806a88034d7e9456da,19:25:54,03/04/2024
,"<div style=""font-size: 10rem; color: #0000FF"">C</div>",,ospan,letter,iQyP0sRE7hVkkV98y7jVZivUM903,html-keyboard-response,93,842837,0.0-46.0-2.0-2.0-1.0-1.0,,,,,,,,,,,,,,,60ce59806a88034d7e9456da,19:25:54,03/04/2024
919.0,,,ospan,symmetry,iQyP0sRE7hVkkV98y7jVZivUM903,symmetry-judgement-task,94,845620,0.0-46.0-2.0-2.0-1.0-2.0,,,,,,,,,,1.0,1.0,,,,60ce59806a88034d7e9456da,19:25:54,03/04/2024
,"<div style=""font-size: 10rem; color: #0000FF"">L</div>",,ospan,letter,iQyP0sRE7hVkkV98y7jVZivUM903,html-keyboard-response,95,846635,0.0-46.0-2.0-2.0-1.0-3.0,,,,,,,,,,,,,,,60ce59806a88034d7e9456da,19:25:54,03/04/2024
1470.0,,,ospan,symmetry,iQyP0sRE7hVkkV98y7jVZivUM903,symmetry-judgement-task,96,849965,0.0-46.0-2.0-2.0-1.0-4.0,,,,,,,,,,1.0,1.0,,,,60ce59806a88034d7e9456da,19:25:54,03/04/2024
,"<div style=""font-size: 10rem; color: #0000FF"">R</div>",,ospan,letter,iQyP0sRE7hVkkV98y7jVZivUM903,html-keyboard-response,97,850980,0.0-46.0-2.0-2.0-1.0-5.0,,,,,,,,,,,,,,,60ce59806a88034d7e9456da,19:25:54,03/04/2024
4111.5999999996275,"<div class = numbox><p style=""font-size: 2.4rem"">Please recall the letters you saw to the best of your ability. If you do not remember a particular letter, use the SKIP button.<br><b>(When you are ready to lock in your answer, press ENTER)</b></p><button id = button_1 class = ""square num-button"" onclick = ""recordClick(this)""><div class = content><div class = numbers>C</div></div></button><button id = button_2 class = ""square num-button"" onclick = ""recordClick(this)""><div class = content><div class = numbers>G</div></div></button><button id = button_3 class = ""square num-button"" onclick = ""recordClick(this)""><div class = content><div class = numbers>H</div></div></button><button id = button_4 class = ""square num-button"" onclick = ""recordClick(this)""><div class = content><div class = numbers>J</div></div></button><button id = button_5 class = ""square num-button"" onclick = ""recordClick(this)""><div class = content><div class = numbers>K</div></div></button><button id = button_6 class = ""square num-button"" onclick = ""recordClick(this)""><div class = content><div class = numbers>L</div></div></button><button id = button_7 class = ""square num-button"" onclick = ""recordClick(this)""><div class = content><div class = numbers>N</div></div></button><button id = button_8 class = ""square num-button"" onclick = ""recordClick(this)""><div class = content><div class = numbers>P</div></div></button><button id = button_9 class = ""square num-button"" onclick = ""recordClick(this)""><div class = content><div class = numbers>Q</div></div></button><button id = button_10 class = ""square num-button"" onclick = ""recordClick(this)""><div class = content><div class = numbers>R</div></div></button><button id = button_11 class = ""square num-button"" onclick = ""recordClick(this)""><div class = content><div class = numbers>S</div></div></button><button id = button_12 class = ""square num-button"" onclick = ""recordClick(this)""><div class = content><div class = numbers>Y</div></div></button><button class = clear_button id = ""ClearButton"" onclick = ""clearResponse()"">BACKSPACE</button><button class = blank_button id = ""BlankButton"" onclick = ""blankResponse()"">SKIP</button><p style=""font-size: 2.4rem""><u><b>Current Answer:</b></u></p><br><br><div id=echoed_txt style=""font-size: 5rem; color:blue;""><b></b></div></div>",enter,ospan,retrieval,iQyP0sRE7hVkkV98y7jVZivUM903,html-keyboard-response,98,855854,0.0-46.0-2.0-2.0-2.0-0.0,NA,NA,NA,3.0,"[""C"",""L"",""R""]","[""C"",""L"",""R""]",1.0,3.0,"['<font color=""green"">C</font>', '<font color=""green"">L</font>', '<font color=""green"">R</font>']",,,,,,60ce59806a88034d7e9456da,19:25:54,03/04/2024
1425.5,"['<p style=""font-size:44px"">Letters:<br><br><br><font color=""green"">C</font> <font color=""green"">L</font> <font color=""green"">R</font></p><br><br><p style=""font-size:30px"">Symmetry:<br><br><font color=""green"">100%</font></p><br><br>']",0,ospan,practice_feedback,iQyP0sRE7hVkkV98y7jVZivUM903,html-button-response,99,857781,0.0-46.0-2.0-2.0-2.0-1.0,,,,,,,,,,,,,,,60ce59806a88034d7e9456da,19:25:54,03/04/2024
9487.400000000373,"<div class = 'left_align' style='font-size: 3rem; line-height: 1.3;'><b>Great work! That is the end of practice.</b><br><br>The real trials will look just like the practice trials you just completed.<br><br><u>Here, you will not see feedback</u>. First, you will see an grid picture to judge,<br>then a letter to remember. When the recall screen appears, report the letters in the<br>order presented. If you forget a letter, remember to use the <b>blank</b> button to move to the<br>next letter. Some of the sets will have more symmetry grids and letters than others.<br><br>It is important that you do your best on both the symmetry judgments and the letter recall<br>parts of the experiment. For for the symmetry judgments, try to work as <b>quickly</b> and <br>as <b>accurately</b> as possible. Remember to keep your symmetry accuracy at 85% or above.<br><br><b>For the letters, do NOT use any external aid (e.g., writing on paper, electronic device).</b><br><br>It is <u>very important</u> to our experiment to have a <b>true</b> view of your real performance.<br><br>Do not worry if you miss some when it gets hard! This task is meant to be very challenging!<br><br>Click the button to begin.</div><br><br><br><br>",0,ospan,starting_real_here,iQyP0sRE7hVkkV98y7jVZivUM903,html-button-response,100,867270,0.0-46.0-2.0-3.0,,,,,,,,,,,,,,,60ce59806a88034d7e9456da,19:25:54,03/04/2024
,"<p style=""font-size:75px;"">...</p>",,ospan,iti,iQyP0sRE7hVkkV98y7jVZivUM903,html-keyboard-response,101,868532,0.0-46.0-3.0-0.0-0.0,,,,,,,,,,,,,,,60ce59806a88034d7e9456da,19:25:54,03/04/2024
954.0,,,ospan,symmetry,iQyP0sRE7hVkkV98y7jVZivUM903,symmetry-judgement-task,102,870514,0.0-46.0-3.0-0.0-1.0-0.0,,,,,,,,,,1.0,1.0,,,,60ce59806a88034d7e9456da,19:25:54,03/04/2024
,"<div style=""font-size: 10rem; color: #0000FF"">L</div>",,ospan,letter,iQyP0sRE7hVkkV98y7jVZivUM903,html-keyboard-response,103,871520,0.0-46.0-3.0-0.0-1.0-1.0,,,,,,,,,,,,,,,60ce59806a88034d7e9456da,19:25:54,03/04/2024
871.0,,,ospan,symmetry,iQyP0sRE7hVkkV98y7jVZivUM903,symmetry-judgement-task,104,874241,0.0-46.0-3.0-0.0-1.0-2.0,,,,,,,,,,1.0,1.0,,,,60ce59806a88034d7e9456da,19:25:54,03/04/2024
,"<div style=""font-size: 10rem; color: #0000FF"">P</div>",,ospan,letter,iQyP0sRE7hVkkV98y7jVZivUM903,html-keyboard-response,105,875256,0.0-46.0-3.0-0.0-1.0-3.0,,,,,,,,,,,,,,,60ce59806a88034d7e9456da,19:25:54,03/04/2024
712.0,,,ospan,symmetry,iQyP0sRE7hVkkV98y7jVZivUM903,symmetry-judgement-task,106,877825,0.0-46.0-3.0-0.0-1.0-4.0,,,,,,,,,,1.0,1.0,,,,60ce59806a88034d7e9456da,19:25:54,03/04/2024
,"<div style=""font-size: 10rem; color: #0000FF"">S</div>",,ospan,letter,iQyP0sRE7hVkkV98y7jVZivUM903,html-keyboard-response,107,878839,0.0-46.0-3.0-0.0-1.0-5.0,,,,,,,,,,,,,,,60ce59806a88034d7e9456da,19:25:54,03/04/2024
3992.60000000149,"<div class = numbox><p style=""font-size: 2.4rem"">Please recall the letters you saw to the best of your ability. If you do not remember a particular letter, use the SKIP button.<br><b>(When you are ready to lock in your answer, press ENTER)</b></p><button id = button_1 class = ""square num-button"" onclick = ""recordClick(this)""><div class = content><div class = numbers>C</div></div></button><button id = button_2 class = ""square num-button"" onclick = ""recordClick(this)""><div class = content><div class = numbers>G</div></div></button><button id = button_3 class = ""square num-button"" onclick = ""recordClick(this)""><div class = content><div class = numbers>H</div></div></button><button id = button_4 class = ""square num-button"" onclick = ""recordClick(this)""><div class = content><div class = numbers>J</div></div></button><button id = button_5 class = ""square num-button"" onclick = ""recordClick(this)""><div class = content><div class = numbers>K</div></div></button><button id = button_6 class = ""square num-button"" onclick = ""recordClick(this)""><div class = content><div class = numbers>L</div></div></button><button id = button_7 class = ""square num-button"" onclick = ""recordClick(this)""><div class = content><div class = numbers>N</div></div></button><button id = button_8 class = ""square num-button"" onclick = ""recordClick(this)""><div class = content><div class = numbers>P</div></div></button><button id = button_9 class = ""square num-button"" onclick = ""recordClick(this)""><div class = content><div class = numbers>Q</div></div></button><button id = button_10 class = ""square num-button"" onclick = ""recordClick(this)""><div class = content><div class = numbers>R</div></div></button><button id = button_11 class = ""square num-button"" onclick = ""recordClick(this)""><div class = content><div class = numbers>S</div></div></button><button id = button_12 class = ""square num-button"" onclick = ""recordClick(this)""><div class = content><div class = numbers>Y</div></div></button><button class = clear_button id = ""ClearButton"" onclick = ""clearResponse()"">BACKSPACE</button><button class = blank_button id = ""BlankButton"" onclick = ""blankResponse()"">SKIP</button><p style=""font-size: 2.4rem""><u><b>Current Answer:</b></u></p><br><br><div id=echoed_txt style=""font-size: 5rem; color:blue;""><b></b></div></div>",enter,ospan,retrieval,iQyP0sRE7hVkkV98y7jVZivUM903,html-keyboard-response,108,883593,0.0-46.0-3.0-0.0-2.0,3,3,3,3.0,"[""L"",""P"",""S""]","[""L"",""P"",""S""]",1.0,3.0,,,,,,,60ce59806a88034d7e9456da,19:25:54,03/04/2024
1122.300000000745,[''],0,ospan,feedback,iQyP0sRE7hVkkV98y7jVZivUM903,html-button-response,109,885227,0.0-46.0-3.0-0.0-3.0,,,,,,,,,,,,100.0,0.0,,60ce59806a88034d7e9456da,19:25:54,03/04/2024
,"<p style=""font-size:75px;"">...</p>",,ospan,iti,iQyP0sRE7hVkkV98y7jVZivUM903,html-keyboard-response,110,886229,0.0-46.0-4.0-0.0-0.0,,,,,,,,,,,,,,,60ce59806a88034d7e9456da,19:25:54,03/04/2024
946.0,,,ospan,symmetry,iQyP0sRE7hVkkV98y7jVZivUM903,symmetry-judgement-task,111,888211,0.0-46.0-4.0-0.0-1.0-0.0,,,,,,,,,,1.0,1.0,,,,60ce59806a88034d7e9456da,19:25:54,03/04/2024
,"<div style=""font-size: 10rem; color: #0000FF"">P</div>",,ospan,letter,iQyP0sRE7hVkkV98y7jVZivUM903,html-keyboard-response,112,889213,0.0-46.0-4.0-0.0-1.0-1.0,,,,,,,,,,,,,,,60ce59806a88034d7e9456da,19:25:54,03/04/2024
935.0,,,ospan,symmetry,iQyP0sRE7hVkkV98y7jVZivUM903,symmetry-judgement-task,113,892015,0.0-46.0-4.0-0.0-1.0-2.0,,,,,,,,,,1.0,1.0,,,,60ce59806a88034d7e9456da,19:25:54,03/04/2024
,"<div style=""font-size: 10rem; color: #0000FF"">Y</div>",,ospan,letter,iQyP0sRE7hVkkV98y7jVZivUM903,html-keyboard-response,114,893019,0.0-46.0-4.0-0.0-1.0-3.0,,,,,,,,,,,,,,,60ce59806a88034d7e9456da,19:25:54,03/04/2024
738.0,,,ospan,symmetry,iQyP0sRE7hVkkV98y7jVZivUM903,symmetry-judgement-task,115,895597,0.0-46.0-4.0-0.0-1.0-4.0,,,,,,,,,,1.0,1.0,,,,60ce59806a88034d7e9456da,19:25:54,03/04/2024
,"<div style=""font-size: 10rem; color: #0000FF"">R</div>",,ospan,letter,iQyP0sRE7hVkkV98y7jVZivUM903,html-keyboard-response,116,896602,0.0-46.0-4.0-0.0-1.0-5.0,,,,,,,,,,,,,,,60ce59806a88034d7e9456da,19:25:54,03/04/2024
1252.0,,,ospan,symmetry,iQyP0sRE7hVkkV98y7jVZivUM903,symmetry-judgement-task,117,899719,0.0-46.0-4.0-0.0-1.0-6.0,,,,,,,,,,1.0,1.0,,,,60ce59806a88034d7e9456da,19:25:54,03/04/2024
,"<div style=""font-size: 10rem; color: #0000FF"">H</div>",,ospan,letter,iQyP0sRE7hVkkV98y7jVZivUM903,html-keyboard-response,118,900722,0.0-46.0-4.0-0.0-1.0-7.0,,,,,,,,,,,,,,,60ce59806a88034d7e9456da,19:25:54,03/04/2024
4849.4000000003725,"<div class = numbox><p style=""font-size: 2.4rem"">Please recall the letters you saw to the best of your ability. If you do not remember a particular letter, use the SKIP button.<br><b>(When you are ready to lock in your answer, press ENTER)</b></p><button id = button_1 class = ""square num-button"" onclick = ""recordClick(this)""><div class = content><div class = numbers>C</div></div></button><button id = button_2 class = ""square num-button"" onclick = ""recordClick(this)""><div class = content><div class = numbers>G</div></div></button><button id = button_3 class = ""square num-button"" onclick = ""recordClick(this)""><div class = content><div class = numbers>H</div></div></button><button id = button_4 class = ""square num-button"" onclick = ""recordClick(this)""><div class = content><div class = numbers>J</div></div></button><button id = button_5 class = ""square num-button"" onclick = ""recordClick(this)""><div class = content><div class = numbers>K</div></div></button><button id = button_6 class = ""square num-button"" onclick = ""recordClick(this)""><div class = content><div class = numbers>L</div></div></button><button id = button_7 class = ""square num-button"" onclick = ""recordClick(this)""><div class = content><div class = numbers>N</div></div></button><button id = button_8 class = ""square num-button"" onclick = ""recordClick(this)""><div class = content><div class = numbers>P</div></div></button><button id = button_9 class = ""square num-button"" onclick = ""recordClick(this)""><div class = content><div class = numbers>Q</div></div></button><button id = button_10 class = ""square num-button"" onclick = ""recordClick(this)""><div class = content><div class = numbers>R</div></div></button><button id = button_11 class = ""square num-button"" onclick = ""recordClick(this)""><div class = content><div class = numbers>S</div></div></button><button id = button_12 class = ""square num-button"" onclick = ""recordClick(this)""><div class = content><div class = numbers>Y</div></div></button><button class = clear_button id = ""ClearButton"" onclick = ""clearResponse()"">BACKSPACE</button><button class = blank_button id = ""BlankButton"" onclick = ""blankResponse()"">SKIP</button><p style=""font-size: 2.4rem""><u><b>Current Answer:</b></u></p><br><br><div id=echoed_txt style=""font-size: 5rem; color:blue;""><b></b></div></div>",enter,ospan,retrieval,iQyP0sRE7hVkkV98y7jVZivUM903,html-keyboard-response,119,906336,0.0-46.0-4.0-0.0-2.0,7,7,7,4.0,"[""P"",""Y"",""R"",""H""]","[""P"",""Y"",""R"",""H""]",1.0,4.0,,,,,,,60ce59806a88034d7e9456da,19:25:54,03/04/2024
867.4000000003725,[''],0,ospan,feedback,iQyP0sRE7hVkkV98y7jVZivUM903,html-button-response,120,907715,0.0-46.0-4.0-0.0-3.0,,,,,,,,,,,,100.0,0.0,,60ce59806a88034d7e9456da,19:25:54,03/04/2024
,"<p style=""font-size:75px;"">...</p>",,ospan,iti,iQyP0sRE7hVkkV98y7jVZivUM903,html-keyboard-response,121,908719,0.0-46.0-4.0-1.0-0.0,,,,,,,,,,,,,,,60ce59806a88034d7e9456da,19:25:54,03/04/2024
962.0,,,ospan,symmetry,iQyP0sRE7hVkkV98y7jVZivUM903,symmetry-judgement-task,122,910797,0.0-46.0-4.0-1.0-1.0-0.0,,,,,,,,,,1.0,1.0,,,,60ce59806a88034d7e9456da,19:25:54,03/04/2024
,"<div style=""font-size: 10rem; color: #0000FF"">Y</div>",,ospan,letter,iQyP0sRE7hVkkV98y7jVZivUM903,html-keyboard-response,123,911812,0.0-46.0-4.0-1.0-1.0-1.0,,,,,,,,,,,,,,,60ce59806a88034d7e9456da,19:25:54,03/04/2024
772.0,,,ospan,symmetry,iQyP0sRE7hVkkV98y7jVZivUM903,symmetry-judgement-task,124,914443,0.0-46.0-4.0-1.0-1.0-2.0,,,,,,,,,,1.0,1.0,,,,60ce59806a88034d7e9456da,19:25:54,03/04/2024
,"<div style=""font-size: 10rem; color: #0000FF"">C</div>",,ospan,letter,iQyP0sRE7hVkkV98y7jVZivUM903,html-keyboard-response,125,915444,0.0-46.0-4.0-1.0-1.0-3.0,,,,,,,,,,,,,,,60ce59806a88034d7e9456da,19:25:54,03/04/2024
772.0,,,ospan,symmetry,iQyP0sRE7hVkkV98y7jVZivUM903,symmetry-judgement-task,126,918081,0.0-46.0-4.0-1.0-1.0-4.0,,,,,,,,,,1.0,1.0,,,,60ce59806a88034d7e9456da,19:25:54,03/04/2024
,"<div style=""font-size: 10rem; color: #0000FF"">Q</div>",,ospan,letter,iQyP0sRE7hVkkV98y7jVZivUM903,html-keyboard-response,127,919084,0.0-46.0-4.0-1.0-1.0-5.0,,,,,,,,,,,,,,,60ce59806a88034d7e9456da,19:25:54,03/04/2024
853.0,,,ospan,symmetry,iQyP0sRE7hVkkV98y7jVZivUM903,symmetry-judgement-task,128,921799,0.0-46.0-4.0-1.0-1.0-6.0,,,,,,,,,,1.0,1.0,,,,60ce59806a88034d7e9456da,19:25:54,03/04/2024
,"<div style=""font-size: 10rem; color: #0000FF"">G</div>",,ospan,letter,iQyP0sRE7hVkkV98y7jVZivUM903,html-keyboard-response,129,922810,0.0-46.0-4.0-1.0-1.0-7.0,,,,,,,,,,,,,,,60ce59806a88034d7e9456da,19:25:54,03/04/2024
1280.0,,,ospan,symmetry,iQyP0sRE7hVkkV98y7jVZivUM903,symmetry-judgement-task,130,925948,0.0-46.0-4.0-1.0-1.0-8.0,,,,,,,,,,1.0,1.0,,,,60ce59806a88034d7e9456da,19:25:54,03/04/2024
,"<div style=""font-size: 10rem; color: #0000FF"">P</div>",,ospan,letter,iQyP0sRE7hVkkV98y7jVZivUM903,html-keyboard-response,131,926951,0.0-46.0-4.0-1.0-1.0-9.0,,,,,,,,,,,,,,,60ce59806a88034d7e9456da,19:25:54,03/04/2024
11984.700000001118,"<div class = numbox><p style=""font-size: 2.4rem"">Please recall the letters you saw to the best of your ability. If you do not remember a particular letter, use the SKIP button.<br><b>(When you are ready to lock in your answer, press ENTER)</b></p><button id = button_1 class = ""square num-button"" onclick = ""recordClick(this)""><div class = content><div class = numbers>C</div></div></button><button id = button_2 class = ""square num-button"" onclick = ""recordClick(this)""><div class = content><div class = numbers>G</div></div></button><button id = button_3 class = ""square num-button"" onclick = ""recordClick(this)""><div class = content><div class = numbers>H</div></div></button><button id = button_4 class = ""square num-button"" onclick = ""recordClick(this)""><div class = content><div class = numbers>J</div></div></button><button id = button_5 class = ""square num-button"" onclick = ""recordClick(this)""><div class = content><div class = numbers>K</div></div></button><button id = button_6 class = ""square num-button"" onclick = ""recordClick(this)""><div class = content><div class = numbers>L</div></div></button><button id = button_7 class = ""square num-button"" onclick = ""recordClick(this)""><div class = content><div class = numbers>N</div></div></button><button id = button_8 class = ""square num-button"" onclick = ""recordClick(this)""><div class = content><div class = numbers>P</div></div></button><button id = button_9 class = ""square num-button"" onclick = ""recordClick(this)""><div class = content><div class = numbers>Q</div></div></button><button id = button_10 class = ""square num-button"" onclick = ""recordClick(this)""><div class = content><div class = numbers>R</div></div></button><button id = button_11 class = ""square num-button"" onclick = ""recordClick(this)""><div class = content><div class = numbers>S</div></div></button><button id = button_12 class = ""square num-button"" onclick = ""recordClick(this)""><div class = content><div class = numbers>Y</div></div></button><button class = clear_button id = ""ClearButton"" onclick = ""clearResponse()"">BACKSPACE</button><button class = blank_button id = ""BlankButton"" onclick = ""blankResponse()"">SKIP</button><p style=""font-size: 2.4rem""><u><b>Current Answer:</b></u></p><br><br><div id=echoed_txt style=""font-size: 5rem; color:blue;""><b></b></div></div>",enter,ospan,retrieval,iQyP0sRE7hVkkV98y7jVZivUM903,html-keyboard-response,132,939699,0.0-46.0-4.0-1.0-2.0,12,10,7,5.0,"[""Y"",""C"",""Q"",""P"",""H""]","[""Y"",""C"",""Q"",""G"",""P""]",0.0,3.0,,,,,,,60ce59806a88034d7e9456da,19:25:54,03/04/2024
668.7000000011176,[''],0,ospan,feedback,iQyP0sRE7hVkkV98y7jVZivUM903,html-button-response,133,940884,0.0-46.0-4.0-1.0-3.0,,,,,,,,,,,,100.0,0.0,,60ce59806a88034d7e9456da,19:25:54,03/04/2024
,"<p style=""font-size:75px;"">...</p>",,ospan,iti,iQyP0sRE7hVkkV98y7jVZivUM903,html-keyboard-response,134,941895,0.0-46.0-4.0-2.0-0.0,,,,,,,,,,,,,,,60ce59806a88034d7e9456da,19:25:54,03/04/2024
956.0,,,ospan,symmetry,iQyP0sRE7hVkkV98y7jVZivUM903,symmetry-judgement-task,135,943875,0.0-46.0-4.0-2.0-1.0-0.0,,,,,,,,,,1.0,1.0,,,,60ce59806a88034d7e9456da,19:25:54,03/04/2024
,"<div style=""font-size: 10rem; color: #0000FF"">N</div>",,ospan,letter,iQyP0sRE7hVkkV98y7jVZivUM903,html-keyboard-response,136,944876,0.0-46.0-4.0-2.0-1.0-1.0,,,,,,,,,,,,,,,60ce59806a88034d7e9456da,19:25:54,03/04/2024
854.0,,,ospan,symmetry,iQyP0sRE7hVkkV98y7jVZivUM903,symmetry-judgement-task,137,947599,0.0-46.0-4.0-2.0-1.0-2.0,,,,,,,,,,1.0,1.0,,,,60ce59806a88034d7e9456da,19:25:54,03/04/2024
,"<div style=""font-size: 10rem; color: #0000FF"">H</div>",,ospan,letter,iQyP0sRE7hVkkV98y7jVZivUM903,html-keyboard-response,138,948603,0.0-46.0-4.0-2.0-1.0-3.0,,,,,,,,,,,,,,,60ce59806a88034d7e9456da,19:25:54,03/04/2024
1067.0,,,ospan,symmetry,iQyP0sRE7hVkkV98y7jVZivUM903,symmetry-judgement-task,139,951467,0.0-46.0-4.0-2.0-1.0-4.0,,,,,,,,,,1.0,1.0,,,,60ce59806a88034d7e9456da,19:25:54,03/04/2024
,"<div style=""font-size: 10rem; color: #0000FF"">G</div>",,ospan,letter,iQyP0sRE7hVkkV98y7jVZivUM903,html-keyboard-response,140,952471,0.0-46.0-4.0-2.0-1.0-5.0,,,,,,,,,,,,,,,60ce59806a88034d7e9456da,19:25:54,03/04/2024
5329.10000000149,"<div class = numbox><p style=""font-size: 2.4rem"">Please recall the letters you saw to the best of your ability. If you do not remember a particular letter, use the SKIP button.<br><b>(When you are ready to lock in your answer, press ENTER)</b></p><button id = button_1 class = ""square num-button"" onclick = ""recordClick(this)""><div class = content><div class = numbers>C</div></div></button><button id = button_2 class = ""square num-button"" onclick = ""recordClick(this)""><div class = content><div class = numbers>G</div></div></button><button id = button_3 class = ""square num-button"" onclick = ""recordClick(this)""><div class = content><div class = numbers>H</div></div></button><button id = button_4 class = ""square num-button"" onclick = ""recordClick(this)""><div class = content><div class = numbers>J</div></div></button><button id = button_5 class = ""square num-button"" onclick = ""recordClick(this)""><div class = content><div class = numbers>K</div></div></button><button id = button_6 class = ""square num-button"" onclick = ""recordClick(this)""><div class = content><div class = numbers>L</div></div></button><button id = button_7 class = ""square num-button"" onclick = ""recordClick(this)""><div class = content><div class = numbers>N</div></div></button><button id = button_8 class = ""square num-button"" onclick = ""recordClick(this)""><div class = content><div class = numbers>P</div></div></button><button id = button_9 class = ""square num-button"" onclick = ""recordClick(this)""><div class = content><div class = numbers>Q</div></div></button><button id = button_10 class = ""square num-button"" onclick = ""recordClick(this)""><div class = content><div class = numbers>R</div></div></button><button id = button_11 class = ""square num-button"" onclick = ""recordClick(this)""><div class = content><div class = numbers>S</div></div></button><button id = button_12 class = ""square num-button"" onclick = ""recordClick(this)""><div class = content><div class = numbers>Y</div></div></button><button class = clear_button id = ""ClearButton"" onclick = ""clearResponse()"">BACKSPACE</button><button class = blank_button id = ""BlankButton"" onclick = ""blankResponse()"">SKIP</button><p style=""font-size: 2.4rem""><u><b>Current Answer:</b></u></p><br><br><div id=echoed_txt style=""font-size: 5rem; color:blue;""><b></b></div></div>",enter,ospan,retrieval,iQyP0sRE7hVkkV98y7jVZivUM903,html-keyboard-response,141,958565,0.0-46.0-4.0-2.0-2.0,15,13,10,3.0,"[""N"",""H"",""G""]","[""N"",""H"",""G""]",1.0,3.0,,,,,,,60ce59806a88034d7e9456da,19:25:54,03/04/2024
720.2999999988824,[''],0,ospan,feedback,iQyP0sRE7hVkkV98y7jVZivUM903,html-button-response,142,959786,0.0-46.0-4.0-2.0-3.0,,,,,,,,,,,,100.0,0.0,,60ce59806a88034d7e9456da,19:25:54,03/04/2024
,"<p style=""font-size:75px;"">...</p>",,ospan,iti,iQyP0sRE7hVkkV98y7jVZivUM903,html-keyboard-response,143,960790,0.0-46.0-5.0-0.0-0.0,,,,,,,,,,,,,,,60ce59806a88034d7e9456da,19:25:54,03/04/2024
1147.0,,,ospan,symmetry,iQyP0sRE7hVkkV98y7jVZivUM903,symmetry-judgement-task,144,962959,0.0-46.0-5.0-0.0-1.0-0.0,,,,,,,,,,1.0,1.0,,,,60ce59806a88034d7e9456da,19:25:54,03/04/2024
,"<div style=""font-size: 10rem; color: #0000FF"">R</div>",,ospan,letter,iQyP0sRE7hVkkV98y7jVZivUM903,html-keyboard-response,145,963967,0.0-46.0-5.0-0.0-1.0-1.0,,,,,,,,,,,,,,,60ce59806a88034d7e9456da,19:25:54,03/04/2024
926.0,,,ospan,symmetry,iQyP0sRE7hVkkV98y7jVZivUM903,symmetry-judgement-task,146,966753,0.0-46.0-5.0-0.0-1.0-2.0,,,,,,,,,,1.0,1.0,,,,60ce59806a88034d7e9456da,19:25:54,03/04/2024
,"<div style=""font-size: 10rem; color: #0000FF"">L</div>",,ospan,letter,iQyP0sRE7hVkkV98y7jVZivUM903,html-keyboard-response,147,967757,0.0-46.0-5.0-0.0-1.0-3.0,,,,,,,,,,,,,,,60ce59806a88034d7e9456da,19:25:54,03/04/2024
1022.0,,,ospan,symmetry,iQyP0sRE7hVkkV98y7jVZivUM903,symmetry-judgement-task,148,970640,0.0-46.0-5.0-0.0-1.0-4.0,,,,,,,,,,1.0,1.0,,,,60ce59806a88034d7e9456da,19:25:54,03/04/2024
,"<div style=""font-size: 10rem; color: #0000FF"">N</div>",,ospan,letter,iQyP0sRE7hVkkV98y7jVZivUM903,html-keyboard-response,149,971642,0.0-46.0-5.0-0.0-1.0-5.0,,,,,,,,,,,,,,,60ce59806a88034d7e9456da,19:25:54,03/04/2024
902.0,,,ospan,symmetry,iQyP0sRE7hVkkV98y7jVZivUM903,symmetry-judgement-task,150,974412,0.0-46.0-5.0-0.0-1.0-6.0,,,,,,,,,,1.0,1.0,,,,60ce59806a88034d7e9456da,19:25:54,03/04/2024
,"<div style=""font-size: 10rem; color: #0000FF"">H</div>",,ospan,letter,iQyP0sRE7hVkkV98y7jVZivUM903,html-keyboard-response,151,975416,0.0-46.0-5.0-0.0-1.0-7.0,,,,,,,,,,,,,,,60ce59806a88034d7e9456da,19:25:54,03/04/2024
2348.0,,,ospan,symmetry,iQyP0sRE7hVkkV98y7jVZivUM903,symmetry-judgement-task,152,979631,0.0-46.0-5.0-0.0-1.0-8.0,,,,,,,,,,1.0,1.0,,,,60ce59806a88034d7e9456da,19:25:54,03/04/2024
,"<div style=""font-size: 10rem; color: #0000FF"">G</div>",,ospan,letter,iQyP0sRE7hVkkV98y7jVZivUM903,html-keyboard-response,153,980646,0.0-46.0-5.0-0.0-1.0-9.0,,,,,,,,,,,,,,,60ce59806a88034d7e9456da,19:25:54,03/04/2024
2020.0,,,ospan,symmetry,iQyP0sRE7hVkkV98y7jVZivUM903,symmetry-judgement-task,154,984521,0.0-46.0-5.0-0.0-1.0-10.0,,,,,,,,,,1.0,1.0,,,,60ce59806a88034d7e9456da,19:25:54,03/04/2024
,"<div style=""font-size: 10rem; color: #0000FF"">K</div>",,ospan,letter,iQyP0sRE7hVkkV98y7jVZivUM903,html-keyboard-response,155,985526,0.0-46.0-5.0-0.0-1.0-11.0,,,,,,,,,,,,,,,60ce59806a88034d7e9456da,19:25:54,03/04/2024
8025.199999999255,"<div class = numbox><p style=""font-size: 2.4rem"">Please recall the letters you saw to the best of your ability. If you do not remember a particular letter, use the SKIP button.<br><b>(When you are ready to lock in your answer, press ENTER)</b></p><button id = button_1 class = ""square num-button"" onclick = ""recordClick(this)""><div class = content><div class = numbers>C</div></div></button><button id = button_2 class = ""square num-button"" onclick = ""recordClick(this)""><div class = content><div class = numbers>G</div></div></button><button id = button_3 class = ""square num-button"" onclick = ""recordClick(this)""><div class = content><div class = numbers>H</div></div></button><button id = button_4 class = ""square num-button"" onclick = ""recordClick(this)""><div class = content><div class = numbers>J</div></div></button><button id = button_5 class = ""square num-button"" onclick = ""recordClick(this)""><div class = content><div class = numbers>K</div></div></button><button id = button_6 class = ""square num-button"" onclick = ""recordClick(this)""><div class = content><div class = numbers>L</div></div></button><button id = button_7 class = ""square num-button"" onclick = ""recordClick(this)""><div class = content><div class = numbers>N</div></div></button><button id = button_8 class = ""square num-button"" onclick = ""recordClick(this)""><div class = content><div class = numbers>P</div></div></button><button id = button_9 class = ""square num-button"" onclick = ""recordClick(this)""><div class = content><div class = numbers>Q</div></div></button><button id = button_10 class = ""square num-button"" onclick = ""recordClick(this)""><div class = content><div class = numbers>R</div></div></button><button id = button_11 class = ""square num-button"" onclick = ""recordClick(this)""><div class = content><div class = numbers>S</div></div></button><button id = button_12 class = ""square num-button"" onclick = ""recordClick(this)""><div class = content><div class = numbers>Y</div></div></button><button class = clear_button id = ""ClearButton"" onclick = ""clearResponse()"">BACKSPACE</button><button class = blank_button id = ""BlankButton"" onclick = ""blankResponse()"">SKIP</button><p style=""font-size: 2.4rem""><u><b>Current Answer:</b></u></p><br><br><div id=echoed_txt style=""font-size: 5rem; color:blue;""><b></b></div></div>",enter,ospan,retrieval,iQyP0sRE7hVkkV98y7jVZivUM903,html-keyboard-response,156,994315,0.0-46.0-5.0-0.0-2.0,21,19,16,6.0,"[""R"",""L"",""N"",""H"",""G"",""K""]","[""R"",""L"",""N"",""H"",""G"",""K""]",1.0,6.0,,,,,,,60ce59806a88034d7e9456da,19:25:54,03/04/2024
620.7000000011176,[''],0,ospan,feedback,iQyP0sRE7hVkkV98y7jVZivUM903,html-button-response,157,995450,0.0-46.0-5.0-0.0-3.0,,,,,,,,,,,,100.0,0.0,,60ce59806a88034d7e9456da,19:25:54,03/04/2024
,"<p style=""font-size:75px;"">...</p>",,ospan,iti,iQyP0sRE7hVkkV98y7jVZivUM903,html-keyboard-response,158,996455,0.0-46.0-5.0-1.0-0.0,,,,,,,,,,,,,,,60ce59806a88034d7e9456da,19:25:54,03/04/2024
1029.0,,,ospan,symmetry,iQyP0sRE7hVkkV98y7jVZivUM903,symmetry-judgement-task,159,998509,0.0-46.0-5.0-1.0-1.0-0.0,,,,,,,,,,1.0,1.0,,,,60ce59806a88034d7e9456da,19:25:54,03/04/2024
,"<div style=""font-size: 10rem; color: #0000FF"">S</div>",,ospan,letter,iQyP0sRE7hVkkV98y7jVZivUM903,html-keyboard-response,160,999513,0.0-46.0-5.0-1.0-1.0-1.0,,,,,,,,,,,,,,,60ce59806a88034d7e9456da,19:25:54,03/04/2024
764.0,,,ospan,symmetry,iQyP0sRE7hVkkV98y7jVZivUM903,symmetry-judgement-task,161,1002140,0.0-46.0-5.0-1.0-1.0-2.0,,,,,,,,,,1.0,1.0,,,,60ce59806a88034d7e9456da,19:25:54,03/04/2024
,"<div style=""font-size: 10rem; color: #0000FF"">N</div>",,ospan,letter,iQyP0sRE7hVkkV98y7jVZivUM903,html-keyboard-response,162,1003143,0.0-46.0-5.0-1.0-1.0-3.0,,,,,,,,,,,,,,,60ce59806a88034d7e9456da,19:25:54,03/04/2024
837.0,,,ospan,symmetry,iQyP0sRE7hVkkV98y7jVZivUM903,symmetry-judgement-task,163,1005848,0.0-46.0-5.0-1.0-1.0-4.0,,,,,,,,,,1.0,1.0,,,,60ce59806a88034d7e9456da,19:25:54,03/04/2024
,"<div style=""font-size: 10rem; color: #0000FF"">H</div>",,ospan,letter,iQyP0sRE7hVkkV98y7jVZivUM903,html-keyboard-response,164,1006852,0.0-46.0-5.0-1.0-1.0-5.0,,,,,,,,,,,,,,,60ce59806a88034d7e9456da,19:25:54,03/04/2024
1378.0,,,ospan,symmetry,iQyP0sRE7hVkkV98y7jVZivUM903,symmetry-judgement-task,165,1010004,0.0-46.0-5.0-1.0-1.0-6.0,,,,,,,,,,0.0,0.0,,,,60ce59806a88034d7e9456da,19:25:54,03/04/2024
,"<div style=""font-size: 10rem; color: #0000FF"">G</div>",,ospan,letter,iQyP0sRE7hVkkV98y7jVZivUM903,html-keyboard-response,166,1011005,0.0-46.0-5.0-1.0-1.0-7.0,,,,,,,,,,,,,,,60ce59806a88034d7e9456da,19:25:54,03/04/2024
820.0,,,ospan,symmetry,iQyP0sRE7hVkkV98y7jVZivUM903,symmetry-judgement-task,167,1013695,0.0-46.0-5.0-1.0-1.0-8.0,,,,,,,,,,1.0,1.0,,,,60ce59806a88034d7e9456da,19:25:54,03/04/2024
,"<div style=""font-size: 10rem; color: #0000FF"">Y</div>",,ospan,letter,iQyP0sRE7hVkkV98y7jVZivUM903,html-keyboard-response,168,1014699,0.0-46.0-5.0-1.0-1.0-9.0,,,,,,,,,,,,,,,60ce59806a88034d7e9456da,19:25:54,03/04/2024
1276.0,,,ospan,symmetry,iQyP0sRE7hVkkV98y7jVZivUM903,symmetry-judgement-task,169,1017840,0.0-46.0-5.0-1.0-1.0-10.0,,,,,,,,,,1.0,1.0,,,,60ce59806a88034d7e9456da,19:25:54,03/04/2024
,"<div style=""font-size: 10rem; color: #0000FF"">Q</div>",,ospan,letter,iQyP0sRE7hVkkV98y7jVZivUM903,html-keyboard-response,170,1018853,0.0-46.0-5.0-1.0-1.0-11.0,,,,,,,,,,,,,,,60ce59806a88034d7e9456da,19:25:54,03/04/2024
1157.0,,,ospan,symmetry,iQyP0sRE7hVkkV98y7jVZivUM903,symmetry-judgement-task,171,1021883,0.0-46.0-5.0-1.0-1.0-12.0,,,,,,,,,,1.0,1.0,,,,60ce59806a88034d7e9456da,19:25:54,03/04/2024
,"<div style=""font-size: 10rem; color: #0000FF"">P</div>",,ospan,letter,iQyP0sRE7hVkkV98y7jVZivUM903,html-keyboard-response,172,1022898,0.0-46.0-5.0-1.0-1.0-13.0,,,,,,,,,,,,,,,60ce59806a88034d7e9456da,19:25:54,03/04/2024
7003.699999999255,"<div class = numbox><p style=""font-size: 2.4rem"">Please recall the letters you saw to the best of your ability. If you do not remember a particular letter, use the SKIP button.<br><b>(When you are ready to lock in your answer, press ENTER)</b></p><button id = button_1 class = ""square num-button"" onclick = ""recordClick(this)""><div class = content><div class = numbers>C</div></div></button><button id = button_2 class = ""square num-button"" onclick = ""recordClick(this)""><div class = content><div class = numbers>G</div></div></button><button id = button_3 class = ""square num-button"" onclick = ""recordClick(this)""><div class = content><div class = numbers>H</div></div></button><button id = button_4 class = ""square num-button"" onclick = ""recordClick(this)""><div class = content><div class = numbers>J</div></div></button><button id = button_5 class = ""square num-button"" onclick = ""recordClick(this)""><div class = content><div class = numbers>K</div></div></button><button id = button_6 class = ""square num-button"" onclick = ""recordClick(this)""><div class = content><div class = numbers>L</div></div></button><button id = button_7 class = ""square num-button"" onclick = ""recordClick(this)""><div class = content><div class = numbers>N</div></div></button><button id = button_8 class = ""square num-button"" onclick = ""recordClick(this)""><div class = content><div class = numbers>P</div></div></button><button id = button_9 class = ""square num-button"" onclick = ""recordClick(this)""><div class = content><div class = numbers>Q</div></div></button><button id = button_10 class = ""square num-button"" onclick = ""recordClick(this)""><div class = content><div class = numbers>R</div></div></button><button id = button_11 class = ""square num-button"" onclick = ""recordClick(this)""><div class = content><div class = numbers>S</div></div></button><button id = button_12 class = ""square num-button"" onclick = ""recordClick(this)""><div class = content><div class = numbers>Y</div></div></button><button class = clear_button id = ""ClearButton"" onclick = ""clearResponse()"">BACKSPACE</button><button class = blank_button id = ""BlankButton"" onclick = ""blankResponse()"">SKIP</button><p style=""font-size: 2.4rem""><u><b>Current Answer:</b></u></p><br><br><div id=echoed_txt style=""font-size: 5rem; color:blue;""><b></b></div></div>",enter,ospan,retrieval,iQyP0sRE7hVkkV98y7jVZivUM903,html-keyboard-response,173,1030663,0.0-46.0-5.0-1.0-2.0,28,22,16,7.0,"[""S"",""N"",""G"",""Q"",""Y"",""P""]","[""S"",""N"",""H"",""G"",""Y"",""Q"",""P""]",0.0,3.0,,,,,,,60ce59806a88034d7e9456da,19:25:54,03/04/2024
611.5,[''],0,ospan,feedback,iQyP0sRE7hVkkV98y7jVZivUM903,html-button-response,174,1031785,0.0-46.0-5.0-1.0-3.0,,,,,,,,,,,,96.0,0.0,,60ce59806a88034d7e9456da,19:25:54,03/04/2024
,"<p style=""font-size:75px;"">...</p>",,ospan,iti,iQyP0sRE7hVkkV98y7jVZivUM903,html-keyboard-response,175,1032793,0.0-46.0-6.0-0.0-0.0,,,,,,,,,,,,,,,60ce59806a88034d7e9456da,19:25:54,03/04/2024
1984.0,,,ospan,symmetry,iQyP0sRE7hVkkV98y7jVZivUM903,symmetry-judgement-task,176,1035809,0.0-46.0-6.0-0.0-1.0-0.0,,,,,,,,,,1.0,1.0,,,,60ce59806a88034d7e9456da,19:25:54,03/04/2024
,"<div style=""font-size: 10rem; color: #0000FF"">J</div>",,ospan,letter,iQyP0sRE7hVkkV98y7jVZivUM903,html-keyboard-response,177,1036810,0.0-46.0-6.0-0.0-1.0-1.0,,,,,,,,,,,,,,,60ce59806a88034d7e9456da,19:25:54,03/04/2024
784.0,,,ospan,symmetry,iQyP0sRE7hVkkV98y7jVZivUM903,symmetry-judgement-task,178,1039453,0.0-46.0-6.0-0.0-1.0-2.0,,,,,,,,,,1.0,1.0,,,,60ce59806a88034d7e9456da,19:25:54,03/04/2024
,"<div style=""font-size: 10rem; color: #0000FF"">N</div>",,ospan,letter,iQyP0sRE7hVkkV98y7jVZivUM903,html-keyboard-response,179,1040462,0.0-46.0-6.0-0.0-1.0-3.0,,,,,,,,,,,,,,,60ce59806a88034d7e9456da,19:25:54,03/04/2024
837.0,,,ospan,symmetry,iQyP0sRE7hVkkV98y7jVZivUM903,symmetry-judgement-task,180,1043169,0.0-46.0-6.0-0.0-1.0-4.0,,,,,,,,,,1.0,1.0,,,,60ce59806a88034d7e9456da,19:25:54,03/04/2024
,"<div style=""font-size: 10rem; color: #0000FF"">P</div>",,ospan,letter,iQyP0sRE7hVkkV98y7jVZivUM903,html-keyboard-response,181,1044172,0.0-46.0-6.0-0.0-1.0-5.0,,,,,,,,,,,,,,,60ce59806a88034d7e9456da,19:25:54,03/04/2024
976.0,,,ospan,symmetry,iQyP0sRE7hVkkV98y7jVZivUM903,symmetry-judgement-task,182,1046943,0.0-46.0-6.0-0.0-1.0-6.0,,,,,,,,,,1.0,1.0,,,,60ce59806a88034d7e9456da,19:25:54,03/04/2024
,"<div style=""font-size: 10rem; color: #0000FF"">G</div>",,ospan,letter,iQyP0sRE7hVkkV98y7jVZivUM903,html-keyboard-response,183,1047946,0.0-46.0-6.0-0.0-1.0-7.0,,,,,,,,,,,,,,,60ce59806a88034d7e9456da,19:25:54,03/04/2024
1011.0,,,ospan,symmetry,iQyP0sRE7hVkkV98y7jVZivUM903,symmetry-judgement-task,184,1050819,0.0-46.0-6.0-0.0-1.0-8.0,,,,,,,,,,1.0,1.0,,,,60ce59806a88034d7e9456da,19:25:54,03/04/2024
,"<div style=""font-size: 10rem; color: #0000FF"">Q</div>",,ospan,letter,iQyP0sRE7hVkkV98y7jVZivUM903,html-keyboard-response,185,1051828,0.0-46.0-6.0-0.0-1.0-9.0,,,,,,,,,,,,,,,60ce59806a88034d7e9456da,19:25:54,03/04/2024
6470.9000000003725,"<div class = numbox><p style=""font-size: 2.4rem"">Please recall the letters you saw to the best of your ability. If you do not remember a particular letter, use the SKIP button.<br><b>(When you are ready to lock in your answer, press ENTER)</b></p><button id = button_1 class = ""square num-button"" onclick = ""recordClick(this)""><div class = content><div class = numbers>C</div></div></button><button id = button_2 class = ""square num-button"" onclick = ""recordClick(this)""><div class = content><div class = numbers>G</div></div></button><button id = button_3 class = ""square num-button"" onclick = ""recordClick(this)""><div class = content><div class = numbers>H</div></div></button><button id = button_4 class = ""square num-button"" onclick = ""recordClick(this)""><div class = content><div class = numbers>J</div></div></button><button id = button_5 class = ""square num-button"" onclick = ""recordClick(this)""><div class = content><div class = numbers>K</div></div></button><button id = button_6 class = ""square num-button"" onclick = ""recordClick(this)""><div class = content><div class = numbers>L</div></div></button><button id = button_7 class = ""square num-button"" onclick = ""recordClick(this)""><div class = content><div class = numbers>N</div></div></button><button id = button_8 class = ""square num-button"" onclick = ""recordClick(this)""><div class = content><div class = numbers>P</div></div></button><button id = button_9 class = ""square num-button"" onclick = ""recordClick(this)""><div class = content><div class = numbers>Q</div></div></button><button id = button_10 class = ""square num-button"" onclick = ""recordClick(this)""><div class = content><div class = numbers>R</div></div></button><button id = button_11 class = ""square num-button"" onclick = ""recordClick(this)""><div class = content><div class = numbers>S</div></div></button><button id = button_12 class = ""square num-button"" onclick = ""recordClick(this)""><div class = content><div class = numbers>Y</div></div></button><button class = clear_button id = ""ClearButton"" onclick = ""clearResponse()"">BACKSPACE</button><button class = blank_button id = ""BlankButton"" onclick = ""blankResponse()"">SKIP</button><p style=""font-size: 2.4rem""><u><b>Current Answer:</b></u></p><br><br><div id=echoed_txt style=""font-size: 5rem; color:blue;""><b></b></div></div>",enter,ospan,retrieval,iQyP0sRE7hVkkV98y7jVZivUM903,html-keyboard-response,186,1059063,0.0-46.0-6.0-0.0-2.0,33,25,16,5.0,"[""J"",""N"",""G"",""P"",""Q""]","[""J"",""N"",""P"",""G"",""Q""]",0.0,3.0,,,,,,,60ce59806a88034d7e9456da,19:25:54,03/04/2024
1396.5999999996275,[''],0,ospan,feedback,iQyP0sRE7hVkkV98y7jVZivUM903,html-button-response,187,1060962,0.0-46.0-6.0-0.0-3.0,,,,,,,,,,,,97.0,0.0,,60ce59806a88034d7e9456da,19:25:54,03/04/2024
,"<p style=""font-size:75px;"">...</p>",,ospan,iti,iQyP0sRE7hVkkV98y7jVZivUM903,html-keyboard-response,188,1061969,0.0-46.0-6.0-1.0-0.0,,,,,,,,,,,,,,,60ce59806a88034d7e9456da,19:25:54,03/04/2024
1065.0,,,ospan,symmetry,iQyP0sRE7hVkkV98y7jVZivUM903,symmetry-judgement-task,189,1064056,0.0-46.0-6.0-1.0-1.0-0.0,,,,,,,,,,1.0,1.0,,,,60ce59806a88034d7e9456da,19:25:54,03/04/2024
,"<div style=""font-size: 10rem; color: #0000FF"">G</div>",,ospan,letter,iQyP0sRE7hVkkV98y7jVZivUM903,html-keyboard-response,190,1065058,0.0-46.0-6.0-1.0-1.0-1.0,,,,,,,,,,,,,,,60ce59806a88034d7e9456da,19:25:54,03/04/2024
941.0,,,ospan,symmetry,iQyP0sRE7hVkkV98y7jVZivUM903,symmetry-judgement-task,191,1067860,0.0-46.0-6.0-1.0-1.0-2.0,,,,,,,,,,1.0,1.0,,,,60ce59806a88034d7e9456da,19:25:54,03/04/2024
,"<div style=""font-size: 10rem; color: #0000FF"">C</div>",,ospan,letter,iQyP0sRE7hVkkV98y7jVZivUM903,html-keyboard-response,192,1068862,0.0-46.0-6.0-1.0-1.0-3.0,,,,,,,,,,,,,,,60ce59806a88034d7e9456da,19:25:54,03/04/2024
945.0,,,ospan,symmetry,iQyP0sRE7hVkkV98y7jVZivUM903,symmetry-judgement-task,193,1071601,0.0-46.0-6.0-1.0-1.0-4.0,,,,,,,,,,1.0,1.0,,,,60ce59806a88034d7e9456da,19:25:54,03/04/2024
,"<div style=""font-size: 10rem; color: #0000FF"">P</div>",,ospan,letter,iQyP0sRE7hVkkV98y7jVZivUM903,html-keyboard-response,194,1072604,0.0-46.0-6.0-1.0-1.0-5.0,,,,,,,,,,,,,,,60ce59806a88034d7e9456da,19:25:54,03/04/2024
754.0,,,ospan,symmetry,iQyP0sRE7hVkkV98y7jVZivUM903,symmetry-judgement-task,195,1075231,0.0-46.0-6.0-1.0-1.0-6.0,,,,,,,,,,1.0,1.0,,,,60ce59806a88034d7e9456da,19:25:54,03/04/2024
,"<div style=""font-size: 10rem; color: #0000FF"">H</div>",,ospan,letter,iQyP0sRE7hVkkV98y7jVZivUM903,html-keyboard-response,196,1076235,0.0-46.0-6.0-1.0-1.0-7.0,,,,,,,,,,,,,,,60ce59806a88034d7e9456da,19:25:54,03/04/2024
1934.0,,,ospan,symmetry,iQyP0sRE7hVkkV98y7jVZivUM903,symmetry-judgement-task,197,1080042,0.0-46.0-6.0-1.0-1.0-8.0,,,,,,,,,,1.0,1.0,,,,60ce59806a88034d7e9456da,19:25:54,03/04/2024
,"<div style=""font-size: 10rem; color: #0000FF"">N</div>",,ospan,letter,iQyP0sRE7hVkkV98y7jVZivUM903,html-keyboard-response,198,1081045,0.0-46.0-6.0-1.0-1.0-9.0,,,,,,,,,,,,,,,60ce59806a88034d7e9456da,19:25:54,03/04/2024
905.0,,,ospan,symmetry,iQyP0sRE7hVkkV98y7jVZivUM903,symmetry-judgement-task,199,1083827,0.0-46.0-6.0-1.0-1.0-10.0,,,,,,,,,,1.0,1.0,,,,60ce59806a88034d7e9456da,19:25:54,03/04/2024
,"<div style=""font-size: 10rem; color: #0000FF"">Y</div>",,ospan,letter,iQyP0sRE7hVkkV98y7jVZivUM903,html-keyboard-response,200,1084842,0.0-46.0-6.0-1.0-1.0-11.0,,,,,,,,,,,,,,,60ce59806a88034d7e9456da,19:25:54,03/04/2024
1132.0,,,ospan,symmetry,iQyP0sRE7hVkkV98y7jVZivUM903,symmetry-judgement-task,201,1087852,0.0-46.0-6.0-1.0-1.0-12.0,,,,,,,,,,1.0,1.0,,,,60ce59806a88034d7e9456da,19:25:54,03/04/2024
,"<div style=""font-size: 10rem; color: #0000FF"">K</div>",,ospan,letter,iQyP0sRE7hVkkV98y7jVZivUM903,html-keyboard-response,202,1088867,0.0-46.0-6.0-1.0-1.0-13.0,,,,,,,,,,,,,,,60ce59806a88034d7e9456da,19:25:54,03/04/2024
3353.0,,,ospan,symmetry,iQyP0sRE7hVkkV98y7jVZivUM903,symmetry-judgement-task,203,1094097,0.0-46.0-6.0-1.0-1.0-14.0,,,,,,,,,,1.0,1.0,,,,60ce59806a88034d7e9456da,19:25:54,03/04/2024
,"<div style=""font-size: 10rem; color: #0000FF"">R</div>",,ospan,letter,iQyP0sRE7hVkkV98y7jVZivUM903,html-keyboard-response,204,1095100,0.0-46.0-6.0-1.0-1.0-15.0,,,,,,,,,,,,,,,60ce59806a88034d7e9456da,19:25:54,03/04/2024
21460.099999999627,"<div class = numbox><p style=""font-size: 2.4rem"">Please recall the letters you saw to the best of your ability. If you do not remember a particular letter, use the SKIP button.<br><b>(When you are ready to lock in your answer, press ENTER)</b></p><button id = button_1 class = ""square num-button"" onclick = ""recordClick(this)""><div class = content><div class = numbers>C</div></div></button><button id = button_2 class = ""square num-button"" onclick = ""recordClick(this)""><div class = content><div class = numbers>G</div></div></button><button id = button_3 class = ""square num-button"" onclick = ""recordClick(this)""><div class = content><div class = numbers>H</div></div></button><button id = button_4 class = ""square num-button"" onclick = ""recordClick(this)""><div class = content><div class = numbers>J</div></div></button><button id = button_5 class = ""square num-button"" onclick = ""recordClick(this)""><div class = content><div class = numbers>K</div></div></button><button id = button_6 class = ""square num-button"" onclick = ""recordClick(this)""><div class = content><div class = numbers>L</div></div></button><button id = button_7 class = ""square num-button"" onclick = ""recordClick(this)""><div class = content><div class = numbers>N</div></div></button><button id = button_8 class = ""square num-button"" onclick = ""recordClick(this)""><div class = content><div class = numbers>P</div></div></button><button id = button_9 class = ""square num-button"" onclick = ""recordClick(this)""><div class = content><div class = numbers>Q</div></div></button><button id = button_10 class = ""square num-button"" onclick = ""recordClick(this)""><div class = content><div class = numbers>R</div></div></button><button id = button_11 class = ""square num-button"" onclick = ""recordClick(this)""><div class = content><div class = numbers>S</div></div></button><button id = button_12 class = ""square num-button"" onclick = ""recordClick(this)""><div class = content><div class = numbers>Y</div></div></button><button class = clear_button id = ""ClearButton"" onclick = ""clearResponse()"">BACKSPACE</button><button class = blank_button id = ""BlankButton"" onclick = ""blankResponse()"">SKIP</button><p style=""font-size: 2.4rem""><u><b>Current Answer:</b></u></p><br><br><div id=echoed_txt style=""font-size: 5rem; color:blue;""><b></b></div></div>",enter,ospan,retrieval,iQyP0sRE7hVkkV98y7jVZivUM903,html-keyboard-response,205,1117325,0.0-46.0-6.0-1.0-2.0,41,28,16,8.0,"[""G"",""C"",""Q"",""H"",""Y"",""K"",""P""]","[""G"",""C"",""P"",""H"",""N"",""Y"",""K"",""R""]",0.0,3.0,,,,,,,60ce59806a88034d7e9456da,19:25:54,03/04/2024
730.5999999996275,[''],0,ospan,feedback,iQyP0sRE7hVkkV98y7jVZivUM903,html-button-response,206,1118557,0.0-46.0-6.0-1.0-3.0,,,,,,,,,,,,98.0,0.0,,60ce59806a88034d7e9456da,19:25:54,03/04/2024
9138.0,,{'Q0': 'None that i can tell'},ospan,survey_ospan,iQyP0sRE7hVkkV98y7jVZivUM903,lmdlab-survey-text,207,1128450,0.0-46.0-7.0,,,,,,,,,,,,,,iQyP0sRE7hVkkV98y7jVZivUM903,60ce59806a88034d7e9456da,19:25:54,03/04/2024
1439.4000000003725,<p><p style='font-size: 3rem'>Great work!<br><br>This completes the symmetry and memory task.</p><br><br><br>,0,ospan,finish,iQyP0sRE7hVkkV98y7jVZivUM903,html-button-response,208,1129890,0.0-46.0-8.0,41,28,16,,,,,,,,,98.0,,,60ce59806a88034d7e9456da,19:25:54,03/04/2024
