rt,stimulus,response,exp_name,exp_stage,subjectID,trial_type,trial_index,time_elapsed,internal_node_id,ospan_shown,ospan_total,ospan_abs,length,resp_actual,resp_correct,full_correct,num_correct,feedback,accuracy,correct,math_acc,math_warning,databaseID,prolificID,start_time,date
2199.0,<div class = 'left_align' style='font-size: 3.25rem; line-height: 1.3;'><p class = 'center_align'><b>Welcome to the Symmetry and Memory Task</b><br><br><br><br></p>Press 'continue' to show the instructions.<br><br><br><br></div>,0,ospan,instruct,4PQ4e6N2E0R1CUhbSj9mY9bEtz82,html-button-response,54,379958,0.0-46.0-0.0-0.0-0.0,,,,,,,,,,,,,,,5e9f897c20320b000b1cc4cb,13:37:01,03/04/2024
5700.100000023842,"<div class = 'left_align' style='font-size: 3.25rem; line-height: 1.3;'><p class = 'center_align'><b>Symmetry and Memory Task</b><br><br></p>In this task, you will try to memorize letters you see on the screen<br>while you also view black and white grid pictures.<br><br>In the next few minutes, you will have some practice to get you familiar<br>with how the task works.<br><br>It may be difficult sometimes, but please do not worry about making mistakes!<br><br>We will begin by practicing the letter part of the task.<br><br><br><br></div>",0,ospan,instruct,4PQ4e6N2E0R1CUhbSj9mY9bEtz82,html-button-response,55,385920,0.0-46.0-0.0-0.0-1.0,,,,,,,,,,,,,,,5e9f897c20320b000b1cc4cb,13:37:01,03/04/2024
7984.399999976158,"<div class = 'left_align' style='font-size: 3.25rem; line-height: 1.3;'>For this practice part, letters will appear on the screen one at a time.<br><br>Try to remember each letter in the order presented.<br><br>After some letters have been shown, you will see a response screen. Your<br>goal is to report the letters you saw <b>in order</b>. If you do not remember<br>a particular letter, you will have the option to leave it blank.<br><br><br><br></div>",0,ospan,instruct,4PQ4e6N2E0R1CUhbSj9mY9bEtz82,html-button-response,56,394163,0.0-46.0-0.0-0.0-2.0,,,,,,,,,,,,,,,5e9f897c20320b000b1cc4cb,13:37:01,03/04/2024
2204.2999999523163,"<div class = 'left_align' style='font-size: 3.25rem; line-height: 1.3;'>Remember, it is very important to get the letters in the same<br>order as you see them.<br><br>When you are ready, you may begin the letter practice.</div><br><br><br><br>",0,ospan,instruct,4PQ4e6N2E0R1CUhbSj9mY9bEtz82,html-button-response,57,396625,0.0-46.0-0.0-0.0-3.0,,,,,,,,,,,,,,,5e9f897c20320b000b1cc4cb,13:37:01,03/04/2024
,"<p style=""font-size:75px;"">...</p>",,ospan,iti,4PQ4e6N2E0R1CUhbSj9mY9bEtz82,html-keyboard-response,58,397892,0.0-46.0-0.0-1.0-0.0,,,,,,,,,,,,,,,5e9f897c20320b000b1cc4cb,13:37:01,03/04/2024
,"<div style=""font-size: 10rem; color: #0000FF"">C</div>",,ospan,letter,4PQ4e6N2E0R1CUhbSj9mY9bEtz82,html-keyboard-response,59,398909,0.0-46.0-0.0-1.0-1.0,,,,,,,,,,,,,,,5e9f897c20320b000b1cc4cb,13:37:01,03/04/2024
,"<div style=""font-size: 10rem; color: #0000FF"">N</div>",,ospan,letter,4PQ4e6N2E0R1CUhbSj9mY9bEtz82,html-keyboard-response,60,400686,0.0-46.0-0.0-1.0-2.0,,,,,,,,,,,,,,,5e9f897c20320b000b1cc4cb,13:37:01,03/04/2024
4397.299999952316,"<div class = numbox><p style=""font-size: 2.4rem"">Please recall the letters you saw to the best of your ability. If you do not remember a particular letter, use the SKIP button.<br><b>(When you are ready to lock in your answer, press ENTER)</b></p><button id = button_1 class = ""square num-button"" onclick = ""recordClick(this)""><div class = content><div class = numbers>C</div></div></button><button id = button_2 class = ""square num-button"" onclick = ""recordClick(this)""><div class = content><div class = numbers>G</div></div></button><button id = button_3 class = ""square num-button"" onclick = ""recordClick(this)""><div class = content><div class = numbers>H</div></div></button><button id = button_4 class = ""square num-button"" onclick = ""recordClick(this)""><div class = content><div class = numbers>J</div></div></button><button id = button_5 class = ""square num-button"" onclick = ""recordClick(this)""><div class = content><div class = numbers>K</div></div></button><button id = button_6 class = ""square num-button"" onclick = ""recordClick(this)""><div class = content><div class = numbers>L</div></div></button><button id = button_7 class = ""square num-button"" onclick = ""recordClick(this)""><div class = content><div class = numbers>N</div></div></button><button id = button_8 class = ""square num-button"" onclick = ""recordClick(this)""><div class = content><div class = numbers>P</div></div></button><button id = button_9 class = ""square num-button"" onclick = ""recordClick(this)""><div class = content><div class = numbers>Q</div></div></button><button id = button_10 class = ""square num-button"" onclick = ""recordClick(this)""><div class = content><div class = numbers>R</div></div></button><button id = button_11 class = ""square num-button"" onclick = ""recordClick(this)""><div class = content><div class = numbers>S</div></div></button><button id = button_12 class = ""square num-button"" onclick = ""recordClick(this)""><div class = content><div class = numbers>Y</div></div></button><button class = clear_button id = ""ClearButton"" onclick = ""clearResponse()"">BACKSPACE</button><button class = blank_button id = ""BlankButton"" onclick = ""blankResponse()"">SKIP</button><p style=""font-size: 2.4rem""><u><b>Current Answer:</b></u></p><br><br><div id=echoed_txt style=""font-size: 5rem; color:blue;""><b></b></div></div>",enter,ospan,retrieval,4PQ4e6N2E0R1CUhbSj9mY9bEtz82,html-keyboard-response,61,405836,0.0-46.0-0.0-1.0-3.0,NA,NA,NA,2.0,"[""C"",""N""]","[""C"",""N""]",1.0,2.0,"['<font color=""green"">C</font>', '<font color=""green"">N</font>']",,,,,,5e9f897c20320b000b1cc4cb,13:37:01,03/04/2024
1669.4000000953674,"['<p style=""font-size:44px"">Letters:<br><br><br><font color=""green"">C</font> <font color=""green"">N</font></p><br><br>']",0,ospan,practice_feedback,4PQ4e6N2E0R1CUhbSj9mY9bEtz82,html-button-response,62,408022,0.0-46.0-0.0-1.0-4.0,,,,,,,,,,,,,,,5e9f897c20320b000b1cc4cb,13:37:01,03/04/2024
,"<p style=""font-size:75px;"">...</p>",,ospan,iti,4PQ4e6N2E0R1CUhbSj9mY9bEtz82,html-keyboard-response,63,409027,0.0-46.0-0.0-2.0-0.0,,,,,,,,,,,,,,,5e9f897c20320b000b1cc4cb,13:37:01,03/04/2024
,"<div style=""font-size: 10rem; color: #0000FF"">N</div>",,ospan,letter,4PQ4e6N2E0R1CUhbSj9mY9bEtz82,html-keyboard-response,64,410030,0.0-46.0-0.0-2.0-1.0,,,,,,,,,,,,,,,5e9f897c20320b000b1cc4cb,13:37:01,03/04/2024
,"<div style=""font-size: 10rem; color: #0000FF"">Q</div>",,ospan,letter,4PQ4e6N2E0R1CUhbSj9mY9bEtz82,html-keyboard-response,65,411793,0.0-46.0-0.0-2.0-2.0,,,,,,,,,,,,,,,5e9f897c20320b000b1cc4cb,13:37:01,03/04/2024
,"<div style=""font-size: 10rem; color: #0000FF"">L</div>",,ospan,letter,4PQ4e6N2E0R1CUhbSj9mY9bEtz82,html-keyboard-response,66,413565,0.0-46.0-0.0-2.0-3.0,,,,,,,,,,,,,,,5e9f897c20320b000b1cc4cb,13:37:01,03/04/2024
3758.4000000953674,"<div class = numbox><p style=""font-size: 2.4rem"">Please recall the letters you saw to the best of your ability. If you do not remember a particular letter, use the SKIP button.<br><b>(When you are ready to lock in your answer, press ENTER)</b></p><button id = button_1 class = ""square num-button"" onclick = ""recordClick(this)""><div class = content><div class = numbers>C</div></div></button><button id = button_2 class = ""square num-button"" onclick = ""recordClick(this)""><div class = content><div class = numbers>G</div></div></button><button id = button_3 class = ""square num-button"" onclick = ""recordClick(this)""><div class = content><div class = numbers>H</div></div></button><button id = button_4 class = ""square num-button"" onclick = ""recordClick(this)""><div class = content><div class = numbers>J</div></div></button><button id = button_5 class = ""square num-button"" onclick = ""recordClick(this)""><div class = content><div class = numbers>K</div></div></button><button id = button_6 class = ""square num-button"" onclick = ""recordClick(this)""><div class = content><div class = numbers>L</div></div></button><button id = button_7 class = ""square num-button"" onclick = ""recordClick(this)""><div class = content><div class = numbers>N</div></div></button><button id = button_8 class = ""square num-button"" onclick = ""recordClick(this)""><div class = content><div class = numbers>P</div></div></button><button id = button_9 class = ""square num-button"" onclick = ""recordClick(this)""><div class = content><div class = numbers>Q</div></div></button><button id = button_10 class = ""square num-button"" onclick = ""recordClick(this)""><div class = content><div class = numbers>R</div></div></button><button id = button_11 class = ""square num-button"" onclick = ""recordClick(this)""><div class = content><div class = numbers>S</div></div></button><button id = button_12 class = ""square num-button"" onclick = ""recordClick(this)""><div class = content><div class = numbers>Y</div></div></button><button class = clear_button id = ""ClearButton"" onclick = ""clearResponse()"">BACKSPACE</button><button class = blank_button id = ""BlankButton"" onclick = ""blankResponse()"">SKIP</button><p style=""font-size: 2.4rem""><u><b>Current Answer:</b></u></p><br><br><div id=echoed_txt style=""font-size: 5rem; color:blue;""><b></b></div></div>",enter,ospan,retrieval,4PQ4e6N2E0R1CUhbSj9mY9bEtz82,html-keyboard-response,67,418087,0.0-46.0-0.0-2.0-4.0,NA,NA,NA,3.0,"[""N"",""Q"",""L""]","[""N"",""Q"",""L""]",1.0,3.0,"['<font color=""green"">N</font>', '<font color=""green"">Q</font>', '<font color=""green"">L</font>']",,,,,,5e9f897c20320b000b1cc4cb,13:37:01,03/04/2024
1633.2000000476837,"['<p style=""font-size:44px"">Letters:<br><br><br><font color=""green"">N</font> <font color=""green"">Q</font> <font color=""green"">L</font></p><br><br>']",0,ospan,practice_feedback,4PQ4e6N2E0R1CUhbSj9mY9bEtz82,html-button-response,68,420231,0.0-46.0-0.0-2.0-5.0,,,,,,,,,,,,,,,5e9f897c20320b000b1cc4cb,13:37:01,03/04/2024
8698.799999952316,"<div class = 'left_align' style='font-size: 3.25rem; line-height: 1.3;'>Now you will practice doing the <b>symmetry judgment part</b> of the experiment.<br><br>A black and white grid picture will appear on the screen and you have to judge if it is <br>symmetrical or asymetrical.<br><br>A picture is 'mirror' symmetrical if its left half is identical to the right half when flipped.<br>Here are examples of a symmetrical and an asymetrical picture:<br><br><center><img src='Stimuli/img/symm_instructions_extra.png' style='height:420px; width:900'></img></center><br>To judge symmetry, imagine you were to fold each picture down the middle, like a book –<br>would the left half match the right half when folded onto each other?<br><br></div><br>",0,ospan,instruct,4PQ4e6N2E0R1CUhbSj9mY9bEtz82,html-button-response,69,428944,0.0-46.0-1.0-0.0-0.0,,,,,,,,,,,,,,,5e9f897c20320b000b1cc4cb,13:37:01,03/04/2024
2098.4000000953674,"<div class = 'left_align' style='font-size: 3.25rem; line-height: 1.3;'>When you have viewed the picture and determined whether it is symmetrical or not,<br>you can <b>click the Yes or No button</b> below to answer.<br><br>If you take longer than 15 seconds, it will continue automatically<br>and record the answer as an error.</div><br>",0,ospan,instruct,4PQ4e6N2E0R1CUhbSj9mY9bEtz82,html-button-response,70,431294,0.0-46.0-1.0-0.0-1.0,,,,,,,,,,,,,,,5e9f897c20320b000b1cc4cb,13:37:01,03/04/2024
2110.2999999523163,"<div class = 'left_align' style='font-size: 3.25rem; line-height: 1.3;'>It is <b>very</b> important that you make the symmetry judgment correctly.<br><br>It is also important that you try and judge the picture as quickly as you can.<br><br>When you are ready, click on the button below to try some practice problems.</div><br><br><br><br>",0,ospan,instruct,4PQ4e6N2E0R1CUhbSj9mY9bEtz82,html-button-response,71,433656,0.0-46.0-1.0-0.0-2.0,,,,,,,,,,,,,,,5e9f897c20320b000b1cc4cb,13:37:01,03/04/2024
2893.0,,,ospan,symmetry,4PQ4e6N2E0R1CUhbSj9mY9bEtz82,symmetry-judgement-task,72,437431,0.0-46.0-1.0-1.0-0.0,,,,,,,,,,1.0,1.0,,,,5e9f897c20320b000b1cc4cb,13:37:01,03/04/2024
,"<p style=""color:green; font-size: 35px"">Correct</p>",,ospan,feedback,4PQ4e6N2E0R1CUhbSj9mY9bEtz82,html-keyboard-response,73,438188,0.0-46.0-1.0-1.0-1.0,,,,,,,,,,,,,,,5e9f897c20320b000b1cc4cb,13:37:01,03/04/2024
3260.0,,,ospan,symmetry,4PQ4e6N2E0R1CUhbSj9mY9bEtz82,symmetry-judgement-task,74,444093,0.0-46.0-1.0-1.0-2.0,,,,,,,,,,1.0,1.0,,,,5e9f897c20320b000b1cc4cb,13:37:01,03/04/2024
,"<p style=""color:green; font-size: 35px"">Correct</p>",,ospan,feedback,4PQ4e6N2E0R1CUhbSj9mY9bEtz82,html-keyboard-response,75,444846,0.0-46.0-1.0-1.0-3.0,,,,,,,,,,,,,,,5e9f897c20320b000b1cc4cb,13:37:01,03/04/2024
2419.0,,,ospan,symmetry,4PQ4e6N2E0R1CUhbSj9mY9bEtz82,symmetry-judgement-task,76,449927,0.0-46.0-1.0-1.0-4.0,,,,,,,,,,1.0,1.0,,,,5e9f897c20320b000b1cc4cb,13:37:01,03/04/2024
,"<p style=""color:green; font-size: 35px"">Correct</p>",,ospan,feedback,4PQ4e6N2E0R1CUhbSj9mY9bEtz82,html-keyboard-response,77,450689,0.0-46.0-1.0-1.0-5.0,,,,,,,,,,,,,,,5e9f897c20320b000b1cc4cb,13:37:01,03/04/2024
1130.2999999523163,"<p style=""font-size: 3rem;"">You responded correctly on 3 of 3 symmetry judgments. Good job!</p><br><br>",0,ospan,practice,4PQ4e6N2E0R1CUhbSj9mY9bEtz82,html-button-response,78,453825,0.0-46.0-1.0-2.0,,,,,,,,,,,,,,,5e9f897c20320b000b1cc4cb,13:37:01,03/04/2024
4030.3000000715256,"<div class = 'left_align' style='font-size: 3.25rem; line-height: 1.3;'>Now you will practice doing both parts of the experiment at the same time.<br><br>In the next practice set, you will be given one grid picture to judge.<br>Then letter will appear on the screen. Try to remember the letter.<br><br>It is <b>very important</b> to make the symmetry judgment as quickly and accurately as possible.<br><br>Just as before, once you have make the symmetry judgment, you can click Yes or No.<br><b>Note that you will no longer see Correct or Incorrect feedback.</div><br><br><br><br>",0,ospan,instruct,4PQ4e6N2E0R1CUhbSj9mY9bEtz82,html-button-response,79,458116,0.0-46.0-2.0-0.0-0.0,,,,,,,,,,,,,,,5e9f897c20320b000b1cc4cb,13:37:01,03/04/2024
1530.1000000238419,"<div class = 'left_align' style='font-size: 3.25rem; line-height: 1.3;'>After the letter goes away, another grid picture will appear, and then<br>another letter.<br><br>At the end of each set of letters and grids, you will recall the letters to the best<br>of your ability. Remember, try your best to get the letters in the correct order.<br><br>It is important to <b>quickly</b> and <b>accurately</b> make the symmetry judgments.</div><br><br><br><br>",0,ospan,instruct,4PQ4e6N2E0R1CUhbSj9mY9bEtz82,html-button-response,80,459901,0.0-46.0-2.0-0.0-1.0,,,,,,,,,,,,,,,5e9f897c20320b000b1cc4cb,13:37:01,03/04/2024
4252.899999976158,"<div class = 'left_align' style='font-size: 3.25rem; line-height: 1.3;'>On the feedback screen, if you are not doing well at the symmetry judgments,<br>you will also see a warning in the middle. This indicates your percent <br>correct for the grid pictures for the entire experiment.<br><br>It is <b>very</b> important for you to keep accuracy at least at 85%: <u>We can only use<br>data where the participant was at least 85% accurate on the judgments.</u> Therefore,<br> please try your best to perform well on the symmetry judgments, <b>at the same time</b><br>doing your best to recall as many letters as possible.<br><br>Click the button to try some practice problems.</div><br><br><br><br>",0,ospan,instruct,4PQ4e6N2E0R1CUhbSj9mY9bEtz82,html-button-response,81,464411,0.0-46.0-2.0-0.0-2.0,,,,,,,,,,,,,,,5e9f897c20320b000b1cc4cb,13:37:01,03/04/2024
,"<p style=""font-size:75px;"">...</p>",,ospan,iti,4PQ4e6N2E0R1CUhbSj9mY9bEtz82,html-keyboard-response,82,465675,0.0-46.0-2.0-1.0-0.0,,,,,,,,,,,,,,,5e9f897c20320b000b1cc4cb,13:37:01,03/04/2024
2878.0,,,ospan,symmetry,4PQ4e6N2E0R1CUhbSj9mY9bEtz82,symmetry-judgement-task,83,469748,0.0-46.0-2.0-1.0-1.0-0.0,,,,,,,,,,1.0,1.0,,,,5e9f897c20320b000b1cc4cb,13:37:01,03/04/2024
,"<div style=""font-size: 10rem; color: #0000FF"">P</div>",,ospan,letter,4PQ4e6N2E0R1CUhbSj9mY9bEtz82,html-keyboard-response,84,470763,0.0-46.0-2.0-1.0-1.0-1.0,,,,,,,,,,,,,,,5e9f897c20320b000b1cc4cb,13:37:01,03/04/2024
1595.0,,,ospan,symmetry,4PQ4e6N2E0R1CUhbSj9mY9bEtz82,symmetry-judgement-task,85,474282,0.0-46.0-2.0-1.0-1.0-2.0,,,,,,,,,,1.0,1.0,,,,5e9f897c20320b000b1cc4cb,13:37:01,03/04/2024
,"<div style=""font-size: 10rem; color: #0000FF"">R</div>",,ospan,letter,4PQ4e6N2E0R1CUhbSj9mY9bEtz82,html-keyboard-response,86,475288,0.0-46.0-2.0-1.0-1.0-3.0,,,,,,,,,,,,,,,5e9f897c20320b000b1cc4cb,13:37:01,03/04/2024
2032.0,,,ospan,symmetry,4PQ4e6N2E0R1CUhbSj9mY9bEtz82,symmetry-judgement-task,87,479240,0.0-46.0-2.0-1.0-1.0-4.0,,,,,,,,,,1.0,1.0,,,,5e9f897c20320b000b1cc4cb,13:37:01,03/04/2024
,"<div style=""font-size: 10rem; color: #0000FF"">H</div>",,ospan,letter,4PQ4e6N2E0R1CUhbSj9mY9bEtz82,html-keyboard-response,88,480255,0.0-46.0-2.0-1.0-1.0-5.0,,,,,,,,,,,,,,,5e9f897c20320b000b1cc4cb,13:37:01,03/04/2024
4080.0,"<div class = numbox><p style=""font-size: 2.4rem"">Please recall the letters you saw to the best of your ability. If you do not remember a particular letter, use the SKIP button.<br><b>(When you are ready to lock in your answer, press ENTER)</b></p><button id = button_1 class = ""square num-button"" onclick = ""recordClick(this)""><div class = content><div class = numbers>C</div></div></button><button id = button_2 class = ""square num-button"" onclick = ""recordClick(this)""><div class = content><div class = numbers>G</div></div></button><button id = button_3 class = ""square num-button"" onclick = ""recordClick(this)""><div class = content><div class = numbers>H</div></div></button><button id = button_4 class = ""square num-button"" onclick = ""recordClick(this)""><div class = content><div class = numbers>J</div></div></button><button id = button_5 class = ""square num-button"" onclick = ""recordClick(this)""><div class = content><div class = numbers>K</div></div></button><button id = button_6 class = ""square num-button"" onclick = ""recordClick(this)""><div class = content><div class = numbers>L</div></div></button><button id = button_7 class = ""square num-button"" onclick = ""recordClick(this)""><div class = content><div class = numbers>N</div></div></button><button id = button_8 class = ""square num-button"" onclick = ""recordClick(this)""><div class = content><div class = numbers>P</div></div></button><button id = button_9 class = ""square num-button"" onclick = ""recordClick(this)""><div class = content><div class = numbers>Q</div></div></button><button id = button_10 class = ""square num-button"" onclick = ""recordClick(this)""><div class = content><div class = numbers>R</div></div></button><button id = button_11 class = ""square num-button"" onclick = ""recordClick(this)""><div class = content><div class = numbers>S</div></div></button><button id = button_12 class = ""square num-button"" onclick = ""recordClick(this)""><div class = content><div class = numbers>Y</div></div></button><button class = clear_button id = ""ClearButton"" onclick = ""clearResponse()"">BACKSPACE</button><button class = blank_button id = ""BlankButton"" onclick = ""blankResponse()"">SKIP</button><p style=""font-size: 2.4rem""><u><b>Current Answer:</b></u></p><br><br><div id=echoed_txt style=""font-size: 5rem; color:blue;""><b></b></div></div>",enter,ospan,retrieval,4PQ4e6N2E0R1CUhbSj9mY9bEtz82,html-keyboard-response,89,485114,0.0-46.0-2.0-1.0-2.0-0.0,NA,NA,NA,3.0,"[""P"",""R"",""H""]","[""P"",""R"",""H""]",1.0,3.0,"['<font color=""green"">P</font>', '<font color=""green"">R</font>', '<font color=""green"">H</font>']",,,,,,5e9f897c20320b000b1cc4cb,13:37:01,03/04/2024
1049.0,"['<p style=""font-size:44px"">Letters:<br><br><br><font color=""green"">P</font> <font color=""green"">R</font> <font color=""green"">H</font></p><br><br><p style=""font-size:30px"">Symmetry:<br><br><font color=""green"">100%</font></p><br><br>']",0,ospan,practice_feedback,4PQ4e6N2E0R1CUhbSj9mY9bEtz82,html-button-response,90,486673,0.0-46.0-2.0-1.0-2.0-1.0,,,,,,,,,,,,,,,5e9f897c20320b000b1cc4cb,13:37:01,03/04/2024
,"<p style=""font-size:75px;"">...</p>",,ospan,iti,4PQ4e6N2E0R1CUhbSj9mY9bEtz82,html-keyboard-response,91,487680,0.0-46.0-2.0-2.0-0.0,,,,,,,,,,,,,,,5e9f897c20320b000b1cc4cb,13:37:01,03/04/2024
2371.0,,,ospan,symmetry,4PQ4e6N2E0R1CUhbSj9mY9bEtz82,symmetry-judgement-task,92,491218,0.0-46.0-2.0-2.0-1.0-0.0,,,,,,,,,,1.0,1.0,,,,5e9f897c20320b000b1cc4cb,13:37:01,03/04/2024
,"<div style=""font-size: 10rem; color: #0000FF"">S</div>",,ospan,letter,4PQ4e6N2E0R1CUhbSj9mY9bEtz82,html-keyboard-response,93,492232,0.0-46.0-2.0-2.0-1.0-1.0,,,,,,,,,,,,,,,5e9f897c20320b000b1cc4cb,13:37:01,03/04/2024
1872.0,,,ospan,symmetry,4PQ4e6N2E0R1CUhbSj9mY9bEtz82,symmetry-judgement-task,94,496022,0.0-46.0-2.0-2.0-1.0-2.0,,,,,,,,,,1.0,1.0,,,,5e9f897c20320b000b1cc4cb,13:37:01,03/04/2024
,"<div style=""font-size: 10rem; color: #0000FF"">N</div>",,ospan,letter,4PQ4e6N2E0R1CUhbSj9mY9bEtz82,html-keyboard-response,95,497035,0.0-46.0-2.0-2.0-1.0-3.0,,,,,,,,,,,,,,,5e9f897c20320b000b1cc4cb,13:37:01,03/04/2024
1767.0,,,ospan,symmetry,4PQ4e6N2E0R1CUhbSj9mY9bEtz82,symmetry-judgement-task,96,500715,0.0-46.0-2.0-2.0-1.0-4.0,,,,,,,,,,1.0,1.0,,,,5e9f897c20320b000b1cc4cb,13:37:01,03/04/2024
,"<div style=""font-size: 10rem; color: #0000FF"">P</div>",,ospan,letter,4PQ4e6N2E0R1CUhbSj9mY9bEtz82,html-keyboard-response,97,501726,0.0-46.0-2.0-2.0-1.0-5.0,,,,,,,,,,,,,,,5e9f897c20320b000b1cc4cb,13:37:01,03/04/2024
3178.5,"<div class = numbox><p style=""font-size: 2.4rem"">Please recall the letters you saw to the best of your ability. If you do not remember a particular letter, use the SKIP button.<br><b>(When you are ready to lock in your answer, press ENTER)</b></p><button id = button_1 class = ""square num-button"" onclick = ""recordClick(this)""><div class = content><div class = numbers>C</div></div></button><button id = button_2 class = ""square num-button"" onclick = ""recordClick(this)""><div class = content><div class = numbers>G</div></div></button><button id = button_3 class = ""square num-button"" onclick = ""recordClick(this)""><div class = content><div class = numbers>H</div></div></button><button id = button_4 class = ""square num-button"" onclick = ""recordClick(this)""><div class = content><div class = numbers>J</div></div></button><button id = button_5 class = ""square num-button"" onclick = ""recordClick(this)""><div class = content><div class = numbers>K</div></div></button><button id = button_6 class = ""square num-button"" onclick = ""recordClick(this)""><div class = content><div class = numbers>L</div></div></button><button id = button_7 class = ""square num-button"" onclick = ""recordClick(this)""><div class = content><div class = numbers>N</div></div></button><button id = button_8 class = ""square num-button"" onclick = ""recordClick(this)""><div class = content><div class = numbers>P</div></div></button><button id = button_9 class = ""square num-button"" onclick = ""recordClick(this)""><div class = content><div class = numbers>Q</div></div></button><button id = button_10 class = ""square num-button"" onclick = ""recordClick(this)""><div class = content><div class = numbers>R</div></div></button><button id = button_11 class = ""square num-button"" onclick = ""recordClick(this)""><div class = content><div class = numbers>S</div></div></button><button id = button_12 class = ""square num-button"" onclick = ""recordClick(this)""><div class = content><div class = numbers>Y</div></div></button><button class = clear_button id = ""ClearButton"" onclick = ""clearResponse()"">BACKSPACE</button><button class = blank_button id = ""BlankButton"" onclick = ""blankResponse()"">SKIP</button><p style=""font-size: 2.4rem""><u><b>Current Answer:</b></u></p><br><br><div id=echoed_txt style=""font-size: 5rem; color:blue;""><b></b></div></div>",enter,ospan,retrieval,4PQ4e6N2E0R1CUhbSj9mY9bEtz82,html-keyboard-response,98,505663,0.0-46.0-2.0-2.0-2.0-0.0,NA,NA,NA,3.0,"[""S"",""N"",""P""]","[""S"",""N"",""P""]",1.0,3.0,"['<font color=""green"">S</font>', '<font color=""green"">N</font>', '<font color=""green"">P</font>']",,,,,,5e9f897c20320b000b1cc4cb,13:37:01,03/04/2024
1074.5,"['<p style=""font-size:44px"">Letters:<br><br><br><font color=""green"">S</font> <font color=""green"">N</font> <font color=""green"">P</font></p><br><br><p style=""font-size:30px"">Symmetry:<br><br><font color=""green"">100%</font></p><br><br>']",0,ospan,practice_feedback,4PQ4e6N2E0R1CUhbSj9mY9bEtz82,html-button-response,99,507247,0.0-46.0-2.0-2.0-2.0-1.0,,,,,,,,,,,,,,,5e9f897c20320b000b1cc4cb,13:37:01,03/04/2024
10127.700000047684,"<div class = 'left_align' style='font-size: 3rem; line-height: 1.3;'><b>Great work! That is the end of practice.</b><br><br>The real trials will look just like the practice trials you just completed.<br><br><u>Here, you will not see feedback</u>. First, you will see an grid picture to judge,<br>then a letter to remember. When the recall screen appears, report the letters in the<br>order presented. If you forget a letter, remember to use the <b>blank</b> button to move to the<br>next letter. Some of the sets will have more symmetry grids and letters than others.<br><br>It is important that you do your best on both the symmetry judgments and the letter recall<br>parts of the experiment. For for the symmetry judgments, try to work as <b>quickly</b> and <br>as <b>accurately</b> as possible. Remember to keep your symmetry accuracy at 85% or above.<br><br><b>For the letters, do NOT use any external aid (e.g., writing on paper, electronic device).</b><br><br>It is <u>very important</u> to our experiment to have a <b>true</b> view of your real performance.<br><br>Do not worry if you miss some when it gets hard! This task is meant to be very challenging!<br><br>Click the button to begin.</div><br><br><br><br>",0,ospan,starting_real_here,4PQ4e6N2E0R1CUhbSj9mY9bEtz82,html-button-response,100,517377,0.0-46.0-2.0-3.0,,,,,,,,,,,,,,,5e9f897c20320b000b1cc4cb,13:37:01,03/04/2024
,"<p style=""font-size:75px;"">...</p>",,ospan,iti,4PQ4e6N2E0R1CUhbSj9mY9bEtz82,html-keyboard-response,101,518649,0.0-46.0-3.0-0.0-0.0,,,,,,,,,,,,,,,5e9f897c20320b000b1cc4cb,13:37:01,03/04/2024
1714.0,,,ospan,symmetry,4PQ4e6N2E0R1CUhbSj9mY9bEtz82,symmetry-judgement-task,102,521520,0.0-46.0-3.0-0.0-1.0-0.0,,,,,,,,,,1.0,1.0,,,,5e9f897c20320b000b1cc4cb,13:37:01,03/04/2024
,"<div style=""font-size: 10rem; color: #0000FF"">N</div>",,ospan,letter,4PQ4e6N2E0R1CUhbSj9mY9bEtz82,html-keyboard-response,103,522523,0.0-46.0-3.0-0.0-1.0-1.0,,,,,,,,,,,,,,,5e9f897c20320b000b1cc4cb,13:37:01,03/04/2024
1305.0,,,ospan,symmetry,4PQ4e6N2E0R1CUhbSj9mY9bEtz82,symmetry-judgement-task,104,525737,0.0-46.0-3.0-0.0-1.0-2.0,,,,,,,,,,1.0,1.0,,,,5e9f897c20320b000b1cc4cb,13:37:01,03/04/2024
,"<div style=""font-size: 10rem; color: #0000FF"">P</div>",,ospan,letter,4PQ4e6N2E0R1CUhbSj9mY9bEtz82,html-keyboard-response,105,526740,0.0-46.0-3.0-0.0-1.0-3.0,,,,,,,,,,,,,,,5e9f897c20320b000b1cc4cb,13:37:01,03/04/2024
2077.0,,,ospan,symmetry,4PQ4e6N2E0R1CUhbSj9mY9bEtz82,symmetry-judgement-task,106,530722,0.0-46.0-3.0-0.0-1.0-4.0,,,,,,,,,,1.0,1.0,,,,5e9f897c20320b000b1cc4cb,13:37:01,03/04/2024
,"<div style=""font-size: 10rem; color: #0000FF"">H</div>",,ospan,letter,4PQ4e6N2E0R1CUhbSj9mY9bEtz82,html-keyboard-response,107,531737,0.0-46.0-3.0-0.0-1.0-5.0,,,,,,,,,,,,,,,5e9f897c20320b000b1cc4cb,13:37:01,03/04/2024
3140.100000023842,"<div class = numbox><p style=""font-size: 2.4rem"">Please recall the letters you saw to the best of your ability. If you do not remember a particular letter, use the SKIP button.<br><b>(When you are ready to lock in your answer, press ENTER)</b></p><button id = button_1 class = ""square num-button"" onclick = ""recordClick(this)""><div class = content><div class = numbers>C</div></div></button><button id = button_2 class = ""square num-button"" onclick = ""recordClick(this)""><div class = content><div class = numbers>G</div></div></button><button id = button_3 class = ""square num-button"" onclick = ""recordClick(this)""><div class = content><div class = numbers>H</div></div></button><button id = button_4 class = ""square num-button"" onclick = ""recordClick(this)""><div class = content><div class = numbers>J</div></div></button><button id = button_5 class = ""square num-button"" onclick = ""recordClick(this)""><div class = content><div class = numbers>K</div></div></button><button id = button_6 class = ""square num-button"" onclick = ""recordClick(this)""><div class = content><div class = numbers>L</div></div></button><button id = button_7 class = ""square num-button"" onclick = ""recordClick(this)""><div class = content><div class = numbers>N</div></div></button><button id = button_8 class = ""square num-button"" onclick = ""recordClick(this)""><div class = content><div class = numbers>P</div></div></button><button id = button_9 class = ""square num-button"" onclick = ""recordClick(this)""><div class = content><div class = numbers>Q</div></div></button><button id = button_10 class = ""square num-button"" onclick = ""recordClick(this)""><div class = content><div class = numbers>R</div></div></button><button id = button_11 class = ""square num-button"" onclick = ""recordClick(this)""><div class = content><div class = numbers>S</div></div></button><button id = button_12 class = ""square num-button"" onclick = ""recordClick(this)""><div class = content><div class = numbers>Y</div></div></button><button class = clear_button id = ""ClearButton"" onclick = ""clearResponse()"">BACKSPACE</button><button class = blank_button id = ""BlankButton"" onclick = ""blankResponse()"">SKIP</button><p style=""font-size: 2.4rem""><u><b>Current Answer:</b></u></p><br><br><div id=echoed_txt style=""font-size: 5rem; color:blue;""><b></b></div></div>",enter,ospan,retrieval,4PQ4e6N2E0R1CUhbSj9mY9bEtz82,html-keyboard-response,108,535631,0.0-46.0-3.0-0.0-2.0,3,3,3,3.0,"[""N"",""P"",""H""]","[""N"",""P"",""H""]",1.0,3.0,,,,,,,5e9f897c20320b000b1cc4cb,13:37:01,03/04/2024
990.7999999523163,[''],0,ospan,feedback,4PQ4e6N2E0R1CUhbSj9mY9bEtz82,html-button-response,109,537138,0.0-46.0-3.0-0.0-3.0,,,,,,,,,,,,100.0,0.0,,5e9f897c20320b000b1cc4cb,13:37:01,03/04/2024
,"<p style=""font-size:75px;"">...</p>",,ospan,iti,4PQ4e6N2E0R1CUhbSj9mY9bEtz82,html-keyboard-response,110,538143,0.0-46.0-4.0-0.0-0.0,,,,,,,,,,,,,,,5e9f897c20320b000b1cc4cb,13:37:01,03/04/2024
1730.0,,,ospan,symmetry,4PQ4e6N2E0R1CUhbSj9mY9bEtz82,symmetry-judgement-task,111,541022,0.0-46.0-4.0-0.0-1.0-0.0,,,,,,,,,,1.0,1.0,,,,5e9f897c20320b000b1cc4cb,13:37:01,03/04/2024
,"<div style=""font-size: 10rem; color: #0000FF"">P</div>",,ospan,letter,4PQ4e6N2E0R1CUhbSj9mY9bEtz82,html-keyboard-response,112,542027,0.0-46.0-4.0-0.0-1.0-1.0,,,,,,,,,,,,,,,5e9f897c20320b000b1cc4cb,13:37:01,03/04/2024
1560.0,,,ospan,symmetry,4PQ4e6N2E0R1CUhbSj9mY9bEtz82,symmetry-judgement-task,113,545496,0.0-46.0-4.0-0.0-1.0-2.0,,,,,,,,,,1.0,1.0,,,,5e9f897c20320b000b1cc4cb,13:37:01,03/04/2024
,"<div style=""font-size: 10rem; color: #0000FF"">G</div>",,ospan,letter,4PQ4e6N2E0R1CUhbSj9mY9bEtz82,html-keyboard-response,114,546502,0.0-46.0-4.0-0.0-1.0-3.0,,,,,,,,,,,,,,,5e9f897c20320b000b1cc4cb,13:37:01,03/04/2024
3422.0,,,ospan,symmetry,4PQ4e6N2E0R1CUhbSj9mY9bEtz82,symmetry-judgement-task,115,551827,0.0-46.0-4.0-0.0-1.0-4.0,,,,,,,,,,1.0,1.0,,,,5e9f897c20320b000b1cc4cb,13:37:01,03/04/2024
,"<div style=""font-size: 10rem; color: #0000FF"">J</div>",,ospan,letter,4PQ4e6N2E0R1CUhbSj9mY9bEtz82,html-keyboard-response,116,552842,0.0-46.0-4.0-0.0-1.0-5.0,,,,,,,,,,,,,,,5e9f897c20320b000b1cc4cb,13:37:01,03/04/2024
1869.0,,,ospan,symmetry,4PQ4e6N2E0R1CUhbSj9mY9bEtz82,symmetry-judgement-task,117,556605,0.0-46.0-4.0-0.0-1.0-6.0,,,,,,,,,,1.0,1.0,,,,5e9f897c20320b000b1cc4cb,13:37:01,03/04/2024
,"<div style=""font-size: 10rem; color: #0000FF"">H</div>",,ospan,letter,4PQ4e6N2E0R1CUhbSj9mY9bEtz82,html-keyboard-response,118,557606,0.0-46.0-4.0-0.0-1.0-7.0,,,,,,,,,,,,,,,5e9f897c20320b000b1cc4cb,13:37:01,03/04/2024
4674.199999928474,"<div class = numbox><p style=""font-size: 2.4rem"">Please recall the letters you saw to the best of your ability. If you do not remember a particular letter, use the SKIP button.<br><b>(When you are ready to lock in your answer, press ENTER)</b></p><button id = button_1 class = ""square num-button"" onclick = ""recordClick(this)""><div class = content><div class = numbers>C</div></div></button><button id = button_2 class = ""square num-button"" onclick = ""recordClick(this)""><div class = content><div class = numbers>G</div></div></button><button id = button_3 class = ""square num-button"" onclick = ""recordClick(this)""><div class = content><div class = numbers>H</div></div></button><button id = button_4 class = ""square num-button"" onclick = ""recordClick(this)""><div class = content><div class = numbers>J</div></div></button><button id = button_5 class = ""square num-button"" onclick = ""recordClick(this)""><div class = content><div class = numbers>K</div></div></button><button id = button_6 class = ""square num-button"" onclick = ""recordClick(this)""><div class = content><div class = numbers>L</div></div></button><button id = button_7 class = ""square num-button"" onclick = ""recordClick(this)""><div class = content><div class = numbers>N</div></div></button><button id = button_8 class = ""square num-button"" onclick = ""recordClick(this)""><div class = content><div class = numbers>P</div></div></button><button id = button_9 class = ""square num-button"" onclick = ""recordClick(this)""><div class = content><div class = numbers>Q</div></div></button><button id = button_10 class = ""square num-button"" onclick = ""recordClick(this)""><div class = content><div class = numbers>R</div></div></button><button id = button_11 class = ""square num-button"" onclick = ""recordClick(this)""><div class = content><div class = numbers>S</div></div></button><button id = button_12 class = ""square num-button"" onclick = ""recordClick(this)""><div class = content><div class = numbers>Y</div></div></button><button class = clear_button id = ""ClearButton"" onclick = ""clearResponse()"">BACKSPACE</button><button class = blank_button id = ""BlankButton"" onclick = ""blankResponse()"">SKIP</button><p style=""font-size: 2.4rem""><u><b>Current Answer:</b></u></p><br><br><div id=echoed_txt style=""font-size: 5rem; color:blue;""><b></b></div></div>",enter,ospan,retrieval,4PQ4e6N2E0R1CUhbSj9mY9bEtz82,html-keyboard-response,119,563035,0.0-46.0-4.0-0.0-2.0,7,7,7,4.0,"[""P"",""G"",""J"",""H""]","[""P"",""G"",""J"",""H""]",1.0,4.0,,,,,,,5e9f897c20320b000b1cc4cb,13:37:01,03/04/2024
1036.1000000238419,[''],0,ospan,feedback,4PQ4e6N2E0R1CUhbSj9mY9bEtz82,html-button-response,120,564577,0.0-46.0-4.0-0.0-3.0,,,,,,,,,,,,100.0,0.0,,5e9f897c20320b000b1cc4cb,13:37:01,03/04/2024
,"<p style=""font-size:75px;"">...</p>",,ospan,iti,4PQ4e6N2E0R1CUhbSj9mY9bEtz82,html-keyboard-response,121,565590,0.0-46.0-4.0-1.0-0.0,,,,,,,,,,,,,,,5e9f897c20320b000b1cc4cb,13:37:01,03/04/2024
2498.0,,,ospan,symmetry,4PQ4e6N2E0R1CUhbSj9mY9bEtz82,symmetry-judgement-task,122,569233,0.0-46.0-4.0-1.0-1.0-0.0,,,,,,,,,,1.0,1.0,,,,5e9f897c20320b000b1cc4cb,13:37:01,03/04/2024
,"<div style=""font-size: 10rem; color: #0000FF"">S</div>",,ospan,letter,4PQ4e6N2E0R1CUhbSj9mY9bEtz82,html-keyboard-response,123,570250,0.0-46.0-4.0-1.0-1.0-1.0,,,,,,,,,,,,,,,5e9f897c20320b000b1cc4cb,13:37:01,03/04/2024
1956.0,,,ospan,symmetry,4PQ4e6N2E0R1CUhbSj9mY9bEtz82,symmetry-judgement-task,124,574107,0.0-46.0-4.0-1.0-1.0-2.0,,,,,,,,,,1.0,1.0,,,,5e9f897c20320b000b1cc4cb,13:37:01,03/04/2024
,"<div style=""font-size: 10rem; color: #0000FF"">Q</div>",,ospan,letter,4PQ4e6N2E0R1CUhbSj9mY9bEtz82,html-keyboard-response,125,575115,0.0-46.0-4.0-1.0-1.0-3.0,,,,,,,,,,,,,,,5e9f897c20320b000b1cc4cb,13:37:01,03/04/2024
1632.0,,,ospan,symmetry,4PQ4e6N2E0R1CUhbSj9mY9bEtz82,symmetry-judgement-task,126,578662,0.0-46.0-4.0-1.0-1.0-4.0,,,,,,,,,,1.0,1.0,,,,5e9f897c20320b000b1cc4cb,13:37:01,03/04/2024
,"<div style=""font-size: 10rem; color: #0000FF"">N</div>",,ospan,letter,4PQ4e6N2E0R1CUhbSj9mY9bEtz82,html-keyboard-response,127,579665,0.0-46.0-4.0-1.0-1.0-5.0,,,,,,,,,,,,,,,5e9f897c20320b000b1cc4cb,13:37:01,03/04/2024
1425.0,,,ospan,symmetry,4PQ4e6N2E0R1CUhbSj9mY9bEtz82,symmetry-judgement-task,128,583006,0.0-46.0-4.0-1.0-1.0-6.0,,,,,,,,,,1.0,1.0,,,,5e9f897c20320b000b1cc4cb,13:37:01,03/04/2024
,"<div style=""font-size: 10rem; color: #0000FF"">R</div>",,ospan,letter,4PQ4e6N2E0R1CUhbSj9mY9bEtz82,html-keyboard-response,129,584010,0.0-46.0-4.0-1.0-1.0-7.0,,,,,,,,,,,,,,,5e9f897c20320b000b1cc4cb,13:37:01,03/04/2024
1560.0,,,ospan,symmetry,4PQ4e6N2E0R1CUhbSj9mY9bEtz82,symmetry-judgement-task,130,587469,0.0-46.0-4.0-1.0-1.0-8.0,,,,,,,,,,1.0,1.0,,,,5e9f897c20320b000b1cc4cb,13:37:01,03/04/2024
,"<div style=""font-size: 10rem; color: #0000FF"">H</div>",,ospan,letter,4PQ4e6N2E0R1CUhbSj9mY9bEtz82,html-keyboard-response,131,588478,0.0-46.0-4.0-1.0-1.0-9.0,,,,,,,,,,,,,,,5e9f897c20320b000b1cc4cb,13:37:01,03/04/2024
6721.800000071526,"<div class = numbox><p style=""font-size: 2.4rem"">Please recall the letters you saw to the best of your ability. If you do not remember a particular letter, use the SKIP button.<br><b>(When you are ready to lock in your answer, press ENTER)</b></p><button id = button_1 class = ""square num-button"" onclick = ""recordClick(this)""><div class = content><div class = numbers>C</div></div></button><button id = button_2 class = ""square num-button"" onclick = ""recordClick(this)""><div class = content><div class = numbers>G</div></div></button><button id = button_3 class = ""square num-button"" onclick = ""recordClick(this)""><div class = content><div class = numbers>H</div></div></button><button id = button_4 class = ""square num-button"" onclick = ""recordClick(this)""><div class = content><div class = numbers>J</div></div></button><button id = button_5 class = ""square num-button"" onclick = ""recordClick(this)""><div class = content><div class = numbers>K</div></div></button><button id = button_6 class = ""square num-button"" onclick = ""recordClick(this)""><div class = content><div class = numbers>L</div></div></button><button id = button_7 class = ""square num-button"" onclick = ""recordClick(this)""><div class = content><div class = numbers>N</div></div></button><button id = button_8 class = ""square num-button"" onclick = ""recordClick(this)""><div class = content><div class = numbers>P</div></div></button><button id = button_9 class = ""square num-button"" onclick = ""recordClick(this)""><div class = content><div class = numbers>Q</div></div></button><button id = button_10 class = ""square num-button"" onclick = ""recordClick(this)""><div class = content><div class = numbers>R</div></div></button><button id = button_11 class = ""square num-button"" onclick = ""recordClick(this)""><div class = content><div class = numbers>S</div></div></button><button id = button_12 class = ""square num-button"" onclick = ""recordClick(this)""><div class = content><div class = numbers>Y</div></div></button><button class = clear_button id = ""ClearButton"" onclick = ""clearResponse()"">BACKSPACE</button><button class = blank_button id = ""BlankButton"" onclick = ""blankResponse()"">SKIP</button><p style=""font-size: 2.4rem""><u><b>Current Answer:</b></u></p><br><br><div id=echoed_txt style=""font-size: 5rem; color:blue;""><b></b></div></div>",enter,ospan,retrieval,4PQ4e6N2E0R1CUhbSj9mY9bEtz82,html-keyboard-response,132,595960,0.0-46.0-4.0-1.0-2.0,12,12,12,5.0,"[""S"",""Q"",""N"",""R"",""H""]","[""S"",""Q"",""N"",""R"",""H""]",1.0,5.0,,,,,,,5e9f897c20320b000b1cc4cb,13:37:01,03/04/2024
1180.7999999523163,[''],0,ospan,feedback,4PQ4e6N2E0R1CUhbSj9mY9bEtz82,html-button-response,133,597647,0.0-46.0-4.0-1.0-3.0,,,,,,,,,,,,100.0,0.0,,5e9f897c20320b000b1cc4cb,13:37:01,03/04/2024
,"<p style=""font-size:75px;"">...</p>",,ospan,iti,4PQ4e6N2E0R1CUhbSj9mY9bEtz82,html-keyboard-response,134,598654,0.0-46.0-4.0-2.0-0.0,,,,,,,,,,,,,,,5e9f897c20320b000b1cc4cb,13:37:01,03/04/2024
1936.0,,,ospan,symmetry,4PQ4e6N2E0R1CUhbSj9mY9bEtz82,symmetry-judgement-task,135,601628,0.0-46.0-4.0-2.0-1.0-0.0,,,,,,,,,,1.0,1.0,,,,5e9f897c20320b000b1cc4cb,13:37:01,03/04/2024
,"<div style=""font-size: 10rem; color: #0000FF"">K</div>",,ospan,letter,4PQ4e6N2E0R1CUhbSj9mY9bEtz82,html-keyboard-response,136,602630,0.0-46.0-4.0-2.0-1.0-1.0,,,,,,,,,,,,,,,5e9f897c20320b000b1cc4cb,13:37:01,03/04/2024
1585.0,,,ospan,symmetry,4PQ4e6N2E0R1CUhbSj9mY9bEtz82,symmetry-judgement-task,137,606117,0.0-46.0-4.0-2.0-1.0-2.0,,,,,,,,,,1.0,1.0,,,,5e9f897c20320b000b1cc4cb,13:37:01,03/04/2024
,"<div style=""font-size: 10rem; color: #0000FF"">Q</div>",,ospan,letter,4PQ4e6N2E0R1CUhbSj9mY9bEtz82,html-keyboard-response,138,607120,0.0-46.0-4.0-2.0-1.0-3.0,,,,,,,,,,,,,,,5e9f897c20320b000b1cc4cb,13:37:01,03/04/2024
1490.0,,,ospan,symmetry,4PQ4e6N2E0R1CUhbSj9mY9bEtz82,symmetry-judgement-task,139,610539,0.0-46.0-4.0-2.0-1.0-4.0,,,,,,,,,,1.0,1.0,,,,5e9f897c20320b000b1cc4cb,13:37:01,03/04/2024
,"<div style=""font-size: 10rem; color: #0000FF"">Y</div>",,ospan,letter,4PQ4e6N2E0R1CUhbSj9mY9bEtz82,html-keyboard-response,140,611550,0.0-46.0-4.0-2.0-1.0-5.0,,,,,,,,,,,,,,,5e9f897c20320b000b1cc4cb,13:37:01,03/04/2024
4415.900000095367,"<div class = numbox><p style=""font-size: 2.4rem"">Please recall the letters you saw to the best of your ability. If you do not remember a particular letter, use the SKIP button.<br><b>(When you are ready to lock in your answer, press ENTER)</b></p><button id = button_1 class = ""square num-button"" onclick = ""recordClick(this)""><div class = content><div class = numbers>C</div></div></button><button id = button_2 class = ""square num-button"" onclick = ""recordClick(this)""><div class = content><div class = numbers>G</div></div></button><button id = button_3 class = ""square num-button"" onclick = ""recordClick(this)""><div class = content><div class = numbers>H</div></div></button><button id = button_4 class = ""square num-button"" onclick = ""recordClick(this)""><div class = content><div class = numbers>J</div></div></button><button id = button_5 class = ""square num-button"" onclick = ""recordClick(this)""><div class = content><div class = numbers>K</div></div></button><button id = button_6 class = ""square num-button"" onclick = ""recordClick(this)""><div class = content><div class = numbers>L</div></div></button><button id = button_7 class = ""square num-button"" onclick = ""recordClick(this)""><div class = content><div class = numbers>N</div></div></button><button id = button_8 class = ""square num-button"" onclick = ""recordClick(this)""><div class = content><div class = numbers>P</div></div></button><button id = button_9 class = ""square num-button"" onclick = ""recordClick(this)""><div class = content><div class = numbers>Q</div></div></button><button id = button_10 class = ""square num-button"" onclick = ""recordClick(this)""><div class = content><div class = numbers>R</div></div></button><button id = button_11 class = ""square num-button"" onclick = ""recordClick(this)""><div class = content><div class = numbers>S</div></div></button><button id = button_12 class = ""square num-button"" onclick = ""recordClick(this)""><div class = content><div class = numbers>Y</div></div></button><button class = clear_button id = ""ClearButton"" onclick = ""clearResponse()"">BACKSPACE</button><button class = blank_button id = ""BlankButton"" onclick = ""blankResponse()"">SKIP</button><p style=""font-size: 2.4rem""><u><b>Current Answer:</b></u></p><br><br><div id=echoed_txt style=""font-size: 5rem; color:blue;""><b></b></div></div>",enter,ospan,retrieval,4PQ4e6N2E0R1CUhbSj9mY9bEtz82,html-keyboard-response,141,616718,0.0-46.0-4.0-2.0-2.0,15,15,15,3.0,"[""K"",""Q"",""Y""]","[""K"",""Q"",""Y""]",1.0,3.0,,,,,,,5e9f897c20320b000b1cc4cb,13:37:01,03/04/2024
1072.2999999523163,[''],0,ospan,feedback,4PQ4e6N2E0R1CUhbSj9mY9bEtz82,html-button-response,142,618304,0.0-46.0-4.0-2.0-3.0,,,,,,,,,,,,100.0,0.0,,5e9f897c20320b000b1cc4cb,13:37:01,03/04/2024
,"<p style=""font-size:75px;"">...</p>",,ospan,iti,4PQ4e6N2E0R1CUhbSj9mY9bEtz82,html-keyboard-response,143,619312,0.0-46.0-5.0-0.0-0.0,,,,,,,,,,,,,,,5e9f897c20320b000b1cc4cb,13:37:01,03/04/2024
1725.0,,,ospan,symmetry,4PQ4e6N2E0R1CUhbSj9mY9bEtz82,symmetry-judgement-task,144,622183,0.0-46.0-5.0-0.0-1.0-0.0,,,,,,,,,,1.0,1.0,,,,5e9f897c20320b000b1cc4cb,13:37:01,03/04/2024
,"<div style=""font-size: 10rem; color: #0000FF"">K</div>",,ospan,letter,4PQ4e6N2E0R1CUhbSj9mY9bEtz82,html-keyboard-response,145,623199,0.0-46.0-5.0-0.0-1.0-1.0,,,,,,,,,,,,,,,5e9f897c20320b000b1cc4cb,13:37:01,03/04/2024
1231.0,,,ospan,symmetry,4PQ4e6N2E0R1CUhbSj9mY9bEtz82,symmetry-judgement-task,146,626343,0.0-46.0-5.0-0.0-1.0-2.0,,,,,,,,,,1.0,1.0,,,,5e9f897c20320b000b1cc4cb,13:37:01,03/04/2024
,"<div style=""font-size: 10rem; color: #0000FF"">J</div>",,ospan,letter,4PQ4e6N2E0R1CUhbSj9mY9bEtz82,html-keyboard-response,147,627356,0.0-46.0-5.0-0.0-1.0-3.0,,,,,,,,,,,,,,,5e9f897c20320b000b1cc4cb,13:37:01,03/04/2024
1123.0,,,ospan,symmetry,4PQ4e6N2E0R1CUhbSj9mY9bEtz82,symmetry-judgement-task,148,630385,0.0-46.0-5.0-0.0-1.0-4.0,,,,,,,,,,1.0,1.0,,,,5e9f897c20320b000b1cc4cb,13:37:01,03/04/2024
,"<div style=""font-size: 10rem; color: #0000FF"">R</div>",,ospan,letter,4PQ4e6N2E0R1CUhbSj9mY9bEtz82,html-keyboard-response,149,631389,0.0-46.0-5.0-0.0-1.0-5.0,,,,,,,,,,,,,,,5e9f897c20320b000b1cc4cb,13:37:01,03/04/2024
2122.0,,,ospan,symmetry,4PQ4e6N2E0R1CUhbSj9mY9bEtz82,symmetry-judgement-task,150,635416,0.0-46.0-5.0-0.0-1.0-6.0,,,,,,,,,,1.0,1.0,,,,5e9f897c20320b000b1cc4cb,13:37:01,03/04/2024
,"<div style=""font-size: 10rem; color: #0000FF"">Y</div>",,ospan,letter,4PQ4e6N2E0R1CUhbSj9mY9bEtz82,html-keyboard-response,151,636421,0.0-46.0-5.0-0.0-1.0-7.0,,,,,,,,,,,,,,,5e9f897c20320b000b1cc4cb,13:37:01,03/04/2024
2136.0,,,ospan,symmetry,4PQ4e6N2E0R1CUhbSj9mY9bEtz82,symmetry-judgement-task,152,640467,0.0-46.0-5.0-0.0-1.0-8.0,,,,,,,,,,1.0,1.0,,,,5e9f897c20320b000b1cc4cb,13:37:01,03/04/2024
,"<div style=""font-size: 10rem; color: #0000FF"">C</div>",,ospan,letter,4PQ4e6N2E0R1CUhbSj9mY9bEtz82,html-keyboard-response,153,641480,0.0-46.0-5.0-0.0-1.0-9.0,,,,,,,,,,,,,,,5e9f897c20320b000b1cc4cb,13:37:01,03/04/2024
2589.0,,,ospan,symmetry,4PQ4e6N2E0R1CUhbSj9mY9bEtz82,symmetry-judgement-task,154,645982,0.0-46.0-5.0-0.0-1.0-10.0,,,,,,,,,,1.0,1.0,,,,5e9f897c20320b000b1cc4cb,13:37:01,03/04/2024
,"<div style=""font-size: 10rem; color: #0000FF"">G</div>",,ospan,letter,4PQ4e6N2E0R1CUhbSj9mY9bEtz82,html-keyboard-response,155,646995,0.0-46.0-5.0-0.0-1.0-11.0,,,,,,,,,,,,,,,5e9f897c20320b000b1cc4cb,13:37:01,03/04/2024
8155.200000047684,"<div class = numbox><p style=""font-size: 2.4rem"">Please recall the letters you saw to the best of your ability. If you do not remember a particular letter, use the SKIP button.<br><b>(When you are ready to lock in your answer, press ENTER)</b></p><button id = button_1 class = ""square num-button"" onclick = ""recordClick(this)""><div class = content><div class = numbers>C</div></div></button><button id = button_2 class = ""square num-button"" onclick = ""recordClick(this)""><div class = content><div class = numbers>G</div></div></button><button id = button_3 class = ""square num-button"" onclick = ""recordClick(this)""><div class = content><div class = numbers>H</div></div></button><button id = button_4 class = ""square num-button"" onclick = ""recordClick(this)""><div class = content><div class = numbers>J</div></div></button><button id = button_5 class = ""square num-button"" onclick = ""recordClick(this)""><div class = content><div class = numbers>K</div></div></button><button id = button_6 class = ""square num-button"" onclick = ""recordClick(this)""><div class = content><div class = numbers>L</div></div></button><button id = button_7 class = ""square num-button"" onclick = ""recordClick(this)""><div class = content><div class = numbers>N</div></div></button><button id = button_8 class = ""square num-button"" onclick = ""recordClick(this)""><div class = content><div class = numbers>P</div></div></button><button id = button_9 class = ""square num-button"" onclick = ""recordClick(this)""><div class = content><div class = numbers>Q</div></div></button><button id = button_10 class = ""square num-button"" onclick = ""recordClick(this)""><div class = content><div class = numbers>R</div></div></button><button id = button_11 class = ""square num-button"" onclick = ""recordClick(this)""><div class = content><div class = numbers>S</div></div></button><button id = button_12 class = ""square num-button"" onclick = ""recordClick(this)""><div class = content><div class = numbers>Y</div></div></button><button class = clear_button id = ""ClearButton"" onclick = ""clearResponse()"">BACKSPACE</button><button class = blank_button id = ""BlankButton"" onclick = ""blankResponse()"">SKIP</button><p style=""font-size: 2.4rem""><u><b>Current Answer:</b></u></p><br><br><div id=echoed_txt style=""font-size: 5rem; color:blue;""><b></b></div></div>",enter,ospan,retrieval,4PQ4e6N2E0R1CUhbSj9mY9bEtz82,html-keyboard-response,156,655907,0.0-46.0-5.0-0.0-2.0,21,19,15,6.0,"[""K"",""Q"",""R"",""Y"",""C"",""J""]","[""K"",""J"",""R"",""Y"",""C"",""G""]",0.0,4.0,,,,,,,5e9f897c20320b000b1cc4cb,13:37:01,03/04/2024
1010.0,[''],0,ospan,feedback,4PQ4e6N2E0R1CUhbSj9mY9bEtz82,html-button-response,157,657419,0.0-46.0-5.0-0.0-3.0,,,,,,,,,,,,100.0,0.0,,5e9f897c20320b000b1cc4cb,13:37:01,03/04/2024
,"<p style=""font-size:75px;"">...</p>",,ospan,iti,4PQ4e6N2E0R1CUhbSj9mY9bEtz82,html-keyboard-response,158,658433,0.0-46.0-5.0-1.0-0.0,,,,,,,,,,,,,,,5e9f897c20320b000b1cc4cb,13:37:01,03/04/2024
2387.0,,,ospan,symmetry,4PQ4e6N2E0R1CUhbSj9mY9bEtz82,symmetry-judgement-task,159,661972,0.0-46.0-5.0-1.0-1.0-0.0,,,,,,,,,,1.0,1.0,,,,5e9f897c20320b000b1cc4cb,13:37:01,03/04/2024
,"<div style=""font-size: 10rem; color: #0000FF"">N</div>",,ospan,letter,4PQ4e6N2E0R1CUhbSj9mY9bEtz82,html-keyboard-response,160,662976,0.0-46.0-5.0-1.0-1.0-1.0,,,,,,,,,,,,,,,5e9f897c20320b000b1cc4cb,13:37:01,03/04/2024
1126.0,,,ospan,symmetry,4PQ4e6N2E0R1CUhbSj9mY9bEtz82,symmetry-judgement-task,161,666016,0.0-46.0-5.0-1.0-1.0-2.0,,,,,,,,,,1.0,1.0,,,,5e9f897c20320b000b1cc4cb,13:37:01,03/04/2024
,"<div style=""font-size: 10rem; color: #0000FF"">K</div>",,ospan,letter,4PQ4e6N2E0R1CUhbSj9mY9bEtz82,html-keyboard-response,162,667028,0.0-46.0-5.0-1.0-1.0-3.0,,,,,,,,,,,,,,,5e9f897c20320b000b1cc4cb,13:37:01,03/04/2024
1205.0,,,ospan,symmetry,4PQ4e6N2E0R1CUhbSj9mY9bEtz82,symmetry-judgement-task,163,670128,0.0-46.0-5.0-1.0-1.0-4.0,,,,,,,,,,1.0,1.0,,,,5e9f897c20320b000b1cc4cb,13:37:01,03/04/2024
,"<div style=""font-size: 10rem; color: #0000FF"">C</div>",,ospan,letter,4PQ4e6N2E0R1CUhbSj9mY9bEtz82,html-keyboard-response,164,671142,0.0-46.0-5.0-1.0-1.0-5.0,,,,,,,,,,,,,,,5e9f897c20320b000b1cc4cb,13:37:01,03/04/2024
1610.0,,,ospan,symmetry,4PQ4e6N2E0R1CUhbSj9mY9bEtz82,symmetry-judgement-task,165,674663,0.0-46.0-5.0-1.0-1.0-6.0,,,,,,,,,,1.0,1.0,,,,5e9f897c20320b000b1cc4cb,13:37:01,03/04/2024
,"<div style=""font-size: 10rem; color: #0000FF"">Q</div>",,ospan,letter,4PQ4e6N2E0R1CUhbSj9mY9bEtz82,html-keyboard-response,166,675667,0.0-46.0-5.0-1.0-1.0-7.0,,,,,,,,,,,,,,,5e9f897c20320b000b1cc4cb,13:37:01,03/04/2024
1464.0,,,ospan,symmetry,4PQ4e6N2E0R1CUhbSj9mY9bEtz82,symmetry-judgement-task,167,679027,0.0-46.0-5.0-1.0-1.0-8.0,,,,,,,,,,1.0,1.0,,,,5e9f897c20320b000b1cc4cb,13:37:01,03/04/2024
,"<div style=""font-size: 10rem; color: #0000FF"">J</div>",,ospan,letter,4PQ4e6N2E0R1CUhbSj9mY9bEtz82,html-keyboard-response,168,680034,0.0-46.0-5.0-1.0-1.0-9.0,,,,,,,,,,,,,,,5e9f897c20320b000b1cc4cb,13:37:01,03/04/2024
1435.0,,,ospan,symmetry,4PQ4e6N2E0R1CUhbSj9mY9bEtz82,symmetry-judgement-task,169,683371,0.0-46.0-5.0-1.0-1.0-10.0,,,,,,,,,,1.0,1.0,,,,5e9f897c20320b000b1cc4cb,13:37:01,03/04/2024
,"<div style=""font-size: 10rem; color: #0000FF"">Y</div>",,ospan,letter,4PQ4e6N2E0R1CUhbSj9mY9bEtz82,html-keyboard-response,170,684387,0.0-46.0-5.0-1.0-1.0-11.0,,,,,,,,,,,,,,,5e9f897c20320b000b1cc4cb,13:37:01,03/04/2024
1661.0,,,ospan,symmetry,4PQ4e6N2E0R1CUhbSj9mY9bEtz82,symmetry-judgement-task,171,687934,0.0-46.0-5.0-1.0-1.0-12.0,,,,,,,,,,1.0,1.0,,,,5e9f897c20320b000b1cc4cb,13:37:01,03/04/2024
,"<div style=""font-size: 10rem; color: #0000FF"">H</div>",,ospan,letter,4PQ4e6N2E0R1CUhbSj9mY9bEtz82,html-keyboard-response,172,688941,0.0-46.0-5.0-1.0-1.0-13.0,,,,,,,,,,,,,,,5e9f897c20320b000b1cc4cb,13:37:01,03/04/2024
9155.300000071526,"<div class = numbox><p style=""font-size: 2.4rem"">Please recall the letters you saw to the best of your ability. If you do not remember a particular letter, use the SKIP button.<br><b>(When you are ready to lock in your answer, press ENTER)</b></p><button id = button_1 class = ""square num-button"" onclick = ""recordClick(this)""><div class = content><div class = numbers>C</div></div></button><button id = button_2 class = ""square num-button"" onclick = ""recordClick(this)""><div class = content><div class = numbers>G</div></div></button><button id = button_3 class = ""square num-button"" onclick = ""recordClick(this)""><div class = content><div class = numbers>H</div></div></button><button id = button_4 class = ""square num-button"" onclick = ""recordClick(this)""><div class = content><div class = numbers>J</div></div></button><button id = button_5 class = ""square num-button"" onclick = ""recordClick(this)""><div class = content><div class = numbers>K</div></div></button><button id = button_6 class = ""square num-button"" onclick = ""recordClick(this)""><div class = content><div class = numbers>L</div></div></button><button id = button_7 class = ""square num-button"" onclick = ""recordClick(this)""><div class = content><div class = numbers>N</div></div></button><button id = button_8 class = ""square num-button"" onclick = ""recordClick(this)""><div class = content><div class = numbers>P</div></div></button><button id = button_9 class = ""square num-button"" onclick = ""recordClick(this)""><div class = content><div class = numbers>Q</div></div></button><button id = button_10 class = ""square num-button"" onclick = ""recordClick(this)""><div class = content><div class = numbers>R</div></div></button><button id = button_11 class = ""square num-button"" onclick = ""recordClick(this)""><div class = content><div class = numbers>S</div></div></button><button id = button_12 class = ""square num-button"" onclick = ""recordClick(this)""><div class = content><div class = numbers>Y</div></div></button><button class = clear_button id = ""ClearButton"" onclick = ""clearResponse()"">BACKSPACE</button><button class = blank_button id = ""BlankButton"" onclick = ""blankResponse()"">SKIP</button><p style=""font-size: 2.4rem""><u><b>Current Answer:</b></u></p><br><br><div id=echoed_txt style=""font-size: 5rem; color:blue;""><b></b></div></div>",enter,ospan,retrieval,4PQ4e6N2E0R1CUhbSj9mY9bEtz82,html-keyboard-response,173,698855,0.0-46.0-5.0-1.0-2.0,28,21,15,7.0,"[""N"",""Q"",""C"",""J"",""Y"",""H""]","[""N"",""K"",""C"",""Q"",""J"",""Y"",""H""]",0.0,2.0,,,,,,,5e9f897c20320b000b1cc4cb,13:37:01,03/04/2024
3022.4000000953674,[''],0,ospan,feedback,4PQ4e6N2E0R1CUhbSj9mY9bEtz82,html-button-response,174,702385,0.0-46.0-5.0-1.0-3.0,,,,,,,,,,,,100.0,0.0,,5e9f897c20320b000b1cc4cb,13:37:01,03/04/2024
,"<p style=""font-size:75px;"">...</p>",,ospan,iti,4PQ4e6N2E0R1CUhbSj9mY9bEtz82,html-keyboard-response,175,703390,0.0-46.0-6.0-0.0-0.0,,,,,,,,,,,,,,,5e9f897c20320b000b1cc4cb,13:37:01,03/04/2024
1862.0,,,ospan,symmetry,4PQ4e6N2E0R1CUhbSj9mY9bEtz82,symmetry-judgement-task,176,706404,0.0-46.0-6.0-0.0-1.0-0.0,,,,,,,,,,1.0,1.0,,,,5e9f897c20320b000b1cc4cb,13:37:01,03/04/2024
,"<div style=""font-size: 10rem; color: #0000FF"">P</div>",,ospan,letter,4PQ4e6N2E0R1CUhbSj9mY9bEtz82,html-keyboard-response,177,707406,0.0-46.0-6.0-0.0-1.0-1.0,,,,,,,,,,,,,,,5e9f897c20320b000b1cc4cb,13:37:01,03/04/2024
1348.0,,,ospan,symmetry,4PQ4e6N2E0R1CUhbSj9mY9bEtz82,symmetry-judgement-task,178,710650,0.0-46.0-6.0-0.0-1.0-2.0,,,,,,,,,,1.0,1.0,,,,5e9f897c20320b000b1cc4cb,13:37:01,03/04/2024
,"<div style=""font-size: 10rem; color: #0000FF"">H</div>",,ospan,letter,4PQ4e6N2E0R1CUhbSj9mY9bEtz82,html-keyboard-response,179,711656,0.0-46.0-6.0-0.0-1.0-3.0,,,,,,,,,,,,,,,5e9f897c20320b000b1cc4cb,13:37:01,03/04/2024
1389.0,,,ospan,symmetry,4PQ4e6N2E0R1CUhbSj9mY9bEtz82,symmetry-judgement-task,180,714946,0.0-46.0-6.0-0.0-1.0-4.0,,,,,,,,,,1.0,1.0,,,,5e9f897c20320b000b1cc4cb,13:37:01,03/04/2024
,"<div style=""font-size: 10rem; color: #0000FF"">Y</div>",,ospan,letter,4PQ4e6N2E0R1CUhbSj9mY9bEtz82,html-keyboard-response,181,715963,0.0-46.0-6.0-0.0-1.0-5.0,,,,,,,,,,,,,,,5e9f897c20320b000b1cc4cb,13:37:01,03/04/2024
1472.0,,,ospan,symmetry,4PQ4e6N2E0R1CUhbSj9mY9bEtz82,symmetry-judgement-task,182,719328,0.0-46.0-6.0-0.0-1.0-6.0,,,,,,,,,,1.0,1.0,,,,5e9f897c20320b000b1cc4cb,13:37:01,03/04/2024
,"<div style=""font-size: 10rem; color: #0000FF"">C</div>",,ospan,letter,4PQ4e6N2E0R1CUhbSj9mY9bEtz82,html-keyboard-response,183,720342,0.0-46.0-6.0-0.0-1.0-7.0,,,,,,,,,,,,,,,5e9f897c20320b000b1cc4cb,13:37:01,03/04/2024
1292.0,,,ospan,symmetry,4PQ4e6N2E0R1CUhbSj9mY9bEtz82,symmetry-judgement-task,184,723542,0.0-46.0-6.0-0.0-1.0-8.0,,,,,,,,,,1.0,1.0,,,,5e9f897c20320b000b1cc4cb,13:37:01,03/04/2024
,"<div style=""font-size: 10rem; color: #0000FF"">L</div>",,ospan,letter,4PQ4e6N2E0R1CUhbSj9mY9bEtz82,html-keyboard-response,185,724556,0.0-46.0-6.0-0.0-1.0-9.0,,,,,,,,,,,,,,,5e9f897c20320b000b1cc4cb,13:37:01,03/04/2024
7431.799999952316,"<div class = numbox><p style=""font-size: 2.4rem"">Please recall the letters you saw to the best of your ability. If you do not remember a particular letter, use the SKIP button.<br><b>(When you are ready to lock in your answer, press ENTER)</b></p><button id = button_1 class = ""square num-button"" onclick = ""recordClick(this)""><div class = content><div class = numbers>C</div></div></button><button id = button_2 class = ""square num-button"" onclick = ""recordClick(this)""><div class = content><div class = numbers>G</div></div></button><button id = button_3 class = ""square num-button"" onclick = ""recordClick(this)""><div class = content><div class = numbers>H</div></div></button><button id = button_4 class = ""square num-button"" onclick = ""recordClick(this)""><div class = content><div class = numbers>J</div></div></button><button id = button_5 class = ""square num-button"" onclick = ""recordClick(this)""><div class = content><div class = numbers>K</div></div></button><button id = button_6 class = ""square num-button"" onclick = ""recordClick(this)""><div class = content><div class = numbers>L</div></div></button><button id = button_7 class = ""square num-button"" onclick = ""recordClick(this)""><div class = content><div class = numbers>N</div></div></button><button id = button_8 class = ""square num-button"" onclick = ""recordClick(this)""><div class = content><div class = numbers>P</div></div></button><button id = button_9 class = ""square num-button"" onclick = ""recordClick(this)""><div class = content><div class = numbers>Q</div></div></button><button id = button_10 class = ""square num-button"" onclick = ""recordClick(this)""><div class = content><div class = numbers>R</div></div></button><button id = button_11 class = ""square num-button"" onclick = ""recordClick(this)""><div class = content><div class = numbers>S</div></div></button><button id = button_12 class = ""square num-button"" onclick = ""recordClick(this)""><div class = content><div class = numbers>Y</div></div></button><button class = clear_button id = ""ClearButton"" onclick = ""clearResponse()"">BACKSPACE</button><button class = blank_button id = ""BlankButton"" onclick = ""blankResponse()"">SKIP</button><p style=""font-size: 2.4rem""><u><b>Current Answer:</b></u></p><br><br><div id=echoed_txt style=""font-size: 5rem; color:blue;""><b></b></div></div>",enter,ospan,retrieval,4PQ4e6N2E0R1CUhbSj9mY9bEtz82,html-keyboard-response,186,732740,0.0-46.0-6.0-0.0-2.0,33,26,20,5.0,"[""P"",""H"",""Y"",""C"",""L""]","[""P"",""H"",""Y"",""C"",""L""]",1.0,5.0,,,,,,,5e9f897c20320b000b1cc4cb,13:37:01,03/04/2024
872.1999999284744,[''],0,ospan,feedback,4PQ4e6N2E0R1CUhbSj9mY9bEtz82,html-button-response,187,734120,0.0-46.0-6.0-0.0-3.0,,,,,,,,,,,,100.0,0.0,,5e9f897c20320b000b1cc4cb,13:37:01,03/04/2024
,"<p style=""font-size:75px;"">...</p>",,ospan,iti,4PQ4e6N2E0R1CUhbSj9mY9bEtz82,html-keyboard-response,188,735126,0.0-46.0-6.0-1.0-0.0,,,,,,,,,,,,,,,5e9f897c20320b000b1cc4cb,13:37:01,03/04/2024
1373.0,,,ospan,symmetry,4PQ4e6N2E0R1CUhbSj9mY9bEtz82,symmetry-judgement-task,189,737633,0.0-46.0-6.0-1.0-1.0-0.0,,,,,,,,,,1.0,1.0,,,,5e9f897c20320b000b1cc4cb,13:37:01,03/04/2024
,"<div style=""font-size: 10rem; color: #0000FF"">C</div>",,ospan,letter,4PQ4e6N2E0R1CUhbSj9mY9bEtz82,html-keyboard-response,190,738643,0.0-46.0-6.0-1.0-1.0-1.0,,,,,,,,,,,,,,,5e9f897c20320b000b1cc4cb,13:37:01,03/04/2024
1298.0,,,ospan,symmetry,4PQ4e6N2E0R1CUhbSj9mY9bEtz82,symmetry-judgement-task,191,741844,0.0-46.0-6.0-1.0-1.0-2.0,,,,,,,,,,1.0,1.0,,,,5e9f897c20320b000b1cc4cb,13:37:01,03/04/2024
,"<div style=""font-size: 10rem; color: #0000FF"">S</div>",,ospan,letter,4PQ4e6N2E0R1CUhbSj9mY9bEtz82,html-keyboard-response,192,742856,0.0-46.0-6.0-1.0-1.0-3.0,,,,,,,,,,,,,,,5e9f897c20320b000b1cc4cb,13:37:01,03/04/2024
1347.0,,,ospan,symmetry,4PQ4e6N2E0R1CUhbSj9mY9bEtz82,symmetry-judgement-task,193,746129,0.0-46.0-6.0-1.0-1.0-4.0,,,,,,,,,,1.0,1.0,,,,5e9f897c20320b000b1cc4cb,13:37:01,03/04/2024
,"<div style=""font-size: 10rem; color: #0000FF"">J</div>",,ospan,letter,4PQ4e6N2E0R1CUhbSj9mY9bEtz82,html-keyboard-response,194,747131,0.0-46.0-6.0-1.0-1.0-5.0,,,,,,,,,,,,,,,5e9f897c20320b000b1cc4cb,13:37:01,03/04/2024
1427.0,,,ospan,symmetry,4PQ4e6N2E0R1CUhbSj9mY9bEtz82,symmetry-judgement-task,195,750486,0.0-46.0-6.0-1.0-1.0-6.0,,,,,,,,,,1.0,1.0,,,,5e9f897c20320b000b1cc4cb,13:37:01,03/04/2024
,"<div style=""font-size: 10rem; color: #0000FF"">H</div>",,ospan,letter,4PQ4e6N2E0R1CUhbSj9mY9bEtz82,html-keyboard-response,196,751489,0.0-46.0-6.0-1.0-1.0-7.0,,,,,,,,,,,,,,,5e9f897c20320b000b1cc4cb,13:37:01,03/04/2024
1330.0,,,ospan,symmetry,4PQ4e6N2E0R1CUhbSj9mY9bEtz82,symmetry-judgement-task,197,754742,0.0-46.0-6.0-1.0-1.0-8.0,,,,,,,,,,1.0,1.0,,,,5e9f897c20320b000b1cc4cb,13:37:01,03/04/2024
,"<div style=""font-size: 10rem; color: #0000FF"">N</div>",,ospan,letter,4PQ4e6N2E0R1CUhbSj9mY9bEtz82,html-keyboard-response,198,755752,0.0-46.0-6.0-1.0-1.0-9.0,,,,,,,,,,,,,,,5e9f897c20320b000b1cc4cb,13:37:01,03/04/2024
1531.0,,,ospan,symmetry,4PQ4e6N2E0R1CUhbSj9mY9bEtz82,symmetry-judgement-task,199,759180,0.0-46.0-6.0-1.0-1.0-10.0,,,,,,,,,,1.0,1.0,,,,5e9f897c20320b000b1cc4cb,13:37:01,03/04/2024
,"<div style=""font-size: 10rem; color: #0000FF"">G</div>",,ospan,letter,4PQ4e6N2E0R1CUhbSj9mY9bEtz82,html-keyboard-response,200,760189,0.0-46.0-6.0-1.0-1.0-11.0,,,,,,,,,,,,,,,5e9f897c20320b000b1cc4cb,13:37:01,03/04/2024
1151.0,,,ospan,symmetry,4PQ4e6N2E0R1CUhbSj9mY9bEtz82,symmetry-judgement-task,201,763249,0.0-46.0-6.0-1.0-1.0-12.0,,,,,,,,,,1.0,1.0,,,,5e9f897c20320b000b1cc4cb,13:37:01,03/04/2024
,"<div style=""font-size: 10rem; color: #0000FF"">Q</div>",,ospan,letter,4PQ4e6N2E0R1CUhbSj9mY9bEtz82,html-keyboard-response,202,764257,0.0-46.0-6.0-1.0-1.0-13.0,,,,,,,,,,,,,,,5e9f897c20320b000b1cc4cb,13:37:01,03/04/2024
1190.0,,,ospan,symmetry,4PQ4e6N2E0R1CUhbSj9mY9bEtz82,symmetry-judgement-task,203,767366,0.0-46.0-6.0-1.0-1.0-14.0,,,,,,,,,,1.0,1.0,,,,5e9f897c20320b000b1cc4cb,13:37:01,03/04/2024
,"<div style=""font-size: 10rem; color: #0000FF"">K</div>",,ospan,letter,4PQ4e6N2E0R1CUhbSj9mY9bEtz82,html-keyboard-response,204,768379,0.0-46.0-6.0-1.0-1.0-15.0,,,,,,,,,,,,,,,5e9f897c20320b000b1cc4cb,13:37:01,03/04/2024
11677.0,"<div class = numbox><p style=""font-size: 2.4rem"">Please recall the letters you saw to the best of your ability. If you do not remember a particular letter, use the SKIP button.<br><b>(When you are ready to lock in your answer, press ENTER)</b></p><button id = button_1 class = ""square num-button"" onclick = ""recordClick(this)""><div class = content><div class = numbers>C</div></div></button><button id = button_2 class = ""square num-button"" onclick = ""recordClick(this)""><div class = content><div class = numbers>G</div></div></button><button id = button_3 class = ""square num-button"" onclick = ""recordClick(this)""><div class = content><div class = numbers>H</div></div></button><button id = button_4 class = ""square num-button"" onclick = ""recordClick(this)""><div class = content><div class = numbers>J</div></div></button><button id = button_5 class = ""square num-button"" onclick = ""recordClick(this)""><div class = content><div class = numbers>K</div></div></button><button id = button_6 class = ""square num-button"" onclick = ""recordClick(this)""><div class = content><div class = numbers>L</div></div></button><button id = button_7 class = ""square num-button"" onclick = ""recordClick(this)""><div class = content><div class = numbers>N</div></div></button><button id = button_8 class = ""square num-button"" onclick = ""recordClick(this)""><div class = content><div class = numbers>P</div></div></button><button id = button_9 class = ""square num-button"" onclick = ""recordClick(this)""><div class = content><div class = numbers>Q</div></div></button><button id = button_10 class = ""square num-button"" onclick = ""recordClick(this)""><div class = content><div class = numbers>R</div></div></button><button id = button_11 class = ""square num-button"" onclick = ""recordClick(this)""><div class = content><div class = numbers>S</div></div></button><button id = button_12 class = ""square num-button"" onclick = ""recordClick(this)""><div class = content><div class = numbers>Y</div></div></button><button class = clear_button id = ""ClearButton"" onclick = ""clearResponse()"">BACKSPACE</button><button class = blank_button id = ""BlankButton"" onclick = ""blankResponse()"">SKIP</button><p style=""font-size: 2.4rem""><u><b>Current Answer:</b></u></p><br><br><div id=echoed_txt style=""font-size: 5rem; color:blue;""><b></b></div></div>",enter,ospan,retrieval,4PQ4e6N2E0R1CUhbSj9mY9bEtz82,html-keyboard-response,205,780818,0.0-46.0-6.0-1.0-2.0,41,30,20,8.0,"[""C"",""S"",""J"",""H"",""Y"",""L""]","[""C"",""S"",""J"",""H"",""N"",""G"",""Q"",""K""]",0.0,4.0,,,,,,,5e9f897c20320b000b1cc4cb,13:37:01,03/04/2024
935.8000000715256,[''],0,ospan,feedback,4PQ4e6N2E0R1CUhbSj9mY9bEtz82,html-button-response,206,782271,0.0-46.0-6.0-1.0-3.0,,,,,,,,,,,,100.0,0.0,,5e9f897c20320b000b1cc4cb,13:37:01,03/04/2024
15830.600000023842,,{'Q0': 'I enjoyed speaking it out loud and the task was very clear'},ospan,survey_ospan,4PQ4e6N2E0R1CUhbSj9mY9bEtz82,lmdlab-survey-text,207,798859,0.0-46.0-7.0,,,,,,,,,,,,,,4PQ4e6N2E0R1CUhbSj9mY9bEtz82,5e9f897c20320b000b1cc4cb,13:37:01,03/04/2024
1340.2000000476837,<p><p style='font-size: 3rem'>Great work!<br><br>This completes the symmetry and memory task.</p><br><br><br>,0,ospan,finish,4PQ4e6N2E0R1CUhbSj9mY9bEtz82,html-button-response,208,800200,0.0-46.0-8.0,41,30,20,,,,,,,,,100.0,,,5e9f897c20320b000b1cc4cb,13:37:01,03/04/2024
