rt,stimulus,response,exp_name,exp_stage,subjectID,trial_type,trial_index,time_elapsed,internal_node_id,ospan_shown,ospan_total,ospan_abs,length,resp_actual,resp_correct,full_correct,num_correct,feedback,accuracy,correct,math_acc,math_warning,databaseID,prolificID,start_time,date
4585.5,<div class = 'left_align' style='font-size: 3.25rem; line-height: 1.3;'><p class = 'center_align'><b>Welcome to the Symmetry and Memory Task</b><br><br><br><br></p>Press 'continue' to show the instructions.<br><br><br><br></div>,0,ospan,instruct,mufmdoqkSJZt4OECcncMtnYUdTx1,html-button-response,54,746817,0.0-46.0-0.0-0.0-0.0,,,,,,,,,,,,,,,5bbd045428989b00019107be,21:56:50,03/04/2024
13491.600000000093,"<div class = 'left_align' style='font-size: 3.25rem; line-height: 1.3;'><p class = 'center_align'><b>Symmetry and Memory Task</b><br><br></p>In this task, you will try to memorize letters you see on the screen<br>while you also view black and white grid pictures.<br><br>In the next few minutes, you will have some practice to get you familiar<br>with how the task works.<br><br>It may be difficult sometimes, but please do not worry about making mistakes!<br><br>We will begin by practicing the letter part of the task.<br><br><br><br></div>",0,ospan,instruct,mufmdoqkSJZt4OECcncMtnYUdTx1,html-button-response,55,760563,0.0-46.0-0.0-0.0-1.0,,,,,,,,,,,,,,,5bbd045428989b00019107be,21:56:50,03/04/2024
13919.399999999907,"<div class = 'left_align' style='font-size: 3.25rem; line-height: 1.3;'>For this practice part, letters will appear on the screen one at a time.<br><br>Try to remember each letter in the order presented.<br><br>After some letters have been shown, you will see a response screen. Your<br>goal is to report the letters you saw <b>in order</b>. If you do not remember<br>a particular letter, you will have the option to leave it blank.<br><br><br><br></div>",0,ospan,instruct,mufmdoqkSJZt4OECcncMtnYUdTx1,html-button-response,56,774736,0.0-46.0-0.0-0.0-2.0,,,,,,,,,,,,,,,5bbd045428989b00019107be,21:56:50,03/04/2024
6115.40000000014,"<div class = 'left_align' style='font-size: 3.25rem; line-height: 1.3;'>Remember, it is very important to get the letters in the same<br>order as you see them.<br><br>When you are ready, you may begin the letter practice.</div><br><br><br><br>",0,ospan,instruct,mufmdoqkSJZt4OECcncMtnYUdTx1,html-button-response,57,781104,0.0-46.0-0.0-0.0-3.0,,,,,,,,,,,,,,,5bbd045428989b00019107be,21:56:50,03/04/2024
,"<p style=""font-size:75px;"">...</p>",,ospan,iti,mufmdoqkSJZt4OECcncMtnYUdTx1,html-keyboard-response,58,782357,0.0-46.0-0.0-1.0-0.0,,,,,,,,,,,,,,,5bbd045428989b00019107be,21:56:50,03/04/2024
,"<div style=""font-size: 10rem; color: #0000FF"">N</div>",,ospan,letter,mufmdoqkSJZt4OECcncMtnYUdTx1,html-keyboard-response,59,783360,0.0-46.0-0.0-1.0-1.0,,,,,,,,,,,,,,,5bbd045428989b00019107be,21:56:50,03/04/2024
,"<div style=""font-size: 10rem; color: #0000FF"">J</div>",,ospan,letter,mufmdoqkSJZt4OECcncMtnYUdTx1,html-keyboard-response,60,785112,0.0-46.0-0.0-1.0-2.0,,,,,,,,,,,,,,,5bbd045428989b00019107be,21:56:50,03/04/2024
16852.300000000047,"<div class = numbox><p style=""font-size: 2.4rem"">Please recall the letters you saw to the best of your ability. If you do not remember a particular letter, use the SKIP button.<br><b>(When you are ready to lock in your answer, press ENTER)</b></p><button id = button_1 class = ""square num-button"" onclick = ""recordClick(this)""><div class = content><div class = numbers>C</div></div></button><button id = button_2 class = ""square num-button"" onclick = ""recordClick(this)""><div class = content><div class = numbers>G</div></div></button><button id = button_3 class = ""square num-button"" onclick = ""recordClick(this)""><div class = content><div class = numbers>H</div></div></button><button id = button_4 class = ""square num-button"" onclick = ""recordClick(this)""><div class = content><div class = numbers>J</div></div></button><button id = button_5 class = ""square num-button"" onclick = ""recordClick(this)""><div class = content><div class = numbers>K</div></div></button><button id = button_6 class = ""square num-button"" onclick = ""recordClick(this)""><div class = content><div class = numbers>L</div></div></button><button id = button_7 class = ""square num-button"" onclick = ""recordClick(this)""><div class = content><div class = numbers>N</div></div></button><button id = button_8 class = ""square num-button"" onclick = ""recordClick(this)""><div class = content><div class = numbers>P</div></div></button><button id = button_9 class = ""square num-button"" onclick = ""recordClick(this)""><div class = content><div class = numbers>Q</div></div></button><button id = button_10 class = ""square num-button"" onclick = ""recordClick(this)""><div class = content><div class = numbers>R</div></div></button><button id = button_11 class = ""square num-button"" onclick = ""recordClick(this)""><div class = content><div class = numbers>S</div></div></button><button id = button_12 class = ""square num-button"" onclick = ""recordClick(this)""><div class = content><div class = numbers>Y</div></div></button><button class = clear_button id = ""ClearButton"" onclick = ""clearResponse()"">BACKSPACE</button><button class = blank_button id = ""BlankButton"" onclick = ""blankResponse()"">SKIP</button><p style=""font-size: 2.4rem""><u><b>Current Answer:</b></u></p><br><br><div id=echoed_txt style=""font-size: 5rem; color:blue;""><b></b></div></div>",enter,ospan,retrieval,mufmdoqkSJZt4OECcncMtnYUdTx1,html-keyboard-response,61,802717,0.0-46.0-0.0-1.0-3.0,NA,NA,NA,2.0,"[""N"",""J""]","[""N"",""J""]",1.0,2.0,"['<font color=""green"">N</font>', '<font color=""green"">J</font>']",,,,,,5bbd045428989b00019107be,21:56:50,03/04/2024
1831.3000000000466,"['<p style=""font-size:44px"">Letters:<br><br><br><font color=""green"">N</font> <font color=""green"">J</font></p><br><br>']",0,ospan,practice_feedback,mufmdoqkSJZt4OECcncMtnYUdTx1,html-button-response,62,805054,0.0-46.0-0.0-1.0-4.0,,,,,,,,,,,,,,,5bbd045428989b00019107be,21:56:50,03/04/2024
,"<p style=""font-size:75px;"">...</p>",,ospan,iti,mufmdoqkSJZt4OECcncMtnYUdTx1,html-keyboard-response,63,806057,0.0-46.0-0.0-2.0-0.0,,,,,,,,,,,,,,,5bbd045428989b00019107be,21:56:50,03/04/2024
,"<div style=""font-size: 10rem; color: #0000FF"">L</div>",,ospan,letter,mufmdoqkSJZt4OECcncMtnYUdTx1,html-keyboard-response,64,807059,0.0-46.0-0.0-2.0-1.0,,,,,,,,,,,,,,,5bbd045428989b00019107be,21:56:50,03/04/2024
,"<div style=""font-size: 10rem; color: #0000FF"">N</div>",,ospan,letter,mufmdoqkSJZt4OECcncMtnYUdTx1,html-keyboard-response,65,808811,0.0-46.0-0.0-2.0-2.0,,,,,,,,,,,,,,,5bbd045428989b00019107be,21:56:50,03/04/2024
,"<div style=""font-size: 10rem; color: #0000FF"">G</div>",,ospan,letter,mufmdoqkSJZt4OECcncMtnYUdTx1,html-keyboard-response,66,810563,0.0-46.0-0.0-2.0-3.0,,,,,,,,,,,,,,,5bbd045428989b00019107be,21:56:50,03/04/2024
6901.700000000186,"<div class = numbox><p style=""font-size: 2.4rem"">Please recall the letters you saw to the best of your ability. If you do not remember a particular letter, use the SKIP button.<br><b>(When you are ready to lock in your answer, press ENTER)</b></p><button id = button_1 class = ""square num-button"" onclick = ""recordClick(this)""><div class = content><div class = numbers>C</div></div></button><button id = button_2 class = ""square num-button"" onclick = ""recordClick(this)""><div class = content><div class = numbers>G</div></div></button><button id = button_3 class = ""square num-button"" onclick = ""recordClick(this)""><div class = content><div class = numbers>H</div></div></button><button id = button_4 class = ""square num-button"" onclick = ""recordClick(this)""><div class = content><div class = numbers>J</div></div></button><button id = button_5 class = ""square num-button"" onclick = ""recordClick(this)""><div class = content><div class = numbers>K</div></div></button><button id = button_6 class = ""square num-button"" onclick = ""recordClick(this)""><div class = content><div class = numbers>L</div></div></button><button id = button_7 class = ""square num-button"" onclick = ""recordClick(this)""><div class = content><div class = numbers>N</div></div></button><button id = button_8 class = ""square num-button"" onclick = ""recordClick(this)""><div class = content><div class = numbers>P</div></div></button><button id = button_9 class = ""square num-button"" onclick = ""recordClick(this)""><div class = content><div class = numbers>Q</div></div></button><button id = button_10 class = ""square num-button"" onclick = ""recordClick(this)""><div class = content><div class = numbers>R</div></div></button><button id = button_11 class = ""square num-button"" onclick = ""recordClick(this)""><div class = content><div class = numbers>S</div></div></button><button id = button_12 class = ""square num-button"" onclick = ""recordClick(this)""><div class = content><div class = numbers>Y</div></div></button><button class = clear_button id = ""ClearButton"" onclick = ""clearResponse()"">BACKSPACE</button><button class = blank_button id = ""BlankButton"" onclick = ""blankResponse()"">SKIP</button><p style=""font-size: 2.4rem""><u><b>Current Answer:</b></u></p><br><br><div id=echoed_txt style=""font-size: 5rem; color:blue;""><b></b></div></div>",enter,ospan,retrieval,mufmdoqkSJZt4OECcncMtnYUdTx1,html-keyboard-response,67,818217,0.0-46.0-0.0-2.0-4.0,NA,NA,NA,3.0,"[""L"",""N"",""G""]","[""L"",""N"",""G""]",1.0,3.0,"['<font color=""green"">L</font>', '<font color=""green"">N</font>', '<font color=""green"">G</font>']",,,,,,5bbd045428989b00019107be,21:56:50,03/04/2024
1860.8000000000466,"['<p style=""font-size:44px"">Letters:<br><br><br><font color=""green"">L</font> <font color=""green"">N</font> <font color=""green"">G</font></p><br><br>']",0,ospan,practice_feedback,mufmdoqkSJZt4OECcncMtnYUdTx1,html-button-response,68,820581,0.0-46.0-0.0-2.0-5.0,,,,,,,,,,,,,,,5bbd045428989b00019107be,21:56:50,03/04/2024
21028.299999999814,"<div class = 'left_align' style='font-size: 3.25rem; line-height: 1.3;'>Now you will practice doing the <b>symmetry judgment part</b> of the experiment.<br><br>A black and white grid picture will appear on the screen and you have to judge if it is <br>symmetrical or asymetrical.<br><br>A picture is 'mirror' symmetrical if its left half is identical to the right half when flipped.<br>Here are examples of a symmetrical and an asymetrical picture:<br><br><center><img src='Stimuli/img/symm_instructions_extra.png' style='height:420px; width:900'></img></center><br>To judge symmetry, imagine you were to fold each picture down the middle, like a book –<br>would the left half match the right half when folded onto each other?<br><br></div><br>",0,ospan,instruct,mufmdoqkSJZt4OECcncMtnYUdTx1,html-button-response,69,841612,0.0-46.0-1.0-0.0-0.0,,,,,,,,,,,,,,,5bbd045428989b00019107be,21:56:50,03/04/2024
13719.0,"<div class = 'left_align' style='font-size: 3.25rem; line-height: 1.3;'>When you have viewed the picture and determined whether it is symmetrical or not,<br>you can <b>click the Yes or No button</b> below to answer.<br><br>If you take longer than 15 seconds, it will continue automatically<br>and record the answer as an error.</div><br>",0,ospan,instruct,mufmdoqkSJZt4OECcncMtnYUdTx1,html-button-response,70,855583,0.0-46.0-1.0-0.0-1.0,,,,,,,,,,,,,,,5bbd045428989b00019107be,21:56:50,03/04/2024
7507.899999999907,"<div class = 'left_align' style='font-size: 3.25rem; line-height: 1.3;'>It is <b>very</b> important that you make the symmetry judgment correctly.<br><br>It is also important that you try and judge the picture as quickly as you can.<br><br>When you are ready, click on the button below to try some practice problems.</div><br><br><br><br>",0,ospan,instruct,mufmdoqkSJZt4OECcncMtnYUdTx1,html-button-response,71,863343,0.0-46.0-1.0-0.0-2.0,,,,,,,,,,,,,,,5bbd045428989b00019107be,21:56:50,03/04/2024
2582.0,,,ospan,symmetry,mufmdoqkSJZt4OECcncMtnYUdTx1,symmetry-judgement-task,72,866720,0.0-46.0-1.0-1.0-0.0,,,,,,,,,,1.0,1.0,,,,5bbd045428989b00019107be,21:56:50,03/04/2024
,"<p style=""color:green; font-size: 35px"">Correct</p>",,ospan,feedback,mufmdoqkSJZt4OECcncMtnYUdTx1,html-keyboard-response,73,867472,0.0-46.0-1.0-1.0-1.0,,,,,,,,,,,,,,,5bbd045428989b00019107be,21:56:50,03/04/2024
2713.0,,,ospan,symmetry,mufmdoqkSJZt4OECcncMtnYUdTx1,symmetry-judgement-task,74,872870,0.0-46.0-1.0-1.0-2.0,,,,,,,,,,1.0,1.0,,,,5bbd045428989b00019107be,21:56:50,03/04/2024
,"<p style=""color:green; font-size: 35px"">Correct</p>",,ospan,feedback,mufmdoqkSJZt4OECcncMtnYUdTx1,html-keyboard-response,75,873623,0.0-46.0-1.0-1.0-3.0,,,,,,,,,,,,,,,5bbd045428989b00019107be,21:56:50,03/04/2024
1897.0,,,ospan,symmetry,mufmdoqkSJZt4OECcncMtnYUdTx1,symmetry-judgement-task,76,878201,0.0-46.0-1.0-1.0-4.0,,,,,,,,,,1.0,1.0,,,,5bbd045428989b00019107be,21:56:50,03/04/2024
,"<p style=""color:green; font-size: 35px"">Correct</p>",,ospan,feedback,mufmdoqkSJZt4OECcncMtnYUdTx1,html-keyboard-response,77,878953,0.0-46.0-1.0-1.0-5.0,,,,,,,,,,,,,,,5bbd045428989b00019107be,21:56:50,03/04/2024
2442.1999999999534,"<p style=""font-size: 3rem;"">You responded correctly on 3 of 3 symmetry judgments. Good job!</p><br><br>",0,ospan,practice,mufmdoqkSJZt4OECcncMtnYUdTx1,html-button-response,78,883398,0.0-46.0-1.0-2.0,,,,,,,,,,,,,,,5bbd045428989b00019107be,21:56:50,03/04/2024
30512.800000000047,"<div class = 'left_align' style='font-size: 3.25rem; line-height: 1.3;'>Now you will practice doing both parts of the experiment at the same time.<br><br>In the next practice set, you will be given one grid picture to judge.<br>Then letter will appear on the screen. Try to remember the letter.<br><br>It is <b>very important</b> to make the symmetry judgment as quickly and accurately as possible.<br><br>Just as before, once you have make the symmetry judgment, you can click Yes or No.<br><b>Note that you will no longer see Correct or Incorrect feedback.</div><br><br><br><br>",0,ospan,instruct,mufmdoqkSJZt4OECcncMtnYUdTx1,html-button-response,79,914163,0.0-46.0-2.0-0.0-0.0,,,,,,,,,,,,,,,5bbd045428989b00019107be,21:56:50,03/04/2024
10945.5,"<div class = 'left_align' style='font-size: 3.25rem; line-height: 1.3;'>After the letter goes away, another grid picture will appear, and then<br>another letter.<br><br>At the end of each set of letters and grids, you will recall the letters to the best<br>of your ability. Remember, try your best to get the letters in the correct order.<br><br>It is important to <b>quickly</b> and <b>accurately</b> make the symmetry judgments.</div><br><br><br><br>",0,ospan,instruct,mufmdoqkSJZt4OECcncMtnYUdTx1,html-button-response,80,925361,0.0-46.0-2.0-0.0-1.0,,,,,,,,,,,,,,,5bbd045428989b00019107be,21:56:50,03/04/2024
22222.0,"<div class = 'left_align' style='font-size: 3.25rem; line-height: 1.3;'>On the feedback screen, if you are not doing well at the symmetry judgments,<br>you will also see a warning in the middle. This indicates your percent <br>correct for the grid pictures for the entire experiment.<br><br>It is <b>very</b> important for you to keep accuracy at least at 85%: <u>We can only use<br>data where the participant was at least 85% accurate on the judgments.</u> Therefore,<br> please try your best to perform well on the symmetry judgments, <b>at the same time</b><br>doing your best to recall as many letters as possible.<br><br>Click the button to try some practice problems.</div><br><br><br><br>",0,ospan,instruct,mufmdoqkSJZt4OECcncMtnYUdTx1,html-button-response,81,947837,0.0-46.0-2.0-0.0-2.0,,,,,,,,,,,,,,,5bbd045428989b00019107be,21:56:50,03/04/2024
,"<p style=""font-size:75px;"">...</p>",,ospan,iti,mufmdoqkSJZt4OECcncMtnYUdTx1,html-keyboard-response,82,949090,0.0-46.0-2.0-1.0-0.0,,,,,,,,,,,,,,,5bbd045428989b00019107be,21:56:50,03/04/2024
3461.0,,,ospan,symmetry,mufmdoqkSJZt4OECcncMtnYUdTx1,symmetry-judgement-task,83,953588,0.0-46.0-2.0-1.0-1.0-0.0,,,,,,,,,,1.0,1.0,,,,5bbd045428989b00019107be,21:56:50,03/04/2024
,"<div style=""font-size: 10rem; color: #0000FF"">S</div>",,ospan,letter,mufmdoqkSJZt4OECcncMtnYUdTx1,html-keyboard-response,84,954591,0.0-46.0-2.0-1.0-1.0-1.0,,,,,,,,,,,,,,,5bbd045428989b00019107be,21:56:50,03/04/2024
2880.0,,,ospan,symmetry,mufmdoqkSJZt4OECcncMtnYUdTx1,symmetry-judgement-task,85,959415,0.0-46.0-2.0-1.0-1.0-2.0,,,,,,,,,,1.0,1.0,,,,5bbd045428989b00019107be,21:56:50,03/04/2024
,"<div style=""font-size: 10rem; color: #0000FF"">K</div>",,ospan,letter,mufmdoqkSJZt4OECcncMtnYUdTx1,html-keyboard-response,86,960417,0.0-46.0-2.0-1.0-1.0-3.0,,,,,,,,,,,,,,,5bbd045428989b00019107be,21:56:50,03/04/2024
2964.0,,,ospan,symmetry,mufmdoqkSJZt4OECcncMtnYUdTx1,symmetry-judgement-task,87,965313,0.0-46.0-2.0-1.0-1.0-4.0,,,,,,,,,,1.0,1.0,,,,5bbd045428989b00019107be,21:56:50,03/04/2024
,"<div style=""font-size: 10rem; color: #0000FF"">R</div>",,ospan,letter,mufmdoqkSJZt4OECcncMtnYUdTx1,html-keyboard-response,88,966315,0.0-46.0-2.0-1.0-1.0-5.0,,,,,,,,,,,,,,,5bbd045428989b00019107be,21:56:50,03/04/2024
7766.09999999986,"<div class = numbox><p style=""font-size: 2.4rem"">Please recall the letters you saw to the best of your ability. If you do not remember a particular letter, use the SKIP button.<br><b>(When you are ready to lock in your answer, press ENTER)</b></p><button id = button_1 class = ""square num-button"" onclick = ""recordClick(this)""><div class = content><div class = numbers>C</div></div></button><button id = button_2 class = ""square num-button"" onclick = ""recordClick(this)""><div class = content><div class = numbers>G</div></div></button><button id = button_3 class = ""square num-button"" onclick = ""recordClick(this)""><div class = content><div class = numbers>H</div></div></button><button id = button_4 class = ""square num-button"" onclick = ""recordClick(this)""><div class = content><div class = numbers>J</div></div></button><button id = button_5 class = ""square num-button"" onclick = ""recordClick(this)""><div class = content><div class = numbers>K</div></div></button><button id = button_6 class = ""square num-button"" onclick = ""recordClick(this)""><div class = content><div class = numbers>L</div></div></button><button id = button_7 class = ""square num-button"" onclick = ""recordClick(this)""><div class = content><div class = numbers>N</div></div></button><button id = button_8 class = ""square num-button"" onclick = ""recordClick(this)""><div class = content><div class = numbers>P</div></div></button><button id = button_9 class = ""square num-button"" onclick = ""recordClick(this)""><div class = content><div class = numbers>Q</div></div></button><button id = button_10 class = ""square num-button"" onclick = ""recordClick(this)""><div class = content><div class = numbers>R</div></div></button><button id = button_11 class = ""square num-button"" onclick = ""recordClick(this)""><div class = content><div class = numbers>S</div></div></button><button id = button_12 class = ""square num-button"" onclick = ""recordClick(this)""><div class = content><div class = numbers>Y</div></div></button><button class = clear_button id = ""ClearButton"" onclick = ""clearResponse()"">BACKSPACE</button><button class = blank_button id = ""BlankButton"" onclick = ""blankResponse()"">SKIP</button><p style=""font-size: 2.4rem""><u><b>Current Answer:</b></u></p><br><br><div id=echoed_txt style=""font-size: 5rem; color:blue;""><b></b></div></div>",enter,ospan,retrieval,mufmdoqkSJZt4OECcncMtnYUdTx1,html-keyboard-response,89,974834,0.0-46.0-2.0-1.0-2.0-0.0,NA,NA,NA,3.0,"[""S"",""K"",""R""]","[""S"",""K"",""R""]",1.0,3.0,"['<font color=""green"">S</font>', '<font color=""green"">K</font>', '<font color=""green"">R</font>']",,,,,,5bbd045428989b00019107be,21:56:50,03/04/2024
2392.3000000000466,"['<p style=""font-size:44px"">Letters:<br><br><br><font color=""green"">S</font> <font color=""green"">K</font> <font color=""green"">R</font></p><br><br><p style=""font-size:30px"">Symmetry:<br><br><font color=""green"">100%</font></p><br><br>']",0,ospan,practice_feedback,mufmdoqkSJZt4OECcncMtnYUdTx1,html-button-response,90,977729,0.0-46.0-2.0-1.0-2.0-1.0,,,,,,,,,,,,,,,5bbd045428989b00019107be,21:56:50,03/04/2024
,"<p style=""font-size:75px;"">...</p>",,ospan,iti,mufmdoqkSJZt4OECcncMtnYUdTx1,html-keyboard-response,91,978732,0.0-46.0-2.0-2.0-0.0,,,,,,,,,,,,,,,5bbd045428989b00019107be,21:56:50,03/04/2024
3209.0,,,ospan,symmetry,mufmdoqkSJZt4OECcncMtnYUdTx1,symmetry-judgement-task,92,982980,0.0-46.0-2.0-2.0-1.0-0.0,,,,,,,,,,1.0,1.0,,,,5bbd045428989b00019107be,21:56:50,03/04/2024
,"<div style=""font-size: 10rem; color: #0000FF"">H</div>",,ospan,letter,mufmdoqkSJZt4OECcncMtnYUdTx1,html-keyboard-response,93,983982,0.0-46.0-2.0-2.0-1.0-1.0,,,,,,,,,,,,,,,5bbd045428989b00019107be,21:56:50,03/04/2024
1797.0,,,ospan,symmetry,mufmdoqkSJZt4OECcncMtnYUdTx1,symmetry-judgement-task,94,987728,0.0-46.0-2.0-2.0-1.0-2.0,,,,,,,,,,1.0,1.0,,,,5bbd045428989b00019107be,21:56:50,03/04/2024
,"<div style=""font-size: 10rem; color: #0000FF"">C</div>",,ospan,letter,mufmdoqkSJZt4OECcncMtnYUdTx1,html-keyboard-response,95,988731,0.0-46.0-2.0-2.0-1.0-3.0,,,,,,,,,,,,,,,5bbd045428989b00019107be,21:56:50,03/04/2024
4417.0,,,ospan,symmetry,mufmdoqkSJZt4OECcncMtnYUdTx1,symmetry-judgement-task,96,995078,0.0-46.0-2.0-2.0-1.0-4.0,,,,,,,,,,1.0,1.0,,,,5bbd045428989b00019107be,21:56:50,03/04/2024
,"<div style=""font-size: 10rem; color: #0000FF"">R</div>",,ospan,letter,mufmdoqkSJZt4OECcncMtnYUdTx1,html-keyboard-response,97,996080,0.0-46.0-2.0-2.0-1.0-5.0,,,,,,,,,,,,,,,5bbd045428989b00019107be,21:56:50,03/04/2024
9368.799999999814,"<div class = numbox><p style=""font-size: 2.4rem"">Please recall the letters you saw to the best of your ability. If you do not remember a particular letter, use the SKIP button.<br><b>(When you are ready to lock in your answer, press ENTER)</b></p><button id = button_1 class = ""square num-button"" onclick = ""recordClick(this)""><div class = content><div class = numbers>C</div></div></button><button id = button_2 class = ""square num-button"" onclick = ""recordClick(this)""><div class = content><div class = numbers>G</div></div></button><button id = button_3 class = ""square num-button"" onclick = ""recordClick(this)""><div class = content><div class = numbers>H</div></div></button><button id = button_4 class = ""square num-button"" onclick = ""recordClick(this)""><div class = content><div class = numbers>J</div></div></button><button id = button_5 class = ""square num-button"" onclick = ""recordClick(this)""><div class = content><div class = numbers>K</div></div></button><button id = button_6 class = ""square num-button"" onclick = ""recordClick(this)""><div class = content><div class = numbers>L</div></div></button><button id = button_7 class = ""square num-button"" onclick = ""recordClick(this)""><div class = content><div class = numbers>N</div></div></button><button id = button_8 class = ""square num-button"" onclick = ""recordClick(this)""><div class = content><div class = numbers>P</div></div></button><button id = button_9 class = ""square num-button"" onclick = ""recordClick(this)""><div class = content><div class = numbers>Q</div></div></button><button id = button_10 class = ""square num-button"" onclick = ""recordClick(this)""><div class = content><div class = numbers>R</div></div></button><button id = button_11 class = ""square num-button"" onclick = ""recordClick(this)""><div class = content><div class = numbers>S</div></div></button><button id = button_12 class = ""square num-button"" onclick = ""recordClick(this)""><div class = content><div class = numbers>Y</div></div></button><button class = clear_button id = ""ClearButton"" onclick = ""clearResponse()"">BACKSPACE</button><button class = blank_button id = ""BlankButton"" onclick = ""blankResponse()"">SKIP</button><p style=""font-size: 2.4rem""><u><b>Current Answer:</b></u></p><br><br><div id=echoed_txt style=""font-size: 5rem; color:blue;""><b></b></div></div>",enter,ospan,retrieval,mufmdoqkSJZt4OECcncMtnYUdTx1,html-keyboard-response,98,1006202,0.0-46.0-2.0-2.0-2.0-0.0,NA,NA,NA,3.0,"[""H"",""C"",""R""]","[""H"",""C"",""R""]",1.0,3.0,"['<font color=""green"">H</font>', '<font color=""green"">C</font>', '<font color=""green"">R</font>']",,,,,,5bbd045428989b00019107be,21:56:50,03/04/2024
1501.5,"['<p style=""font-size:44px"">Letters:<br><br><br><font color=""green"">H</font> <font color=""green"">C</font> <font color=""green"">R</font></p><br><br><p style=""font-size:30px"">Symmetry:<br><br><font color=""green"">100%</font></p><br><br>']",0,ospan,practice_feedback,mufmdoqkSJZt4OECcncMtnYUdTx1,html-button-response,99,1008207,0.0-46.0-2.0-2.0-2.0-1.0,,,,,,,,,,,,,,,5bbd045428989b00019107be,21:56:50,03/04/2024
31138.600000000093,"<div class = 'left_align' style='font-size: 3rem; line-height: 1.3;'><b>Great work! That is the end of practice.</b><br><br>The real trials will look just like the practice trials you just completed.<br><br><u>Here, you will not see feedback</u>. First, you will see an grid picture to judge,<br>then a letter to remember. When the recall screen appears, report the letters in the<br>order presented. If you forget a letter, remember to use the <b>blank</b> button to move to the<br>next letter. Some of the sets will have more symmetry grids and letters than others.<br><br>It is important that you do your best on both the symmetry judgments and the letter recall<br>parts of the experiment. For for the symmetry judgments, try to work as <b>quickly</b> and <br>as <b>accurately</b> as possible. Remember to keep your symmetry accuracy at 85% or above.<br><br><b>For the letters, do NOT use any external aid (e.g., writing on paper, electronic device).</b><br><br>It is <u>very important</u> to our experiment to have a <b>true</b> view of your real performance.<br><br>Do not worry if you miss some when it gets hard! This task is meant to be very challenging!<br><br>Click the button to begin.</div><br><br><br><br>",0,ospan,starting_real_here,mufmdoqkSJZt4OECcncMtnYUdTx1,html-button-response,100,1039348,0.0-46.0-2.0-3.0,,,,,,,,,,,,,,,5bbd045428989b00019107be,21:56:50,03/04/2024
,"<p style=""font-size:75px;"">...</p>",,ospan,iti,mufmdoqkSJZt4OECcncMtnYUdTx1,html-keyboard-response,101,1040602,0.0-46.0-3.0-0.0-0.0,,,,,,,,,,,,,,,5bbd045428989b00019107be,21:56:50,03/04/2024
2717.0,,,ospan,symmetry,mufmdoqkSJZt4OECcncMtnYUdTx1,symmetry-judgement-task,102,1044498,0.0-46.0-3.0-0.0-1.0-0.0,,,,,,,,,,1.0,1.0,,,,5bbd045428989b00019107be,21:56:50,03/04/2024
,"<div style=""font-size: 10rem; color: #0000FF"">Y</div>",,ospan,letter,mufmdoqkSJZt4OECcncMtnYUdTx1,html-keyboard-response,103,1045501,0.0-46.0-3.0-0.0-1.0-1.0,,,,,,,,,,,,,,,5bbd045428989b00019107be,21:56:50,03/04/2024
2482.0,,,ospan,symmetry,mufmdoqkSJZt4OECcncMtnYUdTx1,symmetry-judgement-task,104,1049928,0.0-46.0-3.0-0.0-1.0-2.0,,,,,,,,,,1.0,1.0,,,,5bbd045428989b00019107be,21:56:50,03/04/2024
,"<div style=""font-size: 10rem; color: #0000FF"">G</div>",,ospan,letter,mufmdoqkSJZt4OECcncMtnYUdTx1,html-keyboard-response,105,1050930,0.0-46.0-3.0-0.0-1.0-3.0,,,,,,,,,,,,,,,5bbd045428989b00019107be,21:56:50,03/04/2024
2345.0,,,ospan,symmetry,mufmdoqkSJZt4OECcncMtnYUdTx1,symmetry-judgement-task,106,1055213,0.0-46.0-3.0-0.0-1.0-4.0,,,,,,,,,,1.0,1.0,,,,5bbd045428989b00019107be,21:56:50,03/04/2024
,"<div style=""font-size: 10rem; color: #0000FF"">N</div>",,ospan,letter,mufmdoqkSJZt4OECcncMtnYUdTx1,html-keyboard-response,107,1056215,0.0-46.0-3.0-0.0-1.0-5.0,,,,,,,,,,,,,,,5bbd045428989b00019107be,21:56:50,03/04/2024
7867.899999999907,"<div class = numbox><p style=""font-size: 2.4rem"">Please recall the letters you saw to the best of your ability. If you do not remember a particular letter, use the SKIP button.<br><b>(When you are ready to lock in your answer, press ENTER)</b></p><button id = button_1 class = ""square num-button"" onclick = ""recordClick(this)""><div class = content><div class = numbers>C</div></div></button><button id = button_2 class = ""square num-button"" onclick = ""recordClick(this)""><div class = content><div class = numbers>G</div></div></button><button id = button_3 class = ""square num-button"" onclick = ""recordClick(this)""><div class = content><div class = numbers>H</div></div></button><button id = button_4 class = ""square num-button"" onclick = ""recordClick(this)""><div class = content><div class = numbers>J</div></div></button><button id = button_5 class = ""square num-button"" onclick = ""recordClick(this)""><div class = content><div class = numbers>K</div></div></button><button id = button_6 class = ""square num-button"" onclick = ""recordClick(this)""><div class = content><div class = numbers>L</div></div></button><button id = button_7 class = ""square num-button"" onclick = ""recordClick(this)""><div class = content><div class = numbers>N</div></div></button><button id = button_8 class = ""square num-button"" onclick = ""recordClick(this)""><div class = content><div class = numbers>P</div></div></button><button id = button_9 class = ""square num-button"" onclick = ""recordClick(this)""><div class = content><div class = numbers>Q</div></div></button><button id = button_10 class = ""square num-button"" onclick = ""recordClick(this)""><div class = content><div class = numbers>R</div></div></button><button id = button_11 class = ""square num-button"" onclick = ""recordClick(this)""><div class = content><div class = numbers>S</div></div></button><button id = button_12 class = ""square num-button"" onclick = ""recordClick(this)""><div class = content><div class = numbers>Y</div></div></button><button class = clear_button id = ""ClearButton"" onclick = ""clearResponse()"">BACKSPACE</button><button class = blank_button id = ""BlankButton"" onclick = ""blankResponse()"">SKIP</button><p style=""font-size: 2.4rem""><u><b>Current Answer:</b></u></p><br><br><div id=echoed_txt style=""font-size: 5rem; color:blue;""><b></b></div></div>",enter,ospan,retrieval,mufmdoqkSJZt4OECcncMtnYUdTx1,html-keyboard-response,108,1064835,0.0-46.0-3.0-0.0-2.0,3,3,3,3.0,"[""Y"",""G"",""N""]","[""Y"",""G"",""N""]",1.0,3.0,,,,,,,5bbd045428989b00019107be,21:56:50,03/04/2024
1606.8000000000466,[''],0,ospan,feedback,mufmdoqkSJZt4OECcncMtnYUdTx1,html-button-response,109,1066945,0.0-46.0-3.0-0.0-3.0,,,,,,,,,,,,100.0,0.0,,5bbd045428989b00019107be,21:56:50,03/04/2024
,"<p style=""font-size:75px;"">...</p>",,ospan,iti,mufmdoqkSJZt4OECcncMtnYUdTx1,html-keyboard-response,110,1067948,0.0-46.0-4.0-0.0-0.0,,,,,,,,,,,,,,,5bbd045428989b00019107be,21:56:50,03/04/2024
1974.0,,,ospan,symmetry,mufmdoqkSJZt4OECcncMtnYUdTx1,symmetry-judgement-task,111,1071118,0.0-46.0-4.0-0.0-1.0-0.0,,,,,,,,,,1.0,1.0,,,,5bbd045428989b00019107be,21:56:50,03/04/2024
,"<div style=""font-size: 10rem; color: #0000FF"">P</div>",,ospan,letter,mufmdoqkSJZt4OECcncMtnYUdTx1,html-keyboard-response,112,1072120,0.0-46.0-4.0-0.0-1.0-1.0,,,,,,,,,,,,,,,5bbd045428989b00019107be,21:56:50,03/04/2024
1894.0,,,ospan,symmetry,mufmdoqkSJZt4OECcncMtnYUdTx1,symmetry-judgement-task,113,1075957,0.0-46.0-4.0-0.0-1.0-2.0,,,,,,,,,,1.0,1.0,,,,5bbd045428989b00019107be,21:56:50,03/04/2024
,"<div style=""font-size: 10rem; color: #0000FF"">H</div>",,ospan,letter,mufmdoqkSJZt4OECcncMtnYUdTx1,html-keyboard-response,114,1076959,0.0-46.0-4.0-0.0-1.0-3.0,,,,,,,,,,,,,,,5bbd045428989b00019107be,21:56:50,03/04/2024
2585.0,,,ospan,symmetry,mufmdoqkSJZt4OECcncMtnYUdTx1,symmetry-judgement-task,115,1081496,0.0-46.0-4.0-0.0-1.0-4.0,,,,,,,,,,1.0,1.0,,,,5bbd045428989b00019107be,21:56:50,03/04/2024
,"<div style=""font-size: 10rem; color: #0000FF"">Q</div>",,ospan,letter,mufmdoqkSJZt4OECcncMtnYUdTx1,html-keyboard-response,116,1082499,0.0-46.0-4.0-0.0-1.0-5.0,,,,,,,,,,,,,,,5bbd045428989b00019107be,21:56:50,03/04/2024
2165.0,,,ospan,symmetry,mufmdoqkSJZt4OECcncMtnYUdTx1,symmetry-judgement-task,117,1086602,0.0-46.0-4.0-0.0-1.0-6.0,,,,,,,,,,1.0,1.0,,,,5bbd045428989b00019107be,21:56:50,03/04/2024
,"<div style=""font-size: 10rem; color: #0000FF"">S</div>",,ospan,letter,mufmdoqkSJZt4OECcncMtnYUdTx1,html-keyboard-response,118,1087604,0.0-46.0-4.0-0.0-1.0-7.0,,,,,,,,,,,,,,,5bbd045428989b00019107be,21:56:50,03/04/2024
8220.0,"<div class = numbox><p style=""font-size: 2.4rem"">Please recall the letters you saw to the best of your ability. If you do not remember a particular letter, use the SKIP button.<br><b>(When you are ready to lock in your answer, press ENTER)</b></p><button id = button_1 class = ""square num-button"" onclick = ""recordClick(this)""><div class = content><div class = numbers>C</div></div></button><button id = button_2 class = ""square num-button"" onclick = ""recordClick(this)""><div class = content><div class = numbers>G</div></div></button><button id = button_3 class = ""square num-button"" onclick = ""recordClick(this)""><div class = content><div class = numbers>H</div></div></button><button id = button_4 class = ""square num-button"" onclick = ""recordClick(this)""><div class = content><div class = numbers>J</div></div></button><button id = button_5 class = ""square num-button"" onclick = ""recordClick(this)""><div class = content><div class = numbers>K</div></div></button><button id = button_6 class = ""square num-button"" onclick = ""recordClick(this)""><div class = content><div class = numbers>L</div></div></button><button id = button_7 class = ""square num-button"" onclick = ""recordClick(this)""><div class = content><div class = numbers>N</div></div></button><button id = button_8 class = ""square num-button"" onclick = ""recordClick(this)""><div class = content><div class = numbers>P</div></div></button><button id = button_9 class = ""square num-button"" onclick = ""recordClick(this)""><div class = content><div class = numbers>Q</div></div></button><button id = button_10 class = ""square num-button"" onclick = ""recordClick(this)""><div class = content><div class = numbers>R</div></div></button><button id = button_11 class = ""square num-button"" onclick = ""recordClick(this)""><div class = content><div class = numbers>S</div></div></button><button id = button_12 class = ""square num-button"" onclick = ""recordClick(this)""><div class = content><div class = numbers>Y</div></div></button><button class = clear_button id = ""ClearButton"" onclick = ""clearResponse()"">BACKSPACE</button><button class = blank_button id = ""BlankButton"" onclick = ""blankResponse()"">SKIP</button><p style=""font-size: 2.4rem""><u><b>Current Answer:</b></u></p><br><br><div id=echoed_txt style=""font-size: 5rem; color:blue;""><b></b></div></div>",enter,ospan,retrieval,mufmdoqkSJZt4OECcncMtnYUdTx1,html-keyboard-response,119,1096577,0.0-46.0-4.0-0.0-2.0,7,7,7,4.0,"[""P"",""H"",""Q"",""S""]","[""P"",""H"",""Q"",""S""]",1.0,4.0,,,,,,,5bbd045428989b00019107be,21:56:50,03/04/2024
1735.5999999998603,[''],0,ospan,feedback,mufmdoqkSJZt4OECcncMtnYUdTx1,html-button-response,120,1098815,0.0-46.0-4.0-0.0-3.0,,,,,,,,,,,,100.0,0.0,,5bbd045428989b00019107be,21:56:50,03/04/2024
,"<p style=""font-size:75px;"">...</p>",,ospan,iti,mufmdoqkSJZt4OECcncMtnYUdTx1,html-keyboard-response,121,1099819,0.0-46.0-4.0-1.0-0.0,,,,,,,,,,,,,,,5bbd045428989b00019107be,21:56:50,03/04/2024
1708.0,,,ospan,symmetry,mufmdoqkSJZt4OECcncMtnYUdTx1,symmetry-judgement-task,122,1102563,0.0-46.0-4.0-1.0-1.0-0.0,,,,,,,,,,1.0,1.0,,,,5bbd045428989b00019107be,21:56:50,03/04/2024
,"<div style=""font-size: 10rem; color: #0000FF"">Y</div>",,ospan,letter,mufmdoqkSJZt4OECcncMtnYUdTx1,html-keyboard-response,123,1103565,0.0-46.0-4.0-1.0-1.0-1.0,,,,,,,,,,,,,,,5bbd045428989b00019107be,21:56:50,03/04/2024
2476.0,,,ospan,symmetry,mufmdoqkSJZt4OECcncMtnYUdTx1,symmetry-judgement-task,124,1107984,0.0-46.0-4.0-1.0-1.0-2.0,,,,,,,,,,1.0,1.0,,,,5bbd045428989b00019107be,21:56:50,03/04/2024
,"<div style=""font-size: 10rem; color: #0000FF"">R</div>",,ospan,letter,mufmdoqkSJZt4OECcncMtnYUdTx1,html-keyboard-response,125,1108987,0.0-46.0-4.0-1.0-1.0-3.0,,,,,,,,,,,,,,,5bbd045428989b00019107be,21:56:50,03/04/2024
1786.0,,,ospan,symmetry,mufmdoqkSJZt4OECcncMtnYUdTx1,symmetry-judgement-task,126,1112713,0.0-46.0-4.0-1.0-1.0-4.0,,,,,,,,,,1.0,1.0,,,,5bbd045428989b00019107be,21:56:50,03/04/2024
,"<div style=""font-size: 10rem; color: #0000FF"">C</div>",,ospan,letter,mufmdoqkSJZt4OECcncMtnYUdTx1,html-keyboard-response,127,1113715,0.0-46.0-4.0-1.0-1.0-5.0,,,,,,,,,,,,,,,5bbd045428989b00019107be,21:56:50,03/04/2024
1951.0,,,ospan,symmetry,mufmdoqkSJZt4OECcncMtnYUdTx1,symmetry-judgement-task,128,1117613,0.0-46.0-4.0-1.0-1.0-6.0,,,,,,,,,,1.0,1.0,,,,5bbd045428989b00019107be,21:56:50,03/04/2024
,"<div style=""font-size: 10rem; color: #0000FF"">J</div>",,ospan,letter,mufmdoqkSJZt4OECcncMtnYUdTx1,html-keyboard-response,129,1118615,0.0-46.0-4.0-1.0-1.0-7.0,,,,,,,,,,,,,,,5bbd045428989b00019107be,21:56:50,03/04/2024
1681.0,,,ospan,symmetry,mufmdoqkSJZt4OECcncMtnYUdTx1,symmetry-judgement-task,130,1122234,0.0-46.0-4.0-1.0-1.0-8.0,,,,,,,,,,1.0,1.0,,,,5bbd045428989b00019107be,21:56:50,03/04/2024
,"<div style=""font-size: 10rem; color: #0000FF"">K</div>",,ospan,letter,mufmdoqkSJZt4OECcncMtnYUdTx1,html-keyboard-response,131,1123236,0.0-46.0-4.0-1.0-1.0-9.0,,,,,,,,,,,,,,,5bbd045428989b00019107be,21:56:50,03/04/2024
8250.40000000014,"<div class = numbox><p style=""font-size: 2.4rem"">Please recall the letters you saw to the best of your ability. If you do not remember a particular letter, use the SKIP button.<br><b>(When you are ready to lock in your answer, press ENTER)</b></p><button id = button_1 class = ""square num-button"" onclick = ""recordClick(this)""><div class = content><div class = numbers>C</div></div></button><button id = button_2 class = ""square num-button"" onclick = ""recordClick(this)""><div class = content><div class = numbers>G</div></div></button><button id = button_3 class = ""square num-button"" onclick = ""recordClick(this)""><div class = content><div class = numbers>H</div></div></button><button id = button_4 class = ""square num-button"" onclick = ""recordClick(this)""><div class = content><div class = numbers>J</div></div></button><button id = button_5 class = ""square num-button"" onclick = ""recordClick(this)""><div class = content><div class = numbers>K</div></div></button><button id = button_6 class = ""square num-button"" onclick = ""recordClick(this)""><div class = content><div class = numbers>L</div></div></button><button id = button_7 class = ""square num-button"" onclick = ""recordClick(this)""><div class = content><div class = numbers>N</div></div></button><button id = button_8 class = ""square num-button"" onclick = ""recordClick(this)""><div class = content><div class = numbers>P</div></div></button><button id = button_9 class = ""square num-button"" onclick = ""recordClick(this)""><div class = content><div class = numbers>Q</div></div></button><button id = button_10 class = ""square num-button"" onclick = ""recordClick(this)""><div class = content><div class = numbers>R</div></div></button><button id = button_11 class = ""square num-button"" onclick = ""recordClick(this)""><div class = content><div class = numbers>S</div></div></button><button id = button_12 class = ""square num-button"" onclick = ""recordClick(this)""><div class = content><div class = numbers>Y</div></div></button><button class = clear_button id = ""ClearButton"" onclick = ""clearResponse()"">BACKSPACE</button><button class = blank_button id = ""BlankButton"" onclick = ""blankResponse()"">SKIP</button><p style=""font-size: 2.4rem""><u><b>Current Answer:</b></u></p><br><br><div id=echoed_txt style=""font-size: 5rem; color:blue;""><b></b></div></div>",enter,ospan,retrieval,mufmdoqkSJZt4OECcncMtnYUdTx1,html-keyboard-response,132,1132239,0.0-46.0-4.0-1.0-2.0,12,12,12,5.0,"[""Y"",""R"",""C"",""J"",""K""]","[""Y"",""R"",""C"",""J"",""K""]",1.0,5.0,,,,,,,5bbd045428989b00019107be,21:56:50,03/04/2024
1525.1000000000931,[''],0,ospan,feedback,mufmdoqkSJZt4OECcncMtnYUdTx1,html-button-response,133,1134267,0.0-46.0-4.0-1.0-3.0,,,,,,,,,,,,100.0,0.0,,5bbd045428989b00019107be,21:56:50,03/04/2024
,"<p style=""font-size:75px;"">...</p>",,ospan,iti,mufmdoqkSJZt4OECcncMtnYUdTx1,html-keyboard-response,134,1135270,0.0-46.0-4.0-2.0-0.0,,,,,,,,,,,,,,,5bbd045428989b00019107be,21:56:50,03/04/2024
2563.0,,,ospan,symmetry,mufmdoqkSJZt4OECcncMtnYUdTx1,symmetry-judgement-task,135,1138873,0.0-46.0-4.0-2.0-1.0-0.0,,,,,,,,,,1.0,1.0,,,,5bbd045428989b00019107be,21:56:50,03/04/2024
,"<div style=""font-size: 10rem; color: #0000FF"">H</div>",,ospan,letter,mufmdoqkSJZt4OECcncMtnYUdTx1,html-keyboard-response,136,1139875,0.0-46.0-4.0-2.0-1.0-1.0,,,,,,,,,,,,,,,5bbd045428989b00019107be,21:56:50,03/04/2024
2536.0,,,ospan,symmetry,mufmdoqkSJZt4OECcncMtnYUdTx1,symmetry-judgement-task,137,1144363,0.0-46.0-4.0-2.0-1.0-2.0,,,,,,,,,,1.0,1.0,,,,5bbd045428989b00019107be,21:56:50,03/04/2024
,"<div style=""font-size: 10rem; color: #0000FF"">R</div>",,ospan,letter,mufmdoqkSJZt4OECcncMtnYUdTx1,html-keyboard-response,138,1145365,0.0-46.0-4.0-2.0-1.0-3.0,,,,,,,,,,,,,,,5bbd045428989b00019107be,21:56:50,03/04/2024
1712.0,,,ospan,symmetry,mufmdoqkSJZt4OECcncMtnYUdTx1,symmetry-judgement-task,139,1149014,0.0-46.0-4.0-2.0-1.0-4.0,,,,,,,,,,1.0,1.0,,,,5bbd045428989b00019107be,21:56:50,03/04/2024
,"<div style=""font-size: 10rem; color: #0000FF"">C</div>",,ospan,letter,mufmdoqkSJZt4OECcncMtnYUdTx1,html-keyboard-response,140,1150016,0.0-46.0-4.0-2.0-1.0-5.0,,,,,,,,,,,,,,,5bbd045428989b00019107be,21:56:50,03/04/2024
6166.100000000093,"<div class = numbox><p style=""font-size: 2.4rem"">Please recall the letters you saw to the best of your ability. If you do not remember a particular letter, use the SKIP button.<br><b>(When you are ready to lock in your answer, press ENTER)</b></p><button id = button_1 class = ""square num-button"" onclick = ""recordClick(this)""><div class = content><div class = numbers>C</div></div></button><button id = button_2 class = ""square num-button"" onclick = ""recordClick(this)""><div class = content><div class = numbers>G</div></div></button><button id = button_3 class = ""square num-button"" onclick = ""recordClick(this)""><div class = content><div class = numbers>H</div></div></button><button id = button_4 class = ""square num-button"" onclick = ""recordClick(this)""><div class = content><div class = numbers>J</div></div></button><button id = button_5 class = ""square num-button"" onclick = ""recordClick(this)""><div class = content><div class = numbers>K</div></div></button><button id = button_6 class = ""square num-button"" onclick = ""recordClick(this)""><div class = content><div class = numbers>L</div></div></button><button id = button_7 class = ""square num-button"" onclick = ""recordClick(this)""><div class = content><div class = numbers>N</div></div></button><button id = button_8 class = ""square num-button"" onclick = ""recordClick(this)""><div class = content><div class = numbers>P</div></div></button><button id = button_9 class = ""square num-button"" onclick = ""recordClick(this)""><div class = content><div class = numbers>Q</div></div></button><button id = button_10 class = ""square num-button"" onclick = ""recordClick(this)""><div class = content><div class = numbers>R</div></div></button><button id = button_11 class = ""square num-button"" onclick = ""recordClick(this)""><div class = content><div class = numbers>S</div></div></button><button id = button_12 class = ""square num-button"" onclick = ""recordClick(this)""><div class = content><div class = numbers>Y</div></div></button><button class = clear_button id = ""ClearButton"" onclick = ""clearResponse()"">BACKSPACE</button><button class = blank_button id = ""BlankButton"" onclick = ""blankResponse()"">SKIP</button><p style=""font-size: 2.4rem""><u><b>Current Answer:</b></u></p><br><br><div id=echoed_txt style=""font-size: 5rem; color:blue;""><b></b></div></div>",enter,ospan,retrieval,mufmdoqkSJZt4OECcncMtnYUdTx1,html-keyboard-response,141,1156934,0.0-46.0-4.0-2.0-2.0,15,15,15,3.0,"[""H"",""R"",""C""]","[""H"",""R"",""C""]",1.0,3.0,,,,,,,5bbd045428989b00019107be,21:56:50,03/04/2024
1301.8999999999069,[''],0,ospan,feedback,mufmdoqkSJZt4OECcncMtnYUdTx1,html-button-response,142,1158739,0.0-46.0-4.0-2.0-3.0,,,,,,,,,,,,100.0,0.0,,5bbd045428989b00019107be,21:56:50,03/04/2024
,"<p style=""font-size:75px;"">...</p>",,ospan,iti,mufmdoqkSJZt4OECcncMtnYUdTx1,html-keyboard-response,143,1159742,0.0-46.0-5.0-0.0-0.0,,,,,,,,,,,,,,,5bbd045428989b00019107be,21:56:50,03/04/2024
2162.0,,,ospan,symmetry,mufmdoqkSJZt4OECcncMtnYUdTx1,symmetry-judgement-task,144,1162947,0.0-46.0-5.0-0.0-1.0-0.0,,,,,,,,,,1.0,1.0,,,,5bbd045428989b00019107be,21:56:50,03/04/2024
,"<div style=""font-size: 10rem; color: #0000FF"">R</div>",,ospan,letter,mufmdoqkSJZt4OECcncMtnYUdTx1,html-keyboard-response,145,1163950,0.0-46.0-5.0-0.0-1.0-1.0,,,,,,,,,,,,,,,5bbd045428989b00019107be,21:56:50,03/04/2024
1304.0,,,ospan,symmetry,mufmdoqkSJZt4OECcncMtnYUdTx1,symmetry-judgement-task,146,1167198,0.0-46.0-5.0-0.0-1.0-2.0,,,,,,,,,,1.0,1.0,,,,5bbd045428989b00019107be,21:56:50,03/04/2024
,"<div style=""font-size: 10rem; color: #0000FF"">N</div>",,ospan,letter,mufmdoqkSJZt4OECcncMtnYUdTx1,html-keyboard-response,147,1168200,0.0-46.0-5.0-0.0-1.0-3.0,,,,,,,,,,,,,,,5bbd045428989b00019107be,21:56:50,03/04/2024
1335.0,,,ospan,symmetry,mufmdoqkSJZt4OECcncMtnYUdTx1,symmetry-judgement-task,148,1171472,0.0-46.0-5.0-0.0-1.0-4.0,,,,,,,,,,1.0,1.0,,,,5bbd045428989b00019107be,21:56:50,03/04/2024
,"<div style=""font-size: 10rem; color: #0000FF"">S</div>",,ospan,letter,mufmdoqkSJZt4OECcncMtnYUdTx1,html-keyboard-response,149,1172474,0.0-46.0-5.0-0.0-1.0-5.0,,,,,,,,,,,,,,,5bbd045428989b00019107be,21:56:50,03/04/2024
2334.0,,,ospan,symmetry,mufmdoqkSJZt4OECcncMtnYUdTx1,symmetry-judgement-task,150,1176764,0.0-46.0-5.0-0.0-1.0-6.0,,,,,,,,,,1.0,1.0,,,,5bbd045428989b00019107be,21:56:50,03/04/2024
,"<div style=""font-size: 10rem; color: #0000FF"">Y</div>",,ospan,letter,mufmdoqkSJZt4OECcncMtnYUdTx1,html-keyboard-response,151,1177766,0.0-46.0-5.0-0.0-1.0-7.0,,,,,,,,,,,,,,,5bbd045428989b00019107be,21:56:50,03/04/2024
2629.0,,,ospan,symmetry,mufmdoqkSJZt4OECcncMtnYUdTx1,symmetry-judgement-task,152,1182324,0.0-46.0-5.0-0.0-1.0-8.0,,,,,,,,,,1.0,1.0,,,,5bbd045428989b00019107be,21:56:50,03/04/2024
,"<div style=""font-size: 10rem; color: #0000FF"">L</div>",,ospan,letter,mufmdoqkSJZt4OECcncMtnYUdTx1,html-keyboard-response,153,1183327,0.0-46.0-5.0-0.0-1.0-9.0,,,,,,,,,,,,,,,5bbd045428989b00019107be,21:56:50,03/04/2024
1260.0,,,ospan,symmetry,mufmdoqkSJZt4OECcncMtnYUdTx1,symmetry-judgement-task,154,1186533,0.0-46.0-5.0-0.0-1.0-10.0,,,,,,,,,,1.0,1.0,,,,5bbd045428989b00019107be,21:56:50,03/04/2024
,"<div style=""font-size: 10rem; color: #0000FF"">C</div>",,ospan,letter,mufmdoqkSJZt4OECcncMtnYUdTx1,html-keyboard-response,155,1187534,0.0-46.0-5.0-0.0-1.0-11.0,,,,,,,,,,,,,,,5bbd045428989b00019107be,21:56:50,03/04/2024
10607.899999999907,"<div class = numbox><p style=""font-size: 2.4rem"">Please recall the letters you saw to the best of your ability. If you do not remember a particular letter, use the SKIP button.<br><b>(When you are ready to lock in your answer, press ENTER)</b></p><button id = button_1 class = ""square num-button"" onclick = ""recordClick(this)""><div class = content><div class = numbers>C</div></div></button><button id = button_2 class = ""square num-button"" onclick = ""recordClick(this)""><div class = content><div class = numbers>G</div></div></button><button id = button_3 class = ""square num-button"" onclick = ""recordClick(this)""><div class = content><div class = numbers>H</div></div></button><button id = button_4 class = ""square num-button"" onclick = ""recordClick(this)""><div class = content><div class = numbers>J</div></div></button><button id = button_5 class = ""square num-button"" onclick = ""recordClick(this)""><div class = content><div class = numbers>K</div></div></button><button id = button_6 class = ""square num-button"" onclick = ""recordClick(this)""><div class = content><div class = numbers>L</div></div></button><button id = button_7 class = ""square num-button"" onclick = ""recordClick(this)""><div class = content><div class = numbers>N</div></div></button><button id = button_8 class = ""square num-button"" onclick = ""recordClick(this)""><div class = content><div class = numbers>P</div></div></button><button id = button_9 class = ""square num-button"" onclick = ""recordClick(this)""><div class = content><div class = numbers>Q</div></div></button><button id = button_10 class = ""square num-button"" onclick = ""recordClick(this)""><div class = content><div class = numbers>R</div></div></button><button id = button_11 class = ""square num-button"" onclick = ""recordClick(this)""><div class = content><div class = numbers>S</div></div></button><button id = button_12 class = ""square num-button"" onclick = ""recordClick(this)""><div class = content><div class = numbers>Y</div></div></button><button class = clear_button id = ""ClearButton"" onclick = ""clearResponse()"">BACKSPACE</button><button class = blank_button id = ""BlankButton"" onclick = ""blankResponse()"">SKIP</button><p style=""font-size: 2.4rem""><u><b>Current Answer:</b></u></p><br><br><div id=echoed_txt style=""font-size: 5rem; color:blue;""><b></b></div></div>",enter,ospan,retrieval,mufmdoqkSJZt4OECcncMtnYUdTx1,html-keyboard-response,156,1198895,0.0-46.0-5.0-0.0-2.0,21,15,15,6.0,"[""H"",""R"",""N"",""S"",""C"",""Y""]","[""R"",""N"",""S"",""Y"",""L"",""C""]",0.0,0.0,,,,,,,5bbd045428989b00019107be,21:56:50,03/04/2024
1298.2999999998137,[''],0,ospan,feedback,mufmdoqkSJZt4OECcncMtnYUdTx1,html-button-response,157,1200697,0.0-46.0-5.0-0.0-3.0,,,,,,,,,,,,100.0,0.0,,5bbd045428989b00019107be,21:56:50,03/04/2024
,"<p style=""font-size:75px;"">...</p>",,ospan,iti,mufmdoqkSJZt4OECcncMtnYUdTx1,html-keyboard-response,158,1201700,0.0-46.0-5.0-1.0-0.0,,,,,,,,,,,,,,,5bbd045428989b00019107be,21:56:50,03/04/2024
1771.0,,,ospan,symmetry,mufmdoqkSJZt4OECcncMtnYUdTx1,symmetry-judgement-task,159,1204653,0.0-46.0-5.0-1.0-1.0-0.0,,,,,,,,,,1.0,1.0,,,,5bbd045428989b00019107be,21:56:50,03/04/2024
,"<div style=""font-size: 10rem; color: #0000FF"">C</div>",,ospan,letter,mufmdoqkSJZt4OECcncMtnYUdTx1,html-keyboard-response,160,1205655,0.0-46.0-5.0-1.0-1.0-1.0,,,,,,,,,,,,,,,5bbd045428989b00019107be,21:56:50,03/04/2024
1908.0,,,ospan,symmetry,mufmdoqkSJZt4OECcncMtnYUdTx1,symmetry-judgement-task,161,1209507,0.0-46.0-5.0-1.0-1.0-2.0,,,,,,,,,,1.0,1.0,,,,5bbd045428989b00019107be,21:56:50,03/04/2024
,"<div style=""font-size: 10rem; color: #0000FF"">Q</div>",,ospan,letter,mufmdoqkSJZt4OECcncMtnYUdTx1,html-keyboard-response,162,1210510,0.0-46.0-5.0-1.0-1.0-3.0,,,,,,,,,,,,,,,5bbd045428989b00019107be,21:56:50,03/04/2024
1373.0,,,ospan,symmetry,mufmdoqkSJZt4OECcncMtnYUdTx1,symmetry-judgement-task,163,1213832,0.0-46.0-5.0-1.0-1.0-4.0,,,,,,,,,,1.0,1.0,,,,5bbd045428989b00019107be,21:56:50,03/04/2024
,"<div style=""font-size: 10rem; color: #0000FF"">L</div>",,ospan,letter,mufmdoqkSJZt4OECcncMtnYUdTx1,html-keyboard-response,164,1214834,0.0-46.0-5.0-1.0-1.0-5.0,,,,,,,,,,,,,,,5bbd045428989b00019107be,21:56:50,03/04/2024
2522.0,,,ospan,symmetry,mufmdoqkSJZt4OECcncMtnYUdTx1,symmetry-judgement-task,165,1219286,0.0-46.0-5.0-1.0-1.0-6.0,,,,,,,,,,1.0,1.0,,,,5bbd045428989b00019107be,21:56:50,03/04/2024
,"<div style=""font-size: 10rem; color: #0000FF"">H</div>",,ospan,letter,mufmdoqkSJZt4OECcncMtnYUdTx1,html-keyboard-response,166,1220288,0.0-46.0-5.0-1.0-1.0-7.0,,,,,,,,,,,,,,,5bbd045428989b00019107be,21:56:50,03/04/2024
2770.0,,,ospan,symmetry,mufmdoqkSJZt4OECcncMtnYUdTx1,symmetry-judgement-task,167,1225004,0.0-46.0-5.0-1.0-1.0-8.0,,,,,,,,,,1.0,1.0,,,,5bbd045428989b00019107be,21:56:50,03/04/2024
,"<div style=""font-size: 10rem; color: #0000FF"">S</div>",,ospan,letter,mufmdoqkSJZt4OECcncMtnYUdTx1,html-keyboard-response,168,1226006,0.0-46.0-5.0-1.0-1.0-9.0,,,,,,,,,,,,,,,5bbd045428989b00019107be,21:56:50,03/04/2024
1451.0,,,ospan,symmetry,mufmdoqkSJZt4OECcncMtnYUdTx1,symmetry-judgement-task,169,1229389,0.0-46.0-5.0-1.0-1.0-10.0,,,,,,,,,,1.0,1.0,,,,5bbd045428989b00019107be,21:56:50,03/04/2024
,"<div style=""font-size: 10rem; color: #0000FF"">J</div>",,ospan,letter,mufmdoqkSJZt4OECcncMtnYUdTx1,html-keyboard-response,170,1230391,0.0-46.0-5.0-1.0-1.0-11.0,,,,,,,,,,,,,,,5bbd045428989b00019107be,21:56:50,03/04/2024
1984.0,,,ospan,symmetry,mufmdoqkSJZt4OECcncMtnYUdTx1,symmetry-judgement-task,171,1234317,0.0-46.0-5.0-1.0-1.0-12.0,,,,,,,,,,1.0,1.0,,,,5bbd045428989b00019107be,21:56:50,03/04/2024
,"<div style=""font-size: 10rem; color: #0000FF"">P</div>",,ospan,letter,mufmdoqkSJZt4OECcncMtnYUdTx1,html-keyboard-response,172,1235319,0.0-46.0-5.0-1.0-1.0-13.0,,,,,,,,,,,,,,,5bbd045428989b00019107be,21:56:50,03/04/2024
21178.200000000186,"<div class = numbox><p style=""font-size: 2.4rem"">Please recall the letters you saw to the best of your ability. If you do not remember a particular letter, use the SKIP button.<br><b>(When you are ready to lock in your answer, press ENTER)</b></p><button id = button_1 class = ""square num-button"" onclick = ""recordClick(this)""><div class = content><div class = numbers>C</div></div></button><button id = button_2 class = ""square num-button"" onclick = ""recordClick(this)""><div class = content><div class = numbers>G</div></div></button><button id = button_3 class = ""square num-button"" onclick = ""recordClick(this)""><div class = content><div class = numbers>H</div></div></button><button id = button_4 class = ""square num-button"" onclick = ""recordClick(this)""><div class = content><div class = numbers>J</div></div></button><button id = button_5 class = ""square num-button"" onclick = ""recordClick(this)""><div class = content><div class = numbers>K</div></div></button><button id = button_6 class = ""square num-button"" onclick = ""recordClick(this)""><div class = content><div class = numbers>L</div></div></button><button id = button_7 class = ""square num-button"" onclick = ""recordClick(this)""><div class = content><div class = numbers>N</div></div></button><button id = button_8 class = ""square num-button"" onclick = ""recordClick(this)""><div class = content><div class = numbers>P</div></div></button><button id = button_9 class = ""square num-button"" onclick = ""recordClick(this)""><div class = content><div class = numbers>Q</div></div></button><button id = button_10 class = ""square num-button"" onclick = ""recordClick(this)""><div class = content><div class = numbers>R</div></div></button><button id = button_11 class = ""square num-button"" onclick = ""recordClick(this)""><div class = content><div class = numbers>S</div></div></button><button id = button_12 class = ""square num-button"" onclick = ""recordClick(this)""><div class = content><div class = numbers>Y</div></div></button><button class = clear_button id = ""ClearButton"" onclick = ""clearResponse()"">BACKSPACE</button><button class = blank_button id = ""BlankButton"" onclick = ""blankResponse()"">SKIP</button><p style=""font-size: 2.4rem""><u><b>Current Answer:</b></u></p><br><br><div id=echoed_txt style=""font-size: 5rem; color:blue;""><b></b></div></div>",enter,ospan,retrieval,mufmdoqkSJZt4OECcncMtnYUdTx1,html-keyboard-response,173,1257250,0.0-46.0-5.0-1.0-2.0,28,18,15,7.0,"[""H"",""Q"",""C"",""P"",""S"",""J"",""R""]","[""C"",""Q"",""L"",""H"",""S"",""J"",""P""]",0.0,3.0,,,,,,,5bbd045428989b00019107be,21:56:50,03/04/2024
1826.0,[''],0,ospan,feedback,mufmdoqkSJZt4OECcncMtnYUdTx1,html-button-response,174,1259579,0.0-46.0-5.0-1.0-3.0,,,,,,,,,,,,100.0,0.0,,5bbd045428989b00019107be,21:56:50,03/04/2024
,"<p style=""font-size:75px;"">...</p>",,ospan,iti,mufmdoqkSJZt4OECcncMtnYUdTx1,html-keyboard-response,175,1260582,0.0-46.0-6.0-0.0-0.0,,,,,,,,,,,,,,,5bbd045428989b00019107be,21:56:50,03/04/2024
2355.0,,,ospan,symmetry,mufmdoqkSJZt4OECcncMtnYUdTx1,symmetry-judgement-task,176,1264137,0.0-46.0-6.0-0.0-1.0-0.0,,,,,,,,,,1.0,1.0,,,,5bbd045428989b00019107be,21:56:50,03/04/2024
,"<div style=""font-size: 10rem; color: #0000FF"">N</div>",,ospan,letter,mufmdoqkSJZt4OECcncMtnYUdTx1,html-keyboard-response,177,1265139,0.0-46.0-6.0-0.0-1.0-1.0,,,,,,,,,,,,,,,5bbd045428989b00019107be,21:56:50,03/04/2024
2101.0,,,ospan,symmetry,mufmdoqkSJZt4OECcncMtnYUdTx1,symmetry-judgement-task,178,1269182,0.0-46.0-6.0-0.0-1.0-2.0,,,,,,,,,,1.0,1.0,,,,5bbd045428989b00019107be,21:56:50,03/04/2024
,"<div style=""font-size: 10rem; color: #0000FF"">H</div>",,ospan,letter,mufmdoqkSJZt4OECcncMtnYUdTx1,html-keyboard-response,179,1270184,0.0-46.0-6.0-0.0-1.0-3.0,,,,,,,,,,,,,,,5bbd045428989b00019107be,21:56:50,03/04/2024
1430.0,,,ospan,symmetry,mufmdoqkSJZt4OECcncMtnYUdTx1,symmetry-judgement-task,180,1273559,0.0-46.0-6.0-0.0-1.0-4.0,,,,,,,,,,1.0,1.0,,,,5bbd045428989b00019107be,21:56:50,03/04/2024
,"<div style=""font-size: 10rem; color: #0000FF"">Q</div>",,ospan,letter,mufmdoqkSJZt4OECcncMtnYUdTx1,html-keyboard-response,181,1274561,0.0-46.0-6.0-0.0-1.0-5.0,,,,,,,,,,,,,,,5bbd045428989b00019107be,21:56:50,03/04/2024
1886.0,,,ospan,symmetry,mufmdoqkSJZt4OECcncMtnYUdTx1,symmetry-judgement-task,182,1278378,0.0-46.0-6.0-0.0-1.0-6.0,,,,,,,,,,1.0,1.0,,,,5bbd045428989b00019107be,21:56:50,03/04/2024
,"<div style=""font-size: 10rem; color: #0000FF"">L</div>",,ospan,letter,mufmdoqkSJZt4OECcncMtnYUdTx1,html-keyboard-response,183,1279381,0.0-46.0-6.0-0.0-1.0-7.0,,,,,,,,,,,,,,,5bbd045428989b00019107be,21:56:50,03/04/2024
2704.0,,,ospan,symmetry,mufmdoqkSJZt4OECcncMtnYUdTx1,symmetry-judgement-task,184,1284029,0.0-46.0-6.0-0.0-1.0-8.0,,,,,,,,,,1.0,1.0,,,,5bbd045428989b00019107be,21:56:50,03/04/2024
,"<div style=""font-size: 10rem; color: #0000FF"">S</div>",,ospan,letter,mufmdoqkSJZt4OECcncMtnYUdTx1,html-keyboard-response,185,1285032,0.0-46.0-6.0-0.0-1.0-9.0,,,,,,,,,,,,,,,5bbd045428989b00019107be,21:56:50,03/04/2024
7564.09999999986,"<div class = numbox><p style=""font-size: 2.4rem"">Please recall the letters you saw to the best of your ability. If you do not remember a particular letter, use the SKIP button.<br><b>(When you are ready to lock in your answer, press ENTER)</b></p><button id = button_1 class = ""square num-button"" onclick = ""recordClick(this)""><div class = content><div class = numbers>C</div></div></button><button id = button_2 class = ""square num-button"" onclick = ""recordClick(this)""><div class = content><div class = numbers>G</div></div></button><button id = button_3 class = ""square num-button"" onclick = ""recordClick(this)""><div class = content><div class = numbers>H</div></div></button><button id = button_4 class = ""square num-button"" onclick = ""recordClick(this)""><div class = content><div class = numbers>J</div></div></button><button id = button_5 class = ""square num-button"" onclick = ""recordClick(this)""><div class = content><div class = numbers>K</div></div></button><button id = button_6 class = ""square num-button"" onclick = ""recordClick(this)""><div class = content><div class = numbers>L</div></div></button><button id = button_7 class = ""square num-button"" onclick = ""recordClick(this)""><div class = content><div class = numbers>N</div></div></button><button id = button_8 class = ""square num-button"" onclick = ""recordClick(this)""><div class = content><div class = numbers>P</div></div></button><button id = button_9 class = ""square num-button"" onclick = ""recordClick(this)""><div class = content><div class = numbers>Q</div></div></button><button id = button_10 class = ""square num-button"" onclick = ""recordClick(this)""><div class = content><div class = numbers>R</div></div></button><button id = button_11 class = ""square num-button"" onclick = ""recordClick(this)""><div class = content><div class = numbers>S</div></div></button><button id = button_12 class = ""square num-button"" onclick = ""recordClick(this)""><div class = content><div class = numbers>Y</div></div></button><button class = clear_button id = ""ClearButton"" onclick = ""clearResponse()"">BACKSPACE</button><button class = blank_button id = ""BlankButton"" onclick = ""blankResponse()"">SKIP</button><p style=""font-size: 2.4rem""><u><b>Current Answer:</b></u></p><br><br><div id=echoed_txt style=""font-size: 5rem; color:blue;""><b></b></div></div>",enter,ospan,retrieval,mufmdoqkSJZt4OECcncMtnYUdTx1,html-keyboard-response,186,1293348,0.0-46.0-6.0-0.0-2.0,33,23,20,5.0,"[""N"",""H"",""Q"",""L"",""S""]","[""N"",""H"",""Q"",""L"",""S""]",1.0,5.0,,,,,,,5bbd045428989b00019107be,21:56:50,03/04/2024
1687.0999999998603,[''],0,ospan,feedback,mufmdoqkSJZt4OECcncMtnYUdTx1,html-button-response,187,1295538,0.0-46.0-6.0-0.0-3.0,,,,,,,,,,,,100.0,0.0,,5bbd045428989b00019107be,21:56:50,03/04/2024
,"<p style=""font-size:75px;"">...</p>",,ospan,iti,mufmdoqkSJZt4OECcncMtnYUdTx1,html-keyboard-response,188,1296541,0.0-46.0-6.0-1.0-0.0,,,,,,,,,,,,,,,5bbd045428989b00019107be,21:56:50,03/04/2024
4214.0,,,ospan,symmetry,mufmdoqkSJZt4OECcncMtnYUdTx1,symmetry-judgement-task,189,1301936,0.0-46.0-6.0-1.0-1.0-0.0,,,,,,,,,,1.0,1.0,,,,5bbd045428989b00019107be,21:56:50,03/04/2024
,"<div style=""font-size: 10rem; color: #0000FF"">G</div>",,ospan,letter,mufmdoqkSJZt4OECcncMtnYUdTx1,html-keyboard-response,190,1302938,0.0-46.0-6.0-1.0-1.0-1.0,,,,,,,,,,,,,,,5bbd045428989b00019107be,21:56:50,03/04/2024
1915.0,,,ospan,symmetry,mufmdoqkSJZt4OECcncMtnYUdTx1,symmetry-judgement-task,191,1306783,0.0-46.0-6.0-1.0-1.0-2.0,,,,,,,,,,1.0,1.0,,,,5bbd045428989b00019107be,21:56:50,03/04/2024
,"<div style=""font-size: 10rem; color: #0000FF"">N</div>",,ospan,letter,mufmdoqkSJZt4OECcncMtnYUdTx1,html-keyboard-response,192,1307785,0.0-46.0-6.0-1.0-1.0-3.0,,,,,,,,,,,,,,,5bbd045428989b00019107be,21:56:50,03/04/2024
2485.0,,,ospan,symmetry,mufmdoqkSJZt4OECcncMtnYUdTx1,symmetry-judgement-task,193,1312206,0.0-46.0-6.0-1.0-1.0-4.0,,,,,,,,,,1.0,1.0,,,,5bbd045428989b00019107be,21:56:50,03/04/2024
,"<div style=""font-size: 10rem; color: #0000FF"">R</div>",,ospan,letter,mufmdoqkSJZt4OECcncMtnYUdTx1,html-keyboard-response,194,1313209,0.0-46.0-6.0-1.0-1.0-5.0,,,,,,,,,,,,,,,5bbd045428989b00019107be,21:56:50,03/04/2024
1955.0,,,ospan,symmetry,mufmdoqkSJZt4OECcncMtnYUdTx1,symmetry-judgement-task,195,1317094,0.0-46.0-6.0-1.0-1.0-6.0,,,,,,,,,,1.0,1.0,,,,5bbd045428989b00019107be,21:56:50,03/04/2024
,"<div style=""font-size: 10rem; color: #0000FF"">P</div>",,ospan,letter,mufmdoqkSJZt4OECcncMtnYUdTx1,html-keyboard-response,196,1318096,0.0-46.0-6.0-1.0-1.0-7.0,,,,,,,,,,,,,,,5bbd045428989b00019107be,21:56:50,03/04/2024
2212.0,,,ospan,symmetry,mufmdoqkSJZt4OECcncMtnYUdTx1,symmetry-judgement-task,197,1322248,0.0-46.0-6.0-1.0-1.0-8.0,,,,,,,,,,1.0,1.0,,,,5bbd045428989b00019107be,21:56:50,03/04/2024
,"<div style=""font-size: 10rem; color: #0000FF"">S</div>",,ospan,letter,mufmdoqkSJZt4OECcncMtnYUdTx1,html-keyboard-response,198,1323250,0.0-46.0-6.0-1.0-1.0-9.0,,,,,,,,,,,,,,,5bbd045428989b00019107be,21:56:50,03/04/2024
1286.0,,,ospan,symmetry,mufmdoqkSJZt4OECcncMtnYUdTx1,symmetry-judgement-task,199,1326465,0.0-46.0-6.0-1.0-1.0-10.0,,,,,,,,,,1.0,1.0,,,,5bbd045428989b00019107be,21:56:50,03/04/2024
,"<div style=""font-size: 10rem; color: #0000FF"">Y</div>",,ospan,letter,mufmdoqkSJZt4OECcncMtnYUdTx1,html-keyboard-response,200,1327467,0.0-46.0-6.0-1.0-1.0-11.0,,,,,,,,,,,,,,,5bbd045428989b00019107be,21:56:50,03/04/2024
1784.0,,,ospan,symmetry,mufmdoqkSJZt4OECcncMtnYUdTx1,symmetry-judgement-task,201,1331215,0.0-46.0-6.0-1.0-1.0-12.0,,,,,,,,,,1.0,1.0,,,,5bbd045428989b00019107be,21:56:50,03/04/2024
,"<div style=""font-size: 10rem; color: #0000FF"">K</div>",,ospan,letter,mufmdoqkSJZt4OECcncMtnYUdTx1,html-keyboard-response,202,1332217,0.0-46.0-6.0-1.0-1.0-13.0,,,,,,,,,,,,,,,5bbd045428989b00019107be,21:56:50,03/04/2024
1845.0,,,ospan,symmetry,mufmdoqkSJZt4OECcncMtnYUdTx1,symmetry-judgement-task,203,1336042,0.0-46.0-6.0-1.0-1.0-14.0,,,,,,,,,,1.0,1.0,,,,5bbd045428989b00019107be,21:56:50,03/04/2024
,"<div style=""font-size: 10rem; color: #0000FF"">L</div>",,ospan,letter,mufmdoqkSJZt4OECcncMtnYUdTx1,html-keyboard-response,204,1337043,0.0-46.0-6.0-1.0-1.0-15.0,,,,,,,,,,,,,,,5bbd045428989b00019107be,21:56:50,03/04/2024
25155.0,"<div class = numbox><p style=""font-size: 2.4rem"">Please recall the letters you saw to the best of your ability. If you do not remember a particular letter, use the SKIP button.<br><b>(When you are ready to lock in your answer, press ENTER)</b></p><button id = button_1 class = ""square num-button"" onclick = ""recordClick(this)""><div class = content><div class = numbers>C</div></div></button><button id = button_2 class = ""square num-button"" onclick = ""recordClick(this)""><div class = content><div class = numbers>G</div></div></button><button id = button_3 class = ""square num-button"" onclick = ""recordClick(this)""><div class = content><div class = numbers>H</div></div></button><button id = button_4 class = ""square num-button"" onclick = ""recordClick(this)""><div class = content><div class = numbers>J</div></div></button><button id = button_5 class = ""square num-button"" onclick = ""recordClick(this)""><div class = content><div class = numbers>K</div></div></button><button id = button_6 class = ""square num-button"" onclick = ""recordClick(this)""><div class = content><div class = numbers>L</div></div></button><button id = button_7 class = ""square num-button"" onclick = ""recordClick(this)""><div class = content><div class = numbers>N</div></div></button><button id = button_8 class = ""square num-button"" onclick = ""recordClick(this)""><div class = content><div class = numbers>P</div></div></button><button id = button_9 class = ""square num-button"" onclick = ""recordClick(this)""><div class = content><div class = numbers>Q</div></div></button><button id = button_10 class = ""square num-button"" onclick = ""recordClick(this)""><div class = content><div class = numbers>R</div></div></button><button id = button_11 class = ""square num-button"" onclick = ""recordClick(this)""><div class = content><div class = numbers>S</div></div></button><button id = button_12 class = ""square num-button"" onclick = ""recordClick(this)""><div class = content><div class = numbers>Y</div></div></button><button class = clear_button id = ""ClearButton"" onclick = ""clearResponse()"">BACKSPACE</button><button class = blank_button id = ""BlankButton"" onclick = ""blankResponse()"">SKIP</button><p style=""font-size: 2.4rem""><u><b>Current Answer:</b></u></p><br><br><div id=echoed_txt style=""font-size: 5rem; color:blue;""><b></b></div></div>",enter,ospan,retrieval,mufmdoqkSJZt4OECcncMtnYUdTx1,html-keyboard-response,205,1362949,0.0-46.0-6.0-1.0-2.0,41,27,20,8.0,"[""G"",""N"",""S"",""P"",""L"",""Y"",""Q""]","[""G"",""N"",""R"",""P"",""S"",""Y"",""K"",""L""]",0.0,4.0,,,,,,,5bbd045428989b00019107be,21:56:50,03/04/2024
1521.4000000001397,[''],0,ospan,feedback,mufmdoqkSJZt4OECcncMtnYUdTx1,html-button-response,206,1364973,0.0-46.0-6.0-1.0-3.0,,,,,,,,,,,,100.0,0.0,,5bbd045428989b00019107be,21:56:50,03/04/2024
94332.3999999999,,"{'Q0': ""That was easier and more enjoyable than the first  one with the pictures that didn't mean anything. I found I couldn't name the pictures in my head and therefore had nothing to remember them by. But I can name letters so it was easier.""}",ospan,survey_ospan,mufmdoqkSJZt4OECcncMtnYUdTx1,lmdlab-survey-text,207,1460061,0.0-46.0-7.0,,,,,,,,,,,,,,mufmdoqkSJZt4OECcncMtnYUdTx1,5bbd045428989b00019107be,21:56:50,03/04/2024
1671.3999999999069,<p><p style='font-size: 3rem'>Great work!<br><br>This completes the symmetry and memory task.</p><br><br><br>,0,ospan,finish,mufmdoqkSJZt4OECcncMtnYUdTx1,html-button-response,208,1461738,0.0-46.0-8.0,41,27,20,,,,,,,,,100.0,,,5bbd045428989b00019107be,21:56:50,03/04/2024
