"trial_type","trial_index","time_elapsed","internal_node_id","participant","rt","stimulus","response","exp_name","exp_stage","test_part","subjectID","databaseID","counterbal","choice_stimuli_1","choice_stimuli_2","pattern_stimuli","rewarded_answer","correct_answer","feedback_duration_times","stim_left","stim_right","pair","leftright_counter","trial","response_correct","response_rewarded","chosen_stim","counter","displayed_choice","feedback_durations","ITI_duration","labels","rest_warning"
"pavlovia","0","516","0.0-0.0","","","","","","","","","","","","","","","","","","","","","","","","","","","","","",""
"html-keyboard-response","1","3522","0.0-1.0","","null","<div style=""font-size:100px;"">+</div>","null","delaylearn","learning","pre_fixation","5cc19050dfef1a00019523b6","","","","","","","","","","","","","","","","","","","","","",""
"html-keyboard-response","2","4023","0.0-2.0-0.0","","498.60000002384186","<div style=""display: flex; flex-direction: column; align-items: center; margin-top: -40px;""><img src=""images/demo_images/pattern_1.png"" style=""width: 234px; height: 230px; margin-top: -50px;""><div style=""display: flex; justify-content: space-between; margin-top: 33px;""><img src=""images/demo_images/choice_trial_2.png"" style=""width: 408px; height: 417px; margin-right: 200px;""><img src=""images/demo_images/choice_trial_1.png"" style=""width: 408px; height: 417px;""></div></div>","f","delaylearn","learning","trial","5cc19050dfef1a00019523b6","JoSxlMwQekX80XnsEQa5a4O4Y8D2","5","images/demo_images/choice_trial_2.png","images/demo_images/choice_trial_1.png","images/demo_images/pattern_1.png","j","j","3000","2","1","20","1","1","0","0","2","0","","","","",""
"html-keyboard-response","3","5027","0.0-2.0-1.0","","null","<div style=""display: flex; flex-direction: column; align-items: center; margin-top: -40px;""><img src=""images/demo_images/pattern_1.png"" style=""width: 234px; height: 230px; margin-top: -50px;""><div style=""display: flex; justify-content: space-between; margin-top: 33px;""><img src=""images/demo_images/choice_trial_2.png"" style=""width: 408px; height: 417px; margin-right: 608px;""></div></div>","null","delaylearn","learning","display_response","5cc19050dfef1a00019523b6","JoSxlMwQekX80XnsEQa5a4O4Y8D2","","","","","","","","","","","","","","","","","chosen stimuli: images/demo_images/choice_trial_2.png","","","",""
"html-keyboard-response","4","8036","0.0-2.0-2.0","","null","","null","delaylearn","learning","feedback_duration_window","5cc19050dfef1a00019523b6","JoSxlMwQekX80XnsEQa5a4O4Y8D2","","","","","","","","","","","","","","","","","","3000","","",""
"html-keyboard-response","5","9552","0.0-2.0-3.0","","null","<div style='margin:auto;width: auto; font-size: 150%'><span style='font-weight: bold; font-size: 100px; color: red;'>0 points!</span><br><br></div>","null","delaylearn","learning","feedback_image_window","5cc19050dfef1a00019523b6","JoSxlMwQekX80XnsEQa5a4O4Y8D2","","","","","","","","","","","","","","","","","","","","",""
"html-keyboard-response","6","11215","0.0-3.0","","null","<div style=""font-size:100px;"">+</div>","null","delaylearn","learning","ITI","5cc19050dfef1a00019523b6","JoSxlMwQekX80XnsEQa5a4O4Y8D2","","","","","","","","","","","","","","","","","","","1653","",""
"html-keyboard-response","7","12049","0.0-4.0-0.0","","830.1000000238419","<div style=""display: flex; flex-direction: column; align-items: center; margin-top: -40px;""><img src=""images/demo_images/pattern_1.png"" style=""width: 234px; height: 230px; margin-top: -50px;""><div style=""display: flex; justify-content: space-between; margin-top: 33px;""><img src=""images/demo_images/choice_trial_2.png"" style=""width: 408px; height: 417px; margin-right: 200px;""><img src=""images/demo_images/choice_trial_1.png"" style=""width: 408px; height: 417px;""></div></div>","j","delaylearn","learning","trial","5cc19050dfef1a00019523b6","JoSxlMwQekX80XnsEQa5a4O4Y8D2","5","images/demo_images/choice_trial_2.png","images/demo_images/choice_trial_1.png","images/demo_images/pattern_1.png","j","j","3000","2","1","20","1","2","1","1","1","10","","","","",""
"html-keyboard-response","8","13062","0.0-4.0-1.0","","null","<div style=""display: flex; flex-direction: column; align-items: center; margin-top: -40px;""><img src=""images/demo_images/pattern_1.png"" style=""width: 234px; height: 230px; margin-top: -50px;""><div style=""display: flex; justify-content: space-between; margin-top: 33px;""><img src=""images/demo_images/choice_trial_1.png"" style=""width: 408px; height: 417px; margin-left:608px;""></div></div>","null","delaylearn","learning","display_response","5cc19050dfef1a00019523b6","JoSxlMwQekX80XnsEQa5a4O4Y8D2","","","","","","","","","","","","","","","","","chosen stimuli: images/demo_images/choice_trial_1.png","","","",""
"html-keyboard-response","9","16072","0.0-4.0-2.0","","null","","null","delaylearn","learning","feedback_duration_window","5cc19050dfef1a00019523b6","JoSxlMwQekX80XnsEQa5a4O4Y8D2","","","","","","","","","","","","","","","","","","3000","","",""
"html-keyboard-response","10","17574","0.0-4.0-3.0","","null","<div style='margin:auto;width: auto; font-size: 150%'><span style='font-weight: bold; font-size: 100px; color: green;'>+10 points!</span><br><br></div>","null","delaylearn","learning","feedback_image_window","5cc19050dfef1a00019523b6","JoSxlMwQekX80XnsEQa5a4O4Y8D2","","","","","","","","","","","","","","","","","","","","",""
"html-keyboard-response","11","19920","0.0-5.0","","null","<div style=""font-size:100px;"">+</div>","null","delaylearn","learning","ITI","5cc19050dfef1a00019523b6","JoSxlMwQekX80XnsEQa5a4O4Y8D2","","","","","","","","","","","","","","","","","","","2338","",""
"html-keyboard-response","12","21194","0.0-6.0-0.0","","1271.2999999523163","<div style=""display: flex; flex-direction: column; align-items: center; margin-top: -40px;""><img src=""images/demo_images/pattern_1.png"" style=""width: 234px; height: 230px; margin-top: -50px;""><div style=""display: flex; justify-content: space-between; margin-top: 33px;""><img src=""images/demo_images/choice_trial_1.png"" style=""width: 408px; height: 417px; margin-right: 200px;""><img src=""images/demo_images/choice_trial_2.png"" style=""width: 408px; height: 417px;""></div></div>","f","delaylearn","learning","trial","5cc19050dfef1a00019523b6","JoSxlMwQekX80XnsEQa5a4O4Y8D2","5","images/demo_images/choice_trial_1.png","images/demo_images/choice_trial_2.png","images/demo_images/pattern_1.png","j","f","3000","1","2","20","0","3","1","0","1","10","","","","",""
"html-keyboard-response","13","22206","0.0-6.0-1.0","","null","<div style=""display: flex; flex-direction: column; align-items: center; margin-top: -40px;""><img src=""images/demo_images/pattern_1.png"" style=""width: 234px; height: 230px; margin-top: -50px;""><div style=""display: flex; justify-content: space-between; margin-top: 33px;""><img src=""images/demo_images/choice_trial_1.png"" style=""width: 408px; height: 417px; margin-right: 608px;""></div></div>","null","delaylearn","learning","display_response","5cc19050dfef1a00019523b6","JoSxlMwQekX80XnsEQa5a4O4Y8D2","","","","","","","","","","","","","","","","","chosen stimuli: images/demo_images/choice_trial_1.png","","","",""
"html-keyboard-response","14","25208","0.0-6.0-2.0","","null","","null","delaylearn","learning","feedback_duration_window","5cc19050dfef1a00019523b6","JoSxlMwQekX80XnsEQa5a4O4Y8D2","","","","","","","","","","","","","","","","","","3000","","",""
"html-keyboard-response","15","26710","0.0-6.0-3.0","","null","<div style='margin:auto;width: auto; font-size: 150%'><span style='font-weight: bold; font-size: 100px; color: red;'>0 points!</span><br><br></div>","null","delaylearn","learning","feedback_image_window","5cc19050dfef1a00019523b6","JoSxlMwQekX80XnsEQa5a4O4Y8D2","","","","","","","","","","","","","","","","","","","","",""
"html-keyboard-response","16","29219","0.0-7.0","","null","<div style=""font-size:100px;"">+</div>","null","delaylearn","learning","ITI","5cc19050dfef1a00019523b6","JoSxlMwQekX80XnsEQa5a4O4Y8D2","","","","","","","","","","","","","","","","","","","2500","",""
"html-keyboard-response","17","30003","0.0-8.0-0.0","","781.1000000238419","<div style=""display: flex; flex-direction: column; align-items: center; margin-top: -40px;""><img src=""images/demo_images/pattern_1.png"" style=""width: 234px; height: 230px; margin-top: -50px;""><div style=""display: flex; justify-content: space-between; margin-top: 33px;""><img src=""images/demo_images/choice_trial_1.png"" style=""width: 408px; height: 417px; margin-right: 200px;""><img src=""images/demo_images/choice_trial_2.png"" style=""width: 408px; height: 417px;""></div></div>","f","delaylearn","learning","trial","5cc19050dfef1a00019523b6","JoSxlMwQekX80XnsEQa5a4O4Y8D2","5","images/demo_images/choice_trial_1.png","images/demo_images/choice_trial_2.png","images/demo_images/pattern_1.png","f","f","3000","1","2","20","0","4","1","1","1","20","","","","",""
"html-keyboard-response","18","31006","0.0-8.0-1.0","","null","<div style=""display: flex; flex-direction: column; align-items: center; margin-top: -40px;""><img src=""images/demo_images/pattern_1.png"" style=""width: 234px; height: 230px; margin-top: -50px;""><div style=""display: flex; justify-content: space-between; margin-top: 33px;""><img src=""images/demo_images/choice_trial_1.png"" style=""width: 408px; height: 417px; margin-right: 608px;""></div></div>","null","delaylearn","learning","display_response","5cc19050dfef1a00019523b6","JoSxlMwQekX80XnsEQa5a4O4Y8D2","","","","","","","","","","","","","","","","","chosen stimuli: images/demo_images/choice_trial_1.png","","","",""
"html-keyboard-response","19","34013","0.0-8.0-2.0","","null","","null","delaylearn","learning","feedback_duration_window","5cc19050dfef1a00019523b6","JoSxlMwQekX80XnsEQa5a4O4Y8D2","","","","","","","","","","","","","","","","","","3000","","",""
"html-keyboard-response","20","35531","0.0-8.0-3.0","","null","<div style='margin:auto;width: auto; font-size: 150%'><span style='font-weight: bold; font-size: 100px; color: green;'>+10 points!</span><br><br></div>","null","delaylearn","learning","feedback_image_window","5cc19050dfef1a00019523b6","JoSxlMwQekX80XnsEQa5a4O4Y8D2","","","","","","","","","","","","","","","","","","","","",""
"html-keyboard-response","21","36042","0.0-9.0-0.0","","null","","null","","","mood_trial_fixation","","","","","","","","","","","","","","","","","","","","","","",""
"lmdlab-html-vas-response","22","39918","0.0-9.0-1.0","","2849","How happy are you right now?","0.2962962962962963","delaylearn","learning","mood_trial","5cc19050dfef1a00019523b6","JoSxlMwQekX80XnsEQa5a4O4Y8D2","","","","","","","","","","","","","","","","","","","","[""Very unhappy"",""Very happy""]",""
"html-keyboard-response","23","42189","0.0-10.0","","null","<div style=""font-size:100px;"">+</div>","null","delaylearn","learning","ITI","5cc19050dfef1a00019523b6","JoSxlMwQekX80XnsEQa5a4O4Y8D2","","","","","","","","","","","","","","","","","","","2262","",""
"html-keyboard-response","24","43240","0.0-11.0-0.0","","1048.4000000953674","<div style=""display: flex; flex-direction: column; align-items: center; margin-top: -40px;""><img src=""images/demo_images/pattern_1.png"" style=""width: 234px; height: 230px; margin-top: -50px;""><div style=""display: flex; justify-content: space-between; margin-top: 33px;""><img src=""images/demo_images/choice_trial_2.png"" style=""width: 408px; height: 417px; margin-right: 200px;""><img src=""images/demo_images/choice_trial_1.png"" style=""width: 408px; height: 417px;""></div></div>","j","delaylearn","learning","trial","5cc19050dfef1a00019523b6","JoSxlMwQekX80XnsEQa5a4O4Y8D2","5","images/demo_images/choice_trial_2.png","images/demo_images/choice_trial_1.png","images/demo_images/pattern_1.png","j","j","3000","2","1","20","1","5","1","1","1","30","","","","",""
"html-keyboard-response","25","44245","0.0-11.0-1.0","","null","<div style=""display: flex; flex-direction: column; align-items: center; margin-top: -40px;""><img src=""images/demo_images/pattern_1.png"" style=""width: 234px; height: 230px; margin-top: -50px;""><div style=""display: flex; justify-content: space-between; margin-top: 33px;""><img src=""images/demo_images/choice_trial_1.png"" style=""width: 408px; height: 417px; margin-left:608px;""></div></div>","null","delaylearn","learning","display_response","5cc19050dfef1a00019523b6","JoSxlMwQekX80XnsEQa5a4O4Y8D2","","","","","","","","","","","","","","","","","chosen stimuli: images/demo_images/choice_trial_1.png","","","",""
"html-keyboard-response","26","47249","0.0-11.0-2.0","","null","","null","delaylearn","learning","feedback_duration_window","5cc19050dfef1a00019523b6","JoSxlMwQekX80XnsEQa5a4O4Y8D2","","","","","","","","","","","","","","","","","","3000","","",""
"html-keyboard-response","27","48757","0.0-11.0-3.0","","null","<div style='margin:auto;width: auto; font-size: 150%'><span style='font-weight: bold; font-size: 100px; color: green;'>+10 points!</span><br><br></div>","null","delaylearn","learning","feedback_image_window","5cc19050dfef1a00019523b6","JoSxlMwQekX80XnsEQa5a4O4Y8D2","","","","","","","","","","","","","","","","","","","","",""
"html-keyboard-response","28","50386","0.0-12.0","","null","<div style=""font-size:100px;"">+</div>","null","delaylearn","learning","ITI","5cc19050dfef1a00019523b6","JoSxlMwQekX80XnsEQa5a4O4Y8D2","","","","","","","","","","","","","","","","","","","1622","",""
"html-keyboard-response","29","51241","0.0-13.0-0.0","","852.6000000238419","<div style=""display: flex; flex-direction: column; align-items: center; margin-top: -40px;""><img src=""images/demo_images/pattern_1.png"" style=""width: 234px; height: 230px; margin-top: -50px;""><div style=""display: flex; justify-content: space-between; margin-top: 33px;""><img src=""images/demo_images/choice_trial_1.png"" style=""width: 408px; height: 417px; margin-right: 200px;""><img src=""images/demo_images/choice_trial_2.png"" style=""width: 408px; height: 417px;""></div></div>","j","delaylearn","learning","trial","5cc19050dfef1a00019523b6","JoSxlMwQekX80XnsEQa5a4O4Y8D2","5","images/demo_images/choice_trial_1.png","images/demo_images/choice_trial_2.png","images/demo_images/pattern_1.png","f","f","3000","1","2","20","0","6","0","0","2","30","","","","",""
"html-keyboard-response","30","52245","0.0-13.0-1.0","","null","<div style=""display: flex; flex-direction: column; align-items: center; margin-top: -40px;""><img src=""images/demo_images/pattern_1.png"" style=""width: 234px; height: 230px; margin-top: -50px;""><div style=""display: flex; justify-content: space-between; margin-top: 33px;""><img src=""images/demo_images/choice_trial_2.png"" style=""width: 408px; height: 417px; margin-left:608px;""></div></div>","null","delaylearn","learning","display_response","5cc19050dfef1a00019523b6","JoSxlMwQekX80XnsEQa5a4O4Y8D2","","","","","","","","","","","","","","","","","chosen stimuli: images/demo_images/choice_trial_2.png","","","",""
"html-keyboard-response","31","55251","0.0-13.0-2.0","","null","","null","delaylearn","learning","feedback_duration_window","5cc19050dfef1a00019523b6","JoSxlMwQekX80XnsEQa5a4O4Y8D2","","","","","","","","","","","","","","","","","","3000","","",""
"html-keyboard-response","32","56758","0.0-13.0-3.0","","null","<div style='margin:auto;width: auto; font-size: 150%'><span style='font-weight: bold; font-size: 100px; color: red;'>0 points!</span><br><br></div>","null","delaylearn","learning","feedback_image_window","5cc19050dfef1a00019523b6","JoSxlMwQekX80XnsEQa5a4O4Y8D2","","","","","","","","","","","","","","","","","","","","",""
"html-keyboard-response","33","58918","0.0-14.0","","null","<div style=""font-size:100px;"">+</div>","null","delaylearn","learning","ITI","5cc19050dfef1a00019523b6","JoSxlMwQekX80XnsEQa5a4O4Y8D2","","","","","","","","","","","","","","","","","","","2148","",""
"html-keyboard-response","34","59568","0.0-15.0-0.0","","646.9000000953674","<div style=""display: flex; flex-direction: column; align-items: center; margin-top: -40px;""><img src=""images/demo_images/pattern_1.png"" style=""width: 234px; height: 230px; margin-top: -50px;""><div style=""display: flex; justify-content: space-between; margin-top: 33px;""><img src=""images/demo_images/choice_trial_2.png"" style=""width: 408px; height: 417px; margin-right: 200px;""><img src=""images/demo_images/choice_trial_1.png"" style=""width: 408px; height: 417px;""></div></div>","j","delaylearn","learning","trial","5cc19050dfef1a00019523b6","JoSxlMwQekX80XnsEQa5a4O4Y8D2","5","images/demo_images/choice_trial_2.png","images/demo_images/choice_trial_1.png","images/demo_images/pattern_1.png","j","j","3000","2","1","20","1","7","1","1","1","40","","","","",""
"html-keyboard-response","35","60579","0.0-15.0-1.0","","null","<div style=""display: flex; flex-direction: column; align-items: center; margin-top: -40px;""><img src=""images/demo_images/pattern_1.png"" style=""width: 234px; height: 230px; margin-top: -50px;""><div style=""display: flex; justify-content: space-between; margin-top: 33px;""><img src=""images/demo_images/choice_trial_1.png"" style=""width: 408px; height: 417px; margin-left:608px;""></div></div>","null","delaylearn","learning","display_response","5cc19050dfef1a00019523b6","JoSxlMwQekX80XnsEQa5a4O4Y8D2","","","","","","","","","","","","","","","","","chosen stimuli: images/demo_images/choice_trial_1.png","","","",""
"html-keyboard-response","36","63582","0.0-15.0-2.0","","null","","null","delaylearn","learning","feedback_duration_window","5cc19050dfef1a00019523b6","JoSxlMwQekX80XnsEQa5a4O4Y8D2","","","","","","","","","","","","","","","","","","3000","","",""
"html-keyboard-response","37","65088","0.0-15.0-3.0","","null","<div style='margin:auto;width: auto; font-size: 150%'><span style='font-weight: bold; font-size: 100px; color: green;'>+10 points!</span><br><br></div>","null","delaylearn","learning","feedback_image_window","5cc19050dfef1a00019523b6","JoSxlMwQekX80XnsEQa5a4O4Y8D2","","","","","","","","","","","","","","","","","","","","",""
"html-keyboard-response","38","67145","0.0-16.0","","null","<div style=""font-size:100px;"">+</div>","null","delaylearn","learning","ITI","5cc19050dfef1a00019523b6","JoSxlMwQekX80XnsEQa5a4O4Y8D2","","","","","","","","","","","","","","","","","","","2042","",""
"html-keyboard-response","39","67824","0.0-17.0-0.0","","677.1000000238419","<div style=""display: flex; flex-direction: column; align-items: center; margin-top: -40px;""><img src=""images/demo_images/pattern_1.png"" style=""width: 234px; height: 230px; margin-top: -50px;""><div style=""display: flex; justify-content: space-between; margin-top: 33px;""><img src=""images/demo_images/choice_trial_1.png"" style=""width: 408px; height: 417px; margin-right: 200px;""><img src=""images/demo_images/choice_trial_2.png"" style=""width: 408px; height: 417px;""></div></div>","f","delaylearn","learning","trial","5cc19050dfef1a00019523b6","JoSxlMwQekX80XnsEQa5a4O4Y8D2","5","images/demo_images/choice_trial_1.png","images/demo_images/choice_trial_2.png","images/demo_images/pattern_1.png","f","f","3000","1","2","20","0","8","1","1","1","50","","","","",""
"html-keyboard-response","40","68838","0.0-17.0-1.0","","null","<div style=""display: flex; flex-direction: column; align-items: center; margin-top: -40px;""><img src=""images/demo_images/pattern_1.png"" style=""width: 234px; height: 230px; margin-top: -50px;""><div style=""display: flex; justify-content: space-between; margin-top: 33px;""><img src=""images/demo_images/choice_trial_1.png"" style=""width: 408px; height: 417px; margin-right: 608px;""></div></div>","null","delaylearn","learning","display_response","5cc19050dfef1a00019523b6","JoSxlMwQekX80XnsEQa5a4O4Y8D2","","","","","","","","","","","","","","","","","chosen stimuli: images/demo_images/choice_trial_1.png","","","",""
"html-keyboard-response","41","71849","0.0-17.0-2.0","","null","","null","delaylearn","learning","feedback_duration_window","5cc19050dfef1a00019523b6","JoSxlMwQekX80XnsEQa5a4O4Y8D2","","","","","","","","","","","","","","","","","","3000","","",""
"html-keyboard-response","42","73353","0.0-17.0-3.0","","null","<div style='margin:auto;width: auto; font-size: 150%'><span style='font-weight: bold; font-size: 100px; color: green;'>+10 points!</span><br><br></div>","null","delaylearn","learning","feedback_image_window","5cc19050dfef1a00019523b6","JoSxlMwQekX80XnsEQa5a4O4Y8D2","","","","","","","","","","","","","","","","","","","","",""
"html-button-response","43","77230","0.0-18.0","","3875.8000000715256","
  <div style=""display: flex; align-items: center; justify-content: center; height: 80vh;"">
  <div>
          <img src=""images/inst_demo_finish.png"" style=""width: 80vw; height:auto;"">
          <br><br>
      </div>
      <br><br>
  </div>","0","","","","","","","","","","","","","","","","","","","","","","","","","",""
"html-keyboard-response","44","78870","0.0-19.0","","1638.5999999046326","
  <div style=""display: flex; align-items: center; justify-content: center; height: 80vh;"">
  <div>
          <img src=""images/inst_6.png"" style=""width: 80vw; height:auto;"">
          <br><br>
      </div>
      <br><br>
  </div>","f","","","","","","","","","","","","","","","","","","","","","","","","","",""
"html-keyboard-response","45","81872","0.0-20.0","","null","<div style=""font-size:100px;"">+</div>","null","delaylearn","learning","pre_fixation","5cc19050dfef1a00019523b6","","","","","","","","","","","","","","","","","","","","","",""
"html-keyboard-response","46","83807","0.0-21.0","","null","<div style=""font-size:100px;"">+</div>","null","delaylearn","learning","ITI","5cc19050dfef1a00019523b6","JoSxlMwQekX80XnsEQa5a4O4Y8D2","","","","","","","","","","","","","","","","","","","1931","",""
"html-keyboard-response","47","85121","0.0-22.0-0.0","","1311.7000000476837","<div style=""display: flex; flex-direction: column; align-items: center; margin-top: -40px;""><img src=""images/pattern_3.png"" style=""width: 234px; height: 230px; margin-top: -50px;""><div style=""display: flex; justify-content: space-between; margin-top: 33px;""><img src=""images/choice_trial_16.png"" style=""width: 408px; height: 417px; margin-right: 200px;""><img src=""images/choice_trial_2.png"" style=""width: 408px; height: 417px;""></div></div>","f","delaylearn","learning","trial","5cc19050dfef1a00019523b6","JoSxlMwQekX80XnsEQa5a4O4Y8D2","5","images/choice_trial_16.png","images/choice_trial_2.png","images/pattern_3.png","f","f","7000","16","2","2","0","9","1","1","16","60","","","","",""
"html-keyboard-response","48","86133","0.0-22.0-1.0","","null","<div style=""display: flex; flex-direction: column; align-items: center; margin-top: -40px;""><img src=""images/pattern_3.png"" style=""width: 234px; height: 230px; margin-top: -50px;""><div style=""display: flex; justify-content: space-between; margin-top: 33px;""><img src=""images/choice_trial_16.png"" style=""width: 408px; height: 417px; margin-right: 608px;""></div></div>","null","delaylearn","learning","display_response","5cc19050dfef1a00019523b6","JoSxlMwQekX80XnsEQa5a4O4Y8D2","","","","","","","","","","","","","","","","","chosen stimuli: images/choice_trial_16.png","","","",""
"html-keyboard-response","49","93151","0.0-22.0-2.0","","null","","null","delaylearn","learning","feedback_duration_window","5cc19050dfef1a00019523b6","JoSxlMwQekX80XnsEQa5a4O4Y8D2","","","","","","","","","","","","","","","","","","7000","","",""
"html-keyboard-response","50","94659","0.0-22.0-3.0","","null","<div style='margin:auto;width: auto; font-size: 150%'><span style='font-weight: bold; font-size: 100px; color: green;'>+10 points!</span><br><br></div>","null","delaylearn","learning","feedback_image_window","5cc19050dfef1a00019523b6","JoSxlMwQekX80XnsEQa5a4O4Y8D2","","","","","","","","","","","","","","","","","","","","",""
"html-keyboard-response","51","96461","0.0-23.0","","null","<div style=""font-size:100px;"">+</div>","null","delaylearn","learning","ITI","5cc19050dfef1a00019523b6","JoSxlMwQekX80XnsEQa5a4O4Y8D2","","","","","","","","","","","","","","","","","","","1795","",""
"html-keyboard-response","52","97805","0.0-24.0-0.0","","1341","<div style=""display: flex; flex-direction: column; align-items: center; margin-top: -40px;""><img src=""images/pattern_7.png"" style=""width: 234px; height: 230px; margin-top: -50px;""><div style=""display: flex; justify-content: space-between; margin-top: 33px;""><img src=""images/choice_trial_10.png"" style=""width: 408px; height: 417px; margin-right: 200px;""><img src=""images/choice_trial_8.png"" style=""width: 408px; height: 417px;""></div></div>","f","delaylearn","learning","trial","5cc19050dfef1a00019523b6","JoSxlMwQekX80XnsEQa5a4O4Y8D2","5","images/choice_trial_10.png","images/choice_trial_8.png","images/pattern_7.png","j","j","750","10","8","6","1","10","0","0","10","60","","","","",""
"html-keyboard-response","53","98810","0.0-24.0-1.0","","null","<div style=""display: flex; flex-direction: column; align-items: center; margin-top: -40px;""><img src=""images/pattern_7.png"" style=""width: 234px; height: 230px; margin-top: -50px;""><div style=""display: flex; justify-content: space-between; margin-top: 33px;""><img src=""images/choice_trial_10.png"" style=""width: 408px; height: 417px; margin-right: 608px;""></div></div>","null","delaylearn","learning","display_response","5cc19050dfef1a00019523b6","JoSxlMwQekX80XnsEQa5a4O4Y8D2","","","","","","","","","","","","","","","","","chosen stimuli: images/choice_trial_10.png","","","",""
"html-keyboard-response","54","99568","0.0-24.0-2.0","","null","","null","delaylearn","learning","feedback_duration_window","5cc19050dfef1a00019523b6","JoSxlMwQekX80XnsEQa5a4O4Y8D2","","","","","","","","","","","","","","","","","","750","","",""
"html-keyboard-response","55","101073","0.0-24.0-3.0","","null","<div style='margin:auto;width: auto; font-size: 150%'><span style='font-weight: bold; font-size: 100px; color: red;'>0 points!</span><br><br></div>","null","delaylearn","learning","feedback_image_window","5cc19050dfef1a00019523b6","JoSxlMwQekX80XnsEQa5a4O4Y8D2","","","","","","","","","","","","","","","","","","","","",""
"html-keyboard-response","56","103307","0.0-25.0","","null","<div style=""font-size:100px;"">+</div>","null","delaylearn","learning","ITI","5cc19050dfef1a00019523b6","JoSxlMwQekX80XnsEQa5a4O4Y8D2","","","","","","","","","","","","","","","","","","","2221","",""
"html-keyboard-response","57","104716","0.0-26.0-0.0","","1405.7000000476837","<div style=""display: flex; flex-direction: column; align-items: center; margin-top: -40px;""><img src=""images/pattern_4.png"" style=""width: 234px; height: 230px; margin-top: -50px;""><div style=""display: flex; justify-content: space-between; margin-top: 33px;""><img src=""images/choice_trial_11.png"" style=""width: 408px; height: 417px; margin-right: 200px;""><img src=""images/choice_trial_4.png"" style=""width: 408px; height: 417px;""></div></div>","f","delaylearn","learning","trial","5cc19050dfef1a00019523b6","JoSxlMwQekX80XnsEQa5a4O4Y8D2","5","images/choice_trial_11.png","images/choice_trial_4.png","images/pattern_4.png","f","f","7000","11","4","3","0","11","1","1","11","70","","","","",""
"html-keyboard-response","58","105723","0.0-26.0-1.0","","null","<div style=""display: flex; flex-direction: column; align-items: center; margin-top: -40px;""><img src=""images/pattern_4.png"" style=""width: 234px; height: 230px; margin-top: -50px;""><div style=""display: flex; justify-content: space-between; margin-top: 33px;""><img src=""images/choice_trial_11.png"" style=""width: 408px; height: 417px; margin-right: 608px;""></div></div>","null","delaylearn","learning","display_response","5cc19050dfef1a00019523b6","JoSxlMwQekX80XnsEQa5a4O4Y8D2","","","","","","","","","","","","","","","","","chosen stimuli: images/choice_trial_11.png","","","",""
"html-keyboard-response","59","112739","0.0-26.0-2.0","","null","","null","delaylearn","learning","feedback_duration_window","5cc19050dfef1a00019523b6","JoSxlMwQekX80XnsEQa5a4O4Y8D2","","","","","","","","","","","","","","","","","","7000","","",""
"html-keyboard-response","60","114247","0.0-26.0-3.0","","null","<div style='margin:auto;width: auto; font-size: 150%'><span style='font-weight: bold; font-size: 100px; color: green;'>+10 points!</span><br><br></div>","null","delaylearn","learning","feedback_image_window","5cc19050dfef1a00019523b6","JoSxlMwQekX80XnsEQa5a4O4Y8D2","","","","","","","","","","","","","","","","","","","","",""
"html-keyboard-response","61","116539","0.0-27.0","","null","<div style=""font-size:100px;"">+</div>","null","delaylearn","learning","ITI","5cc19050dfef1a00019523b6","JoSxlMwQekX80XnsEQa5a4O4Y8D2","","","","","","","","","","","","","","","","","","","2277","",""
"html-keyboard-response","62","117310","0.0-28.0-0.0","","769.2999999523163","<div style=""display: flex; flex-direction: column; align-items: center; margin-top: -40px;""><img src=""images/pattern_5.png"" style=""width: 234px; height: 230px; margin-top: -50px;""><div style=""display: flex; justify-content: space-between; margin-top: 33px;""><img src=""images/choice_trial_13.png"" style=""width: 408px; height: 417px; margin-right: 200px;""><img src=""images/choice_trial_7.png"" style=""width: 408px; height: 417px;""></div></div>","j","delaylearn","learning","trial","5cc19050dfef1a00019523b6","JoSxlMwQekX80XnsEQa5a4O4Y8D2","5","images/choice_trial_13.png","images/choice_trial_7.png","images/pattern_5.png","j","j","750","13","7","4","1","12","1","1","7","80","","","","",""
"html-keyboard-response","63","118319","0.0-28.0-1.0","","null","<div style=""display: flex; flex-direction: column; align-items: center; margin-top: -40px;""><img src=""images/pattern_5.png"" style=""width: 234px; height: 230px; margin-top: -50px;""><div style=""display: flex; justify-content: space-between; margin-top: 33px;""><img src=""images/choice_trial_7.png"" style=""width: 408px; height: 417px; margin-left:608px;""></div></div>","null","delaylearn","learning","display_response","5cc19050dfef1a00019523b6","JoSxlMwQekX80XnsEQa5a4O4Y8D2","","","","","","","","","","","","","","","","","chosen stimuli: images/choice_trial_7.png","","","",""
"html-keyboard-response","64","119075","0.0-28.0-2.0","","null","","null","delaylearn","learning","feedback_duration_window","5cc19050dfef1a00019523b6","JoSxlMwQekX80XnsEQa5a4O4Y8D2","","","","","","","","","","","","","","","","","","750","","",""
"html-keyboard-response","65","120591","0.0-28.0-3.0","","null","<div style='margin:auto;width: auto; font-size: 150%'><span style='font-weight: bold; font-size: 100px; color: green;'>+10 points!</span><br><br></div>","null","delaylearn","learning","feedback_image_window","5cc19050dfef1a00019523b6","JoSxlMwQekX80XnsEQa5a4O4Y8D2","","","","","","","","","","","","","","","","","","","","",""
"html-keyboard-response","66","122765","0.0-29.0","","null","<div style=""font-size:100px;"">+</div>","null","delaylearn","learning","ITI","5cc19050dfef1a00019523b6","JoSxlMwQekX80XnsEQa5a4O4Y8D2","","","","","","","","","","","","","","","","","","","2163","",""
"html-keyboard-response","67","124084","0.0-30.0-0.0","","1317.1000000238419","<div style=""display: flex; flex-direction: column; align-items: center; margin-top: -40px;""><img src=""images/pattern_6.png"" style=""width: 234px; height: 230px; margin-top: -50px;""><div style=""display: flex; justify-content: space-between; margin-top: 33px;""><img src=""images/choice_trial_14.png"" style=""width: 408px; height: 417px; margin-right: 200px;""><img src=""images/choice_trial_9.png"" style=""width: 408px; height: 417px;""></div></div>","j","delaylearn","learning","trial","5cc19050dfef1a00019523b6","JoSxlMwQekX80XnsEQa5a4O4Y8D2","5","images/choice_trial_14.png","images/choice_trial_9.png","images/pattern_6.png","j","f","750","14","9","5","0","13","0","1","9","90","","","","",""
"html-keyboard-response","68","125095","0.0-30.0-1.0","","null","<div style=""display: flex; flex-direction: column; align-items: center; margin-top: -40px;""><img src=""images/pattern_6.png"" style=""width: 234px; height: 230px; margin-top: -50px;""><div style=""display: flex; justify-content: space-between; margin-top: 33px;""><img src=""images/choice_trial_9.png"" style=""width: 408px; height: 417px; margin-left:608px;""></div></div>","null","delaylearn","learning","display_response","5cc19050dfef1a00019523b6","JoSxlMwQekX80XnsEQa5a4O4Y8D2","","","","","","","","","","","","","","","","","chosen stimuli: images/choice_trial_9.png","","","",""
"html-keyboard-response","69","125854","0.0-30.0-2.0","","null","","null","delaylearn","learning","feedback_duration_window","5cc19050dfef1a00019523b6","JoSxlMwQekX80XnsEQa5a4O4Y8D2","","","","","","","","","","","","","","","","","","750","","",""
"html-keyboard-response","70","127357","0.0-30.0-3.0","","null","<div style='margin:auto;width: auto; font-size: 150%'><span style='font-weight: bold; font-size: 100px; color: green;'>+10 points!</span><br><br></div>","null","delaylearn","learning","feedback_image_window","5cc19050dfef1a00019523b6","JoSxlMwQekX80XnsEQa5a4O4Y8D2","","","","","","","","","","","","","","","","","","","","",""
"html-keyboard-response","71","127867","0.0-31.0-0.0","","null","","null","","","mood_trial_fixation","","","","","","","","","","","","","","","","","","","","","","",""
"lmdlab-html-vas-response","72","132667","0.0-31.0-1.0","","3788","How happy are you right now?","0.4351851851851852","delaylearn","learning","mood_trial","5cc19050dfef1a00019523b6","JoSxlMwQekX80XnsEQa5a4O4Y8D2","","","","","","","","","","","","","","","","","","","","[""Very unhappy"",""Very happy""]",""
"html-keyboard-response","73","134660","0.0-32.0","","null","<div style=""font-size:100px;"">+</div>","null","delaylearn","learning","ITI","5cc19050dfef1a00019523b6","JoSxlMwQekX80XnsEQa5a4O4Y8D2","","","","","","","","","","","","","","","","","","","1984","",""
"html-keyboard-response","74","135341","0.0-33.0-0.0","","679.2999999523163","<div style=""display: flex; flex-direction: column; align-items: center; margin-top: -40px;""><img src=""images/pattern_1.png"" style=""width: 234px; height: 230px; margin-top: -50px;""><div style=""display: flex; justify-content: space-between; margin-top: 33px;""><img src=""images/choice_trial_15.png"" style=""width: 408px; height: 417px; margin-right: 200px;""><img src=""images/choice_trial_6.png"" style=""width: 408px; height: 417px;""></div></div>","j","delaylearn","learning","trial","5cc19050dfef1a00019523b6","JoSxlMwQekX80XnsEQa5a4O4Y8D2","5","images/choice_trial_15.png","images/choice_trial_6.png","images/pattern_1.png","j","j","7000","15","6","1","1","14","1","1","6","100","","","","",""
"html-keyboard-response","75","136344","0.0-33.0-1.0","","null","<div style=""display: flex; flex-direction: column; align-items: center; margin-top: -40px;""><img src=""images/pattern_1.png"" style=""width: 234px; height: 230px; margin-top: -50px;""><div style=""display: flex; justify-content: space-between; margin-top: 33px;""><img src=""images/choice_trial_6.png"" style=""width: 408px; height: 417px; margin-left:608px;""></div></div>","null","delaylearn","learning","display_response","5cc19050dfef1a00019523b6","JoSxlMwQekX80XnsEQa5a4O4Y8D2","","","","","","","","","","","","","","","","","chosen stimuli: images/choice_trial_6.png","","","",""
"html-keyboard-response","76","143361","0.0-33.0-2.0","","null","","null","delaylearn","learning","feedback_duration_window","5cc19050dfef1a00019523b6","JoSxlMwQekX80XnsEQa5a4O4Y8D2","","","","","","","","","","","","","","","","","","7000","","",""
"html-keyboard-response","77","144875","0.0-33.0-3.0","","null","<div style='margin:auto;width: auto; font-size: 150%'><span style='font-weight: bold; font-size: 100px; color: green;'>+10 points!</span><br><br></div>","null","delaylearn","learning","feedback_image_window","5cc19050dfef1a00019523b6","JoSxlMwQekX80XnsEQa5a4O4Y8D2","","","","","","","","","","","","","","","","","","","","",""
"html-keyboard-response","78","146769","0.0-34.0","","null","<div style=""font-size:100px;"">+</div>","null","delaylearn","learning","ITI","5cc19050dfef1a00019523b6","JoSxlMwQekX80XnsEQa5a4O4Y8D2","","","","","","","","","","","","","","","","","","","1880","",""
"html-keyboard-response","79","148072","0.0-35.0-0.0","","1301.1999999284744","<div style=""display: flex; flex-direction: column; align-items: center; margin-top: -40px;""><img src=""images/pattern_3.png"" style=""width: 234px; height: 230px; margin-top: -50px;""><div style=""display: flex; justify-content: space-between; margin-top: 33px;""><img src=""images/choice_trial_2.png"" style=""width: 408px; height: 417px; margin-right: 200px;""><img src=""images/choice_trial_16.png"" style=""width: 408px; height: 417px;""></div></div>","j","delaylearn","learning","trial","5cc19050dfef1a00019523b6","JoSxlMwQekX80XnsEQa5a4O4Y8D2","5","images/choice_trial_2.png","images/choice_trial_16.png","images/pattern_3.png","f","j","7000","2","16","2","1","15","1","0","16","100","","","","",""
"html-keyboard-response","80","149088","0.0-35.0-1.0","","null","<div style=""display: flex; flex-direction: column; align-items: center; margin-top: -40px;""><img src=""images/pattern_3.png"" style=""width: 234px; height: 230px; margin-top: -50px;""><div style=""display: flex; justify-content: space-between; margin-top: 33px;""><img src=""images/choice_trial_16.png"" style=""width: 408px; height: 417px; margin-left:608px;""></div></div>","null","delaylearn","learning","display_response","5cc19050dfef1a00019523b6","JoSxlMwQekX80XnsEQa5a4O4Y8D2","","","","","","","","","","","","","","","","","chosen stimuli: images/choice_trial_16.png","","","",""
"html-keyboard-response","81","156098","0.0-35.0-2.0","","null","","null","delaylearn","learning","feedback_duration_window","5cc19050dfef1a00019523b6","JoSxlMwQekX80XnsEQa5a4O4Y8D2","","","","","","","","","","","","","","","","","","7000","","",""
"html-keyboard-response","82","157602","0.0-35.0-3.0","","null","<div style='margin:auto;width: auto; font-size: 150%'><span style='font-weight: bold; font-size: 100px; color: red;'>0 points!</span><br><br></div>","null","delaylearn","learning","feedback_image_window","5cc19050dfef1a00019523b6","JoSxlMwQekX80XnsEQa5a4O4Y8D2","","","","","","","","","","","","","","","","","","","","",""
"html-keyboard-response","83","159778","0.0-36.0","","null","<div style=""font-size:100px;"">+</div>","null","delaylearn","learning","ITI","5cc19050dfef1a00019523b6","JoSxlMwQekX80XnsEQa5a4O4Y8D2","","","","","","","","","","","","","","","","","","","2168","",""
"html-keyboard-response","84","161198","0.0-37.0-0.0","","1417.9000000953674","<div style=""display: flex; flex-direction: column; align-items: center; margin-top: -40px;""><img src=""images/pattern_5.png"" style=""width: 234px; height: 230px; margin-top: -50px;""><div style=""display: flex; justify-content: space-between; margin-top: 33px;""><img src=""images/choice_trial_7.png"" style=""width: 408px; height: 417px; margin-right: 200px;""><img src=""images/choice_trial_13.png"" style=""width: 408px; height: 417px;""></div></div>","f","delaylearn","learning","trial","5cc19050dfef1a00019523b6","JoSxlMwQekX80XnsEQa5a4O4Y8D2","5","images/choice_trial_7.png","images/choice_trial_13.png","images/pattern_5.png","f","f","750","7","13","4","0","16","1","1","7","110","","","","",""
"html-keyboard-response","85","162216","0.0-37.0-1.0","","null","<div style=""display: flex; flex-direction: column; align-items: center; margin-top: -40px;""><img src=""images/pattern_5.png"" style=""width: 234px; height: 230px; margin-top: -50px;""><div style=""display: flex; justify-content: space-between; margin-top: 33px;""><img src=""images/choice_trial_7.png"" style=""width: 408px; height: 417px; margin-right: 608px;""></div></div>","null","delaylearn","learning","display_response","5cc19050dfef1a00019523b6","JoSxlMwQekX80XnsEQa5a4O4Y8D2","","","","","","","","","","","","","","","","","chosen stimuli: images/choice_trial_7.png","","","",""
"html-keyboard-response","86","162980","0.0-37.0-2.0","","null","","null","delaylearn","learning","feedback_duration_window","5cc19050dfef1a00019523b6","JoSxlMwQekX80XnsEQa5a4O4Y8D2","","","","","","","","","","","","","","","","","","750","","",""
"html-keyboard-response","87","164484","0.0-37.0-3.0","","null","<div style='margin:auto;width: auto; font-size: 150%'><span style='font-weight: bold; font-size: 100px; color: green;'>+10 points!</span><br><br></div>","null","delaylearn","learning","feedback_image_window","5cc19050dfef1a00019523b6","JoSxlMwQekX80XnsEQa5a4O4Y8D2","","","","","","","","","","","","","","","","","","","","",""
"html-keyboard-response","88","164994","0.0-38.0-0.0","","null","","null","","","mood_trial_fixation","","","","","","","","","","","","","","","","","","","","","","",""
"lmdlab-html-vas-response","89","169052","0.0-38.0-1.0","","3039","How happy are you right now?","0.46296296296296297","delaylearn","learning","mood_trial","5cc19050dfef1a00019523b6","JoSxlMwQekX80XnsEQa5a4O4Y8D2","","","","","","","","","","","","","","","","","","","","[""Very unhappy"",""Very happy""]",""
"html-keyboard-response","90","171243","0.0-39.0","","null","<div style=""font-size:100px;"">+</div>","null","delaylearn","learning","ITI","5cc19050dfef1a00019523b6","JoSxlMwQekX80XnsEQa5a4O4Y8D2","","","","","","","","","","","","","","","","","","","2188","",""
"html-keyboard-response","91","172493","0.0-40.0-0.0","","1248","<div style=""display: flex; flex-direction: column; align-items: center; margin-top: -40px;""><img src=""images/pattern_6.png"" style=""width: 234px; height: 230px; margin-top: -50px;""><div style=""display: flex; justify-content: space-between; margin-top: 33px;""><img src=""images/choice_trial_14.png"" style=""width: 408px; height: 417px; margin-right: 200px;""><img src=""images/choice_trial_9.png"" style=""width: 408px; height: 417px;""></div></div>","j","delaylearn","learning","trial","5cc19050dfef1a00019523b6","JoSxlMwQekX80XnsEQa5a4O4Y8D2","5","images/choice_trial_14.png","images/choice_trial_9.png","images/pattern_6.png","f","f","750","14","9","5","0","17","0","0","9","110","","","","",""
"html-keyboard-response","92","173508","0.0-40.0-1.0","","null","<div style=""display: flex; flex-direction: column; align-items: center; margin-top: -40px;""><img src=""images/pattern_6.png"" style=""width: 234px; height: 230px; margin-top: -50px;""><div style=""display: flex; justify-content: space-between; margin-top: 33px;""><img src=""images/choice_trial_9.png"" style=""width: 408px; height: 417px; margin-left:608px;""></div></div>","null","delaylearn","learning","display_response","5cc19050dfef1a00019523b6","JoSxlMwQekX80XnsEQa5a4O4Y8D2","","","","","","","","","","","","","","","","","chosen stimuli: images/choice_trial_9.png","","","",""
"html-keyboard-response","93","174274","0.0-40.0-2.0","","null","","null","delaylearn","learning","feedback_duration_window","5cc19050dfef1a00019523b6","JoSxlMwQekX80XnsEQa5a4O4Y8D2","","","","","","","","","","","","","","","","","","750","","",""
"html-keyboard-response","94","175778","0.0-40.0-3.0","","null","<div style='margin:auto;width: auto; font-size: 150%'><span style='font-weight: bold; font-size: 100px; color: red;'>0 points!</span><br><br></div>","null","delaylearn","learning","feedback_image_window","5cc19050dfef1a00019523b6","JoSxlMwQekX80XnsEQa5a4O4Y8D2","","","","","","","","","","","","","","","","","","","","",""
"html-keyboard-response","95","177955","0.0-41.0","","null","<div style=""font-size:100px;"">+</div>","null","delaylearn","learning","ITI","5cc19050dfef1a00019523b6","JoSxlMwQekX80XnsEQa5a4O4Y8D2","","","","","","","","","","","","","","","","","","","2166","",""
"html-keyboard-response","96","178770","0.0-42.0-0.0","","812.3999999761581","<div style=""display: flex; flex-direction: column; align-items: center; margin-top: -40px;""><img src=""images/pattern_4.png"" style=""width: 234px; height: 230px; margin-top: -50px;""><div style=""display: flex; justify-content: space-between; margin-top: 33px;""><img src=""images/choice_trial_4.png"" style=""width: 408px; height: 417px; margin-right: 200px;""><img src=""images/choice_trial_11.png"" style=""width: 408px; height: 417px;""></div></div>","j","delaylearn","learning","trial","5cc19050dfef1a00019523b6","JoSxlMwQekX80XnsEQa5a4O4Y8D2","5","images/choice_trial_4.png","images/choice_trial_11.png","images/pattern_4.png","j","j","7000","4","11","3","1","18","1","1","11","120","","","","",""
"html-keyboard-response","97","179788","0.0-42.0-1.0","","null","<div style=""display: flex; flex-direction: column; align-items: center; margin-top: -40px;""><img src=""images/pattern_4.png"" style=""width: 234px; height: 230px; margin-top: -50px;""><div style=""display: flex; justify-content: space-between; margin-top: 33px;""><img src=""images/choice_trial_11.png"" style=""width: 408px; height: 417px; margin-left:608px;""></div></div>","null","delaylearn","learning","display_response","5cc19050dfef1a00019523b6","JoSxlMwQekX80XnsEQa5a4O4Y8D2","","","","","","","","","","","","","","","","","chosen stimuli: images/choice_trial_11.png","","","",""
"html-keyboard-response","98","186804","0.0-42.0-2.0","","null","","null","delaylearn","learning","feedback_duration_window","5cc19050dfef1a00019523b6","JoSxlMwQekX80XnsEQa5a4O4Y8D2","","","","","","","","","","","","","","","","","","7000","","",""
"html-keyboard-response","99","188321","0.0-42.0-3.0","","null","<div style='margin:auto;width: auto; font-size: 150%'><span style='font-weight: bold; font-size: 100px; color: green;'>+10 points!</span><br><br></div>","null","delaylearn","learning","feedback_image_window","5cc19050dfef1a00019523b6","JoSxlMwQekX80XnsEQa5a4O4Y8D2","","","","","","","","","","","","","","","","","","","","",""
"html-keyboard-response","100","190359","0.0-43.0","","null","<div style=""font-size:100px;"">+</div>","null","delaylearn","learning","ITI","5cc19050dfef1a00019523b6","JoSxlMwQekX80XnsEQa5a4O4Y8D2","","","","","","","","","","","","","","","","","","","2033","",""
"html-keyboard-response","101","191224","0.0-44.0-0.0","","861.3999999761581","<div style=""display: flex; flex-direction: column; align-items: center; margin-top: -40px;""><img src=""images/pattern_7.png"" style=""width: 234px; height: 230px; margin-top: -50px;""><div style=""display: flex; justify-content: space-between; margin-top: 33px;""><img src=""images/choice_trial_8.png"" style=""width: 408px; height: 417px; margin-right: 200px;""><img src=""images/choice_trial_10.png"" style=""width: 408px; height: 417px;""></div></div>","f","delaylearn","learning","trial","5cc19050dfef1a00019523b6","JoSxlMwQekX80XnsEQa5a4O4Y8D2","5","images/choice_trial_8.png","images/choice_trial_10.png","images/pattern_7.png","j","f","750","8","10","6","0","19","1","0","8","120","","","","",""
"html-keyboard-response","102","192232","0.0-44.0-1.0","","null","<div style=""display: flex; flex-direction: column; align-items: center; margin-top: -40px;""><img src=""images/pattern_7.png"" style=""width: 234px; height: 230px; margin-top: -50px;""><div style=""display: flex; justify-content: space-between; margin-top: 33px;""><img src=""images/choice_trial_8.png"" style=""width: 408px; height: 417px; margin-right: 608px;""></div></div>","null","delaylearn","learning","display_response","5cc19050dfef1a00019523b6","JoSxlMwQekX80XnsEQa5a4O4Y8D2","","","","","","","","","","","","","","","","","chosen stimuli: images/choice_trial_8.png","","","",""
"html-keyboard-response","103","192992","0.0-44.0-2.0","","null","","null","delaylearn","learning","feedback_duration_window","5cc19050dfef1a00019523b6","JoSxlMwQekX80XnsEQa5a4O4Y8D2","","","","","","","","","","","","","","","","","","750","","",""
"html-keyboard-response","104","194496","0.0-44.0-3.0","","null","<div style='margin:auto;width: auto; font-size: 150%'><span style='font-weight: bold; font-size: 100px; color: red;'>0 points!</span><br><br></div>","null","delaylearn","learning","feedback_image_window","5cc19050dfef1a00019523b6","JoSxlMwQekX80XnsEQa5a4O4Y8D2","","","","","","","","","","","","","","","","","","","","",""
"html-keyboard-response","105","196499","0.0-45.0","","null","<div style=""font-size:100px;"">+</div>","null","delaylearn","learning","ITI","5cc19050dfef1a00019523b6","JoSxlMwQekX80XnsEQa5a4O4Y8D2","","","","","","","","","","","","","","","","","","","1999","",""
"html-keyboard-response","106","197223","0.0-46.0-0.0","","720.6999999284744","<div style=""display: flex; flex-direction: column; align-items: center; margin-top: -40px;""><img src=""images/pattern_1.png"" style=""width: 234px; height: 230px; margin-top: -50px;""><div style=""display: flex; justify-content: space-between; margin-top: 33px;""><img src=""images/choice_trial_6.png"" style=""width: 408px; height: 417px; margin-right: 200px;""><img src=""images/choice_trial_15.png"" style=""width: 408px; height: 417px;""></div></div>","f","delaylearn","learning","trial","5cc19050dfef1a00019523b6","JoSxlMwQekX80XnsEQa5a4O4Y8D2","5","images/choice_trial_6.png","images/choice_trial_15.png","images/pattern_1.png","f","f","7000","6","15","1","0","20","1","1","6","130","","","","",""
"html-keyboard-response","107","198237","0.0-46.0-1.0","","null","<div style=""display: flex; flex-direction: column; align-items: center; margin-top: -40px;""><img src=""images/pattern_1.png"" style=""width: 234px; height: 230px; margin-top: -50px;""><div style=""display: flex; justify-content: space-between; margin-top: 33px;""><img src=""images/choice_trial_6.png"" style=""width: 408px; height: 417px; margin-right: 608px;""></div></div>","null","delaylearn","learning","display_response","5cc19050dfef1a00019523b6","JoSxlMwQekX80XnsEQa5a4O4Y8D2","","","","","","","","","","","","","","","","","chosen stimuli: images/choice_trial_6.png","","","",""
"html-keyboard-response","108","205244","0.0-46.0-2.0","","null","","null","delaylearn","learning","feedback_duration_window","5cc19050dfef1a00019523b6","JoSxlMwQekX80XnsEQa5a4O4Y8D2","","","","","","","","","","","","","","","","","","7000","","",""
"html-keyboard-response","109","206755","0.0-46.0-3.0","","null","<div style='margin:auto;width: auto; font-size: 150%'><span style='font-weight: bold; font-size: 100px; color: green;'>+10 points!</span><br><br></div>","null","delaylearn","learning","feedback_image_window","5cc19050dfef1a00019523b6","JoSxlMwQekX80XnsEQa5a4O4Y8D2","","","","","","","","","","","","","","","","","","","","",""
"html-keyboard-response","110","208464","0.0-47.0","","null","<div style=""font-size:100px;"">+</div>","null","delaylearn","learning","ITI","5cc19050dfef1a00019523b6","JoSxlMwQekX80XnsEQa5a4O4Y8D2","","","","","","","","","","","","","","","","","","","1705","",""
"html-keyboard-response","111","209061","0.0-48.0-0.0","","593.8000000715256","<div style=""display: flex; flex-direction: column; align-items: center; margin-top: -40px;""><img src=""images/pattern_6.png"" style=""width: 234px; height: 230px; margin-top: -50px;""><div style=""display: flex; justify-content: space-between; margin-top: 33px;""><img src=""images/choice_trial_9.png"" style=""width: 408px; height: 417px; margin-right: 200px;""><img src=""images/choice_trial_14.png"" style=""width: 408px; height: 417px;""></div></div>","f","delaylearn","learning","trial","5cc19050dfef1a00019523b6","JoSxlMwQekX80XnsEQa5a4O4Y8D2","5","images/choice_trial_9.png","images/choice_trial_14.png","images/pattern_6.png","j","j","750","9","14","5","1","21","0","0","9","130","","","","",""
"html-keyboard-response","112","210074","0.0-48.0-1.0","","null","<div style=""display: flex; flex-direction: column; align-items: center; margin-top: -40px;""><img src=""images/pattern_6.png"" style=""width: 234px; height: 230px; margin-top: -50px;""><div style=""display: flex; justify-content: space-between; margin-top: 33px;""><img src=""images/choice_trial_9.png"" style=""width: 408px; height: 417px; margin-right: 608px;""></div></div>","null","delaylearn","learning","display_response","5cc19050dfef1a00019523b6","JoSxlMwQekX80XnsEQa5a4O4Y8D2","","","","","","","","","","","","","","","","","chosen stimuli: images/choice_trial_9.png","","","",""
"html-keyboard-response","113","210834","0.0-48.0-2.0","","null","","null","delaylearn","learning","feedback_duration_window","5cc19050dfef1a00019523b6","JoSxlMwQekX80XnsEQa5a4O4Y8D2","","","","","","","","","","","","","","","","","","750","","",""
"html-keyboard-response","114","212337","0.0-48.0-3.0","","null","<div style='margin:auto;width: auto; font-size: 150%'><span style='font-weight: bold; font-size: 100px; color: red;'>0 points!</span><br><br></div>","null","delaylearn","learning","feedback_image_window","5cc19050dfef1a00019523b6","JoSxlMwQekX80XnsEQa5a4O4Y8D2","","","","","","","","","","","","","","","","","","","","",""
"html-keyboard-response","115","214117","0.0-49.0","","null","<div style=""font-size:100px;"">+</div>","null","delaylearn","learning","ITI","5cc19050dfef1a00019523b6","JoSxlMwQekX80XnsEQa5a4O4Y8D2","","","","","","","","","","","","","","","","","","","1774","",""
"html-keyboard-response","116","214815","0.0-50.0-0.0","","693.7999999523163","<div style=""display: flex; flex-direction: column; align-items: center; margin-top: -40px;""><img src=""images/pattern_4.png"" style=""width: 234px; height: 230px; margin-top: -50px;""><div style=""display: flex; justify-content: space-between; margin-top: 33px;""><img src=""images/choice_trial_11.png"" style=""width: 408px; height: 417px; margin-right: 200px;""><img src=""images/choice_trial_4.png"" style=""width: 408px; height: 417px;""></div></div>","f","delaylearn","learning","trial","5cc19050dfef1a00019523b6","JoSxlMwQekX80XnsEQa5a4O4Y8D2","5","images/choice_trial_11.png","images/choice_trial_4.png","images/pattern_4.png","f","f","7000","11","4","3","0","22","1","1","11","140","","","","",""
"html-keyboard-response","117","215823","0.0-50.0-1.0","","null","<div style=""display: flex; flex-direction: column; align-items: center; margin-top: -40px;""><img src=""images/pattern_4.png"" style=""width: 234px; height: 230px; margin-top: -50px;""><div style=""display: flex; justify-content: space-between; margin-top: 33px;""><img src=""images/choice_trial_11.png"" style=""width: 408px; height: 417px; margin-right: 608px;""></div></div>","null","delaylearn","learning","display_response","5cc19050dfef1a00019523b6","JoSxlMwQekX80XnsEQa5a4O4Y8D2","","","","","","","","","","","","","","","","","chosen stimuli: images/choice_trial_11.png","","","",""
"html-keyboard-response","118","222837","0.0-50.0-2.0","","null","","null","delaylearn","learning","feedback_duration_window","5cc19050dfef1a00019523b6","JoSxlMwQekX80XnsEQa5a4O4Y8D2","","","","","","","","","","","","","","","","","","7000","","",""
"html-keyboard-response","119","224346","0.0-50.0-3.0","","null","<div style='margin:auto;width: auto; font-size: 150%'><span style='font-weight: bold; font-size: 100px; color: green;'>+10 points!</span><br><br></div>","null","delaylearn","learning","feedback_image_window","5cc19050dfef1a00019523b6","JoSxlMwQekX80XnsEQa5a4O4Y8D2","","","","","","","","","","","","","","","","","","","","",""
"html-keyboard-response","120","224857","0.0-51.0-0.0","","null","","null","","","mood_trial_fixation","","","","","","","","","","","","","","","","","","","","","","",""
"lmdlab-html-vas-response","121","228852","0.0-51.0-1.0","","2984","How happy are you right now?","0.46064814814814814","delaylearn","learning","mood_trial","5cc19050dfef1a00019523b6","JoSxlMwQekX80XnsEQa5a4O4Y8D2","","","","","","","","","","","","","","","","","","","","[""Very unhappy"",""Very happy""]",""
"html-keyboard-response","122","230876","0.0-52.0","","null","<div style=""font-size:100px;"">+</div>","null","delaylearn","learning","ITI","5cc19050dfef1a00019523b6","JoSxlMwQekX80XnsEQa5a4O4Y8D2","","","","","","","","","","","","","","","","","","","2020","",""
"html-keyboard-response","123","232422","0.0-53.0-0.0","","1543.3999999761581","<div style=""display: flex; flex-direction: column; align-items: center; margin-top: -40px;""><img src=""images/pattern_7.png"" style=""width: 234px; height: 230px; margin-top: -50px;""><div style=""display: flex; justify-content: space-between; margin-top: 33px;""><img src=""images/choice_trial_10.png"" style=""width: 408px; height: 417px; margin-right: 200px;""><img src=""images/choice_trial_8.png"" style=""width: 408px; height: 417px;""></div></div>","j","delaylearn","learning","trial","5cc19050dfef1a00019523b6","JoSxlMwQekX80XnsEQa5a4O4Y8D2","5","images/choice_trial_10.png","images/choice_trial_8.png","images/pattern_7.png","j","j","750","10","8","6","1","23","1","1","8","150","","","","",""
"html-keyboard-response","124","233437","0.0-53.0-1.0","","null","<div style=""display: flex; flex-direction: column; align-items: center; margin-top: -40px;""><img src=""images/pattern_7.png"" style=""width: 234px; height: 230px; margin-top: -50px;""><div style=""display: flex; justify-content: space-between; margin-top: 33px;""><img src=""images/choice_trial_8.png"" style=""width: 408px; height: 417px; margin-left:608px;""></div></div>","null","delaylearn","learning","display_response","5cc19050dfef1a00019523b6","JoSxlMwQekX80XnsEQa5a4O4Y8D2","","","","","","","","","","","","","","","","","chosen stimuli: images/choice_trial_8.png","","","",""
"html-keyboard-response","125","234195","0.0-53.0-2.0","","null","","null","delaylearn","learning","feedback_duration_window","5cc19050dfef1a00019523b6","JoSxlMwQekX80XnsEQa5a4O4Y8D2","","","","","","","","","","","","","","","","","","750","","",""
"html-keyboard-response","126","235701","0.0-53.0-3.0","","null","<div style='margin:auto;width: auto; font-size: 150%'><span style='font-weight: bold; font-size: 100px; color: green;'>+10 points!</span><br><br></div>","null","delaylearn","learning","feedback_image_window","5cc19050dfef1a00019523b6","JoSxlMwQekX80XnsEQa5a4O4Y8D2","","","","","","","","","","","","","","","","","","","","",""
"html-keyboard-response","127","237289","0.0-54.0","","null","<div style=""font-size:100px;"">+</div>","null","delaylearn","learning","ITI","5cc19050dfef1a00019523b6","JoSxlMwQekX80XnsEQa5a4O4Y8D2","","","","","","","","","","","","","","","","","","","1578","",""
"html-keyboard-response","128","238308","0.0-55.0-0.0","","1017.3999999761581","<div style=""display: flex; flex-direction: column; align-items: center; margin-top: -40px;""><img src=""images/pattern_1.png"" style=""width: 234px; height: 230px; margin-top: -50px;""><div style=""display: flex; justify-content: space-between; margin-top: 33px;""><img src=""images/choice_trial_15.png"" style=""width: 408px; height: 417px; margin-right: 200px;""><img src=""images/choice_trial_6.png"" style=""width: 408px; height: 417px;""></div></div>","j","delaylearn","learning","trial","5cc19050dfef1a00019523b6","JoSxlMwQekX80XnsEQa5a4O4Y8D2","5","images/choice_trial_15.png","images/choice_trial_6.png","images/pattern_1.png","f","j","7000","15","6","1","1","24","1","0","6","150","","","","",""
"html-keyboard-response","129","239317","0.0-55.0-1.0","","null","<div style=""display: flex; flex-direction: column; align-items: center; margin-top: -40px;""><img src=""images/pattern_1.png"" style=""width: 234px; height: 230px; margin-top: -50px;""><div style=""display: flex; justify-content: space-between; margin-top: 33px;""><img src=""images/choice_trial_6.png"" style=""width: 408px; height: 417px; margin-left:608px;""></div></div>","null","delaylearn","learning","display_response","5cc19050dfef1a00019523b6","JoSxlMwQekX80XnsEQa5a4O4Y8D2","","","","","","","","","","","","","","","","","chosen stimuli: images/choice_trial_6.png","","","",""
"html-keyboard-response","130","246321","0.0-55.0-2.0","","null","","null","delaylearn","learning","feedback_duration_window","5cc19050dfef1a00019523b6","JoSxlMwQekX80XnsEQa5a4O4Y8D2","","","","","","","","","","","","","","","","","","7000","","",""
"html-keyboard-response","131","247827","0.0-55.0-3.0","","null","<div style='margin:auto;width: auto; font-size: 150%'><span style='font-weight: bold; font-size: 100px; color: red;'>0 points!</span><br><br></div>","null","delaylearn","learning","feedback_image_window","5cc19050dfef1a00019523b6","JoSxlMwQekX80XnsEQa5a4O4Y8D2","","","","","","","","","","","","","","","","","","","","",""
"html-keyboard-response","132","249812","0.0-56.0","","null","<div style=""font-size:100px;"">+</div>","null","delaylearn","learning","ITI","5cc19050dfef1a00019523b6","JoSxlMwQekX80XnsEQa5a4O4Y8D2","","","","","","","","","","","","","","","","","","","1979","",""
"html-keyboard-response","133","251957","0.0-57.0-0.0","","2141.2999999523163","<div style=""display: flex; flex-direction: column; align-items: center; margin-top: -40px;""><img src=""images/pattern_5.png"" style=""width: 234px; height: 230px; margin-top: -50px;""><div style=""display: flex; justify-content: space-between; margin-top: 33px;""><img src=""images/choice_trial_13.png"" style=""width: 408px; height: 417px; margin-right: 200px;""><img src=""images/choice_trial_7.png"" style=""width: 408px; height: 417px;""></div></div>","j","delaylearn","learning","trial","5cc19050dfef1a00019523b6","JoSxlMwQekX80XnsEQa5a4O4Y8D2","5","images/choice_trial_13.png","images/choice_trial_7.png","images/pattern_5.png","j","j","750","13","7","4","1","25","1","1","7","160","","","","",""
"html-keyboard-response","134","252964","0.0-57.0-1.0","","null","<div style=""display: flex; flex-direction: column; align-items: center; margin-top: -40px;""><img src=""images/pattern_5.png"" style=""width: 234px; height: 230px; margin-top: -50px;""><div style=""display: flex; justify-content: space-between; margin-top: 33px;""><img src=""images/choice_trial_7.png"" style=""width: 408px; height: 417px; margin-left:608px;""></div></div>","null","delaylearn","learning","display_response","5cc19050dfef1a00019523b6","JoSxlMwQekX80XnsEQa5a4O4Y8D2","","","","","","","","","","","","","","","","","chosen stimuli: images/choice_trial_7.png","","","",""
"html-keyboard-response","135","253721","0.0-57.0-2.0","","null","","null","delaylearn","learning","feedback_duration_window","5cc19050dfef1a00019523b6","JoSxlMwQekX80XnsEQa5a4O4Y8D2","","","","","","","","","","","","","","","","","","750","","",""
"html-keyboard-response","136","255226","0.0-57.0-3.0","","null","<div style='margin:auto;width: auto; font-size: 150%'><span style='font-weight: bold; font-size: 100px; color: green;'>+10 points!</span><br><br></div>","null","delaylearn","learning","feedback_image_window","5cc19050dfef1a00019523b6","JoSxlMwQekX80XnsEQa5a4O4Y8D2","","","","","","","","","","","","","","","","","","","","",""
"html-keyboard-response","137","256770","0.0-58.0","","null","<div style=""font-size:100px;"">+</div>","null","delaylearn","learning","ITI","5cc19050dfef1a00019523b6","JoSxlMwQekX80XnsEQa5a4O4Y8D2","","","","","","","","","","","","","","","","","","","1538","",""
"html-keyboard-response","138","258079","0.0-59.0-0.0","","1305.0999999046326","<div style=""display: flex; flex-direction: column; align-items: center; margin-top: -40px;""><img src=""images/pattern_3.png"" style=""width: 234px; height: 230px; margin-top: -50px;""><div style=""display: flex; justify-content: space-between; margin-top: 33px;""><img src=""images/choice_trial_2.png"" style=""width: 408px; height: 417px; margin-right: 200px;""><img src=""images/choice_trial_16.png"" style=""width: 408px; height: 417px;""></div></div>","j","delaylearn","learning","trial","5cc19050dfef1a00019523b6","JoSxlMwQekX80XnsEQa5a4O4Y8D2","5","images/choice_trial_2.png","images/choice_trial_16.png","images/pattern_3.png","j","j","7000","2","16","2","1","26","1","1","16","170","","","","",""
"html-keyboard-response","139","259093","0.0-59.0-1.0","","null","<div style=""display: flex; flex-direction: column; align-items: center; margin-top: -40px;""><img src=""images/pattern_3.png"" style=""width: 234px; height: 230px; margin-top: -50px;""><div style=""display: flex; justify-content: space-between; margin-top: 33px;""><img src=""images/choice_trial_16.png"" style=""width: 408px; height: 417px; margin-left:608px;""></div></div>","null","delaylearn","learning","display_response","5cc19050dfef1a00019523b6","JoSxlMwQekX80XnsEQa5a4O4Y8D2","","","","","","","","","","","","","","","","","chosen stimuli: images/choice_trial_16.png","","","",""
"html-keyboard-response","140","266100","0.0-59.0-2.0","","null","","null","delaylearn","learning","feedback_duration_window","5cc19050dfef1a00019523b6","JoSxlMwQekX80XnsEQa5a4O4Y8D2","","","","","","","","","","","","","","","","","","7000","","",""
"html-keyboard-response","141","267602","0.0-59.0-3.0","","null","<div style='margin:auto;width: auto; font-size: 150%'><span style='font-weight: bold; font-size: 100px; color: green;'>+10 points!</span><br><br></div>","null","delaylearn","learning","feedback_image_window","5cc19050dfef1a00019523b6","JoSxlMwQekX80XnsEQa5a4O4Y8D2","","","","","","","","","","","","","","","","","","","","",""
"lmdlab-html-vas-response","142","275255","0.0-60.0-0.0","","6128","*How <b><u>confident</u></b> are you feeling about your answers at this moment?*","0.18981481481481483","rewlearn","rate_confidence","","5cc19050dfef1a00019523b6","JoSxlMwQekX80XnsEQa5a4O4Y8D2","","","","","","","","","","","","","","","","","","","","[""No confidence"",""Complete confidence""]",""
"lmdlab-rest-trial-limit","143","281391","0.0-60.0-1.0","","4626.5","<div style=""font-size:40px;""><b>Please take a break!</b><br><br><br><br><p>Great work: you earned 170 points.<br><br><br><p>You have completed part(s) 1 of 5.<br><br><br><br>When you are ready to continue<br><br><br>please click the button.</p><br><br>","0","delaylearn","learning","break","5cc19050dfef1a00019523b6","JoSxlMwQekX80XnsEQa5a4O4Y8D2","","","","","","","","","","","","","","","","","","","","","0"
"html-keyboard-response","144","284399","0.0-60.0-2.0","","null","<div style=""font-size:100px;"">+</div>","null","delaylearn","learning","pre_fixation","5cc19050dfef1a00019523b6","","","","","","","","","","","","","","","","","","","","","",""
"lmdlab-html-vas-response","145","288684","0.0-60.0-3.0-0.0","","3268","How happy are you right now?","0.4305555555555556","delaylearn","learning","mood_baseline","5cc19050dfef1a00019523b6","JoSxlMwQekX80XnsEQa5a4O4Y8D2","","","","","","","","","","","","","","","","","","","","[""Very unhappy"",""Very happy""]",""
"html-keyboard-response","146","290192","0.0-60.0-3.0-1.0","","null","","null","","","mood_baseline_fixation","","","","","","","","","","","","","","","","","","","","","","",""
"html-keyboard-response","147","292456","0.0-61.0","","null","<div style=""font-size:100px;"">+</div>","null","delaylearn","learning","ITI","5cc19050dfef1a00019523b6","JoSxlMwQekX80XnsEQa5a4O4Y8D2","","","","","","","","","","","","","","","","","","","2257","",""
"html-keyboard-response","148","294567","0.0-62.0-0.0","","2107.0999999046326","<div style=""display: flex; flex-direction: column; align-items: center; margin-top: -40px;""><img src=""images/pattern_7.png"" style=""width: 234px; height: 230px; margin-top: -50px;""><div style=""display: flex; justify-content: space-between; margin-top: 33px;""><img src=""images/choice_trial_10.png"" style=""width: 408px; height: 417px; margin-right: 200px;""><img src=""images/choice_trial_8.png"" style=""width: 408px; height: 417px;""></div></div>","j","delaylearn","learning","trial","5cc19050dfef1a00019523b6","JoSxlMwQekX80XnsEQa5a4O4Y8D2","5","images/choice_trial_10.png","images/choice_trial_8.png","images/pattern_7.png","j","j","750","10","8","6","1","27","1","1","8","180","","","","",""
"html-keyboard-response","149","295575","0.0-62.0-1.0","","null","<div style=""display: flex; flex-direction: column; align-items: center; margin-top: -40px;""><img src=""images/pattern_7.png"" style=""width: 234px; height: 230px; margin-top: -50px;""><div style=""display: flex; justify-content: space-between; margin-top: 33px;""><img src=""images/choice_trial_8.png"" style=""width: 408px; height: 417px; margin-left:608px;""></div></div>","null","delaylearn","learning","display_response","5cc19050dfef1a00019523b6","JoSxlMwQekX80XnsEQa5a4O4Y8D2","","","","","","","","","","","","","","","","","chosen stimuli: images/choice_trial_8.png","","","",""
"html-keyboard-response","150","296336","0.0-62.0-2.0","","null","","null","delaylearn","learning","feedback_duration_window","5cc19050dfef1a00019523b6","JoSxlMwQekX80XnsEQa5a4O4Y8D2","","","","","","","","","","","","","","","","","","750","","",""
"html-keyboard-response","151","297850","0.0-62.0-3.0","","null","<div style='margin:auto;width: auto; font-size: 150%'><span style='font-weight: bold; font-size: 100px; color: green;'>+10 points!</span><br><br></div>","null","delaylearn","learning","feedback_image_window","5cc19050dfef1a00019523b6","JoSxlMwQekX80XnsEQa5a4O4Y8D2","","","","","","","","","","","","","","","","","","","","",""
"html-keyboard-response","152","298363","0.0-63.0-0.0","","null","","null","","","mood_trial_fixation","","","","","","","","","","","","","","","","","","","","","","",""
"lmdlab-html-vas-response","153","305409","0.0-63.0-1.0","","6025","How happy are you right now?","0.49537037037037035","delaylearn","learning","mood_trial","5cc19050dfef1a00019523b6","JoSxlMwQekX80XnsEQa5a4O4Y8D2","","","","","","","","","","","","","","","","","","","","[""Very unhappy"",""Very happy""]",""
"html-keyboard-response","154","306951","0.0-64.0","","null","<div style=""font-size:100px;"">+</div>","null","delaylearn","learning","ITI","5cc19050dfef1a00019523b6","JoSxlMwQekX80XnsEQa5a4O4Y8D2","","","","","","","","","","","","","","","","","","","1538","",""
"html-keyboard-response","155","309965","0.0-65.0-0.0","","null","<div style=""display: flex; flex-direction: column; align-items: center; margin-top: -40px;""><img src=""images/pattern_1.png"" style=""width: 234px; height: 230px; margin-top: -50px;""><div style=""display: flex; justify-content: space-between; margin-top: 33px;""><img src=""images/choice_trial_6.png"" style=""width: 408px; height: 417px; margin-right: 200px;""><img src=""images/choice_trial_15.png"" style=""width: 408px; height: 417px;""></div></div>","null","delaylearn","learning","trial","5cc19050dfef1a00019523b6","JoSxlMwQekX80XnsEQa5a4O4Y8D2","5","images/choice_trial_6.png","images/choice_trial_15.png","images/pattern_1.png","f","f","7000","6","15","1","0","28","0","0","0","180","","","","",""
"html-keyboard-response","156","310977","0.0-65.0-1.0","","null","<div style='font-weight: bold; font-size: 75px; color: red;'>Missed Trial <br><br><br><br> Please respond faster</div>","null","delaylearn","learning","display_response","5cc19050dfef1a00019523b6","JoSxlMwQekX80XnsEQa5a4O4Y8D2","","","","","","","","","","","","","","","","","Missed trial","","","",""
"html-keyboard-response","157","310983","0.0-65.0-2.0","","null","","null","delaylearn","learning","feedback_duration_window","5cc19050dfef1a00019523b6","JoSxlMwQekX80XnsEQa5a4O4Y8D2","","","","","","","","","","","","","","","","","","0","","",""
"html-keyboard-response","158","310989","0.0-65.0-3.0","","null","","null","delaylearn","learning","feedback_image_window","5cc19050dfef1a00019523b6","JoSxlMwQekX80XnsEQa5a4O4Y8D2","","","","","","","","","","","","","","","","","","","","",""
"html-keyboard-response","159","313238","0.0-66.0","","null","<div style=""font-size:100px;"">+</div>","null","delaylearn","learning","ITI","5cc19050dfef1a00019523b6","JoSxlMwQekX80XnsEQa5a4O4Y8D2","","","","","","","","","","","","","","","","","","","2237","",""
"html-keyboard-response","160","314072","0.0-67.0-0.0","","831.5","<div style=""display: flex; flex-direction: column; align-items: center; margin-top: -40px;""><img src=""images/pattern_5.png"" style=""width: 234px; height: 230px; margin-top: -50px;""><div style=""display: flex; justify-content: space-between; margin-top: 33px;""><img src=""images/choice_trial_7.png"" style=""width: 408px; height: 417px; margin-right: 200px;""><img src=""images/choice_trial_13.png"" style=""width: 408px; height: 417px;""></div></div>","j","delaylearn","learning","trial","5cc19050dfef1a00019523b6","JoSxlMwQekX80XnsEQa5a4O4Y8D2","5","images/choice_trial_7.png","images/choice_trial_13.png","images/pattern_5.png","f","f","750","7","13","4","0","29","0","0","13","180","","","","",""
"html-keyboard-response","161","315080","0.0-67.0-1.0","","null","<div style=""display: flex; flex-direction: column; align-items: center; margin-top: -40px;""><img src=""images/pattern_5.png"" style=""width: 234px; height: 230px; margin-top: -50px;""><div style=""display: flex; justify-content: space-between; margin-top: 33px;""><img src=""images/choice_trial_13.png"" style=""width: 408px; height: 417px; margin-left:608px;""></div></div>","null","delaylearn","learning","display_response","5cc19050dfef1a00019523b6","JoSxlMwQekX80XnsEQa5a4O4Y8D2","","","","","","","","","","","","","","","","","chosen stimuli: images/choice_trial_13.png","","","",""
"html-keyboard-response","162","315839","0.0-67.0-2.0","","null","","null","delaylearn","learning","feedback_duration_window","5cc19050dfef1a00019523b6","JoSxlMwQekX80XnsEQa5a4O4Y8D2","","","","","","","","","","","","","","","","","","750","","",""
"html-keyboard-response","163","317347","0.0-67.0-3.0","","null","<div style='margin:auto;width: auto; font-size: 150%'><span style='font-weight: bold; font-size: 100px; color: red;'>0 points!</span><br><br></div>","null","delaylearn","learning","feedback_image_window","5cc19050dfef1a00019523b6","JoSxlMwQekX80XnsEQa5a4O4Y8D2","","","","","","","","","","","","","","","","","","","","",""
"html-keyboard-response","164","319644","0.0-68.0","","null","<div style=""font-size:100px;"">+</div>","null","delaylearn","learning","ITI","5cc19050dfef1a00019523b6","JoSxlMwQekX80XnsEQa5a4O4Y8D2","","","","","","","","","","","","","","","","","","","2287","",""
"html-keyboard-response","165","320471","0.0-69.0-0.0","","823.3000000715256","<div style=""display: flex; flex-direction: column; align-items: center; margin-top: -40px;""><img src=""images/pattern_6.png"" style=""width: 234px; height: 230px; margin-top: -50px;""><div style=""display: flex; justify-content: space-between; margin-top: 33px;""><img src=""images/choice_trial_9.png"" style=""width: 408px; height: 417px; margin-right: 200px;""><img src=""images/choice_trial_14.png"" style=""width: 408px; height: 417px;""></div></div>","f","delaylearn","learning","trial","5cc19050dfef1a00019523b6","JoSxlMwQekX80XnsEQa5a4O4Y8D2","5","images/choice_trial_9.png","images/choice_trial_14.png","images/pattern_6.png","j","j","750","9","14","5","1","30","0","0","9","180","","","","",""
"html-keyboard-response","166","321481","0.0-69.0-1.0","","null","<div style=""display: flex; flex-direction: column; align-items: center; margin-top: -40px;""><img src=""images/pattern_6.png"" style=""width: 234px; height: 230px; margin-top: -50px;""><div style=""display: flex; justify-content: space-between; margin-top: 33px;""><img src=""images/choice_trial_9.png"" style=""width: 408px; height: 417px; margin-right: 608px;""></div></div>","null","delaylearn","learning","display_response","5cc19050dfef1a00019523b6","JoSxlMwQekX80XnsEQa5a4O4Y8D2","","","","","","","","","","","","","","","","","chosen stimuli: images/choice_trial_9.png","","","",""
"html-keyboard-response","167","322245","0.0-69.0-2.0","","null","","null","delaylearn","learning","feedback_duration_window","5cc19050dfef1a00019523b6","JoSxlMwQekX80XnsEQa5a4O4Y8D2","","","","","","","","","","","","","","","","","","750","","",""
"html-keyboard-response","168","323761","0.0-69.0-3.0","","null","<div style='margin:auto;width: auto; font-size: 150%'><span style='font-weight: bold; font-size: 100px; color: red;'>0 points!</span><br><br></div>","null","delaylearn","learning","feedback_image_window","5cc19050dfef1a00019523b6","JoSxlMwQekX80XnsEQa5a4O4Y8D2","","","","","","","","","","","","","","","","","","","","",""
"html-keyboard-response","169","324270","0.0-70.0-0.0","","null","","null","","","mood_trial_fixation","","","","","","","","","","","","","","","","","","","","","","",""
"lmdlab-html-vas-response","170","328085","0.0-70.0-1.0","","2807","How happy are you right now?","0.4537037037037037","delaylearn","learning","mood_trial","5cc19050dfef1a00019523b6","JoSxlMwQekX80XnsEQa5a4O4Y8D2","","","","","","","","","","","","","","","","","","","","[""Very unhappy"",""Very happy""]",""
"html-keyboard-response","171","330152","0.0-71.0","","null","<div style=""font-size:100px;"">+</div>","null","delaylearn","learning","ITI","5cc19050dfef1a00019523b6","JoSxlMwQekX80XnsEQa5a4O4Y8D2","","","","","","","","","","","","","","","","","","","2051","",""
"html-keyboard-response","172","331439","0.0-72.0-0.0","","1282.5","<div style=""display: flex; flex-direction: column; align-items: center; margin-top: -40px;""><img src=""images/pattern_4.png"" style=""width: 234px; height: 230px; margin-top: -50px;""><div style=""display: flex; justify-content: space-between; margin-top: 33px;""><img src=""images/choice_trial_4.png"" style=""width: 408px; height: 417px; margin-right: 200px;""><img src=""images/choice_trial_11.png"" style=""width: 408px; height: 417px;""></div></div>","j","delaylearn","learning","trial","5cc19050dfef1a00019523b6","JoSxlMwQekX80XnsEQa5a4O4Y8D2","5","images/choice_trial_4.png","images/choice_trial_11.png","images/pattern_4.png","j","j","7000","4","11","3","1","31","1","1","11","190","","","","",""
"html-keyboard-response","173","332456","0.0-72.0-1.0","","null","<div style=""display: flex; flex-direction: column; align-items: center; margin-top: -40px;""><img src=""images/pattern_4.png"" style=""width: 234px; height: 230px; margin-top: -50px;""><div style=""display: flex; justify-content: space-between; margin-top: 33px;""><img src=""images/choice_trial_11.png"" style=""width: 408px; height: 417px; margin-left:608px;""></div></div>","null","delaylearn","learning","display_response","5cc19050dfef1a00019523b6","JoSxlMwQekX80XnsEQa5a4O4Y8D2","","","","","","","","","","","","","","","","","chosen stimuli: images/choice_trial_11.png","","","",""
"html-keyboard-response","174","339464","0.0-72.0-2.0","","null","","null","delaylearn","learning","feedback_duration_window","5cc19050dfef1a00019523b6","JoSxlMwQekX80XnsEQa5a4O4Y8D2","","","","","","","","","","","","","","","","","","7000","","",""
"html-keyboard-response","175","340968","0.0-72.0-3.0","","null","<div style='margin:auto;width: auto; font-size: 150%'><span style='font-weight: bold; font-size: 100px; color: green;'>+10 points!</span><br><br></div>","null","delaylearn","learning","feedback_image_window","5cc19050dfef1a00019523b6","JoSxlMwQekX80XnsEQa5a4O4Y8D2","","","","","","","","","","","","","","","","","","","","",""
"html-keyboard-response","176","342490","0.0-73.0","","null","<div style=""font-size:100px;"">+</div>","null","delaylearn","learning","ITI","5cc19050dfef1a00019523b6","JoSxlMwQekX80XnsEQa5a4O4Y8D2","","","","","","","","","","","","","","","","","","","1517","",""
"html-keyboard-response","177","343155","0.0-74.0-0.0","","661.5","<div style=""display: flex; flex-direction: column; align-items: center; margin-top: -40px;""><img src=""images/pattern_3.png"" style=""width: 234px; height: 230px; margin-top: -50px;""><div style=""display: flex; justify-content: space-between; margin-top: 33px;""><img src=""images/choice_trial_2.png"" style=""width: 408px; height: 417px; margin-right: 200px;""><img src=""images/choice_trial_16.png"" style=""width: 408px; height: 417px;""></div></div>","j","delaylearn","learning","trial","5cc19050dfef1a00019523b6","JoSxlMwQekX80XnsEQa5a4O4Y8D2","5","images/choice_trial_2.png","images/choice_trial_16.png","images/pattern_3.png","j","j","7000","2","16","2","1","32","1","1","16","200","","","","",""
"html-keyboard-response","178","344170","0.0-74.0-1.0","","null","<div style=""display: flex; flex-direction: column; align-items: center; margin-top: -40px;""><img src=""images/pattern_3.png"" style=""width: 234px; height: 230px; margin-top: -50px;""><div style=""display: flex; justify-content: space-between; margin-top: 33px;""><img src=""images/choice_trial_16.png"" style=""width: 408px; height: 417px; margin-left:608px;""></div></div>","null","delaylearn","learning","display_response","5cc19050dfef1a00019523b6","JoSxlMwQekX80XnsEQa5a4O4Y8D2","","","","","","","","","","","","","","","","","chosen stimuli: images/choice_trial_16.png","","","",""
"html-keyboard-response","179","351181","0.0-74.0-2.0","","null","","null","delaylearn","learning","feedback_duration_window","5cc19050dfef1a00019523b6","JoSxlMwQekX80XnsEQa5a4O4Y8D2","","","","","","","","","","","","","","","","","","7000","","",""
"html-keyboard-response","180","352690","0.0-74.0-3.0","","null","<div style='margin:auto;width: auto; font-size: 150%'><span style='font-weight: bold; font-size: 100px; color: green;'>+10 points!</span><br><br></div>","null","delaylearn","learning","feedback_image_window","5cc19050dfef1a00019523b6","JoSxlMwQekX80XnsEQa5a4O4Y8D2","","","","","","","","","","","","","","","","","","","","",""
"html-keyboard-response","181","355129","0.0-75.0","","null","<div style=""font-size:100px;"">+</div>","null","delaylearn","learning","ITI","5cc19050dfef1a00019523b6","JoSxlMwQekX80XnsEQa5a4O4Y8D2","","","","","","","","","","","","","","","","","","","2431","",""
"html-keyboard-response","182","356055","0.0-76.0-0.0","","921.3999999761581","<div style=""display: flex; flex-direction: column; align-items: center; margin-top: -40px;""><img src=""images/pattern_5.png"" style=""width: 234px; height: 230px; margin-top: -50px;""><div style=""display: flex; justify-content: space-between; margin-top: 33px;""><img src=""images/choice_trial_7.png"" style=""width: 408px; height: 417px; margin-right: 200px;""><img src=""images/choice_trial_13.png"" style=""width: 408px; height: 417px;""></div></div>","f","delaylearn","learning","trial","5cc19050dfef1a00019523b6","JoSxlMwQekX80XnsEQa5a4O4Y8D2","5","images/choice_trial_7.png","images/choice_trial_13.png","images/pattern_5.png","j","f","750","7","13","4","0","33","1","0","7","200","","","","",""
"html-keyboard-response","183","357067","0.0-76.0-1.0","","null","<div style=""display: flex; flex-direction: column; align-items: center; margin-top: -40px;""><img src=""images/pattern_5.png"" style=""width: 234px; height: 230px; margin-top: -50px;""><div style=""display: flex; justify-content: space-between; margin-top: 33px;""><img src=""images/choice_trial_7.png"" style=""width: 408px; height: 417px; margin-right: 608px;""></div></div>","null","delaylearn","learning","display_response","5cc19050dfef1a00019523b6","JoSxlMwQekX80XnsEQa5a4O4Y8D2","","","","","","","","","","","","","","","","","chosen stimuli: images/choice_trial_7.png","","","",""
"html-keyboard-response","184","357826","0.0-76.0-2.0","","null","","null","delaylearn","learning","feedback_duration_window","5cc19050dfef1a00019523b6","JoSxlMwQekX80XnsEQa5a4O4Y8D2","","","","","","","","","","","","","","","","","","750","","",""
"html-keyboard-response","185","359330","0.0-76.0-3.0","","null","<div style='margin:auto;width: auto; font-size: 150%'><span style='font-weight: bold; font-size: 100px; color: red;'>0 points!</span><br><br></div>","null","delaylearn","learning","feedback_image_window","5cc19050dfef1a00019523b6","JoSxlMwQekX80XnsEQa5a4O4Y8D2","","","","","","","","","","","","","","","","","","","","",""
"html-keyboard-response","186","361264","0.0-77.0","","null","<div style=""font-size:100px;"">+</div>","null","delaylearn","learning","ITI","5cc19050dfef1a00019523b6","JoSxlMwQekX80XnsEQa5a4O4Y8D2","","","","","","","","","","","","","","","","","","","1932","",""
"html-keyboard-response","187","361903","0.0-78.0-0.0","","634.2999999523163","<div style=""display: flex; flex-direction: column; align-items: center; margin-top: -40px;""><img src=""images/pattern_1.png"" style=""width: 234px; height: 230px; margin-top: -50px;""><div style=""display: flex; justify-content: space-between; margin-top: 33px;""><img src=""images/choice_trial_6.png"" style=""width: 408px; height: 417px; margin-right: 200px;""><img src=""images/choice_trial_15.png"" style=""width: 408px; height: 417px;""></div></div>","f","delaylearn","learning","trial","5cc19050dfef1a00019523b6","JoSxlMwQekX80XnsEQa5a4O4Y8D2","5","images/choice_trial_6.png","images/choice_trial_15.png","images/pattern_1.png","f","f","7000","6","15","1","0","34","1","1","6","210","","","","",""
"html-keyboard-response","188","362910","0.0-78.0-1.0","","null","<div style=""display: flex; flex-direction: column; align-items: center; margin-top: -40px;""><img src=""images/pattern_1.png"" style=""width: 234px; height: 230px; margin-top: -50px;""><div style=""display: flex; justify-content: space-between; margin-top: 33px;""><img src=""images/choice_trial_6.png"" style=""width: 408px; height: 417px; margin-right: 608px;""></div></div>","null","delaylearn","learning","display_response","5cc19050dfef1a00019523b6","JoSxlMwQekX80XnsEQa5a4O4Y8D2","","","","","","","","","","","","","","","","","chosen stimuli: images/choice_trial_6.png","","","",""
"html-keyboard-response","189","369922","0.0-78.0-2.0","","null","","null","delaylearn","learning","feedback_duration_window","5cc19050dfef1a00019523b6","JoSxlMwQekX80XnsEQa5a4O4Y8D2","","","","","","","","","","","","","","","","","","7000","","",""
"html-keyboard-response","190","371436","0.0-78.0-3.0","","null","<div style='margin:auto;width: auto; font-size: 150%'><span style='font-weight: bold; font-size: 100px; color: green;'>+10 points!</span><br><br></div>","null","delaylearn","learning","feedback_image_window","5cc19050dfef1a00019523b6","JoSxlMwQekX80XnsEQa5a4O4Y8D2","","","","","","","","","","","","","","","","","","","","",""
"html-keyboard-response","191","371951","0.0-79.0-0.0","","null","","null","","","mood_trial_fixation","","","","","","","","","","","","","","","","","","","","","","",""
"lmdlab-html-vas-response","192","375573","0.0-79.0-1.0","","2611","How happy are you right now?","0.44907407407407407","delaylearn","learning","mood_trial","5cc19050dfef1a00019523b6","JoSxlMwQekX80XnsEQa5a4O4Y8D2","","","","","","","","","","","","","","","","","","","","[""Very unhappy"",""Very happy""]",""
"html-keyboard-response","193","377678","0.0-80.0","","null","<div style=""font-size:100px;"">+</div>","null","delaylearn","learning","ITI","5cc19050dfef1a00019523b6","JoSxlMwQekX80XnsEQa5a4O4Y8D2","","","","","","","","","","","","","","","","","","","2091","",""
"html-keyboard-response","194","378969","0.0-81.0-0.0","","1286.2999999523163","<div style=""display: flex; flex-direction: column; align-items: center; margin-top: -40px;""><img src=""images/pattern_6.png"" style=""width: 234px; height: 230px; margin-top: -50px;""><div style=""display: flex; justify-content: space-between; margin-top: 33px;""><img src=""images/choice_trial_14.png"" style=""width: 408px; height: 417px; margin-right: 200px;""><img src=""images/choice_trial_9.png"" style=""width: 408px; height: 417px;""></div></div>","j","delaylearn","learning","trial","5cc19050dfef1a00019523b6","JoSxlMwQekX80XnsEQa5a4O4Y8D2","5","images/choice_trial_14.png","images/choice_trial_9.png","images/pattern_6.png","j","f","750","14","9","5","0","35","0","1","9","220","","","","",""
"html-keyboard-response","195","379975","0.0-81.0-1.0","","null","<div style=""display: flex; flex-direction: column; align-items: center; margin-top: -40px;""><img src=""images/pattern_6.png"" style=""width: 234px; height: 230px; margin-top: -50px;""><div style=""display: flex; justify-content: space-between; margin-top: 33px;""><img src=""images/choice_trial_9.png"" style=""width: 408px; height: 417px; margin-left:608px;""></div></div>","null","delaylearn","learning","display_response","5cc19050dfef1a00019523b6","JoSxlMwQekX80XnsEQa5a4O4Y8D2","","","","","","","","","","","","","","","","","chosen stimuli: images/choice_trial_9.png","","","",""
"html-keyboard-response","196","380731","0.0-81.0-2.0","","null","","null","delaylearn","learning","feedback_duration_window","5cc19050dfef1a00019523b6","JoSxlMwQekX80XnsEQa5a4O4Y8D2","","","","","","","","","","","","","","","","","","750","","",""
"html-keyboard-response","197","382245","0.0-81.0-3.0","","null","<div style='margin:auto;width: auto; font-size: 150%'><span style='font-weight: bold; font-size: 100px; color: green;'>+10 points!</span><br><br></div>","null","delaylearn","learning","feedback_image_window","5cc19050dfef1a00019523b6","JoSxlMwQekX80XnsEQa5a4O4Y8D2","","","","","","","","","","","","","","","","","","","","",""
"html-keyboard-response","198","384058","0.0-82.0","","null","<div style=""font-size:100px;"">+</div>","null","delaylearn","learning","ITI","5cc19050dfef1a00019523b6","JoSxlMwQekX80XnsEQa5a4O4Y8D2","","","","","","","","","","","","","","","","","","","1797","",""
"html-keyboard-response","199","384592","0.0-83.0-0.0","","529.8999999761581","<div style=""display: flex; flex-direction: column; align-items: center; margin-top: -40px;""><img src=""images/pattern_3.png"" style=""width: 234px; height: 230px; margin-top: -50px;""><div style=""display: flex; justify-content: space-between; margin-top: 33px;""><img src=""images/choice_trial_2.png"" style=""width: 408px; height: 417px; margin-right: 200px;""><img src=""images/choice_trial_16.png"" style=""width: 408px; height: 417px;""></div></div>","j","delaylearn","learning","trial","5cc19050dfef1a00019523b6","JoSxlMwQekX80XnsEQa5a4O4Y8D2","5","images/choice_trial_2.png","images/choice_trial_16.png","images/pattern_3.png","j","j","7000","2","16","2","1","36","1","1","16","230","","","","",""
"html-keyboard-response","200","385597","0.0-83.0-1.0","","null","<div style=""display: flex; flex-direction: column; align-items: center; margin-top: -40px;""><img src=""images/pattern_3.png"" style=""width: 234px; height: 230px; margin-top: -50px;""><div style=""display: flex; justify-content: space-between; margin-top: 33px;""><img src=""images/choice_trial_16.png"" style=""width: 408px; height: 417px; margin-left:608px;""></div></div>","null","delaylearn","learning","display_response","5cc19050dfef1a00019523b6","JoSxlMwQekX80XnsEQa5a4O4Y8D2","","","","","","","","","","","","","","","","","chosen stimuli: images/choice_trial_16.png","","","",""
"html-keyboard-response","201","392606","0.0-83.0-2.0","","null","","null","delaylearn","learning","feedback_duration_window","5cc19050dfef1a00019523b6","JoSxlMwQekX80XnsEQa5a4O4Y8D2","","","","","","","","","","","","","","","","","","7000","","",""
"html-keyboard-response","202","394119","0.0-83.0-3.0","","null","<div style='margin:auto;width: auto; font-size: 150%'><span style='font-weight: bold; font-size: 100px; color: green;'>+10 points!</span><br><br></div>","null","delaylearn","learning","feedback_image_window","5cc19050dfef1a00019523b6","JoSxlMwQekX80XnsEQa5a4O4Y8D2","","","","","","","","","","","","","","","","","","","","",""
"html-keyboard-response","203","396123","0.0-84.0","","null","<div style=""font-size:100px;"">+</div>","null","delaylearn","learning","ITI","5cc19050dfef1a00019523b6","JoSxlMwQekX80XnsEQa5a4O4Y8D2","","","","","","","","","","","","","","","","","","","1988","",""
"html-keyboard-response","204","396881","0.0-85.0-0.0","","753.8999999761581","<div style=""display: flex; flex-direction: column; align-items: center; margin-top: -40px;""><img src=""images/pattern_4.png"" style=""width: 234px; height: 230px; margin-top: -50px;""><div style=""display: flex; justify-content: space-between; margin-top: 33px;""><img src=""images/choice_trial_4.png"" style=""width: 408px; height: 417px; margin-right: 200px;""><img src=""images/choice_trial_11.png"" style=""width: 408px; height: 417px;""></div></div>","j","delaylearn","learning","trial","5cc19050dfef1a00019523b6","JoSxlMwQekX80XnsEQa5a4O4Y8D2","5","images/choice_trial_4.png","images/choice_trial_11.png","images/pattern_4.png","f","j","7000","4","11","3","1","37","1","0","11","230","","","","",""
"html-keyboard-response","205","397890","0.0-85.0-1.0","","null","<div style=""display: flex; flex-direction: column; align-items: center; margin-top: -40px;""><img src=""images/pattern_4.png"" style=""width: 234px; height: 230px; margin-top: -50px;""><div style=""display: flex; justify-content: space-between; margin-top: 33px;""><img src=""images/choice_trial_11.png"" style=""width: 408px; height: 417px; margin-left:608px;""></div></div>","null","delaylearn","learning","display_response","5cc19050dfef1a00019523b6","JoSxlMwQekX80XnsEQa5a4O4Y8D2","","","","","","","","","","","","","","","","","chosen stimuli: images/choice_trial_11.png","","","",""
"html-keyboard-response","206","404896","0.0-85.0-2.0","","null","","null","delaylearn","learning","feedback_duration_window","5cc19050dfef1a00019523b6","JoSxlMwQekX80XnsEQa5a4O4Y8D2","","","","","","","","","","","","","","","","","","7000","","",""
"html-keyboard-response","207","406404","0.0-85.0-3.0","","null","<div style='margin:auto;width: auto; font-size: 150%'><span style='font-weight: bold; font-size: 100px; color: red;'>0 points!</span><br><br></div>","null","delaylearn","learning","feedback_image_window","5cc19050dfef1a00019523b6","JoSxlMwQekX80XnsEQa5a4O4Y8D2","","","","","","","","","","","","","","","","","","","","",""
"html-keyboard-response","208","408298","0.0-86.0","","null","<div style=""font-size:100px;"">+</div>","null","delaylearn","learning","ITI","5cc19050dfef1a00019523b6","JoSxlMwQekX80XnsEQa5a4O4Y8D2","","","","","","","","","","","","","","","","","","","1889","",""
"html-keyboard-response","209","408927","0.0-87.0-0.0","","626.4000000953674","<div style=""display: flex; flex-direction: column; align-items: center; margin-top: -40px;""><img src=""images/pattern_7.png"" style=""width: 234px; height: 230px; margin-top: -50px;""><div style=""display: flex; justify-content: space-between; margin-top: 33px;""><img src=""images/choice_trial_8.png"" style=""width: 408px; height: 417px; margin-right: 200px;""><img src=""images/choice_trial_10.png"" style=""width: 408px; height: 417px;""></div></div>","f","delaylearn","learning","trial","5cc19050dfef1a00019523b6","JoSxlMwQekX80XnsEQa5a4O4Y8D2","5","images/choice_trial_8.png","images/choice_trial_10.png","images/pattern_7.png","f","f","750","8","10","6","0","38","1","1","8","240","","","","",""
"html-keyboard-response","210","409945","0.0-87.0-1.0","","null","<div style=""display: flex; flex-direction: column; align-items: center; margin-top: -40px;""><img src=""images/pattern_7.png"" style=""width: 234px; height: 230px; margin-top: -50px;""><div style=""display: flex; justify-content: space-between; margin-top: 33px;""><img src=""images/choice_trial_8.png"" style=""width: 408px; height: 417px; margin-right: 608px;""></div></div>","null","delaylearn","learning","display_response","5cc19050dfef1a00019523b6","JoSxlMwQekX80XnsEQa5a4O4Y8D2","","","","","","","","","","","","","","","","","chosen stimuli: images/choice_trial_8.png","","","",""
"html-keyboard-response","211","410705","0.0-87.0-2.0","","null","","null","delaylearn","learning","feedback_duration_window","5cc19050dfef1a00019523b6","JoSxlMwQekX80XnsEQa5a4O4Y8D2","","","","","","","","","","","","","","","","","","750","","",""
"html-keyboard-response","212","412208","0.0-87.0-3.0","","null","<div style='margin:auto;width: auto; font-size: 150%'><span style='font-weight: bold; font-size: 100px; color: green;'>+10 points!</span><br><br></div>","null","delaylearn","learning","feedback_image_window","5cc19050dfef1a00019523b6","JoSxlMwQekX80XnsEQa5a4O4Y8D2","","","","","","","","","","","","","","","","","","","","",""
"html-keyboard-response","213","413725","0.0-88.0","","null","<div style=""font-size:100px;"">+</div>","null","delaylearn","learning","ITI","5cc19050dfef1a00019523b6","JoSxlMwQekX80XnsEQa5a4O4Y8D2","","","","","","","","","","","","","","","","","","","1507","",""
"html-keyboard-response","214","414364","0.0-89.0-0.0","","637.0999999046326","<div style=""display: flex; flex-direction: column; align-items: center; margin-top: -40px;""><img src=""images/pattern_1.png"" style=""width: 234px; height: 230px; margin-top: -50px;""><div style=""display: flex; justify-content: space-between; margin-top: 33px;""><img src=""images/choice_trial_6.png"" style=""width: 408px; height: 417px; margin-right: 200px;""><img src=""images/choice_trial_15.png"" style=""width: 408px; height: 417px;""></div></div>","f","delaylearn","learning","trial","5cc19050dfef1a00019523b6","JoSxlMwQekX80XnsEQa5a4O4Y8D2","5","images/choice_trial_6.png","images/choice_trial_15.png","images/pattern_1.png","f","f","7000","6","15","1","0","39","1","1","6","250","","","","",""
"html-keyboard-response","215","415371","0.0-89.0-1.0","","null","<div style=""display: flex; flex-direction: column; align-items: center; margin-top: -40px;""><img src=""images/pattern_1.png"" style=""width: 234px; height: 230px; margin-top: -50px;""><div style=""display: flex; justify-content: space-between; margin-top: 33px;""><img src=""images/choice_trial_6.png"" style=""width: 408px; height: 417px; margin-right: 608px;""></div></div>","null","delaylearn","learning","display_response","5cc19050dfef1a00019523b6","JoSxlMwQekX80XnsEQa5a4O4Y8D2","","","","","","","","","","","","","","","","","chosen stimuli: images/choice_trial_6.png","","","",""
"html-keyboard-response","216","422384","0.0-89.0-2.0","","null","","null","delaylearn","learning","feedback_duration_window","5cc19050dfef1a00019523b6","JoSxlMwQekX80XnsEQa5a4O4Y8D2","","","","","","","","","","","","","","","","","","7000","","",""
"html-keyboard-response","217","423889","0.0-89.0-3.0","","null","<div style='margin:auto;width: auto; font-size: 150%'><span style='font-weight: bold; font-size: 100px; color: green;'>+10 points!</span><br><br></div>","null","delaylearn","learning","feedback_image_window","5cc19050dfef1a00019523b6","JoSxlMwQekX80XnsEQa5a4O4Y8D2","","","","","","","","","","","","","","","","","","","","",""
"html-keyboard-response","218","424400","0.0-90.0-0.0","","null","","null","","","mood_trial_fixation","","","","","","","","","","","","","","","","","","","","","","",""
"lmdlab-html-vas-response","219","428057","0.0-90.0-1.0","","2647","How happy are you right now?","0.49074074074074076","delaylearn","learning","mood_trial","5cc19050dfef1a00019523b6","JoSxlMwQekX80XnsEQa5a4O4Y8D2","","","","","","","","","","","","","","","","","","","","[""Very unhappy"",""Very happy""]",""
"html-keyboard-response","220","430092","0.0-91.0","","null","<div style=""font-size:100px;"">+</div>","null","delaylearn","learning","ITI","5cc19050dfef1a00019523b6","JoSxlMwQekX80XnsEQa5a4O4Y8D2","","","","","","","","","","","","","","","","","","","2032","",""
