"trial_type","trial_index","time_elapsed","internal_node_id","participant","rt","stimulus","response","exp_name","exp_stage","test_part","subjectID","databaseID","counterbal","choice_stimuli_1","choice_stimuli_2","pattern_stimuli","rewarded_answer","correct_answer","feedback_duration_times","stim_left","stim_right","pair","leftright_counter","trial","response_correct","response_rewarded","chosen_stim","counter","displayed_choice","feedback_durations","ITI_duration","labels","rest_warning"
"pavlovia","0","633","0.0-0.0","","","","","","","","","","","","","","","","","","","","","","","","","","","","","",""
"html-keyboard-response","1","3634","0.0-1.0","","null","<div style=""font-size:100px;"">+</div>","null","delaylearn","learning","pre_fixation","62b6ded74322ef992b784ce0","","","","","","","","","","","","","","","","","","","","","",""
"html-keyboard-response","2","5329","0.0-2.0-0.0","","1692.0999999940395","<div style=""display: flex; flex-direction: column; align-items: center; margin-top: -40px;""><img src=""images/demo_images/pattern_1.png"" style=""width: 234px; height: 230px; margin-top: -50px;""><div style=""display: flex; justify-content: space-between; margin-top: 33px;""><img src=""images/demo_images/choice_trial_2.png"" style=""width: 408px; height: 417px; margin-right: 200px;""><img src=""images/demo_images/choice_trial_1.png"" style=""width: 408px; height: 417px;""></div></div>","j","delaylearn","learning","trial","62b6ded74322ef992b784ce0","fcrI4YZmoBTHc14l9PD0u6ERGqt1","4","images/demo_images/choice_trial_2.png","images/demo_images/choice_trial_1.png","images/demo_images/pattern_1.png","j","j","3000","2","1","20","1","1","1","1","1","10","","","","",""
"html-keyboard-response","3","6343","0.0-2.0-1.0","","null","<div style=""display: flex; flex-direction: column; align-items: center; margin-top: -40px;""><img src=""images/demo_images/pattern_1.png"" style=""width: 234px; height: 230px; margin-top: -50px;""><div style=""display: flex; justify-content: space-between; margin-top: 33px;""><img src=""images/demo_images/choice_trial_1.png"" style=""width: 408px; height: 417px; margin-left:608px;""></div></div>","null","delaylearn","learning","display_response","62b6ded74322ef992b784ce0","fcrI4YZmoBTHc14l9PD0u6ERGqt1","","","","","","","","","","","","","","","","","chosen stimuli: images/demo_images/choice_trial_1.png","","","",""
"html-keyboard-response","4","9352","0.0-2.0-2.0","","null","","null","delaylearn","learning","feedback_duration_window","62b6ded74322ef992b784ce0","fcrI4YZmoBTHc14l9PD0u6ERGqt1","","","","","","","","","","","","","","","","","","3000","","",""
"html-keyboard-response","5","10855","0.0-2.0-3.0","","null","<div style='margin:auto;width: auto; font-size: 150%'><span style='font-weight: bold; font-size: 100px; color: green;'>+10 points!</span><br><br></div>","null","delaylearn","learning","feedback_image_window","62b6ded74322ef992b784ce0","fcrI4YZmoBTHc14l9PD0u6ERGqt1","","","","","","","","","","","","","","","","","","","","",""
"html-keyboard-response","6","13181","0.0-3.0","","null","<div style=""font-size:100px;"">+</div>","null","delaylearn","learning","ITI","62b6ded74322ef992b784ce0","fcrI4YZmoBTHc14l9PD0u6ERGqt1","","","","","","","","","","","","","","","","","","","2317","",""
"html-keyboard-response","7","13763","0.0-4.0-0.0","","579.4000000059605","<div style=""display: flex; flex-direction: column; align-items: center; margin-top: -40px;""><img src=""images/demo_images/pattern_1.png"" style=""width: 234px; height: 230px; margin-top: -50px;""><div style=""display: flex; justify-content: space-between; margin-top: 33px;""><img src=""images/demo_images/choice_trial_2.png"" style=""width: 408px; height: 417px; margin-right: 200px;""><img src=""images/demo_images/choice_trial_1.png"" style=""width: 408px; height: 417px;""></div></div>","j","delaylearn","learning","trial","62b6ded74322ef992b784ce0","fcrI4YZmoBTHc14l9PD0u6ERGqt1","4","images/demo_images/choice_trial_2.png","images/demo_images/choice_trial_1.png","images/demo_images/pattern_1.png","j","j","3000","2","1","20","1","2","1","1","1","20","","","","",""
"html-keyboard-response","8","14777","0.0-4.0-1.0","","null","<div style=""display: flex; flex-direction: column; align-items: center; margin-top: -40px;""><img src=""images/demo_images/pattern_1.png"" style=""width: 234px; height: 230px; margin-top: -50px;""><div style=""display: flex; justify-content: space-between; margin-top: 33px;""><img src=""images/demo_images/choice_trial_1.png"" style=""width: 408px; height: 417px; margin-left:608px;""></div></div>","null","delaylearn","learning","display_response","62b6ded74322ef992b784ce0","fcrI4YZmoBTHc14l9PD0u6ERGqt1","","","","","","","","","","","","","","","","","chosen stimuli: images/demo_images/choice_trial_1.png","","","",""
"html-keyboard-response","9","17784","0.0-4.0-2.0","","null","","null","delaylearn","learning","feedback_duration_window","62b6ded74322ef992b784ce0","fcrI4YZmoBTHc14l9PD0u6ERGqt1","","","","","","","","","","","","","","","","","","3000","","",""
"html-keyboard-response","10","19286","0.0-4.0-3.0","","null","<div style='margin:auto;width: auto; font-size: 150%'><span style='font-weight: bold; font-size: 100px; color: green;'>+10 points!</span><br><br></div>","null","delaylearn","learning","feedback_image_window","62b6ded74322ef992b784ce0","fcrI4YZmoBTHc14l9PD0u6ERGqt1","","","","","","","","","","","","","","","","","","","","",""
"html-keyboard-response","11","20899","0.0-5.0","","null","<div style=""font-size:100px;"">+</div>","null","delaylearn","learning","ITI","62b6ded74322ef992b784ce0","fcrI4YZmoBTHc14l9PD0u6ERGqt1","","","","","","","","","","","","","","","","","","","1599","",""
"html-keyboard-response","12","21708","0.0-6.0-0.0","","805.9000000059605","<div style=""display: flex; flex-direction: column; align-items: center; margin-top: -40px;""><img src=""images/demo_images/pattern_1.png"" style=""width: 234px; height: 230px; margin-top: -50px;""><div style=""display: flex; justify-content: space-between; margin-top: 33px;""><img src=""images/demo_images/choice_trial_1.png"" style=""width: 408px; height: 417px; margin-right: 200px;""><img src=""images/demo_images/choice_trial_2.png"" style=""width: 408px; height: 417px;""></div></div>","f","delaylearn","learning","trial","62b6ded74322ef992b784ce0","fcrI4YZmoBTHc14l9PD0u6ERGqt1","4","images/demo_images/choice_trial_1.png","images/demo_images/choice_trial_2.png","images/demo_images/pattern_1.png","j","f","3000","1","2","20","0","3","1","0","1","20","","","","",""
"html-keyboard-response","13","22714","0.0-6.0-1.0","","null","<div style=""display: flex; flex-direction: column; align-items: center; margin-top: -40px;""><img src=""images/demo_images/pattern_1.png"" style=""width: 234px; height: 230px; margin-top: -50px;""><div style=""display: flex; justify-content: space-between; margin-top: 33px;""><img src=""images/demo_images/choice_trial_1.png"" style=""width: 408px; height: 417px; margin-right: 608px;""></div></div>","null","delaylearn","learning","display_response","62b6ded74322ef992b784ce0","fcrI4YZmoBTHc14l9PD0u6ERGqt1","","","","","","","","","","","","","","","","","chosen stimuli: images/demo_images/choice_trial_1.png","","","",""
"html-keyboard-response","14","25719","0.0-6.0-2.0","","null","","null","delaylearn","learning","feedback_duration_window","62b6ded74322ef992b784ce0","fcrI4YZmoBTHc14l9PD0u6ERGqt1","","","","","","","","","","","","","","","","","","3000","","",""
"html-keyboard-response","15","27233","0.0-6.0-3.0","","null","<div style='margin:auto;width: auto; font-size: 150%'><span style='font-weight: bold; font-size: 100px; color: red;'>0 points!</span><br><br></div>","null","delaylearn","learning","feedback_image_window","62b6ded74322ef992b784ce0","fcrI4YZmoBTHc14l9PD0u6ERGqt1","","","","","","","","","","","","","","","","","","","","",""
"html-keyboard-response","16","28825","0.0-7.0","","null","<div style=""font-size:100px;"">+</div>","null","delaylearn","learning","ITI","62b6ded74322ef992b784ce0","fcrI4YZmoBTHc14l9PD0u6ERGqt1","","","","","","","","","","","","","","","","","","","1590","",""
"html-keyboard-response","17","29920","0.0-8.0-0.0","","1093.2999999821186","<div style=""display: flex; flex-direction: column; align-items: center; margin-top: -40px;""><img src=""images/demo_images/pattern_1.png"" style=""width: 234px; height: 230px; margin-top: -50px;""><div style=""display: flex; justify-content: space-between; margin-top: 33px;""><img src=""images/demo_images/choice_trial_1.png"" style=""width: 408px; height: 417px; margin-right: 200px;""><img src=""images/demo_images/choice_trial_2.png"" style=""width: 408px; height: 417px;""></div></div>","f","delaylearn","learning","trial","62b6ded74322ef992b784ce0","fcrI4YZmoBTHc14l9PD0u6ERGqt1","4","images/demo_images/choice_trial_1.png","images/demo_images/choice_trial_2.png","images/demo_images/pattern_1.png","f","f","3000","1","2","20","0","4","1","1","1","30","","","","",""
"html-keyboard-response","18","30925","0.0-8.0-1.0","","null","<div style=""display: flex; flex-direction: column; align-items: center; margin-top: -40px;""><img src=""images/demo_images/pattern_1.png"" style=""width: 234px; height: 230px; margin-top: -50px;""><div style=""display: flex; justify-content: space-between; margin-top: 33px;""><img src=""images/demo_images/choice_trial_1.png"" style=""width: 408px; height: 417px; margin-right: 608px;""></div></div>","null","delaylearn","learning","display_response","62b6ded74322ef992b784ce0","fcrI4YZmoBTHc14l9PD0u6ERGqt1","","","","","","","","","","","","","","","","","chosen stimuli: images/demo_images/choice_trial_1.png","","","",""
"html-keyboard-response","19","33939","0.0-8.0-2.0","","null","","null","delaylearn","learning","feedback_duration_window","62b6ded74322ef992b784ce0","fcrI4YZmoBTHc14l9PD0u6ERGqt1","","","","","","","","","","","","","","","","","","3000","","",""
"html-keyboard-response","20","35444","0.0-8.0-3.0","","null","<div style='margin:auto;width: auto; font-size: 150%'><span style='font-weight: bold; font-size: 100px; color: green;'>+10 points!</span><br><br></div>","null","delaylearn","learning","feedback_image_window","62b6ded74322ef992b784ce0","fcrI4YZmoBTHc14l9PD0u6ERGqt1","","","","","","","","","","","","","","","","","","","","",""
"html-keyboard-response","21","35955","0.0-9.0-0.0","","null","","null","","","mood_trial_fixation","","","","","","","","","","","","","","","","","","","","","","",""
"lmdlab-html-vas-response","22","40628","0.0-9.0-1.0","","3657","How happy are you right now?","0.720679012345679","delaylearn","learning","mood_trial","62b6ded74322ef992b784ce0","fcrI4YZmoBTHc14l9PD0u6ERGqt1","","","","","","","","","","","","","","","","","","","","[""Very unhappy"",""Very happy""]",""
"html-keyboard-response","23","42407","0.0-10.0","","null","<div style=""font-size:100px;"">+</div>","null","delaylearn","learning","ITI","62b6ded74322ef992b784ce0","fcrI4YZmoBTHc14l9PD0u6ERGqt1","","","","","","","","","","","","","","","","","","","1765","",""
"html-keyboard-response","24","44056","0.0-11.0-0.0","","1647.199999988079","<div style=""display: flex; flex-direction: column; align-items: center; margin-top: -40px;""><img src=""images/demo_images/pattern_1.png"" style=""width: 234px; height: 230px; margin-top: -50px;""><div style=""display: flex; justify-content: space-between; margin-top: 33px;""><img src=""images/demo_images/choice_trial_2.png"" style=""width: 408px; height: 417px; margin-right: 200px;""><img src=""images/demo_images/choice_trial_1.png"" style=""width: 408px; height: 417px;""></div></div>","j","delaylearn","learning","trial","62b6ded74322ef992b784ce0","fcrI4YZmoBTHc14l9PD0u6ERGqt1","4","images/demo_images/choice_trial_2.png","images/demo_images/choice_trial_1.png","images/demo_images/pattern_1.png","j","j","3000","2","1","20","1","5","1","1","1","40","","","","",""
"html-keyboard-response","25","45072","0.0-11.0-1.0","","null","<div style=""display: flex; flex-direction: column; align-items: center; margin-top: -40px;""><img src=""images/demo_images/pattern_1.png"" style=""width: 234px; height: 230px; margin-top: -50px;""><div style=""display: flex; justify-content: space-between; margin-top: 33px;""><img src=""images/demo_images/choice_trial_1.png"" style=""width: 408px; height: 417px; margin-left:608px;""></div></div>","null","delaylearn","learning","display_response","62b6ded74322ef992b784ce0","fcrI4YZmoBTHc14l9PD0u6ERGqt1","","","","","","","","","","","","","","","","","chosen stimuli: images/demo_images/choice_trial_1.png","","","",""
"html-keyboard-response","26","48073","0.0-11.0-2.0","","null","","null","delaylearn","learning","feedback_duration_window","62b6ded74322ef992b784ce0","fcrI4YZmoBTHc14l9PD0u6ERGqt1","","","","","","","","","","","","","","","","","","3000","","",""
"html-keyboard-response","27","49583","0.0-11.0-3.0","","null","<div style='margin:auto;width: auto; font-size: 150%'><span style='font-weight: bold; font-size: 100px; color: green;'>+10 points!</span><br><br></div>","null","delaylearn","learning","feedback_image_window","62b6ded74322ef992b784ce0","fcrI4YZmoBTHc14l9PD0u6ERGqt1","","","","","","","","","","","","","","","","","","","","",""
"html-keyboard-response","28","51847","0.0-12.0","","null","<div style=""font-size:100px;"">+</div>","null","delaylearn","learning","ITI","62b6ded74322ef992b784ce0","fcrI4YZmoBTHc14l9PD0u6ERGqt1","","","","","","","","","","","","","","","","","","","2248","",""
"html-keyboard-response","29","52738","0.0-13.0-0.0","","887.0999999940395","<div style=""display: flex; flex-direction: column; align-items: center; margin-top: -40px;""><img src=""images/demo_images/pattern_1.png"" style=""width: 234px; height: 230px; margin-top: -50px;""><div style=""display: flex; justify-content: space-between; margin-top: 33px;""><img src=""images/demo_images/choice_trial_1.png"" style=""width: 408px; height: 417px; margin-right: 200px;""><img src=""images/demo_images/choice_trial_2.png"" style=""width: 408px; height: 417px;""></div></div>","f","delaylearn","learning","trial","62b6ded74322ef992b784ce0","fcrI4YZmoBTHc14l9PD0u6ERGqt1","4","images/demo_images/choice_trial_1.png","images/demo_images/choice_trial_2.png","images/demo_images/pattern_1.png","f","f","3000","1","2","20","0","6","1","1","1","50","","","","",""
"html-keyboard-response","30","53750","0.0-13.0-1.0","","null","<div style=""display: flex; flex-direction: column; align-items: center; margin-top: -40px;""><img src=""images/demo_images/pattern_1.png"" style=""width: 234px; height: 230px; margin-top: -50px;""><div style=""display: flex; justify-content: space-between; margin-top: 33px;""><img src=""images/demo_images/choice_trial_1.png"" style=""width: 408px; height: 417px; margin-right: 608px;""></div></div>","null","delaylearn","learning","display_response","62b6ded74322ef992b784ce0","fcrI4YZmoBTHc14l9PD0u6ERGqt1","","","","","","","","","","","","","","","","","chosen stimuli: images/demo_images/choice_trial_1.png","","","",""
"html-keyboard-response","31","56764","0.0-13.0-2.0","","null","","null","delaylearn","learning","feedback_duration_window","62b6ded74322ef992b784ce0","fcrI4YZmoBTHc14l9PD0u6ERGqt1","","","","","","","","","","","","","","","","","","3000","","",""
"html-keyboard-response","32","58273","0.0-13.0-3.0","","null","<div style='margin:auto;width: auto; font-size: 150%'><span style='font-weight: bold; font-size: 100px; color: green;'>+10 points!</span><br><br></div>","null","delaylearn","learning","feedback_image_window","62b6ded74322ef992b784ce0","fcrI4YZmoBTHc14l9PD0u6ERGqt1","","","","","","","","","","","","","","","","","","","","",""
"html-keyboard-response","33","60089","0.0-14.0","","null","<div style=""font-size:100px;"">+</div>","null","delaylearn","learning","ITI","62b6ded74322ef992b784ce0","fcrI4YZmoBTHc14l9PD0u6ERGqt1","","","","","","","","","","","","","","","","","","","1801","",""
"html-keyboard-response","34","63106","0.0-15.0-0.0","","null","<div style=""display: flex; flex-direction: column; align-items: center; margin-top: -40px;""><img src=""images/demo_images/pattern_1.png"" style=""width: 234px; height: 230px; margin-top: -50px;""><div style=""display: flex; justify-content: space-between; margin-top: 33px;""><img src=""images/demo_images/choice_trial_2.png"" style=""width: 408px; height: 417px; margin-right: 200px;""><img src=""images/demo_images/choice_trial_1.png"" style=""width: 408px; height: 417px;""></div></div>","null","delaylearn","learning","trial","62b6ded74322ef992b784ce0","fcrI4YZmoBTHc14l9PD0u6ERGqt1","4","images/demo_images/choice_trial_2.png","images/demo_images/choice_trial_1.png","images/demo_images/pattern_1.png","j","j","3000","2","1","20","1","7","0","0","0","50","","","","",""
"html-keyboard-response","35","64109","0.0-15.0-1.0","","null","<div style='font-weight: bold; font-size: 75px; color: red;'>Missed Trial <br><br><br><br> Please respond faster</div>","null","delaylearn","learning","display_response","62b6ded74322ef992b784ce0","fcrI4YZmoBTHc14l9PD0u6ERGqt1","","","","","","","","","","","","","","","","","Missed trial","","","",""
"html-keyboard-response","36","64116","0.0-15.0-2.0","","null","","null","delaylearn","learning","feedback_duration_window","62b6ded74322ef992b784ce0","fcrI4YZmoBTHc14l9PD0u6ERGqt1","","","","","","","","","","","","","","","","","","0","","",""
"html-keyboard-response","37","64121","0.0-15.0-3.0","","null","","null","delaylearn","learning","feedback_image_window","62b6ded74322ef992b784ce0","fcrI4YZmoBTHc14l9PD0u6ERGqt1","","","","","","","","","","","","","","","","","","","","",""
"html-keyboard-response","38","66224","0.0-16.0","","null","<div style=""font-size:100px;"">+</div>","null","delaylearn","learning","ITI","62b6ded74322ef992b784ce0","fcrI4YZmoBTHc14l9PD0u6ERGqt1","","","","","","","","","","","","","","","","","","","2091","",""
"html-keyboard-response","39","66745","0.0-17.0-0.0","","518.0999999940395","<div style=""display: flex; flex-direction: column; align-items: center; margin-top: -40px;""><img src=""images/demo_images/pattern_1.png"" style=""width: 234px; height: 230px; margin-top: -50px;""><div style=""display: flex; justify-content: space-between; margin-top: 33px;""><img src=""images/demo_images/choice_trial_1.png"" style=""width: 408px; height: 417px; margin-right: 200px;""><img src=""images/demo_images/choice_trial_2.png"" style=""width: 408px; height: 417px;""></div></div>","f","delaylearn","learning","trial","62b6ded74322ef992b784ce0","fcrI4YZmoBTHc14l9PD0u6ERGqt1","4","images/demo_images/choice_trial_1.png","images/demo_images/choice_trial_2.png","images/demo_images/pattern_1.png","f","f","3000","1","2","20","0","8","1","1","1","60","","","","",""
"html-keyboard-response","40","67748","0.0-17.0-1.0","","null","<div style=""display: flex; flex-direction: column; align-items: center; margin-top: -40px;""><img src=""images/demo_images/pattern_1.png"" style=""width: 234px; height: 230px; margin-top: -50px;""><div style=""display: flex; justify-content: space-between; margin-top: 33px;""><img src=""images/demo_images/choice_trial_1.png"" style=""width: 408px; height: 417px; margin-right: 608px;""></div></div>","null","delaylearn","learning","display_response","62b6ded74322ef992b784ce0","fcrI4YZmoBTHc14l9PD0u6ERGqt1","","","","","","","","","","","","","","","","","chosen stimuli: images/demo_images/choice_trial_1.png","","","",""
"html-keyboard-response","41","70752","0.0-17.0-2.0","","null","","null","delaylearn","learning","feedback_duration_window","62b6ded74322ef992b784ce0","fcrI4YZmoBTHc14l9PD0u6ERGqt1","","","","","","","","","","","","","","","","","","3000","","",""
"html-keyboard-response","42","72266","0.0-17.0-3.0","","null","<div style='margin:auto;width: auto; font-size: 150%'><span style='font-weight: bold; font-size: 100px; color: green;'>+10 points!</span><br><br></div>","null","delaylearn","learning","feedback_image_window","62b6ded74322ef992b784ce0","fcrI4YZmoBTHc14l9PD0u6ERGqt1","","","","","","","","","","","","","","","","","","","","",""
"html-button-response","43","80834","0.0-18.0","","8563","
  <div style=""display: flex; align-items: center; justify-content: center; height: 80vh;"">
  <div>
          <img src=""images/inst_demo_finish.png"" style=""width: 80vw; height:auto;"">
          <br><br>
      </div>
      <br><br>
  </div>","0","","","","","","","","","","","","","","","","","","","","","","","","","",""
"html-keyboard-response","44","83411","0.0-19.0","","2576.199999988079","
  <div style=""display: flex; align-items: center; justify-content: center; height: 80vh;"">
  <div>
          <img src=""images/inst_6.png"" style=""width: 80vw; height:auto;"">
          <br><br>
      </div>
      <br><br>
  </div>","f","","","","","","","","","","","","","","","","","","","","","","","","","",""
"html-keyboard-response","45","86423","0.0-20.0","","null","<div style=""font-size:100px;"">+</div>","null","delaylearn","learning","pre_fixation","62b6ded74322ef992b784ce0","","","","","","","","","","","","","","","","","","","","","",""
"html-keyboard-response","46","88644","0.0-21.0","","null","<div style=""font-size:100px;"">+</div>","null","delaylearn","learning","ITI","62b6ded74322ef992b784ce0","fcrI4YZmoBTHc14l9PD0u6ERGqt1","","","","","","","","","","","","","","","","","","","2212","",""
"html-keyboard-response","47","89505","0.0-22.0-0.0","","856.9000000059605","<div style=""display: flex; flex-direction: column; align-items: center; margin-top: -40px;""><img src=""images/pattern_3.png"" style=""width: 234px; height: 230px; margin-top: -50px;""><div style=""display: flex; justify-content: space-between; margin-top: 33px;""><img src=""images/choice_trial_16.png"" style=""width: 408px; height: 417px; margin-right: 200px;""><img src=""images/choice_trial_6.png"" style=""width: 408px; height: 417px;""></div></div>","j","delaylearn","learning","trial","62b6ded74322ef992b784ce0","fcrI4YZmoBTHc14l9PD0u6ERGqt1","4","images/choice_trial_16.png","images/choice_trial_6.png","images/pattern_3.png","f","f","7000","16","6","2","0","9","0","0","6","60","","","","",""
"html-keyboard-response","48","90511","0.0-22.0-1.0","","null","<div style=""display: flex; flex-direction: column; align-items: center; margin-top: -40px;""><img src=""images/pattern_3.png"" style=""width: 234px; height: 230px; margin-top: -50px;""><div style=""display: flex; justify-content: space-between; margin-top: 33px;""><img src=""images/choice_trial_6.png"" style=""width: 408px; height: 417px; margin-left:608px;""></div></div>","null","delaylearn","learning","display_response","62b6ded74322ef992b784ce0","fcrI4YZmoBTHc14l9PD0u6ERGqt1","","","","","","","","","","","","","","","","","chosen stimuli: images/choice_trial_6.png","","","",""
"html-keyboard-response","49","97522","0.0-22.0-2.0","","null","","null","delaylearn","learning","feedback_duration_window","62b6ded74322ef992b784ce0","fcrI4YZmoBTHc14l9PD0u6ERGqt1","","","","","","","","","","","","","","","","","","7000","","",""
"html-keyboard-response","50","99036","0.0-22.0-3.0","","null","<div style='margin:auto;width: auto; font-size: 150%'><span style='font-weight: bold; font-size: 100px; color: red;'>0 points!</span><br><br></div>","null","delaylearn","learning","feedback_image_window","62b6ded74322ef992b784ce0","fcrI4YZmoBTHc14l9PD0u6ERGqt1","","","","","","","","","","","","","","","","","","","","",""
"html-keyboard-response","51","101340","0.0-23.0","","null","<div style=""font-size:100px;"">+</div>","null","delaylearn","learning","ITI","62b6ded74322ef992b784ce0","fcrI4YZmoBTHc14l9PD0u6ERGqt1","","","","","","","","","","","","","","","","","","","2296","",""
"html-keyboard-response","52","103250","0.0-24.0-0.0","","1906.199999988079","<div style=""display: flex; flex-direction: column; align-items: center; margin-top: -40px;""><img src=""images/pattern_7.png"" style=""width: 234px; height: 230px; margin-top: -50px;""><div style=""display: flex; justify-content: space-between; margin-top: 33px;""><img src=""images/choice_trial_4.png"" style=""width: 408px; height: 417px; margin-right: 200px;""><img src=""images/choice_trial_13.png"" style=""width: 408px; height: 417px;""></div></div>","f","delaylearn","learning","trial","62b6ded74322ef992b784ce0","fcrI4YZmoBTHc14l9PD0u6ERGqt1","4","images/choice_trial_4.png","images/choice_trial_13.png","images/pattern_7.png","j","j","750","4","13","6","1","10","0","0","4","60","","","","",""
"html-keyboard-response","53","104262","0.0-24.0-1.0","","null","<div style=""display: flex; flex-direction: column; align-items: center; margin-top: -40px;""><img src=""images/pattern_7.png"" style=""width: 234px; height: 230px; margin-top: -50px;""><div style=""display: flex; justify-content: space-between; margin-top: 33px;""><img src=""images/choice_trial_4.png"" style=""width: 408px; height: 417px; margin-right: 608px;""></div></div>","null","delaylearn","learning","display_response","62b6ded74322ef992b784ce0","fcrI4YZmoBTHc14l9PD0u6ERGqt1","","","","","","","","","","","","","","","","","chosen stimuli: images/choice_trial_4.png","","","",""
"html-keyboard-response","54","105025","0.0-24.0-2.0","","null","","null","delaylearn","learning","feedback_duration_window","62b6ded74322ef992b784ce0","fcrI4YZmoBTHc14l9PD0u6ERGqt1","","","","","","","","","","","","","","","","","","750","","",""
"html-keyboard-response","55","106542","0.0-24.0-3.0","","null","<div style='margin:auto;width: auto; font-size: 150%'><span style='font-weight: bold; font-size: 100px; color: red;'>0 points!</span><br><br></div>","null","delaylearn","learning","feedback_image_window","62b6ded74322ef992b784ce0","fcrI4YZmoBTHc14l9PD0u6ERGqt1","","","","","","","","","","","","","","","","","","","","",""
"html-keyboard-response","56","108636","0.0-25.0","","null","<div style=""font-size:100px;"">+</div>","null","delaylearn","learning","ITI","62b6ded74322ef992b784ce0","fcrI4YZmoBTHc14l9PD0u6ERGqt1","","","","","","","","","","","","","","","","","","","2091","",""
"html-keyboard-response","57","109904","0.0-26.0-0.0","","1264.9000000059605","<div style=""display: flex; flex-direction: column; align-items: center; margin-top: -40px;""><img src=""images/pattern_4.png"" style=""width: 234px; height: 230px; margin-top: -50px;""><div style=""display: flex; justify-content: space-between; margin-top: 33px;""><img src=""images/choice_trial_8.png"" style=""width: 408px; height: 417px; margin-right: 200px;""><img src=""images/choice_trial_7.png"" style=""width: 408px; height: 417px;""></div></div>","j","delaylearn","learning","trial","62b6ded74322ef992b784ce0","fcrI4YZmoBTHc14l9PD0u6ERGqt1","4","images/choice_trial_8.png","images/choice_trial_7.png","images/pattern_4.png","f","f","7000","8","7","3","0","11","0","0","7","60","","","","",""
"html-keyboard-response","58","110914","0.0-26.0-1.0","","null","<div style=""display: flex; flex-direction: column; align-items: center; margin-top: -40px;""><img src=""images/pattern_4.png"" style=""width: 234px; height: 230px; margin-top: -50px;""><div style=""display: flex; justify-content: space-between; margin-top: 33px;""><img src=""images/choice_trial_7.png"" style=""width: 408px; height: 417px; margin-left:608px;""></div></div>","null","delaylearn","learning","display_response","62b6ded74322ef992b784ce0","fcrI4YZmoBTHc14l9PD0u6ERGqt1","","","","","","","","","","","","","","","","","chosen stimuli: images/choice_trial_7.png","","","",""
"html-keyboard-response","59","117924","0.0-26.0-2.0","","null","","null","delaylearn","learning","feedback_duration_window","62b6ded74322ef992b784ce0","fcrI4YZmoBTHc14l9PD0u6ERGqt1","","","","","","","","","","","","","","","","","","7000","","",""
"html-keyboard-response","60","119438","0.0-26.0-3.0","","null","<div style='margin:auto;width: auto; font-size: 150%'><span style='font-weight: bold; font-size: 100px; color: red;'>0 points!</span><br><br></div>","null","delaylearn","learning","feedback_image_window","62b6ded74322ef992b784ce0","fcrI4YZmoBTHc14l9PD0u6ERGqt1","","","","","","","","","","","","","","","","","","","","",""
"html-keyboard-response","61","121910","0.0-27.0","","null","<div style=""font-size:100px;"">+</div>","null","delaylearn","learning","ITI","62b6ded74322ef992b784ce0","fcrI4YZmoBTHc14l9PD0u6ERGqt1","","","","","","","","","","","","","","","","","","","2461","",""
"html-keyboard-response","62","123640","0.0-28.0-0.0","","1725.5999999940395","<div style=""display: flex; flex-direction: column; align-items: center; margin-top: -40px;""><img src=""images/pattern_5.png"" style=""width: 234px; height: 230px; margin-top: -50px;""><div style=""display: flex; justify-content: space-between; margin-top: 33px;""><img src=""images/choice_trial_15.png"" style=""width: 408px; height: 417px; margin-right: 200px;""><img src=""images/choice_trial_5.png"" style=""width: 408px; height: 417px;""></div></div>","j","delaylearn","learning","trial","62b6ded74322ef992b784ce0","fcrI4YZmoBTHc14l9PD0u6ERGqt1","4","images/choice_trial_15.png","images/choice_trial_5.png","images/pattern_5.png","j","j","750","15","5","4","1","12","1","1","5","70","","","","",""
"html-keyboard-response","63","124650","0.0-28.0-1.0","","null","<div style=""display: flex; flex-direction: column; align-items: center; margin-top: -40px;""><img src=""images/pattern_5.png"" style=""width: 234px; height: 230px; margin-top: -50px;""><div style=""display: flex; justify-content: space-between; margin-top: 33px;""><img src=""images/choice_trial_5.png"" style=""width: 408px; height: 417px; margin-left:608px;""></div></div>","null","delaylearn","learning","display_response","62b6ded74322ef992b784ce0","fcrI4YZmoBTHc14l9PD0u6ERGqt1","","","","","","","","","","","","","","","","","chosen stimuli: images/choice_trial_5.png","","","",""
"html-keyboard-response","64","125409","0.0-28.0-2.0","","null","","null","delaylearn","learning","feedback_duration_window","62b6ded74322ef992b784ce0","fcrI4YZmoBTHc14l9PD0u6ERGqt1","","","","","","","","","","","","","","","","","","750","","",""
"html-keyboard-response","65","126923","0.0-28.0-3.0","","null","<div style='margin:auto;width: auto; font-size: 150%'><span style='font-weight: bold; font-size: 100px; color: green;'>+10 points!</span><br><br></div>","null","delaylearn","learning","feedback_image_window","62b6ded74322ef992b784ce0","fcrI4YZmoBTHc14l9PD0u6ERGqt1","","","","","","","","","","","","","","","","","","","","",""
"html-keyboard-response","66","128555","0.0-29.0","","null","<div style=""font-size:100px;"">+</div>","null","delaylearn","learning","ITI","62b6ded74322ef992b784ce0","fcrI4YZmoBTHc14l9PD0u6ERGqt1","","","","","","","","","","","","","","","","","","","1625","",""
"html-keyboard-response","67","130025","0.0-30.0-0.0","","1467.7000000178814","<div style=""display: flex; flex-direction: column; align-items: center; margin-top: -40px;""><img src=""images/pattern_6.png"" style=""width: 234px; height: 230px; margin-top: -50px;""><div style=""display: flex; justify-content: space-between; margin-top: 33px;""><img src=""images/choice_trial_10.png"" style=""width: 408px; height: 417px; margin-right: 200px;""><img src=""images/choice_trial_3.png"" style=""width: 408px; height: 417px;""></div></div>","f","delaylearn","learning","trial","62b6ded74322ef992b784ce0","fcrI4YZmoBTHc14l9PD0u6ERGqt1","4","images/choice_trial_10.png","images/choice_trial_3.png","images/pattern_6.png","j","f","750","10","3","5","0","13","1","0","10","70","","","","",""
"html-keyboard-response","68","131034","0.0-30.0-1.0","","null","<div style=""display: flex; flex-direction: column; align-items: center; margin-top: -40px;""><img src=""images/pattern_6.png"" style=""width: 234px; height: 230px; margin-top: -50px;""><div style=""display: flex; justify-content: space-between; margin-top: 33px;""><img src=""images/choice_trial_10.png"" style=""width: 408px; height: 417px; margin-right: 608px;""></div></div>","null","delaylearn","learning","display_response","62b6ded74322ef992b784ce0","fcrI4YZmoBTHc14l9PD0u6ERGqt1","","","","","","","","","","","","","","","","","chosen stimuli: images/choice_trial_10.png","","","",""
"html-keyboard-response","69","131794","0.0-30.0-2.0","","null","","null","delaylearn","learning","feedback_duration_window","62b6ded74322ef992b784ce0","fcrI4YZmoBTHc14l9PD0u6ERGqt1","","","","","","","","","","","","","","","","","","750","","",""
"html-keyboard-response","70","133307","0.0-30.0-3.0","","null","<div style='margin:auto;width: auto; font-size: 150%'><span style='font-weight: bold; font-size: 100px; color: red;'>0 points!</span><br><br></div>","null","delaylearn","learning","feedback_image_window","62b6ded74322ef992b784ce0","fcrI4YZmoBTHc14l9PD0u6ERGqt1","","","","","","","","","","","","","","","","","","","","",""
"html-keyboard-response","71","133822","0.0-31.0-0.0","","null","","null","","","mood_trial_fixation","","","","","","","","","","","","","","","","","","","","","","",""
"lmdlab-html-vas-response","72","139148","0.0-31.0-1.0","","4314","How happy are you right now?","0.7006172839506173","delaylearn","learning","mood_trial","62b6ded74322ef992b784ce0","fcrI4YZmoBTHc14l9PD0u6ERGqt1","","","","","","","","","","","","","","","","","","","","[""Very unhappy"",""Very happy""]",""
"html-keyboard-response","73","141384","0.0-32.0","","null","<div style=""font-size:100px;"">+</div>","null","delaylearn","learning","ITI","62b6ded74322ef992b784ce0","fcrI4YZmoBTHc14l9PD0u6ERGqt1","","","","","","","","","","","","","","","","","","","2227","",""
"html-keyboard-response","74","142467","0.0-33.0-0.0","","1079.4000000059605","<div style=""display: flex; flex-direction: column; align-items: center; margin-top: -40px;""><img src=""images/pattern_1.png"" style=""width: 234px; height: 230px; margin-top: -50px;""><div style=""display: flex; justify-content: space-between; margin-top: 33px;""><img src=""images/choice_trial_9.png"" style=""width: 408px; height: 417px; margin-right: 200px;""><img src=""images/choice_trial_1.png"" style=""width: 408px; height: 417px;""></div></div>","f","delaylearn","learning","trial","62b6ded74322ef992b784ce0","fcrI4YZmoBTHc14l9PD0u6ERGqt1","4","images/choice_trial_9.png","images/choice_trial_1.png","images/pattern_1.png","j","j","7000","9","1","1","1","14","0","0","9","70","","","","",""
"html-keyboard-response","75","143486","0.0-33.0-1.0","","null","<div style=""display: flex; flex-direction: column; align-items: center; margin-top: -40px;""><img src=""images/pattern_1.png"" style=""width: 234px; height: 230px; margin-top: -50px;""><div style=""display: flex; justify-content: space-between; margin-top: 33px;""><img src=""images/choice_trial_9.png"" style=""width: 408px; height: 417px; margin-right: 608px;""></div></div>","null","delaylearn","learning","display_response","62b6ded74322ef992b784ce0","fcrI4YZmoBTHc14l9PD0u6ERGqt1","","","","","","","","","","","","","","","","","chosen stimuli: images/choice_trial_9.png","","","",""
"html-keyboard-response","76","150490","0.0-33.0-2.0","","null","","null","delaylearn","learning","feedback_duration_window","62b6ded74322ef992b784ce0","fcrI4YZmoBTHc14l9PD0u6ERGqt1","","","","","","","","","","","","","","","","","","7000","","",""
"html-keyboard-response","77","151994","0.0-33.0-3.0","","null","<div style='margin:auto;width: auto; font-size: 150%'><span style='font-weight: bold; font-size: 100px; color: red;'>0 points!</span><br><br></div>","null","delaylearn","learning","feedback_image_window","62b6ded74322ef992b784ce0","fcrI4YZmoBTHc14l9PD0u6ERGqt1","","","","","","","","","","","","","","","","","","","","",""
"html-keyboard-response","78","153622","0.0-34.0","","null","<div style=""font-size:100px;"">+</div>","null","delaylearn","learning","ITI","62b6ded74322ef992b784ce0","fcrI4YZmoBTHc14l9PD0u6ERGqt1","","","","","","","","","","","","","","","","","","","1614","",""
"html-keyboard-response","79","154221","0.0-35.0-0.0","","597.6999999880791","<div style=""display: flex; flex-direction: column; align-items: center; margin-top: -40px;""><img src=""images/pattern_3.png"" style=""width: 234px; height: 230px; margin-top: -50px;""><div style=""display: flex; justify-content: space-between; margin-top: 33px;""><img src=""images/choice_trial_6.png"" style=""width: 408px; height: 417px; margin-right: 200px;""><img src=""images/choice_trial_16.png"" style=""width: 408px; height: 417px;""></div></div>","j","delaylearn","learning","trial","62b6ded74322ef992b784ce0","fcrI4YZmoBTHc14l9PD0u6ERGqt1","4","images/choice_trial_6.png","images/choice_trial_16.png","images/pattern_3.png","f","j","7000","6","16","2","1","15","1","0","16","70","","","","",""
"html-keyboard-response","80","155232","0.0-35.0-1.0","","null","<div style=""display: flex; flex-direction: column; align-items: center; margin-top: -40px;""><img src=""images/pattern_3.png"" style=""width: 234px; height: 230px; margin-top: -50px;""><div style=""display: flex; justify-content: space-between; margin-top: 33px;""><img src=""images/choice_trial_16.png"" style=""width: 408px; height: 417px; margin-left:608px;""></div></div>","null","delaylearn","learning","display_response","62b6ded74322ef992b784ce0","fcrI4YZmoBTHc14l9PD0u6ERGqt1","","","","","","","","","","","","","","","","","chosen stimuli: images/choice_trial_16.png","","","",""
"html-keyboard-response","81","162237","0.0-35.0-2.0","","null","","null","delaylearn","learning","feedback_duration_window","62b6ded74322ef992b784ce0","fcrI4YZmoBTHc14l9PD0u6ERGqt1","","","","","","","","","","","","","","","","","","7000","","",""
"html-keyboard-response","82","163751","0.0-35.0-3.0","","null","<div style='margin:auto;width: auto; font-size: 150%'><span style='font-weight: bold; font-size: 100px; color: red;'>0 points!</span><br><br></div>","null","delaylearn","learning","feedback_image_window","62b6ded74322ef992b784ce0","fcrI4YZmoBTHc14l9PD0u6ERGqt1","","","","","","","","","","","","","","","","","","","","",""
"html-keyboard-response","83","165657","0.0-36.0","","null","<div style=""font-size:100px;"">+</div>","null","delaylearn","learning","ITI","62b6ded74322ef992b784ce0","fcrI4YZmoBTHc14l9PD0u6ERGqt1","","","","","","","","","","","","","","","","","","","1889","",""
"html-keyboard-response","84","165953","0.0-37.0-0.0","","292.30000001192093","<div style=""display: flex; flex-direction: column; align-items: center; margin-top: -40px;""><img src=""images/pattern_5.png"" style=""width: 234px; height: 230px; margin-top: -50px;""><div style=""display: flex; justify-content: space-between; margin-top: 33px;""><img src=""images/choice_trial_5.png"" style=""width: 408px; height: 417px; margin-right: 200px;""><img src=""images/choice_trial_15.png"" style=""width: 408px; height: 417px;""></div></div>","j","delaylearn","learning","trial","62b6ded74322ef992b784ce0","fcrI4YZmoBTHc14l9PD0u6ERGqt1","4","images/choice_trial_5.png","images/choice_trial_15.png","images/pattern_5.png","f","f","750","5","15","4","0","16","0","0","15","70","","","","",""
"html-keyboard-response","85","166964","0.0-37.0-1.0","","null","<div style=""display: flex; flex-direction: column; align-items: center; margin-top: -40px;""><img src=""images/pattern_5.png"" style=""width: 234px; height: 230px; margin-top: -50px;""><div style=""display: flex; justify-content: space-between; margin-top: 33px;""><img src=""images/choice_trial_15.png"" style=""width: 408px; height: 417px; margin-left:608px;""></div></div>","null","delaylearn","learning","display_response","62b6ded74322ef992b784ce0","fcrI4YZmoBTHc14l9PD0u6ERGqt1","","","","","","","","","","","","","","","","","chosen stimuli: images/choice_trial_15.png","","","",""
"html-keyboard-response","86","167716","0.0-37.0-2.0","","null","","null","delaylearn","learning","feedback_duration_window","62b6ded74322ef992b784ce0","fcrI4YZmoBTHc14l9PD0u6ERGqt1","","","","","","","","","","","","","","","","","","750","","",""
"html-keyboard-response","87","169226","0.0-37.0-3.0","","null","<div style='margin:auto;width: auto; font-size: 150%'><span style='font-weight: bold; font-size: 100px; color: red;'>0 points!</span><br><br></div>","null","delaylearn","learning","feedback_image_window","62b6ded74322ef992b784ce0","fcrI4YZmoBTHc14l9PD0u6ERGqt1","","","","","","","","","","","","","","","","","","","","",""
"html-keyboard-response","88","169743","0.0-38.0-0.0","","null","","null","","","mood_trial_fixation","","","","","","","","","","","","","","","","","","","","","","",""
"lmdlab-html-vas-response","89","173905","0.0-38.0-1.0","","3151","How happy are you right now?","0.816358024691358","delaylearn","learning","mood_trial","62b6ded74322ef992b784ce0","fcrI4YZmoBTHc14l9PD0u6ERGqt1","","","","","","","","","","","","","","","","","","","","[""Very unhappy"",""Very happy""]",""
"html-keyboard-response","90","175688","0.0-39.0","","null","<div style=""font-size:100px;"">+</div>","null","delaylearn","learning","ITI","62b6ded74322ef992b784ce0","fcrI4YZmoBTHc14l9PD0u6ERGqt1","","","","","","","","","","","","","","","","","","","1767","",""
"html-keyboard-response","91","176379","0.0-40.0-0.0","","687.1999999880791","<div style=""display: flex; flex-direction: column; align-items: center; margin-top: -40px;""><img src=""images/pattern_6.png"" style=""width: 234px; height: 230px; margin-top: -50px;""><div style=""display: flex; justify-content: space-between; margin-top: 33px;""><img src=""images/choice_trial_10.png"" style=""width: 408px; height: 417px; margin-right: 200px;""><img src=""images/choice_trial_3.png"" style=""width: 408px; height: 417px;""></div></div>","j","delaylearn","learning","trial","62b6ded74322ef992b784ce0","fcrI4YZmoBTHc14l9PD0u6ERGqt1","4","images/choice_trial_10.png","images/choice_trial_3.png","images/pattern_6.png","f","f","750","10","3","5","0","17","0","0","3","70","","","","",""
"html-keyboard-response","92","177396","0.0-40.0-1.0","","null","<div style=""display: flex; flex-direction: column; align-items: center; margin-top: -40px;""><img src=""images/pattern_6.png"" style=""width: 234px; height: 230px; margin-top: -50px;""><div style=""display: flex; justify-content: space-between; margin-top: 33px;""><img src=""images/choice_trial_3.png"" style=""width: 408px; height: 417px; margin-left:608px;""></div></div>","null","delaylearn","learning","display_response","62b6ded74322ef992b784ce0","fcrI4YZmoBTHc14l9PD0u6ERGqt1","","","","","","","","","","","","","","","","","chosen stimuli: images/choice_trial_3.png","","","",""
"html-keyboard-response","93","178161","0.0-40.0-2.0","","null","","null","delaylearn","learning","feedback_duration_window","62b6ded74322ef992b784ce0","fcrI4YZmoBTHc14l9PD0u6ERGqt1","","","","","","","","","","","","","","","","","","750","","",""
"html-keyboard-response","94","179669","0.0-40.0-3.0","","null","<div style='margin:auto;width: auto; font-size: 150%'><span style='font-weight: bold; font-size: 100px; color: red;'>0 points!</span><br><br></div>","null","delaylearn","learning","feedback_image_window","62b6ded74322ef992b784ce0","fcrI4YZmoBTHc14l9PD0u6ERGqt1","","","","","","","","","","","","","","","","","","","","",""
"html-keyboard-response","95","181774","0.0-41.0","","null","<div style=""font-size:100px;"">+</div>","null","delaylearn","learning","ITI","62b6ded74322ef992b784ce0","fcrI4YZmoBTHc14l9PD0u6ERGqt1","","","","","","","","","","","","","","","","","","","2102","",""
"html-keyboard-response","96","182376","0.0-42.0-0.0","","600.0999999940395","<div style=""display: flex; flex-direction: column; align-items: center; margin-top: -40px;""><img src=""images/pattern_4.png"" style=""width: 234px; height: 230px; margin-top: -50px;""><div style=""display: flex; justify-content: space-between; margin-top: 33px;""><img src=""images/choice_trial_7.png"" style=""width: 408px; height: 417px; margin-right: 200px;""><img src=""images/choice_trial_8.png"" style=""width: 408px; height: 417px;""></div></div>","j","delaylearn","learning","trial","62b6ded74322ef992b784ce0","fcrI4YZmoBTHc14l9PD0u6ERGqt1","4","images/choice_trial_7.png","images/choice_trial_8.png","images/pattern_4.png","j","j","7000","7","8","3","1","18","1","1","8","80","","","","",""
"html-keyboard-response","97","183391","0.0-42.0-1.0","","null","<div style=""display: flex; flex-direction: column; align-items: center; margin-top: -40px;""><img src=""images/pattern_4.png"" style=""width: 234px; height: 230px; margin-top: -50px;""><div style=""display: flex; justify-content: space-between; margin-top: 33px;""><img src=""images/choice_trial_8.png"" style=""width: 408px; height: 417px; margin-left:608px;""></div></div>","null","delaylearn","learning","display_response","62b6ded74322ef992b784ce0","fcrI4YZmoBTHc14l9PD0u6ERGqt1","","","","","","","","","","","","","","","","","chosen stimuli: images/choice_trial_8.png","","","",""
"html-keyboard-response","98","190407","0.0-42.0-2.0","","null","","null","delaylearn","learning","feedback_duration_window","62b6ded74322ef992b784ce0","fcrI4YZmoBTHc14l9PD0u6ERGqt1","","","","","","","","","","","","","","","","","","7000","","",""
"html-keyboard-response","99","191922","0.0-42.0-3.0","","null","<div style='margin:auto;width: auto; font-size: 150%'><span style='font-weight: bold; font-size: 100px; color: green;'>+10 points!</span><br><br></div>","null","delaylearn","learning","feedback_image_window","62b6ded74322ef992b784ce0","fcrI4YZmoBTHc14l9PD0u6ERGqt1","","","","","","","","","","","","","","","","","","","","",""
"html-keyboard-response","100","193475","0.0-43.0","","null","<div style=""font-size:100px;"">+</div>","null","delaylearn","learning","ITI","62b6ded74322ef992b784ce0","fcrI4YZmoBTHc14l9PD0u6ERGqt1","","","","","","","","","","","","","","","","","","","1547","",""
"html-keyboard-response","101","194586","0.0-44.0-0.0","","1106.7000000178814","<div style=""display: flex; flex-direction: column; align-items: center; margin-top: -40px;""><img src=""images/pattern_7.png"" style=""width: 234px; height: 230px; margin-top: -50px;""><div style=""display: flex; justify-content: space-between; margin-top: 33px;""><img src=""images/choice_trial_13.png"" style=""width: 408px; height: 417px; margin-right: 200px;""><img src=""images/choice_trial_4.png"" style=""width: 408px; height: 417px;""></div></div>","f","delaylearn","learning","trial","62b6ded74322ef992b784ce0","fcrI4YZmoBTHc14l9PD0u6ERGqt1","4","images/choice_trial_13.png","images/choice_trial_4.png","images/pattern_7.png","j","f","750","13","4","6","0","19","1","0","13","80","","","","",""
"html-keyboard-response","102","195595","0.0-44.0-1.0","","null","<div style=""display: flex; flex-direction: column; align-items: center; margin-top: -40px;""><img src=""images/pattern_7.png"" style=""width: 234px; height: 230px; margin-top: -50px;""><div style=""display: flex; justify-content: space-between; margin-top: 33px;""><img src=""images/choice_trial_13.png"" style=""width: 408px; height: 417px; margin-right: 608px;""></div></div>","null","delaylearn","learning","display_response","62b6ded74322ef992b784ce0","fcrI4YZmoBTHc14l9PD0u6ERGqt1","","","","","","","","","","","","","","","","","chosen stimuli: images/choice_trial_13.png","","","",""
"html-keyboard-response","103","196358","0.0-44.0-2.0","","null","","null","delaylearn","learning","feedback_duration_window","62b6ded74322ef992b784ce0","fcrI4YZmoBTHc14l9PD0u6ERGqt1","","","","","","","","","","","","","","","","","","750","","",""
"html-keyboard-response","104","197871","0.0-44.0-3.0","","null","<div style='margin:auto;width: auto; font-size: 150%'><span style='font-weight: bold; font-size: 100px; color: red;'>0 points!</span><br><br></div>","null","delaylearn","learning","feedback_image_window","62b6ded74322ef992b784ce0","fcrI4YZmoBTHc14l9PD0u6ERGqt1","","","","","","","","","","","","","","","","","","","","",""
"html-keyboard-response","105","199659","0.0-45.0","","null","<div style=""font-size:100px;"">+</div>","null","delaylearn","learning","ITI","62b6ded74322ef992b784ce0","fcrI4YZmoBTHc14l9PD0u6ERGqt1","","","","","","","","","","","","","","","","","","","1778","",""
"html-keyboard-response","106","199674","0.0-46.0-0.0","","11.099999994039536","<div style=""display: flex; flex-direction: column; align-items: center; margin-top: -40px;""><img src=""images/pattern_1.png"" style=""width: 234px; height: 230px; margin-top: -50px;""><div style=""display: flex; justify-content: space-between; margin-top: 33px;""><img src=""images/choice_trial_1.png"" style=""width: 408px; height: 417px; margin-right: 200px;""><img src=""images/choice_trial_9.png"" style=""width: 408px; height: 417px;""></div></div>","j","delaylearn","learning","trial","62b6ded74322ef992b784ce0","fcrI4YZmoBTHc14l9PD0u6ERGqt1","4","images/choice_trial_1.png","images/choice_trial_9.png","images/pattern_1.png","f","f","7000","1","9","1","0","20","0","0","9","80","","","","",""
"html-keyboard-response","107","200691","0.0-46.0-1.0","","null","<div style=""display: flex; flex-direction: column; align-items: center; margin-top: -40px;""><img src=""images/pattern_1.png"" style=""width: 234px; height: 230px; margin-top: -50px;""><div style=""display: flex; justify-content: space-between; margin-top: 33px;""><img src=""images/choice_trial_9.png"" style=""width: 408px; height: 417px; margin-left:608px;""></div></div>","null","delaylearn","learning","display_response","62b6ded74322ef992b784ce0","fcrI4YZmoBTHc14l9PD0u6ERGqt1","","","","","","","","","","","","","","","","","chosen stimuli: images/choice_trial_9.png","","","",""
"html-keyboard-response","108","207693","0.0-46.0-2.0","","null","","null","delaylearn","learning","feedback_duration_window","62b6ded74322ef992b784ce0","fcrI4YZmoBTHc14l9PD0u6ERGqt1","","","","","","","","","","","","","","","","","","7000","","",""
"html-keyboard-response","109","209207","0.0-46.0-3.0","","null","<div style='margin:auto;width: auto; font-size: 150%'><span style='font-weight: bold; font-size: 100px; color: red;'>0 points!</span><br><br></div>","null","delaylearn","learning","feedback_image_window","62b6ded74322ef992b784ce0","fcrI4YZmoBTHc14l9PD0u6ERGqt1","","","","","","","","","","","","","","","","","","","","",""
"html-keyboard-response","110","210992","0.0-47.0","","null","<div style=""font-size:100px;"">+</div>","null","delaylearn","learning","ITI","62b6ded74322ef992b784ce0","fcrI4YZmoBTHc14l9PD0u6ERGqt1","","","","","","","","","","","","","","","","","","","1776","",""
"html-keyboard-response","111","211738","0.0-48.0-0.0","","741.4000000059605","<div style=""display: flex; flex-direction: column; align-items: center; margin-top: -40px;""><img src=""images/pattern_6.png"" style=""width: 234px; height: 230px; margin-top: -50px;""><div style=""display: flex; justify-content: space-between; margin-top: 33px;""><img src=""images/choice_trial_3.png"" style=""width: 408px; height: 417px; margin-right: 200px;""><img src=""images/choice_trial_10.png"" style=""width: 408px; height: 417px;""></div></div>","j","delaylearn","learning","trial","62b6ded74322ef992b784ce0","fcrI4YZmoBTHc14l9PD0u6ERGqt1","4","images/choice_trial_3.png","images/choice_trial_10.png","images/pattern_6.png","j","j","750","3","10","5","1","21","1","1","10","90","","","","",""
"html-keyboard-response","112","212752","0.0-48.0-1.0","","null","<div style=""display: flex; flex-direction: column; align-items: center; margin-top: -40px;""><img src=""images/pattern_6.png"" style=""width: 234px; height: 230px; margin-top: -50px;""><div style=""display: flex; justify-content: space-between; margin-top: 33px;""><img src=""images/choice_trial_10.png"" style=""width: 408px; height: 417px; margin-left:608px;""></div></div>","null","delaylearn","learning","display_response","62b6ded74322ef992b784ce0","fcrI4YZmoBTHc14l9PD0u6ERGqt1","","","","","","","","","","","","","","","","","chosen stimuli: images/choice_trial_10.png","","","",""
"html-keyboard-response","113","213512","0.0-48.0-2.0","","null","","null","delaylearn","learning","feedback_duration_window","62b6ded74322ef992b784ce0","fcrI4YZmoBTHc14l9PD0u6ERGqt1","","","","","","","","","","","","","","","","","","750","","",""
"html-keyboard-response","114","215026","0.0-48.0-3.0","","null","<div style='margin:auto;width: auto; font-size: 150%'><span style='font-weight: bold; font-size: 100px; color: green;'>+10 points!</span><br><br></div>","null","delaylearn","learning","feedback_image_window","62b6ded74322ef992b784ce0","fcrI4YZmoBTHc14l9PD0u6ERGqt1","","","","","","","","","","","","","","","","","","","","",""
"html-keyboard-response","115","216667","0.0-49.0","","null","<div style=""font-size:100px;"">+</div>","null","delaylearn","learning","ITI","62b6ded74322ef992b784ce0","fcrI4YZmoBTHc14l9PD0u6ERGqt1","","","","","","","","","","","","","","","","","","","1629","",""
"html-keyboard-response","116","217290","0.0-50.0-0.0","","618.7000000178814","<div style=""display: flex; flex-direction: column; align-items: center; margin-top: -40px;""><img src=""images/pattern_4.png"" style=""width: 234px; height: 230px; margin-top: -50px;""><div style=""display: flex; justify-content: space-between; margin-top: 33px;""><img src=""images/choice_trial_8.png"" style=""width: 408px; height: 417px; margin-right: 200px;""><img src=""images/choice_trial_7.png"" style=""width: 408px; height: 417px;""></div></div>","f","delaylearn","learning","trial","62b6ded74322ef992b784ce0","fcrI4YZmoBTHc14l9PD0u6ERGqt1","4","images/choice_trial_8.png","images/choice_trial_7.png","images/pattern_4.png","f","f","7000","8","7","3","0","22","1","1","8","100","","","","",""
"html-keyboard-response","117","218295","0.0-50.0-1.0","","null","<div style=""display: flex; flex-direction: column; align-items: center; margin-top: -40px;""><img src=""images/pattern_4.png"" style=""width: 234px; height: 230px; margin-top: -50px;""><div style=""display: flex; justify-content: space-between; margin-top: 33px;""><img src=""images/choice_trial_8.png"" style=""width: 408px; height: 417px; margin-right: 608px;""></div></div>","null","delaylearn","learning","display_response","62b6ded74322ef992b784ce0","fcrI4YZmoBTHc14l9PD0u6ERGqt1","","","","","","","","","","","","","","","","","chosen stimuli: images/choice_trial_8.png","","","",""
"html-keyboard-response","118","225309","0.0-50.0-2.0","","null","","null","delaylearn","learning","feedback_duration_window","62b6ded74322ef992b784ce0","fcrI4YZmoBTHc14l9PD0u6ERGqt1","","","","","","","","","","","","","","","","","","7000","","",""
"html-keyboard-response","119","226813","0.0-50.0-3.0","","null","<div style='margin:auto;width: auto; font-size: 150%'><span style='font-weight: bold; font-size: 100px; color: green;'>+10 points!</span><br><br></div>","null","delaylearn","learning","feedback_image_window","62b6ded74322ef992b784ce0","fcrI4YZmoBTHc14l9PD0u6ERGqt1","","","","","","","","","","","","","","","","","","","","",""
"html-keyboard-response","120","227325","0.0-51.0-0.0","","null","","null","","","mood_trial_fixation","","","","","","","","","","","","","","","","","","","","","","",""
"lmdlab-html-vas-response","121","232050","0.0-51.0-1.0","","3717","How happy are you right now?","0.7638888888888888","delaylearn","learning","mood_trial","62b6ded74322ef992b784ce0","fcrI4YZmoBTHc14l9PD0u6ERGqt1","","","","","","","","","","","","","","","","","","","","[""Very unhappy"",""Very happy""]",""
"html-keyboard-response","122","234136","0.0-52.0","","null","<div style=""font-size:100px;"">+</div>","null","delaylearn","learning","ITI","62b6ded74322ef992b784ce0","fcrI4YZmoBTHc14l9PD0u6ERGqt1","","","","","","","","","","","","","","","","","","","2069","",""
"html-keyboard-response","123","235320","0.0-53.0-0.0","","1182.3999999761581","<div style=""display: flex; flex-direction: column; align-items: center; margin-top: -40px;""><img src=""images/pattern_7.png"" style=""width: 234px; height: 230px; margin-top: -50px;""><div style=""display: flex; justify-content: space-between; margin-top: 33px;""><img src=""images/choice_trial_4.png"" style=""width: 408px; height: 417px; margin-right: 200px;""><img src=""images/choice_trial_13.png"" style=""width: 408px; height: 417px;""></div></div>","f","delaylearn","learning","trial","62b6ded74322ef992b784ce0","fcrI4YZmoBTHc14l9PD0u6ERGqt1","4","images/choice_trial_4.png","images/choice_trial_13.png","images/pattern_7.png","j","j","750","4","13","6","1","23","0","0","4","100","","","","",""
"html-keyboard-response","124","236328","0.0-53.0-1.0","","null","<div style=""display: flex; flex-direction: column; align-items: center; margin-top: -40px;""><img src=""images/pattern_7.png"" style=""width: 234px; height: 230px; margin-top: -50px;""><div style=""display: flex; justify-content: space-between; margin-top: 33px;""><img src=""images/choice_trial_4.png"" style=""width: 408px; height: 417px; margin-right: 608px;""></div></div>","null","delaylearn","learning","display_response","62b6ded74322ef992b784ce0","fcrI4YZmoBTHc14l9PD0u6ERGqt1","","","","","","","","","","","","","","","","","chosen stimuli: images/choice_trial_4.png","","","",""
"html-keyboard-response","125","237092","0.0-53.0-2.0","","null","","null","delaylearn","learning","feedback_duration_window","62b6ded74322ef992b784ce0","fcrI4YZmoBTHc14l9PD0u6ERGqt1","","","","","","","","","","","","","","","","","","750","","",""
"html-keyboard-response","126","238600","0.0-53.0-3.0","","null","<div style='margin:auto;width: auto; font-size: 150%'><span style='font-weight: bold; font-size: 100px; color: red;'>0 points!</span><br><br></div>","null","delaylearn","learning","feedback_image_window","62b6ded74322ef992b784ce0","fcrI4YZmoBTHc14l9PD0u6ERGqt1","","","","","","","","","","","","","","","","","","","","",""
"html-keyboard-response","127","240725","0.0-54.0","","null","<div style=""font-size:100px;"">+</div>","null","delaylearn","learning","ITI","62b6ded74322ef992b784ce0","fcrI4YZmoBTHc14l9PD0u6ERGqt1","","","","","","","","","","","","","","","","","","","2114","",""
"html-keyboard-response","128","241176","0.0-55.0-0.0","","448.40000000596046","<div style=""display: flex; flex-direction: column; align-items: center; margin-top: -40px;""><img src=""images/pattern_1.png"" style=""width: 234px; height: 230px; margin-top: -50px;""><div style=""display: flex; justify-content: space-between; margin-top: 33px;""><img src=""images/choice_trial_9.png"" style=""width: 408px; height: 417px; margin-right: 200px;""><img src=""images/choice_trial_1.png"" style=""width: 408px; height: 417px;""></div></div>","j","delaylearn","learning","trial","62b6ded74322ef992b784ce0","fcrI4YZmoBTHc14l9PD0u6ERGqt1","4","images/choice_trial_9.png","images/choice_trial_1.png","images/pattern_1.png","f","j","7000","9","1","1","1","24","1","0","1","100","","","","",""
"html-keyboard-response","129","242185","0.0-55.0-1.0","","null","<div style=""display: flex; flex-direction: column; align-items: center; margin-top: -40px;""><img src=""images/pattern_1.png"" style=""width: 234px; height: 230px; margin-top: -50px;""><div style=""display: flex; justify-content: space-between; margin-top: 33px;""><img src=""images/choice_trial_1.png"" style=""width: 408px; height: 417px; margin-left:608px;""></div></div>","null","delaylearn","learning","display_response","62b6ded74322ef992b784ce0","fcrI4YZmoBTHc14l9PD0u6ERGqt1","","","","","","","","","","","","","","","","","chosen stimuli: images/choice_trial_1.png","","","",""
"html-keyboard-response","130","249194","0.0-55.0-2.0","","null","","null","delaylearn","learning","feedback_duration_window","62b6ded74322ef992b784ce0","fcrI4YZmoBTHc14l9PD0u6ERGqt1","","","","","","","","","","","","","","","","","","7000","","",""
"html-keyboard-response","131","250699","0.0-55.0-3.0","","null","<div style='margin:auto;width: auto; font-size: 150%'><span style='font-weight: bold; font-size: 100px; color: red;'>0 points!</span><br><br></div>","null","delaylearn","learning","feedback_image_window","62b6ded74322ef992b784ce0","fcrI4YZmoBTHc14l9PD0u6ERGqt1","","","","","","","","","","","","","","","","","","","","",""
"html-keyboard-response","132","252382","0.0-56.0","","null","<div style=""font-size:100px;"">+</div>","null","delaylearn","learning","ITI","62b6ded74322ef992b784ce0","fcrI4YZmoBTHc14l9PD0u6ERGqt1","","","","","","","","","","","","","","","","","","","1676","",""
"html-keyboard-response","133","252984","0.0-57.0-0.0","","598.9000000059605","<div style=""display: flex; flex-direction: column; align-items: center; margin-top: -40px;""><img src=""images/pattern_5.png"" style=""width: 234px; height: 230px; margin-top: -50px;""><div style=""display: flex; justify-content: space-between; margin-top: 33px;""><img src=""images/choice_trial_15.png"" style=""width: 408px; height: 417px; margin-right: 200px;""><img src=""images/choice_trial_5.png"" style=""width: 408px; height: 417px;""></div></div>","f","delaylearn","learning","trial","62b6ded74322ef992b784ce0","fcrI4YZmoBTHc14l9PD0u6ERGqt1","4","images/choice_trial_15.png","images/choice_trial_5.png","images/pattern_5.png","j","j","750","15","5","4","1","25","0","0","15","100","","","","",""
"html-keyboard-response","134","253989","0.0-57.0-1.0","","null","<div style=""display: flex; flex-direction: column; align-items: center; margin-top: -40px;""><img src=""images/pattern_5.png"" style=""width: 234px; height: 230px; margin-top: -50px;""><div style=""display: flex; justify-content: space-between; margin-top: 33px;""><img src=""images/choice_trial_15.png"" style=""width: 408px; height: 417px; margin-right: 608px;""></div></div>","null","delaylearn","learning","display_response","62b6ded74322ef992b784ce0","fcrI4YZmoBTHc14l9PD0u6ERGqt1","","","","","","","","","","","","","","","","","chosen stimuli: images/choice_trial_15.png","","","",""
"html-keyboard-response","135","254742","0.0-57.0-2.0","","null","","null","delaylearn","learning","feedback_duration_window","62b6ded74322ef992b784ce0","fcrI4YZmoBTHc14l9PD0u6ERGqt1","","","","","","","","","","","","","","","","","","750","","",""
"html-keyboard-response","136","256245","0.0-57.0-3.0","","null","<div style='margin:auto;width: auto; font-size: 150%'><span style='font-weight: bold; font-size: 100px; color: red;'>0 points!</span><br><br></div>","null","delaylearn","learning","feedback_image_window","62b6ded74322ef992b784ce0","fcrI4YZmoBTHc14l9PD0u6ERGqt1","","","","","","","","","","","","","","","","","","","","",""
"html-keyboard-response","137","258361","0.0-58.0","","null","<div style=""font-size:100px;"">+</div>","null","delaylearn","learning","ITI","62b6ded74322ef992b784ce0","fcrI4YZmoBTHc14l9PD0u6ERGqt1","","","","","","","","","","","","","","","","","","","2104","",""
"html-keyboard-response","138","259041","0.0-59.0-0.0","","676.5","<div style=""display: flex; flex-direction: column; align-items: center; margin-top: -40px;""><img src=""images/pattern_3.png"" style=""width: 234px; height: 230px; margin-top: -50px;""><div style=""display: flex; justify-content: space-between; margin-top: 33px;""><img src=""images/choice_trial_6.png"" style=""width: 408px; height: 417px; margin-right: 200px;""><img src=""images/choice_trial_16.png"" style=""width: 408px; height: 417px;""></div></div>","f","delaylearn","learning","trial","62b6ded74322ef992b784ce0","fcrI4YZmoBTHc14l9PD0u6ERGqt1","4","images/choice_trial_6.png","images/choice_trial_16.png","images/pattern_3.png","j","j","7000","6","16","2","1","26","0","0","6","100","","","","",""
"html-keyboard-response","139","260044","0.0-59.0-1.0","","null","<div style=""display: flex; flex-direction: column; align-items: center; margin-top: -40px;""><img src=""images/pattern_3.png"" style=""width: 234px; height: 230px; margin-top: -50px;""><div style=""display: flex; justify-content: space-between; margin-top: 33px;""><img src=""images/choice_trial_6.png"" style=""width: 408px; height: 417px; margin-right: 608px;""></div></div>","null","delaylearn","learning","display_response","62b6ded74322ef992b784ce0","fcrI4YZmoBTHc14l9PD0u6ERGqt1","","","","","","","","","","","","","","","","","chosen stimuli: images/choice_trial_6.png","","","",""
"html-keyboard-response","140","267052","0.0-59.0-2.0","","null","","null","delaylearn","learning","feedback_duration_window","62b6ded74322ef992b784ce0","fcrI4YZmoBTHc14l9PD0u6ERGqt1","","","","","","","","","","","","","","","","","","7000","","",""
"html-keyboard-response","141","268570","0.0-59.0-3.0","","null","<div style='margin:auto;width: auto; font-size: 150%'><span style='font-weight: bold; font-size: 100px; color: red;'>0 points!</span><br><br></div>","null","delaylearn","learning","feedback_image_window","62b6ded74322ef992b784ce0","fcrI4YZmoBTHc14l9PD0u6ERGqt1","","","","","","","","","","","","","","","","","","","","",""
"lmdlab-html-vas-response","142","274455","0.0-60.0-0.0","","4299","*How <b><u>confident</u></b> are you feeling about your answers at this moment?*","0.44598765432098764","rewlearn","rate_confidence","","62b6ded74322ef992b784ce0","fcrI4YZmoBTHc14l9PD0u6ERGqt1","","","","","","","","","","","","","","","","","","","","[""No confidence"",""Complete confidence""]",""
"lmdlab-rest-trial-limit","143","283305","0.0-60.0-1.0","","7335.9000000059605","<div style=""font-size:40px;""><b>Please take a break!</b><br><br><br><br><p>Great work: you earned 100 points.<br><br><br><p>You have completed part(s) 1 of 5.<br><br><br><br>When you are ready to continue<br><br><br>please click the button.</p><br><br>","0","delaylearn","learning","break","62b6ded74322ef992b784ce0","fcrI4YZmoBTHc14l9PD0u6ERGqt1","","","","","","","","","","","","","","","","","","","","","0"
"html-keyboard-response","144","286318","0.0-60.0-2.0","","null","<div style=""font-size:100px;"">+</div>","null","delaylearn","learning","pre_fixation","62b6ded74322ef992b784ce0","","","","","","","","","","","","","","","","","","","","","",""
"lmdlab-html-vas-response","145","291018","0.0-60.0-3.0-0.0","","3690","How happy are you right now?","0.8132716049382716","delaylearn","learning","mood_baseline","62b6ded74322ef992b784ce0","fcrI4YZmoBTHc14l9PD0u6ERGqt1","","","","","","","","","","","","","","","","","","","","[""Very unhappy"",""Very happy""]",""
"html-keyboard-response","146","292529","0.0-60.0-3.0-1.0","","null","","null","","","mood_baseline_fixation","","","","","","","","","","","","","","","","","","","","","","",""
"html-keyboard-response","147","294574","0.0-61.0","","null","<div style=""font-size:100px;"">+</div>","null","delaylearn","learning","ITI","62b6ded74322ef992b784ce0","fcrI4YZmoBTHc14l9PD0u6ERGqt1","","","","","","","","","","","","","","","","","","","2037","",""
"html-keyboard-response","148","295776","0.0-62.0-0.0","","1201.0999999940395","<div style=""display: flex; flex-direction: column; align-items: center; margin-top: -40px;""><img src=""images/pattern_7.png"" style=""width: 234px; height: 230px; margin-top: -50px;""><div style=""display: flex; justify-content: space-between; margin-top: 33px;""><img src=""images/choice_trial_4.png"" style=""width: 408px; height: 417px; margin-right: 200px;""><img src=""images/choice_trial_13.png"" style=""width: 408px; height: 417px;""></div></div>","f","delaylearn","learning","trial","62b6ded74322ef992b784ce0","fcrI4YZmoBTHc14l9PD0u6ERGqt1","4","images/choice_trial_4.png","images/choice_trial_13.png","images/pattern_7.png","j","j","750","4","13","6","1","27","0","0","4","100","","","","",""
"html-keyboard-response","149","296786","0.0-62.0-1.0","","null","<div style=""display: flex; flex-direction: column; align-items: center; margin-top: -40px;""><img src=""images/pattern_7.png"" style=""width: 234px; height: 230px; margin-top: -50px;""><div style=""display: flex; justify-content: space-between; margin-top: 33px;""><img src=""images/choice_trial_4.png"" style=""width: 408px; height: 417px; margin-right: 608px;""></div></div>","null","delaylearn","learning","display_response","62b6ded74322ef992b784ce0","fcrI4YZmoBTHc14l9PD0u6ERGqt1","","","","","","","","","","","","","","","","","chosen stimuli: images/choice_trial_4.png","","","",""
"html-keyboard-response","150","297547","0.0-62.0-2.0","","null","","null","delaylearn","learning","feedback_duration_window","62b6ded74322ef992b784ce0","fcrI4YZmoBTHc14l9PD0u6ERGqt1","","","","","","","","","","","","","","","","","","750","","",""
"html-keyboard-response","151","299057","0.0-62.0-3.0","","null","<div style='margin:auto;width: auto; font-size: 150%'><span style='font-weight: bold; font-size: 100px; color: red;'>0 points!</span><br><br></div>","null","delaylearn","learning","feedback_image_window","62b6ded74322ef992b784ce0","fcrI4YZmoBTHc14l9PD0u6ERGqt1","","","","","","","","","","","","","","","","","","","","",""
"html-keyboard-response","152","299572","0.0-63.0-0.0","","null","","null","","","mood_trial_fixation","","","","","","","","","","","","","","","","","","","","","","",""
"lmdlab-html-vas-response","153","306952","0.0-63.0-1.0","","6376","How happy are you right now?","0.7345679012345679","delaylearn","learning","mood_trial","62b6ded74322ef992b784ce0","fcrI4YZmoBTHc14l9PD0u6ERGqt1","","","","","","","","","","","","","","","","","","","","[""Very unhappy"",""Very happy""]",""
"html-keyboard-response","154","308792","0.0-64.0","","null","<div style=""font-size:100px;"">+</div>","null","delaylearn","learning","ITI","62b6ded74322ef992b784ce0","fcrI4YZmoBTHc14l9PD0u6ERGqt1","","","","","","","","","","","","","","","","","","","1830","",""
"html-keyboard-response","155","309792","0.0-65.0-0.0","","996.9000000059605","<div style=""display: flex; flex-direction: column; align-items: center; margin-top: -40px;""><img src=""images/pattern_1.png"" style=""width: 234px; height: 230px; margin-top: -50px;""><div style=""display: flex; justify-content: space-between; margin-top: 33px;""><img src=""images/choice_trial_1.png"" style=""width: 408px; height: 417px; margin-right: 200px;""><img src=""images/choice_trial_9.png"" style=""width: 408px; height: 417px;""></div></div>","j","delaylearn","learning","trial","62b6ded74322ef992b784ce0","fcrI4YZmoBTHc14l9PD0u6ERGqt1","4","images/choice_trial_1.png","images/choice_trial_9.png","images/pattern_1.png","f","f","7000","1","9","1","0","28","0","0","9","100","","","","",""
"html-keyboard-response","156","310803","0.0-65.0-1.0","","null","<div style=""display: flex; flex-direction: column; align-items: center; margin-top: -40px;""><img src=""images/pattern_1.png"" style=""width: 234px; height: 230px; margin-top: -50px;""><div style=""display: flex; justify-content: space-between; margin-top: 33px;""><img src=""images/choice_trial_9.png"" style=""width: 408px; height: 417px; margin-left:608px;""></div></div>","null","delaylearn","learning","display_response","62b6ded74322ef992b784ce0","fcrI4YZmoBTHc14l9PD0u6ERGqt1","","","","","","","","","","","","","","","","","chosen stimuli: images/choice_trial_9.png","","","",""
"html-keyboard-response","157","317811","0.0-65.0-2.0","","null","","null","delaylearn","learning","feedback_duration_window","62b6ded74322ef992b784ce0","fcrI4YZmoBTHc14l9PD0u6ERGqt1","","","","","","","","","","","","","","","","","","7000","","",""
"html-keyboard-response","158","319325","0.0-65.0-3.0","","null","<div style='margin:auto;width: auto; font-size: 150%'><span style='font-weight: bold; font-size: 100px; color: red;'>0 points!</span><br><br></div>","null","delaylearn","learning","feedback_image_window","62b6ded74322ef992b784ce0","fcrI4YZmoBTHc14l9PD0u6ERGqt1","","","","","","","","","","","","","","","","","","","","",""
"html-keyboard-response","159","321806","0.0-66.0","","null","<div style=""font-size:100px;"">+</div>","null","delaylearn","learning","ITI","62b6ded74322ef992b784ce0","fcrI4YZmoBTHc14l9PD0u6ERGqt1","","","","","","","","","","","","","","","","","","","2478","",""
"html-keyboard-response","160","322561","0.0-67.0-0.0","","753.6999999880791","<div style=""display: flex; flex-direction: column; align-items: center; margin-top: -40px;""><img src=""images/pattern_5.png"" style=""width: 234px; height: 230px; margin-top: -50px;""><div style=""display: flex; justify-content: space-between; margin-top: 33px;""><img src=""images/choice_trial_5.png"" style=""width: 408px; height: 417px; margin-right: 200px;""><img src=""images/choice_trial_15.png"" style=""width: 408px; height: 417px;""></div></div>","f","delaylearn","learning","trial","62b6ded74322ef992b784ce0","fcrI4YZmoBTHc14l9PD0u6ERGqt1","4","images/choice_trial_5.png","images/choice_trial_15.png","images/pattern_5.png","f","f","750","5","15","4","0","29","1","1","5","110","","","","",""
"html-keyboard-response","161","323568","0.0-67.0-1.0","","null","<div style=""display: flex; flex-direction: column; align-items: center; margin-top: -40px;""><img src=""images/pattern_5.png"" style=""width: 234px; height: 230px; margin-top: -50px;""><div style=""display: flex; justify-content: space-between; margin-top: 33px;""><img src=""images/choice_trial_5.png"" style=""width: 408px; height: 417px; margin-right: 608px;""></div></div>","null","delaylearn","learning","display_response","62b6ded74322ef992b784ce0","fcrI4YZmoBTHc14l9PD0u6ERGqt1","","","","","","","","","","","","","","","","","chosen stimuli: images/choice_trial_5.png","","","",""
"html-keyboard-response","162","324329","0.0-67.0-2.0","","null","","null","delaylearn","learning","feedback_duration_window","62b6ded74322ef992b784ce0","fcrI4YZmoBTHc14l9PD0u6ERGqt1","","","","","","","","","","","","","","","","","","750","","",""
"html-keyboard-response","163","325840","0.0-67.0-3.0","","null","<div style='margin:auto;width: auto; font-size: 150%'><span style='font-weight: bold; font-size: 100px; color: green;'>+10 points!</span><br><br></div>","null","delaylearn","learning","feedback_image_window","62b6ded74322ef992b784ce0","fcrI4YZmoBTHc14l9PD0u6ERGqt1","","","","","","","","","","","","","","","","","","","","",""
"html-keyboard-response","164","327537","0.0-68.0","","null","<div style=""font-size:100px;"">+</div>","null","delaylearn","learning","ITI","62b6ded74322ef992b784ce0","fcrI4YZmoBTHc14l9PD0u6ERGqt1","","","","","","","","","","","","","","","","","","","1685","",""
"html-keyboard-response","165","328943","0.0-69.0-0.0","","1402.4000000059605","<div style=""display: flex; flex-direction: column; align-items: center; margin-top: -40px;""><img src=""images/pattern_6.png"" style=""width: 234px; height: 230px; margin-top: -50px;""><div style=""display: flex; justify-content: space-between; margin-top: 33px;""><img src=""images/choice_trial_3.png"" style=""width: 408px; height: 417px; margin-right: 200px;""><img src=""images/choice_trial_10.png"" style=""width: 408px; height: 417px;""></div></div>","f","delaylearn","learning","trial","62b6ded74322ef992b784ce0","fcrI4YZmoBTHc14l9PD0u6ERGqt1","4","images/choice_trial_3.png","images/choice_trial_10.png","images/pattern_6.png","j","j","750","3","10","5","1","30","0","0","3","110","","","","",""
"html-keyboard-response","166","329953","0.0-69.0-1.0","","null","<div style=""display: flex; flex-direction: column; align-items: center; margin-top: -40px;""><img src=""images/pattern_6.png"" style=""width: 234px; height: 230px; margin-top: -50px;""><div style=""display: flex; justify-content: space-between; margin-top: 33px;""><img src=""images/choice_trial_3.png"" style=""width: 408px; height: 417px; margin-right: 608px;""></div></div>","null","delaylearn","learning","display_response","62b6ded74322ef992b784ce0","fcrI4YZmoBTHc14l9PD0u6ERGqt1","","","","","","","","","","","","","","","","","chosen stimuli: images/choice_trial_3.png","","","",""
"html-keyboard-response","167","330717","0.0-69.0-2.0","","null","","null","delaylearn","learning","feedback_duration_window","62b6ded74322ef992b784ce0","fcrI4YZmoBTHc14l9PD0u6ERGqt1","","","","","","","","","","","","","","","","","","750","","",""
"html-keyboard-response","168","332227","0.0-69.0-3.0","","null","<div style='margin:auto;width: auto; font-size: 150%'><span style='font-weight: bold; font-size: 100px; color: red;'>0 points!</span><br><br></div>","null","delaylearn","learning","feedback_image_window","62b6ded74322ef992b784ce0","fcrI4YZmoBTHc14l9PD0u6ERGqt1","","","","","","","","","","","","","","","","","","","","",""
"html-keyboard-response","169","332739","0.0-70.0-0.0","","null","","null","","","mood_trial_fixation","","","","","","","","","","","","","","","","","","","","","","",""
"lmdlab-html-vas-response","170","342521","0.0-70.0-1.0","","8776","How happy are you right now?","0.8657407407407407","delaylearn","learning","mood_trial","62b6ded74322ef992b784ce0","fcrI4YZmoBTHc14l9PD0u6ERGqt1","","","","","","","","","","","","","","","","","","","","[""Very unhappy"",""Very happy""]",""
"html-keyboard-response","171","344672","0.0-71.0","","null","<div style=""font-size:100px;"">+</div>","null","delaylearn","learning","ITI","62b6ded74322ef992b784ce0","fcrI4YZmoBTHc14l9PD0u6ERGqt1","","","","","","","","","","","","","","","","","","","2135","",""
"html-keyboard-response","172","346450","0.0-72.0-0.0","","1775.5","<div style=""display: flex; flex-direction: column; align-items: center; margin-top: -40px;""><img src=""images/pattern_4.png"" style=""width: 234px; height: 230px; margin-top: -50px;""><div style=""display: flex; justify-content: space-between; margin-top: 33px;""><img src=""images/choice_trial_7.png"" style=""width: 408px; height: 417px; margin-right: 200px;""><img src=""images/choice_trial_8.png"" style=""width: 408px; height: 417px;""></div></div>","j","delaylearn","learning","trial","62b6ded74322ef992b784ce0","fcrI4YZmoBTHc14l9PD0u6ERGqt1","4","images/choice_trial_7.png","images/choice_trial_8.png","images/pattern_4.png","j","j","7000","7","8","3","1","31","1","1","8","120","","","","",""
"html-keyboard-response","173","347462","0.0-72.0-1.0","","null","<div style=""display: flex; flex-direction: column; align-items: center; margin-top: -40px;""><img src=""images/pattern_4.png"" style=""width: 234px; height: 230px; margin-top: -50px;""><div style=""display: flex; justify-content: space-between; margin-top: 33px;""><img src=""images/choice_trial_8.png"" style=""width: 408px; height: 417px; margin-left:608px;""></div></div>","null","delaylearn","learning","display_response","62b6ded74322ef992b784ce0","fcrI4YZmoBTHc14l9PD0u6ERGqt1","","","","","","","","","","","","","","","","","chosen stimuli: images/choice_trial_8.png","","","",""
"html-keyboard-response","174","354471","0.0-72.0-2.0","","null","","null","delaylearn","learning","feedback_duration_window","62b6ded74322ef992b784ce0","fcrI4YZmoBTHc14l9PD0u6ERGqt1","","","","","","","","","","","","","","","","","","7000","","",""
"html-keyboard-response","175","355975","0.0-72.0-3.0","","null","<div style='margin:auto;width: auto; font-size: 150%'><span style='font-weight: bold; font-size: 100px; color: green;'>+10 points!</span><br><br></div>","null","delaylearn","learning","feedback_image_window","62b6ded74322ef992b784ce0","fcrI4YZmoBTHc14l9PD0u6ERGqt1","","","","","","","","","","","","","","","","","","","","",""
"html-keyboard-response","176","357714","0.0-73.0","","null","<div style=""font-size:100px;"">+</div>","null","delaylearn","learning","ITI","62b6ded74322ef992b784ce0","fcrI4YZmoBTHc14l9PD0u6ERGqt1","","","","","","","","","","","","","","","","","","","1727","",""
"html-keyboard-response","177","359899","0.0-74.0-0.0","","2181.5999999940395","<div style=""display: flex; flex-direction: column; align-items: center; margin-top: -40px;""><img src=""images/pattern_3.png"" style=""width: 234px; height: 230px; margin-top: -50px;""><div style=""display: flex; justify-content: space-between; margin-top: 33px;""><img src=""images/choice_trial_6.png"" style=""width: 408px; height: 417px; margin-right: 200px;""><img src=""images/choice_trial_16.png"" style=""width: 408px; height: 417px;""></div></div>","j","delaylearn","learning","trial","62b6ded74322ef992b784ce0","fcrI4YZmoBTHc14l9PD0u6ERGqt1","4","images/choice_trial_6.png","images/choice_trial_16.png","images/pattern_3.png","j","j","7000","6","16","2","1","32","1","1","16","130","","","","",""
"html-keyboard-response","178","360906","0.0-74.0-1.0","","null","<div style=""display: flex; flex-direction: column; align-items: center; margin-top: -40px;""><img src=""images/pattern_3.png"" style=""width: 234px; height: 230px; margin-top: -50px;""><div style=""display: flex; justify-content: space-between; margin-top: 33px;""><img src=""images/choice_trial_16.png"" style=""width: 408px; height: 417px; margin-left:608px;""></div></div>","null","delaylearn","learning","display_response","62b6ded74322ef992b784ce0","fcrI4YZmoBTHc14l9PD0u6ERGqt1","","","","","","","","","","","","","","","","","chosen stimuli: images/choice_trial_16.png","","","",""
"html-keyboard-response","179","367924","0.0-74.0-2.0","","null","","null","delaylearn","learning","feedback_duration_window","62b6ded74322ef992b784ce0","fcrI4YZmoBTHc14l9PD0u6ERGqt1","","","","","","","","","","","","","","","","","","7000","","",""
"html-keyboard-response","180","369431","0.0-74.0-3.0","","null","<div style='margin:auto;width: auto; font-size: 150%'><span style='font-weight: bold; font-size: 100px; color: green;'>+10 points!</span><br><br></div>","null","delaylearn","learning","feedback_image_window","62b6ded74322ef992b784ce0","fcrI4YZmoBTHc14l9PD0u6ERGqt1","","","","","","","","","","","","","","","","","","","","",""
"html-keyboard-response","181","370980","0.0-75.0","","null","<div style=""font-size:100px;"">+</div>","null","delaylearn","learning","ITI","62b6ded74322ef992b784ce0","fcrI4YZmoBTHc14l9PD0u6ERGqt1","","","","","","","","","","","","","","","","","","","1532","",""
"html-keyboard-response","182","371687","0.0-76.0-0.0","","702.8000000119209","<div style=""display: flex; flex-direction: column; align-items: center; margin-top: -40px;""><img src=""images/pattern_5.png"" style=""width: 234px; height: 230px; margin-top: -50px;""><div style=""display: flex; justify-content: space-between; margin-top: 33px;""><img src=""images/choice_trial_5.png"" style=""width: 408px; height: 417px; margin-right: 200px;""><img src=""images/choice_trial_15.png"" style=""width: 408px; height: 417px;""></div></div>","f","delaylearn","learning","trial","62b6ded74322ef992b784ce0","fcrI4YZmoBTHc14l9PD0u6ERGqt1","4","images/choice_trial_5.png","images/choice_trial_15.png","images/pattern_5.png","j","f","750","5","15","4","0","33","1","0","5","130","","","","",""
"html-keyboard-response","183","372700","0.0-76.0-1.0","","null","<div style=""display: flex; flex-direction: column; align-items: center; margin-top: -40px;""><img src=""images/pattern_5.png"" style=""width: 234px; height: 230px; margin-top: -50px;""><div style=""display: flex; justify-content: space-between; margin-top: 33px;""><img src=""images/choice_trial_5.png"" style=""width: 408px; height: 417px; margin-right: 608px;""></div></div>","null","delaylearn","learning","display_response","62b6ded74322ef992b784ce0","fcrI4YZmoBTHc14l9PD0u6ERGqt1","","","","","","","","","","","","","","","","","chosen stimuli: images/choice_trial_5.png","","","",""
"html-keyboard-response","184","373463","0.0-76.0-2.0","","null","","null","delaylearn","learning","feedback_duration_window","62b6ded74322ef992b784ce0","fcrI4YZmoBTHc14l9PD0u6ERGqt1","","","","","","","","","","","","","","","","","","750","","",""
"html-keyboard-response","185","374978","0.0-76.0-3.0","","null","<div style='margin:auto;width: auto; font-size: 150%'><span style='font-weight: bold; font-size: 100px; color: red;'>0 points!</span><br><br></div>","null","delaylearn","learning","feedback_image_window","62b6ded74322ef992b784ce0","fcrI4YZmoBTHc14l9PD0u6ERGqt1","","","","","","","","","","","","","","","","","","","","",""
"html-keyboard-response","186","376892","0.0-77.0","","null","<div style=""font-size:100px;"">+</div>","null","delaylearn","learning","ITI","62b6ded74322ef992b784ce0","fcrI4YZmoBTHc14l9PD0u6ERGqt1","","","","","","","","","","","","","","","","","","","1897","",""
"html-keyboard-response","187","378913","0.0-78.0-0.0","","2017.5999999940395","<div style=""display: flex; flex-direction: column; align-items: center; margin-top: -40px;""><img src=""images/pattern_1.png"" style=""width: 234px; height: 230px; margin-top: -50px;""><div style=""display: flex; justify-content: space-between; margin-top: 33px;""><img src=""images/choice_trial_1.png"" style=""width: 408px; height: 417px; margin-right: 200px;""><img src=""images/choice_trial_9.png"" style=""width: 408px; height: 417px;""></div></div>","j","delaylearn","learning","trial","62b6ded74322ef992b784ce0","fcrI4YZmoBTHc14l9PD0u6ERGqt1","4","images/choice_trial_1.png","images/choice_trial_9.png","images/pattern_1.png","f","f","7000","1","9","1","0","34","0","0","9","130","","","","",""
"html-keyboard-response","188","379919","0.0-78.0-1.0","","null","<div style=""display: flex; flex-direction: column; align-items: center; margin-top: -40px;""><img src=""images/pattern_1.png"" style=""width: 234px; height: 230px; margin-top: -50px;""><div style=""display: flex; justify-content: space-between; margin-top: 33px;""><img src=""images/choice_trial_9.png"" style=""width: 408px; height: 417px; margin-left:608px;""></div></div>","null","delaylearn","learning","display_response","62b6ded74322ef992b784ce0","fcrI4YZmoBTHc14l9PD0u6ERGqt1","","","","","","","","","","","","","","","","","chosen stimuli: images/choice_trial_9.png","","","",""
"html-keyboard-response","189","386927","0.0-78.0-2.0","","null","","null","delaylearn","learning","feedback_duration_window","62b6ded74322ef992b784ce0","fcrI4YZmoBTHc14l9PD0u6ERGqt1","","","","","","","","","","","","","","","","","","7000","","",""
"html-keyboard-response","190","388438","0.0-78.0-3.0","","null","<div style='margin:auto;width: auto; font-size: 150%'><span style='font-weight: bold; font-size: 100px; color: red;'>0 points!</span><br><br></div>","null","delaylearn","learning","feedback_image_window","62b6ded74322ef992b784ce0","fcrI4YZmoBTHc14l9PD0u6ERGqt1","","","","","","","","","","","","","","","","","","","","",""
"html-keyboard-response","191","388945","0.0-79.0-0.0","","null","","null","","","mood_trial_fixation","","","","","","","","","","","","","","","","","","","","","","",""
"lmdlab-html-vas-response","192","393883","0.0-79.0-1.0","","3925","How happy are you right now?","0.7608024691358025","delaylearn","learning","mood_trial","62b6ded74322ef992b784ce0","fcrI4YZmoBTHc14l9PD0u6ERGqt1","","","","","","","","","","","","","","","","","","","","[""Very unhappy"",""Very happy""]",""
"html-keyboard-response","193","395701","0.0-80.0","","null","<div style=""font-size:100px;"">+</div>","null","delaylearn","learning","ITI","62b6ded74322ef992b784ce0","fcrI4YZmoBTHc14l9PD0u6ERGqt1","","","","","","","","","","","","","","","","","","","1809","",""
"html-keyboard-response","194","398442","0.0-81.0-0.0","","2739","<div style=""display: flex; flex-direction: column; align-items: center; margin-top: -40px;""><img src=""images/pattern_6.png"" style=""width: 234px; height: 230px; margin-top: -50px;""><div style=""display: flex; justify-content: space-between; margin-top: 33px;""><img src=""images/choice_trial_10.png"" style=""width: 408px; height: 417px; margin-right: 200px;""><img src=""images/choice_trial_3.png"" style=""width: 408px; height: 417px;""></div></div>","j","delaylearn","learning","trial","62b6ded74322ef992b784ce0","fcrI4YZmoBTHc14l9PD0u6ERGqt1","4","images/choice_trial_10.png","images/choice_trial_3.png","images/pattern_6.png","j","f","750","10","3","5","0","35","0","1","3","140","","","","",""
"html-keyboard-response","195","399452","0.0-81.0-1.0","","null","<div style=""display: flex; flex-direction: column; align-items: center; margin-top: -40px;""><img src=""images/pattern_6.png"" style=""width: 234px; height: 230px; margin-top: -50px;""><div style=""display: flex; justify-content: space-between; margin-top: 33px;""><img src=""images/choice_trial_3.png"" style=""width: 408px; height: 417px; margin-left:608px;""></div></div>","null","delaylearn","learning","display_response","62b6ded74322ef992b784ce0","fcrI4YZmoBTHc14l9PD0u6ERGqt1","","","","","","","","","","","","","","","","","chosen stimuli: images/choice_trial_3.png","","","",""
"html-keyboard-response","196","400210","0.0-81.0-2.0","","null","","null","delaylearn","learning","feedback_duration_window","62b6ded74322ef992b784ce0","fcrI4YZmoBTHc14l9PD0u6ERGqt1","","","","","","","","","","","","","","","","","","750","","",""
"html-keyboard-response","197","401721","0.0-81.0-3.0","","null","<div style='margin:auto;width: auto; font-size: 150%'><span style='font-weight: bold; font-size: 100px; color: green;'>+10 points!</span><br><br></div>","null","delaylearn","learning","feedback_image_window","62b6ded74322ef992b784ce0","fcrI4YZmoBTHc14l9PD0u6ERGqt1","","","","","","","","","","","","","","","","","","","","",""
"html-keyboard-response","198","403409","0.0-82.0","","null","<div style=""font-size:100px;"">+</div>","null","delaylearn","learning","ITI","62b6ded74322ef992b784ce0","fcrI4YZmoBTHc14l9PD0u6ERGqt1","","","","","","","","","","","","","","","","","","","1687","",""
"html-keyboard-response","199","403959","0.0-83.0-0.0","","545.8000000119209","<div style=""display: flex; flex-direction: column; align-items: center; margin-top: -40px;""><img src=""images/pattern_3.png"" style=""width: 234px; height: 230px; margin-top: -50px;""><div style=""display: flex; justify-content: space-between; margin-top: 33px;""><img src=""images/choice_trial_6.png"" style=""width: 408px; height: 417px; margin-right: 200px;""><img src=""images/choice_trial_16.png"" style=""width: 408px; height: 417px;""></div></div>","f","delaylearn","learning","trial","62b6ded74322ef992b784ce0","fcrI4YZmoBTHc14l9PD0u6ERGqt1","4","images/choice_trial_6.png","images/choice_trial_16.png","images/pattern_3.png","j","j","7000","6","16","2","1","36","0","0","6","140","","","","",""
"html-keyboard-response","200","404965","0.0-83.0-1.0","","null","<div style=""display: flex; flex-direction: column; align-items: center; margin-top: -40px;""><img src=""images/pattern_3.png"" style=""width: 234px; height: 230px; margin-top: -50px;""><div style=""display: flex; justify-content: space-between; margin-top: 33px;""><img src=""images/choice_trial_6.png"" style=""width: 408px; height: 417px; margin-right: 608px;""></div></div>","null","delaylearn","learning","display_response","62b6ded74322ef992b784ce0","fcrI4YZmoBTHc14l9PD0u6ERGqt1","","","","","","","","","","","","","","","","","chosen stimuli: images/choice_trial_6.png","","","",""
"html-keyboard-response","201","411973","0.0-83.0-2.0","","null","","null","delaylearn","learning","feedback_duration_window","62b6ded74322ef992b784ce0","fcrI4YZmoBTHc14l9PD0u6ERGqt1","","","","","","","","","","","","","","","","","","7000","","",""
"html-keyboard-response","202","413478","0.0-83.0-3.0","","null","<div style='margin:auto;width: auto; font-size: 150%'><span style='font-weight: bold; font-size: 100px; color: red;'>0 points!</span><br><br></div>","null","delaylearn","learning","feedback_image_window","62b6ded74322ef992b784ce0","fcrI4YZmoBTHc14l9PD0u6ERGqt1","","","","","","","","","","","","","","","","","","","","",""
"html-keyboard-response","203","415714","0.0-84.0","","null","<div style=""font-size:100px;"">+</div>","null","delaylearn","learning","ITI","62b6ded74322ef992b784ce0","fcrI4YZmoBTHc14l9PD0u6ERGqt1","","","","","","","","","","","","","","","","","","","2235","",""
"html-keyboard-response","204","416830","0.0-85.0-0.0","","1113.300000011921","<div style=""display: flex; flex-direction: column; align-items: center; margin-top: -40px;""><img src=""images/pattern_4.png"" style=""width: 234px; height: 230px; margin-top: -50px;""><div style=""display: flex; justify-content: space-between; margin-top: 33px;""><img src=""images/choice_trial_7.png"" style=""width: 408px; height: 417px; margin-right: 200px;""><img src=""images/choice_trial_8.png"" style=""width: 408px; height: 417px;""></div></div>","j","delaylearn","learning","trial","62b6ded74322ef992b784ce0","fcrI4YZmoBTHc14l9PD0u6ERGqt1","4","images/choice_trial_7.png","images/choice_trial_8.png","images/pattern_4.png","f","j","7000","7","8","3","1","37","1","0","8","140","","","","",""
"html-keyboard-response","205","417837","0.0-85.0-1.0","","null","<div style=""display: flex; flex-direction: column; align-items: center; margin-top: -40px;""><img src=""images/pattern_4.png"" style=""width: 234px; height: 230px; margin-top: -50px;""><div style=""display: flex; justify-content: space-between; margin-top: 33px;""><img src=""images/choice_trial_8.png"" style=""width: 408px; height: 417px; margin-left:608px;""></div></div>","null","delaylearn","learning","display_response","62b6ded74322ef992b784ce0","fcrI4YZmoBTHc14l9PD0u6ERGqt1","","","","","","","","","","","","","","","","","chosen stimuli: images/choice_trial_8.png","","","",""
"html-keyboard-response","206","424845","0.0-85.0-2.0","","null","","null","delaylearn","learning","feedback_duration_window","62b6ded74322ef992b784ce0","fcrI4YZmoBTHc14l9PD0u6ERGqt1","","","","","","","","","","","","","","","","","","7000","","",""
"html-keyboard-response","207","426351","0.0-85.0-3.0","","null","<div style='margin:auto;width: auto; font-size: 150%'><span style='font-weight: bold; font-size: 100px; color: red;'>0 points!</span><br><br></div>","null","delaylearn","learning","feedback_image_window","62b6ded74322ef992b784ce0","fcrI4YZmoBTHc14l9PD0u6ERGqt1","","","","","","","","","","","","","","","","","","","","",""
"html-keyboard-response","208","428501","0.0-86.0","","null","<div style=""font-size:100px;"">+</div>","null","delaylearn","learning","ITI","62b6ded74322ef992b784ce0","fcrI4YZmoBTHc14l9PD0u6ERGqt1","","","","","","","","","","","","","","","","","","","2142","",""
"html-keyboard-response","209","429137","0.0-87.0-0.0","","633.5999999940395","<div style=""display: flex; flex-direction: column; align-items: center; margin-top: -40px;""><img src=""images/pattern_7.png"" style=""width: 234px; height: 230px; margin-top: -50px;""><div style=""display: flex; justify-content: space-between; margin-top: 33px;""><img src=""images/choice_trial_13.png"" style=""width: 408px; height: 417px; margin-right: 200px;""><img src=""images/choice_trial_4.png"" style=""width: 408px; height: 417px;""></div></div>","f","delaylearn","learning","trial","62b6ded74322ef992b784ce0","fcrI4YZmoBTHc14l9PD0u6ERGqt1","4","images/choice_trial_13.png","images/choice_trial_4.png","images/pattern_7.png","f","f","750","13","4","6","0","38","1","1","13","150","","","","",""
"html-keyboard-response","210","430140","0.0-87.0-1.0","","null","<div style=""display: flex; flex-direction: column; align-items: center; margin-top: -40px;""><img src=""images/pattern_7.png"" style=""width: 234px; height: 230px; margin-top: -50px;""><div style=""display: flex; justify-content: space-between; margin-top: 33px;""><img src=""images/choice_trial_13.png"" style=""width: 408px; height: 417px; margin-right: 608px;""></div></div>","null","delaylearn","learning","display_response","62b6ded74322ef992b784ce0","fcrI4YZmoBTHc14l9PD0u6ERGqt1","","","","","","","","","","","","","","","","","chosen stimuli: images/choice_trial_13.png","","","",""
"html-keyboard-response","211","430898","0.0-87.0-2.0","","null","","null","delaylearn","learning","feedback_duration_window","62b6ded74322ef992b784ce0","fcrI4YZmoBTHc14l9PD0u6ERGqt1","","","","","","","","","","","","","","","","","","750","","",""
"html-keyboard-response","212","432412","0.0-87.0-3.0","","null","<div style='margin:auto;width: auto; font-size: 150%'><span style='font-weight: bold; font-size: 100px; color: green;'>+10 points!</span><br><br></div>","null","delaylearn","learning","feedback_image_window","62b6ded74322ef992b784ce0","fcrI4YZmoBTHc14l9PD0u6ERGqt1","","","","","","","","","","","","","","","","","","","","",""
"html-keyboard-response","213","434567","0.0-88.0","","null","<div style=""font-size:100px;"">+</div>","null","delaylearn","learning","ITI","62b6ded74322ef992b784ce0","fcrI4YZmoBTHc14l9PD0u6ERGqt1","","","","","","","","","","","","","","","","","","","2148","",""
"html-keyboard-response","214","435082","0.0-89.0-0.0","","512.3000000119209","<div style=""display: flex; flex-direction: column; align-items: center; margin-top: -40px;""><img src=""images/pattern_1.png"" style=""width: 234px; height: 230px; margin-top: -50px;""><div style=""display: flex; justify-content: space-between; margin-top: 33px;""><img src=""images/choice_trial_1.png"" style=""width: 408px; height: 417px; margin-right: 200px;""><img src=""images/choice_trial_9.png"" style=""width: 408px; height: 417px;""></div></div>","j","delaylearn","learning","trial","62b6ded74322ef992b784ce0","fcrI4YZmoBTHc14l9PD0u6ERGqt1","4","images/choice_trial_1.png","images/choice_trial_9.png","images/pattern_1.png","f","f","7000","1","9","1","0","39","0","0","9","150","","","","",""
"html-keyboard-response","215","436087","0.0-89.0-1.0","","null","<div style=""display: flex; flex-direction: column; align-items: center; margin-top: -40px;""><img src=""images/pattern_1.png"" style=""width: 234px; height: 230px; margin-top: -50px;""><div style=""display: flex; justify-content: space-between; margin-top: 33px;""><img src=""images/choice_trial_9.png"" style=""width: 408px; height: 417px; margin-left:608px;""></div></div>","null","delaylearn","learning","display_response","62b6ded74322ef992b784ce0","fcrI4YZmoBTHc14l9PD0u6ERGqt1","","","","","","","","","","","","","","","","","chosen stimuli: images/choice_trial_9.png","","","",""
"html-keyboard-response","216","443104","0.0-89.0-2.0","","null","","null","delaylearn","learning","feedback_duration_window","62b6ded74322ef992b784ce0","fcrI4YZmoBTHc14l9PD0u6ERGqt1","","","","","","","","","","","","","","","","","","7000","","",""
"html-keyboard-response","217","444611","0.0-89.0-3.0","","null","<div style='margin:auto;width: auto; font-size: 150%'><span style='font-weight: bold; font-size: 100px; color: red;'>0 points!</span><br><br></div>","null","delaylearn","learning","feedback_image_window","62b6ded74322ef992b784ce0","fcrI4YZmoBTHc14l9PD0u6ERGqt1","","","","","","","","","","","","","","","","","","","","",""
"html-keyboard-response","218","445112","0.0-90.0-0.0","","null","","null","","","mood_trial_fixation","","","","","","","","","","","","","","","","","","","","","","",""
"lmdlab-html-vas-response","219","449553","0.0-90.0-1.0","","3430","How happy are you right now?","0.8688271604938271","delaylearn","learning","mood_trial","62b6ded74322ef992b784ce0","fcrI4YZmoBTHc14l9PD0u6ERGqt1","","","","","","","","","","","","","","","","","","","","[""Very unhappy"",""Very happy""]",""
"html-keyboard-response","220","451210","0.0-91.0","","null","<div style=""font-size:100px;"">+</div>","null","delaylearn","learning","ITI","62b6ded74322ef992b784ce0","fcrI4YZmoBTHc14l9PD0u6ERGqt1","","","","","","","","","","","","","","","","","","","1639","",""
