"trial_type","trial_index","time_elapsed","internal_node_id","participant","rt","stimulus","response","exp_name","exp_stage","test_part","subjectID","databaseID","counterbal","choice_stimuli_1","choice_stimuli_2","pattern_stimuli","rewarded_answer","correct_answer","feedback_duration_times","stim_left","stim_right","pair","leftright_counter","trial","response_correct","response_rewarded","chosen_stim","counter","displayed_choice","feedback_durations","ITI_duration","labels","rest_warning"
"pavlovia","0","521","0.0-0.0","","","","","","","","","","","","","","","","","","","","","","","","","","","","","",""
"html-keyboard-response","1","3533","0.0-1.0","","null","<div style=""font-size:100px;"">+</div>","null","delaylearn","learning","pre_fixation","5f4839443d0cb52ec017448e","","","","","","","","","","","","","","","","","","","","","",""
"html-keyboard-response","2","4116","0.0-2.0-0.0","","579.5","<div style=""display: flex; flex-direction: column; align-items: center; margin-top: -40px;""><img src=""images/demo_images/pattern_1.png"" style=""width: 234px; height: 230px; margin-top: -50px;""><div style=""display: flex; justify-content: space-between; margin-top: 33px;""><img src=""images/demo_images/choice_trial_2.png"" style=""width: 408px; height: 417px; margin-right: 200px;""><img src=""images/demo_images/choice_trial_1.png"" style=""width: 408px; height: 417px;""></div></div>","j","delaylearn","learning","trial","5f4839443d0cb52ec017448e","7uCfc104cAOVao6EaYhu5HXcAFN2","2","images/demo_images/choice_trial_2.png","images/demo_images/choice_trial_1.png","images/demo_images/pattern_1.png","j","j","3000","2","1","20","1","1","1","1","1","10","","","","",""
"html-keyboard-response","3","5120","0.0-2.0-1.0","","null","<div style=""display: flex; flex-direction: column; align-items: center; margin-top: -40px;""><img src=""images/demo_images/pattern_1.png"" style=""width: 234px; height: 230px; margin-top: -50px;""><div style=""display: flex; justify-content: space-between; margin-top: 33px;""><img src=""images/demo_images/choice_trial_1.png"" style=""width: 408px; height: 417px; margin-left:608px;""></div></div>","null","delaylearn","learning","display_response","5f4839443d0cb52ec017448e","7uCfc104cAOVao6EaYhu5HXcAFN2","","","","","","","","","","","","","","","","","chosen stimuli: images/demo_images/choice_trial_1.png","","","",""
"html-keyboard-response","4","8123","0.0-2.0-2.0","","null","","null","delaylearn","learning","feedback_duration_window","5f4839443d0cb52ec017448e","7uCfc104cAOVao6EaYhu5HXcAFN2","","","","","","","","","","","","","","","","","","3000","","",""
"html-keyboard-response","5","9640","0.0-2.0-3.0","","null","<div style='margin:auto;width: auto; font-size: 150%'><span style='font-weight: bold; font-size: 100px; color: green;'>+10 points!</span><br><br></div>","null","delaylearn","learning","feedback_image_window","5f4839443d0cb52ec017448e","7uCfc104cAOVao6EaYhu5HXcAFN2","","","","","","","","","","","","","","","","","","","","",""
"html-keyboard-response","6","11911","0.0-3.0","","null","<div style=""font-size:100px;"">+</div>","null","delaylearn","learning","ITI","5f4839443d0cb52ec017448e","7uCfc104cAOVao6EaYhu5HXcAFN2","","","","","","","","","","","","","","","","","","","2267","",""
"html-keyboard-response","7","12556","0.0-4.0-0.0","","642.7999997138977","<div style=""display: flex; flex-direction: column; align-items: center; margin-top: -40px;""><img src=""images/demo_images/pattern_1.png"" style=""width: 234px; height: 230px; margin-top: -50px;""><div style=""display: flex; justify-content: space-between; margin-top: 33px;""><img src=""images/demo_images/choice_trial_2.png"" style=""width: 408px; height: 417px; margin-right: 200px;""><img src=""images/demo_images/choice_trial_1.png"" style=""width: 408px; height: 417px;""></div></div>","j","delaylearn","learning","trial","5f4839443d0cb52ec017448e","7uCfc104cAOVao6EaYhu5HXcAFN2","2","images/demo_images/choice_trial_2.png","images/demo_images/choice_trial_1.png","images/demo_images/pattern_1.png","j","j","3000","2","1","20","1","2","1","1","1","20","","","","",""
"html-keyboard-response","8","13574","0.0-4.0-1.0","","null","<div style=""display: flex; flex-direction: column; align-items: center; margin-top: -40px;""><img src=""images/demo_images/pattern_1.png"" style=""width: 234px; height: 230px; margin-top: -50px;""><div style=""display: flex; justify-content: space-between; margin-top: 33px;""><img src=""images/demo_images/choice_trial_1.png"" style=""width: 408px; height: 417px; margin-left:608px;""></div></div>","null","delaylearn","learning","display_response","5f4839443d0cb52ec017448e","7uCfc104cAOVao6EaYhu5HXcAFN2","","","","","","","","","","","","","","","","","chosen stimuli: images/demo_images/choice_trial_1.png","","","",""
"html-keyboard-response","9","16581","0.0-4.0-2.0","","null","","null","delaylearn","learning","feedback_duration_window","5f4839443d0cb52ec017448e","7uCfc104cAOVao6EaYhu5HXcAFN2","","","","","","","","","","","","","","","","","","3000","","",""
"html-keyboard-response","10","18090","0.0-4.0-3.0","","null","<div style='margin:auto;width: auto; font-size: 150%'><span style='font-weight: bold; font-size: 100px; color: green;'>+10 points!</span><br><br></div>","null","delaylearn","learning","feedback_image_window","5f4839443d0cb52ec017448e","7uCfc104cAOVao6EaYhu5HXcAFN2","","","","","","","","","","","","","","","","","","","","",""
"html-keyboard-response","11","20314","0.0-5.0","","null","<div style=""font-size:100px;"">+</div>","null","delaylearn","learning","ITI","5f4839443d0cb52ec017448e","7uCfc104cAOVao6EaYhu5HXcAFN2","","","","","","","","","","","","","","","","","","","2214","",""
"html-keyboard-response","12","21137","0.0-6.0-0.0","","820.7999997138977","<div style=""display: flex; flex-direction: column; align-items: center; margin-top: -40px;""><img src=""images/demo_images/pattern_1.png"" style=""width: 234px; height: 230px; margin-top: -50px;""><div style=""display: flex; justify-content: space-between; margin-top: 33px;""><img src=""images/demo_images/choice_trial_1.png"" style=""width: 408px; height: 417px; margin-right: 200px;""><img src=""images/demo_images/choice_trial_2.png"" style=""width: 408px; height: 417px;""></div></div>","f","delaylearn","learning","trial","5f4839443d0cb52ec017448e","7uCfc104cAOVao6EaYhu5HXcAFN2","2","images/demo_images/choice_trial_1.png","images/demo_images/choice_trial_2.png","images/demo_images/pattern_1.png","j","f","3000","1","2","20","0","3","1","0","1","20","","","","",""
"html-keyboard-response","13","22142","0.0-6.0-1.0","","null","<div style=""display: flex; flex-direction: column; align-items: center; margin-top: -40px;""><img src=""images/demo_images/pattern_1.png"" style=""width: 234px; height: 230px; margin-top: -50px;""><div style=""display: flex; justify-content: space-between; margin-top: 33px;""><img src=""images/demo_images/choice_trial_1.png"" style=""width: 408px; height: 417px; margin-right: 608px;""></div></div>","null","delaylearn","learning","display_response","5f4839443d0cb52ec017448e","7uCfc104cAOVao6EaYhu5HXcAFN2","","","","","","","","","","","","","","","","","chosen stimuli: images/demo_images/choice_trial_1.png","","","",""
"html-keyboard-response","14","25153","0.0-6.0-2.0","","null","","null","delaylearn","learning","feedback_duration_window","5f4839443d0cb52ec017448e","7uCfc104cAOVao6EaYhu5HXcAFN2","","","","","","","","","","","","","","","","","","3000","","",""
"html-keyboard-response","15","26657","0.0-6.0-3.0","","null","<div style='margin:auto;width: auto; font-size: 150%'><span style='font-weight: bold; font-size: 100px; color: red;'>0 points!</span><br><br></div>","null","delaylearn","learning","feedback_image_window","5f4839443d0cb52ec017448e","7uCfc104cAOVao6EaYhu5HXcAFN2","","","","","","","","","","","","","","","","","","","","",""
"html-keyboard-response","16","28769","0.0-7.0","","null","<div style=""font-size:100px;"">+</div>","null","delaylearn","learning","ITI","5f4839443d0cb52ec017448e","7uCfc104cAOVao6EaYhu5HXcAFN2","","","","","","","","","","","","","","","","","","","2101","",""
"html-keyboard-response","17","29384","0.0-8.0-0.0","","612.6999998092651","<div style=""display: flex; flex-direction: column; align-items: center; margin-top: -40px;""><img src=""images/demo_images/pattern_1.png"" style=""width: 234px; height: 230px; margin-top: -50px;""><div style=""display: flex; justify-content: space-between; margin-top: 33px;""><img src=""images/demo_images/choice_trial_1.png"" style=""width: 408px; height: 417px; margin-right: 200px;""><img src=""images/demo_images/choice_trial_2.png"" style=""width: 408px; height: 417px;""></div></div>","f","delaylearn","learning","trial","5f4839443d0cb52ec017448e","7uCfc104cAOVao6EaYhu5HXcAFN2","2","images/demo_images/choice_trial_1.png","images/demo_images/choice_trial_2.png","images/demo_images/pattern_1.png","f","f","3000","1","2","20","0","4","1","1","1","30","","","","",""
"html-keyboard-response","18","30388","0.0-8.0-1.0","","null","<div style=""display: flex; flex-direction: column; align-items: center; margin-top: -40px;""><img src=""images/demo_images/pattern_1.png"" style=""width: 234px; height: 230px; margin-top: -50px;""><div style=""display: flex; justify-content: space-between; margin-top: 33px;""><img src=""images/demo_images/choice_trial_1.png"" style=""width: 408px; height: 417px; margin-right: 608px;""></div></div>","null","delaylearn","learning","display_response","5f4839443d0cb52ec017448e","7uCfc104cAOVao6EaYhu5HXcAFN2","","","","","","","","","","","","","","","","","chosen stimuli: images/demo_images/choice_trial_1.png","","","",""
"html-keyboard-response","19","33389","0.0-8.0-2.0","","null","","null","delaylearn","learning","feedback_duration_window","5f4839443d0cb52ec017448e","7uCfc104cAOVao6EaYhu5HXcAFN2","","","","","","","","","","","","","","","","","","3000","","",""
"html-keyboard-response","20","34905","0.0-8.0-3.0","","null","<div style='margin:auto;width: auto; font-size: 150%'><span style='font-weight: bold; font-size: 100px; color: green;'>+10 points!</span><br><br></div>","null","delaylearn","learning","feedback_image_window","5f4839443d0cb52ec017448e","7uCfc104cAOVao6EaYhu5HXcAFN2","","","","","","","","","","","","","","","","","","","","",""
"html-keyboard-response","21","35417","0.0-9.0-0.0","","null","","null","","","mood_trial_fixation","","","","","","","","","","","","","","","","","","","","","","",""
"lmdlab-html-vas-response","22","41354","0.0-9.0-1.0","","4922","How happy are you right now?","0.5578703703703703","delaylearn","learning","mood_trial","5f4839443d0cb52ec017448e","7uCfc104cAOVao6EaYhu5HXcAFN2","","","","","","","","","","","","","","","","","","","","[""Very unhappy"",""Very happy""]",""
"html-keyboard-response","23","43124","0.0-10.0","","null","<div style=""font-size:100px;"">+</div>","null","delaylearn","learning","ITI","5f4839443d0cb52ec017448e","7uCfc104cAOVao6EaYhu5HXcAFN2","","","","","","","","","","","","","","","","","","","1767","",""
"html-keyboard-response","24","43929","0.0-11.0-0.0","","803.0999999046326","<div style=""display: flex; flex-direction: column; align-items: center; margin-top: -40px;""><img src=""images/demo_images/pattern_1.png"" style=""width: 234px; height: 230px; margin-top: -50px;""><div style=""display: flex; justify-content: space-between; margin-top: 33px;""><img src=""images/demo_images/choice_trial_2.png"" style=""width: 408px; height: 417px; margin-right: 200px;""><img src=""images/demo_images/choice_trial_1.png"" style=""width: 408px; height: 417px;""></div></div>","j","delaylearn","learning","trial","5f4839443d0cb52ec017448e","7uCfc104cAOVao6EaYhu5HXcAFN2","2","images/demo_images/choice_trial_2.png","images/demo_images/choice_trial_1.png","images/demo_images/pattern_1.png","j","j","3000","2","1","20","1","5","1","1","1","40","","","","",""
"html-keyboard-response","25","44940","0.0-11.0-1.0","","null","<div style=""display: flex; flex-direction: column; align-items: center; margin-top: -40px;""><img src=""images/demo_images/pattern_1.png"" style=""width: 234px; height: 230px; margin-top: -50px;""><div style=""display: flex; justify-content: space-between; margin-top: 33px;""><img src=""images/demo_images/choice_trial_1.png"" style=""width: 408px; height: 417px; margin-left:608px;""></div></div>","null","delaylearn","learning","display_response","5f4839443d0cb52ec017448e","7uCfc104cAOVao6EaYhu5HXcAFN2","","","","","","","","","","","","","","","","","chosen stimuli: images/demo_images/choice_trial_1.png","","","",""
"html-keyboard-response","26","47944","0.0-11.0-2.0","","null","","null","delaylearn","learning","feedback_duration_window","5f4839443d0cb52ec017448e","7uCfc104cAOVao6EaYhu5HXcAFN2","","","","","","","","","","","","","","","","","","3000","","",""
"html-keyboard-response","27","49459","0.0-11.0-3.0","","null","<div style='margin:auto;width: auto; font-size: 150%'><span style='font-weight: bold; font-size: 100px; color: green;'>+10 points!</span><br><br></div>","null","delaylearn","learning","feedback_image_window","5f4839443d0cb52ec017448e","7uCfc104cAOVao6EaYhu5HXcAFN2","","","","","","","","","","","","","","","","","","","","",""
"html-keyboard-response","28","51067","0.0-12.0","","null","<div style=""font-size:100px;"">+</div>","null","delaylearn","learning","ITI","5f4839443d0cb52ec017448e","7uCfc104cAOVao6EaYhu5HXcAFN2","","","","","","","","","","","","","","","","","","","1602","",""
"html-keyboard-response","29","51946","0.0-13.0-0.0","","876.8000001907349","<div style=""display: flex; flex-direction: column; align-items: center; margin-top: -40px;""><img src=""images/demo_images/pattern_1.png"" style=""width: 234px; height: 230px; margin-top: -50px;""><div style=""display: flex; justify-content: space-between; margin-top: 33px;""><img src=""images/demo_images/choice_trial_1.png"" style=""width: 408px; height: 417px; margin-right: 200px;""><img src=""images/demo_images/choice_trial_2.png"" style=""width: 408px; height: 417px;""></div></div>","f","delaylearn","learning","trial","5f4839443d0cb52ec017448e","7uCfc104cAOVao6EaYhu5HXcAFN2","2","images/demo_images/choice_trial_1.png","images/demo_images/choice_trial_2.png","images/demo_images/pattern_1.png","f","f","3000","1","2","20","0","6","1","1","1","50","","","","",""
"html-keyboard-response","30","52954","0.0-13.0-1.0","","null","<div style=""display: flex; flex-direction: column; align-items: center; margin-top: -40px;""><img src=""images/demo_images/pattern_1.png"" style=""width: 234px; height: 230px; margin-top: -50px;""><div style=""display: flex; justify-content: space-between; margin-top: 33px;""><img src=""images/demo_images/choice_trial_1.png"" style=""width: 408px; height: 417px; margin-right: 608px;""></div></div>","null","delaylearn","learning","display_response","5f4839443d0cb52ec017448e","7uCfc104cAOVao6EaYhu5HXcAFN2","","","","","","","","","","","","","","","","","chosen stimuli: images/demo_images/choice_trial_1.png","","","",""
"html-keyboard-response","31","55965","0.0-13.0-2.0","","null","","null","delaylearn","learning","feedback_duration_window","5f4839443d0cb52ec017448e","7uCfc104cAOVao6EaYhu5HXcAFN2","","","","","","","","","","","","","","","","","","3000","","",""
"html-keyboard-response","32","57474","0.0-13.0-3.0","","null","<div style='margin:auto;width: auto; font-size: 150%'><span style='font-weight: bold; font-size: 100px; color: green;'>+10 points!</span><br><br></div>","null","delaylearn","learning","feedback_image_window","5f4839443d0cb52ec017448e","7uCfc104cAOVao6EaYhu5HXcAFN2","","","","","","","","","","","","","","","","","","","","",""
"html-keyboard-response","33","59848","0.0-14.0","","null","<div style=""font-size:100px;"">+</div>","null","delaylearn","learning","ITI","5f4839443d0cb52ec017448e","7uCfc104cAOVao6EaYhu5HXcAFN2","","","","","","","","","","","","","","","","","","","2365","",""
"html-keyboard-response","34","60416","0.0-15.0-0.0","","567.1999998092651","<div style=""display: flex; flex-direction: column; align-items: center; margin-top: -40px;""><img src=""images/demo_images/pattern_1.png"" style=""width: 234px; height: 230px; margin-top: -50px;""><div style=""display: flex; justify-content: space-between; margin-top: 33px;""><img src=""images/demo_images/choice_trial_2.png"" style=""width: 408px; height: 417px; margin-right: 200px;""><img src=""images/demo_images/choice_trial_1.png"" style=""width: 408px; height: 417px;""></div></div>","j","delaylearn","learning","trial","5f4839443d0cb52ec017448e","7uCfc104cAOVao6EaYhu5HXcAFN2","2","images/demo_images/choice_trial_2.png","images/demo_images/choice_trial_1.png","images/demo_images/pattern_1.png","j","j","3000","2","1","20","1","7","1","1","1","60","","","","",""
"html-keyboard-response","35","61421","0.0-15.0-1.0","","null","<div style=""display: flex; flex-direction: column; align-items: center; margin-top: -40px;""><img src=""images/demo_images/pattern_1.png"" style=""width: 234px; height: 230px; margin-top: -50px;""><div style=""display: flex; justify-content: space-between; margin-top: 33px;""><img src=""images/demo_images/choice_trial_1.png"" style=""width: 408px; height: 417px; margin-left:608px;""></div></div>","null","delaylearn","learning","display_response","5f4839443d0cb52ec017448e","7uCfc104cAOVao6EaYhu5HXcAFN2","","","","","","","","","","","","","","","","","chosen stimuli: images/demo_images/choice_trial_1.png","","","",""
"html-keyboard-response","36","64434","0.0-15.0-2.0","","null","","null","delaylearn","learning","feedback_duration_window","5f4839443d0cb52ec017448e","7uCfc104cAOVao6EaYhu5HXcAFN2","","","","","","","","","","","","","","","","","","3000","","",""
"html-keyboard-response","37","65939","0.0-15.0-3.0","","null","<div style='margin:auto;width: auto; font-size: 150%'><span style='font-weight: bold; font-size: 100px; color: green;'>+10 points!</span><br><br></div>","null","delaylearn","learning","feedback_image_window","5f4839443d0cb52ec017448e","7uCfc104cAOVao6EaYhu5HXcAFN2","","","","","","","","","","","","","","","","","","","","",""
"html-keyboard-response","38","68067","0.0-16.0","","null","<div style=""font-size:100px;"">+</div>","null","delaylearn","learning","ITI","5f4839443d0cb52ec017448e","7uCfc104cAOVao6EaYhu5HXcAFN2","","","","","","","","","","","","","","","","","","","2113","",""
"html-keyboard-response","39","68927","0.0-17.0-0.0","","857.6999998092651","<div style=""display: flex; flex-direction: column; align-items: center; margin-top: -40px;""><img src=""images/demo_images/pattern_1.png"" style=""width: 234px; height: 230px; margin-top: -50px;""><div style=""display: flex; justify-content: space-between; margin-top: 33px;""><img src=""images/demo_images/choice_trial_1.png"" style=""width: 408px; height: 417px; margin-right: 200px;""><img src=""images/demo_images/choice_trial_2.png"" style=""width: 408px; height: 417px;""></div></div>","f","delaylearn","learning","trial","5f4839443d0cb52ec017448e","7uCfc104cAOVao6EaYhu5HXcAFN2","2","images/demo_images/choice_trial_1.png","images/demo_images/choice_trial_2.png","images/demo_images/pattern_1.png","f","f","3000","1","2","20","0","8","1","1","1","70","","","","",""
"html-keyboard-response","40","69939","0.0-17.0-1.0","","null","<div style=""display: flex; flex-direction: column; align-items: center; margin-top: -40px;""><img src=""images/demo_images/pattern_1.png"" style=""width: 234px; height: 230px; margin-top: -50px;""><div style=""display: flex; justify-content: space-between; margin-top: 33px;""><img src=""images/demo_images/choice_trial_1.png"" style=""width: 408px; height: 417px; margin-right: 608px;""></div></div>","null","delaylearn","learning","display_response","5f4839443d0cb52ec017448e","7uCfc104cAOVao6EaYhu5HXcAFN2","","","","","","","","","","","","","","","","","chosen stimuli: images/demo_images/choice_trial_1.png","","","",""
"html-keyboard-response","41","72946","0.0-17.0-2.0","","null","","null","delaylearn","learning","feedback_duration_window","5f4839443d0cb52ec017448e","7uCfc104cAOVao6EaYhu5HXcAFN2","","","","","","","","","","","","","","","","","","3000","","",""
"html-keyboard-response","42","74457","0.0-17.0-3.0","","null","<div style='margin:auto;width: auto; font-size: 150%'><span style='font-weight: bold; font-size: 100px; color: green;'>+10 points!</span><br><br></div>","null","delaylearn","learning","feedback_image_window","5f4839443d0cb52ec017448e","7uCfc104cAOVao6EaYhu5HXcAFN2","","","","","","","","","","","","","","","","","","","","",""
"html-button-response","43","77798","0.0-18.0","","3339.800000190735","
  <div style=""display: flex; align-items: center; justify-content: center; height: 80vh;"">
  <div>
          <img src=""images/inst_demo_finish.png"" style=""width: 80vw; height:auto;"">
          <br><br>
      </div>
      <br><br>
  </div>","0","","","","","","","","","","","","","","","","","","","","","","","","","",""
"html-keyboard-response","44","84895","0.0-19.0","","7096.199999809265","
  <div style=""display: flex; align-items: center; justify-content: center; height: 80vh;"">
  <div>
          <img src=""images/inst_6.png"" style=""width: 80vw; height:auto;"">
          <br><br>
      </div>
      <br><br>
  </div>","j","","","","","","","","","","","","","","","","","","","","","","","","","",""
"html-keyboard-response","45","87899","0.0-20.0","","null","<div style=""font-size:100px;"">+</div>","null","delaylearn","learning","pre_fixation","5f4839443d0cb52ec017448e","","","","","","","","","","","","","","","","","","","","","",""
"html-keyboard-response","46","89671","0.0-21.0","","null","<div style=""font-size:100px;"">+</div>","null","delaylearn","learning","ITI","5f4839443d0cb52ec017448e","7uCfc104cAOVao6EaYhu5HXcAFN2","","","","","","","","","","","","","","","","","","","1763","",""
"html-keyboard-response","47","90338","0.0-22.0-0.0","","664.8000001907349","<div style=""display: flex; flex-direction: column; align-items: center; margin-top: -40px;""><img src=""images/pattern_3.png"" style=""width: 234px; height: 230px; margin-top: -50px;""><div style=""display: flex; justify-content: space-between; margin-top: 33px;""><img src=""images/choice_trial_12.png"" style=""width: 408px; height: 417px; margin-right: 200px;""><img src=""images/choice_trial_14.png"" style=""width: 408px; height: 417px;""></div></div>","j","delaylearn","learning","trial","5f4839443d0cb52ec017448e","7uCfc104cAOVao6EaYhu5HXcAFN2","2","images/choice_trial_12.png","images/choice_trial_14.png","images/pattern_3.png","f","f","7000","12","14","2","0","9","0","0","14","70","","","","",""
"html-keyboard-response","48","91353","0.0-22.0-1.0","","null","<div style=""display: flex; flex-direction: column; align-items: center; margin-top: -40px;""><img src=""images/pattern_3.png"" style=""width: 234px; height: 230px; margin-top: -50px;""><div style=""display: flex; justify-content: space-between; margin-top: 33px;""><img src=""images/choice_trial_14.png"" style=""width: 408px; height: 417px; margin-left:608px;""></div></div>","null","delaylearn","learning","display_response","5f4839443d0cb52ec017448e","7uCfc104cAOVao6EaYhu5HXcAFN2","","","","","","","","","","","","","","","","","chosen stimuli: images/choice_trial_14.png","","","",""
"html-keyboard-response","49","98367","0.0-22.0-2.0","","null","","null","delaylearn","learning","feedback_duration_window","5f4839443d0cb52ec017448e","7uCfc104cAOVao6EaYhu5HXcAFN2","","","","","","","","","","","","","","","","","","7000","","",""
"html-keyboard-response","50","99875","0.0-22.0-3.0","","null","<div style='margin:auto;width: auto; font-size: 150%'><span style='font-weight: bold; font-size: 100px; color: red;'>0 points!</span><br><br></div>","null","delaylearn","learning","feedback_image_window","5f4839443d0cb52ec017448e","7uCfc104cAOVao6EaYhu5HXcAFN2","","","","","","","","","","","","","","","","","","","","",""
"html-keyboard-response","51","101670","0.0-23.0","","null","<div style=""font-size:100px;"">+</div>","null","delaylearn","learning","ITI","5f4839443d0cb52ec017448e","7uCfc104cAOVao6EaYhu5HXcAFN2","","","","","","","","","","","","","","","","","","","1791","",""
"html-keyboard-response","52","103022","0.0-24.0-0.0","","1349.4000000953674","<div style=""display: flex; flex-direction: column; align-items: center; margin-top: -40px;""><img src=""images/pattern_7.png"" style=""width: 234px; height: 230px; margin-top: -50px;""><div style=""display: flex; justify-content: space-between; margin-top: 33px;""><img src=""images/choice_trial_15.png"" style=""width: 408px; height: 417px; margin-right: 200px;""><img src=""images/choice_trial_8.png"" style=""width: 408px; height: 417px;""></div></div>","j","delaylearn","learning","trial","5f4839443d0cb52ec017448e","7uCfc104cAOVao6EaYhu5HXcAFN2","2","images/choice_trial_15.png","images/choice_trial_8.png","images/pattern_7.png","j","j","750","15","8","6","1","10","1","1","8","80","","","","",""
"html-keyboard-response","53","104035","0.0-24.0-1.0","","null","<div style=""display: flex; flex-direction: column; align-items: center; margin-top: -40px;""><img src=""images/pattern_7.png"" style=""width: 234px; height: 230px; margin-top: -50px;""><div style=""display: flex; justify-content: space-between; margin-top: 33px;""><img src=""images/choice_trial_8.png"" style=""width: 408px; height: 417px; margin-left:608px;""></div></div>","null","delaylearn","learning","display_response","5f4839443d0cb52ec017448e","7uCfc104cAOVao6EaYhu5HXcAFN2","","","","","","","","","","","","","","","","","chosen stimuli: images/choice_trial_8.png","","","",""
"html-keyboard-response","54","104799","0.0-24.0-2.0","","null","","null","delaylearn","learning","feedback_duration_window","5f4839443d0cb52ec017448e","7uCfc104cAOVao6EaYhu5HXcAFN2","","","","","","","","","","","","","","","","","","750","","",""
"html-keyboard-response","55","106306","0.0-24.0-3.0","","null","<div style='margin:auto;width: auto; font-size: 150%'><span style='font-weight: bold; font-size: 100px; color: green;'>+10 points!</span><br><br></div>","null","delaylearn","learning","feedback_image_window","5f4839443d0cb52ec017448e","7uCfc104cAOVao6EaYhu5HXcAFN2","","","","","","","","","","","","","","","","","","","","",""
"html-keyboard-response","56","108328","0.0-25.0","","null","<div style=""font-size:100px;"">+</div>","null","delaylearn","learning","ITI","5f4839443d0cb52ec017448e","7uCfc104cAOVao6EaYhu5HXcAFN2","","","","","","","","","","","","","","","","","","","2018","",""
"html-keyboard-response","57","109476","0.0-26.0-0.0","","1147.0999999046326","<div style=""display: flex; flex-direction: column; align-items: center; margin-top: -40px;""><img src=""images/pattern_4.png"" style=""width: 234px; height: 230px; margin-top: -50px;""><div style=""display: flex; justify-content: space-between; margin-top: 33px;""><img src=""images/choice_trial_4.png"" style=""width: 408px; height: 417px; margin-right: 200px;""><img src=""images/choice_trial_16.png"" style=""width: 408px; height: 417px;""></div></div>","f","delaylearn","learning","trial","5f4839443d0cb52ec017448e","7uCfc104cAOVao6EaYhu5HXcAFN2","2","images/choice_trial_4.png","images/choice_trial_16.png","images/pattern_4.png","f","f","7000","4","16","3","0","11","1","1","4","90","","","","",""
"html-keyboard-response","58","110486","0.0-26.0-1.0","","null","<div style=""display: flex; flex-direction: column; align-items: center; margin-top: -40px;""><img src=""images/pattern_4.png"" style=""width: 234px; height: 230px; margin-top: -50px;""><div style=""display: flex; justify-content: space-between; margin-top: 33px;""><img src=""images/choice_trial_4.png"" style=""width: 408px; height: 417px; margin-right: 608px;""></div></div>","null","delaylearn","learning","display_response","5f4839443d0cb52ec017448e","7uCfc104cAOVao6EaYhu5HXcAFN2","","","","","","","","","","","","","","","","","chosen stimuli: images/choice_trial_4.png","","","",""
"html-keyboard-response","59","117489","0.0-26.0-2.0","","null","","null","delaylearn","learning","feedback_duration_window","5f4839443d0cb52ec017448e","7uCfc104cAOVao6EaYhu5HXcAFN2","","","","","","","","","","","","","","","","","","7000","","",""
"html-keyboard-response","60","118993","0.0-26.0-3.0","","null","<div style='margin:auto;width: auto; font-size: 150%'><span style='font-weight: bold; font-size: 100px; color: green;'>+10 points!</span><br><br></div>","null","delaylearn","learning","feedback_image_window","5f4839443d0cb52ec017448e","7uCfc104cAOVao6EaYhu5HXcAFN2","","","","","","","","","","","","","","","","","","","","",""
"html-keyboard-response","61","120787","0.0-27.0","","null","<div style=""font-size:100px;"">+</div>","null","delaylearn","learning","ITI","5f4839443d0cb52ec017448e","7uCfc104cAOVao6EaYhu5HXcAFN2","","","","","","","","","","","","","","","","","","","1779","",""
"html-keyboard-response","62","121656","0.0-28.0-0.0","","866.1999998092651","<div style=""display: flex; flex-direction: column; align-items: center; margin-top: -40px;""><img src=""images/pattern_5.png"" style=""width: 234px; height: 230px; margin-top: -50px;""><div style=""display: flex; justify-content: space-between; margin-top: 33px;""><img src=""images/choice_trial_9.png"" style=""width: 408px; height: 417px; margin-right: 200px;""><img src=""images/choice_trial_2.png"" style=""width: 408px; height: 417px;""></div></div>","f","delaylearn","learning","trial","5f4839443d0cb52ec017448e","7uCfc104cAOVao6EaYhu5HXcAFN2","2","images/choice_trial_9.png","images/choice_trial_2.png","images/pattern_5.png","j","j","750","9","2","4","1","12","0","0","9","90","","","","",""
"html-keyboard-response","63","122667","0.0-28.0-1.0","","null","<div style=""display: flex; flex-direction: column; align-items: center; margin-top: -40px;""><img src=""images/pattern_5.png"" style=""width: 234px; height: 230px; margin-top: -50px;""><div style=""display: flex; justify-content: space-between; margin-top: 33px;""><img src=""images/choice_trial_9.png"" style=""width: 408px; height: 417px; margin-right: 608px;""></div></div>","null","delaylearn","learning","display_response","5f4839443d0cb52ec017448e","7uCfc104cAOVao6EaYhu5HXcAFN2","","","","","","","","","","","","","","","","","chosen stimuli: images/choice_trial_9.png","","","",""
"html-keyboard-response","64","123419","0.0-28.0-2.0","","null","","null","delaylearn","learning","feedback_duration_window","5f4839443d0cb52ec017448e","7uCfc104cAOVao6EaYhu5HXcAFN2","","","","","","","","","","","","","","","","","","750","","",""
"html-keyboard-response","65","124924","0.0-28.0-3.0","","null","<div style='margin:auto;width: auto; font-size: 150%'><span style='font-weight: bold; font-size: 100px; color: red;'>0 points!</span><br><br></div>","null","delaylearn","learning","feedback_image_window","5f4839443d0cb52ec017448e","7uCfc104cAOVao6EaYhu5HXcAFN2","","","","","","","","","","","","","","","","","","","","",""
"html-keyboard-response","66","126972","0.0-29.0","","null","<div style=""font-size:100px;"">+</div>","null","delaylearn","learning","ITI","5f4839443d0cb52ec017448e","7uCfc104cAOVao6EaYhu5HXcAFN2","","","","","","","","","","","","","","","","","","","2042","",""
"html-keyboard-response","67","127940","0.0-30.0-0.0","","965.4000000953674","<div style=""display: flex; flex-direction: column; align-items: center; margin-top: -40px;""><img src=""images/pattern_6.png"" style=""width: 234px; height: 230px; margin-top: -50px;""><div style=""display: flex; justify-content: space-between; margin-top: 33px;""><img src=""images/choice_trial_11.png"" style=""width: 408px; height: 417px; margin-right: 200px;""><img src=""images/choice_trial_5.png"" style=""width: 408px; height: 417px;""></div></div>","j","delaylearn","learning","trial","5f4839443d0cb52ec017448e","7uCfc104cAOVao6EaYhu5HXcAFN2","2","images/choice_trial_11.png","images/choice_trial_5.png","images/pattern_6.png","j","f","750","11","5","5","0","13","0","1","5","100","","","","",""
"html-keyboard-response","68","128952","0.0-30.0-1.0","","null","<div style=""display: flex; flex-direction: column; align-items: center; margin-top: -40px;""><img src=""images/pattern_6.png"" style=""width: 234px; height: 230px; margin-top: -50px;""><div style=""display: flex; justify-content: space-between; margin-top: 33px;""><img src=""images/choice_trial_5.png"" style=""width: 408px; height: 417px; margin-left:608px;""></div></div>","null","delaylearn","learning","display_response","5f4839443d0cb52ec017448e","7uCfc104cAOVao6EaYhu5HXcAFN2","","","","","","","","","","","","","","","","","chosen stimuli: images/choice_trial_5.png","","","",""
"html-keyboard-response","69","129718","0.0-30.0-2.0","","null","","null","delaylearn","learning","feedback_duration_window","5f4839443d0cb52ec017448e","7uCfc104cAOVao6EaYhu5HXcAFN2","","","","","","","","","","","","","","","","","","750","","",""
"html-keyboard-response","70","131224","0.0-30.0-3.0","","null","<div style='margin:auto;width: auto; font-size: 150%'><span style='font-weight: bold; font-size: 100px; color: green;'>+10 points!</span><br><br></div>","null","delaylearn","learning","feedback_image_window","5f4839443d0cb52ec017448e","7uCfc104cAOVao6EaYhu5HXcAFN2","","","","","","","","","","","","","","","","","","","","",""
"html-keyboard-response","71","131734","0.0-31.0-0.0","","null","","null","","","mood_trial_fixation","","","","","","","","","","","","","","","","","","","","","","",""
"lmdlab-html-vas-response","72","134996","0.0-31.0-1.0","","2246","How happy are you right now?","0.4375","delaylearn","learning","mood_trial","5f4839443d0cb52ec017448e","7uCfc104cAOVao6EaYhu5HXcAFN2","","","","","","","","","","","","","","","","","","","","[""Very unhappy"",""Very happy""]",""
"html-keyboard-response","73","137154","0.0-32.0","","null","<div style=""font-size:100px;"">+</div>","null","delaylearn","learning","ITI","5f4839443d0cb52ec017448e","7uCfc104cAOVao6EaYhu5HXcAFN2","","","","","","","","","","","","","","","","","","","2152","",""
"html-keyboard-response","74","137951","0.0-33.0-0.0","","795","<div style=""display: flex; flex-direction: column; align-items: center; margin-top: -40px;""><img src=""images/pattern_1.png"" style=""width: 234px; height: 230px; margin-top: -50px;""><div style=""display: flex; justify-content: space-between; margin-top: 33px;""><img src=""images/choice_trial_10.png"" style=""width: 408px; height: 417px; margin-right: 200px;""><img src=""images/choice_trial_3.png"" style=""width: 408px; height: 417px;""></div></div>","j","delaylearn","learning","trial","5f4839443d0cb52ec017448e","7uCfc104cAOVao6EaYhu5HXcAFN2","2","images/choice_trial_10.png","images/choice_trial_3.png","images/pattern_1.png","j","j","7000","10","3","1","1","14","1","1","3","110","","","","",""
"html-keyboard-response","75","138968","0.0-33.0-1.0","","null","<div style=""display: flex; flex-direction: column; align-items: center; margin-top: -40px;""><img src=""images/pattern_1.png"" style=""width: 234px; height: 230px; margin-top: -50px;""><div style=""display: flex; justify-content: space-between; margin-top: 33px;""><img src=""images/choice_trial_3.png"" style=""width: 408px; height: 417px; margin-left:608px;""></div></div>","null","delaylearn","learning","display_response","5f4839443d0cb52ec017448e","7uCfc104cAOVao6EaYhu5HXcAFN2","","","","","","","","","","","","","","","","","chosen stimuli: images/choice_trial_3.png","","","",""
"html-keyboard-response","76","145972","0.0-33.0-2.0","","null","","null","delaylearn","learning","feedback_duration_window","5f4839443d0cb52ec017448e","7uCfc104cAOVao6EaYhu5HXcAFN2","","","","","","","","","","","","","","","","","","7000","","",""
"html-keyboard-response","77","147490","0.0-33.0-3.0","","null","<div style='margin:auto;width: auto; font-size: 150%'><span style='font-weight: bold; font-size: 100px; color: green;'>+10 points!</span><br><br></div>","null","delaylearn","learning","feedback_image_window","5f4839443d0cb52ec017448e","7uCfc104cAOVao6EaYhu5HXcAFN2","","","","","","","","","","","","","","","","","","","","",""
"html-keyboard-response","78","149572","0.0-34.0","","null","<div style=""font-size:100px;"">+</div>","null","delaylearn","learning","ITI","5f4839443d0cb52ec017448e","7uCfc104cAOVao6EaYhu5HXcAFN2","","","","","","","","","","","","","","","","","","","2072","",""
"html-keyboard-response","79","150293","0.0-35.0-0.0","","719.3000001907349","<div style=""display: flex; flex-direction: column; align-items: center; margin-top: -40px;""><img src=""images/pattern_3.png"" style=""width: 234px; height: 230px; margin-top: -50px;""><div style=""display: flex; justify-content: space-between; margin-top: 33px;""><img src=""images/choice_trial_14.png"" style=""width: 408px; height: 417px; margin-right: 200px;""><img src=""images/choice_trial_12.png"" style=""width: 408px; height: 417px;""></div></div>","j","delaylearn","learning","trial","5f4839443d0cb52ec017448e","7uCfc104cAOVao6EaYhu5HXcAFN2","2","images/choice_trial_14.png","images/choice_trial_12.png","images/pattern_3.png","f","j","7000","14","12","2","1","15","1","0","12","110","","","","",""
"html-keyboard-response","80","151299","0.0-35.0-1.0","","null","<div style=""display: flex; flex-direction: column; align-items: center; margin-top: -40px;""><img src=""images/pattern_3.png"" style=""width: 234px; height: 230px; margin-top: -50px;""><div style=""display: flex; justify-content: space-between; margin-top: 33px;""><img src=""images/choice_trial_12.png"" style=""width: 408px; height: 417px; margin-left:608px;""></div></div>","null","delaylearn","learning","display_response","5f4839443d0cb52ec017448e","7uCfc104cAOVao6EaYhu5HXcAFN2","","","","","","","","","","","","","","","","","chosen stimuli: images/choice_trial_12.png","","","",""
"html-keyboard-response","81","158308","0.0-35.0-2.0","","null","","null","delaylearn","learning","feedback_duration_window","5f4839443d0cb52ec017448e","7uCfc104cAOVao6EaYhu5HXcAFN2","","","","","","","","","","","","","","","","","","7000","","",""
"html-keyboard-response","82","159820","0.0-35.0-3.0","","null","<div style='margin:auto;width: auto; font-size: 150%'><span style='font-weight: bold; font-size: 100px; color: red;'>0 points!</span><br><br></div>","null","delaylearn","learning","feedback_image_window","5f4839443d0cb52ec017448e","7uCfc104cAOVao6EaYhu5HXcAFN2","","","","","","","","","","","","","","","","","","","","",""
"html-keyboard-response","83","161666","0.0-36.0","","null","<div style=""font-size:100px;"">+</div>","null","delaylearn","learning","ITI","5f4839443d0cb52ec017448e","7uCfc104cAOVao6EaYhu5HXcAFN2","","","","","","","","","","","","","","","","","","","1835","",""
"html-keyboard-response","84","162597","0.0-37.0-0.0","","928","<div style=""display: flex; flex-direction: column; align-items: center; margin-top: -40px;""><img src=""images/pattern_5.png"" style=""width: 234px; height: 230px; margin-top: -50px;""><div style=""display: flex; justify-content: space-between; margin-top: 33px;""><img src=""images/choice_trial_2.png"" style=""width: 408px; height: 417px; margin-right: 200px;""><img src=""images/choice_trial_9.png"" style=""width: 408px; height: 417px;""></div></div>","j","delaylearn","learning","trial","5f4839443d0cb52ec017448e","7uCfc104cAOVao6EaYhu5HXcAFN2","2","images/choice_trial_2.png","images/choice_trial_9.png","images/pattern_5.png","f","f","750","2","9","4","0","16","0","0","9","110","","","","",""
"html-keyboard-response","85","163603","0.0-37.0-1.0","","null","<div style=""display: flex; flex-direction: column; align-items: center; margin-top: -40px;""><img src=""images/pattern_5.png"" style=""width: 234px; height: 230px; margin-top: -50px;""><div style=""display: flex; justify-content: space-between; margin-top: 33px;""><img src=""images/choice_trial_9.png"" style=""width: 408px; height: 417px; margin-left:608px;""></div></div>","null","delaylearn","learning","display_response","5f4839443d0cb52ec017448e","7uCfc104cAOVao6EaYhu5HXcAFN2","","","","","","","","","","","","","","","","","chosen stimuli: images/choice_trial_9.png","","","",""
"html-keyboard-response","86","164365","0.0-37.0-2.0","","null","","null","delaylearn","learning","feedback_duration_window","5f4839443d0cb52ec017448e","7uCfc104cAOVao6EaYhu5HXcAFN2","","","","","","","","","","","","","","","","","","750","","",""
"html-keyboard-response","87","165870","0.0-37.0-3.0","","null","<div style='margin:auto;width: auto; font-size: 150%'><span style='font-weight: bold; font-size: 100px; color: red;'>0 points!</span><br><br></div>","null","delaylearn","learning","feedback_image_window","5f4839443d0cb52ec017448e","7uCfc104cAOVao6EaYhu5HXcAFN2","","","","","","","","","","","","","","","","","","","","",""
"html-keyboard-response","88","166380","0.0-38.0-0.0","","null","","null","","","mood_trial_fixation","","","","","","","","","","","","","","","","","","","","","","",""
"lmdlab-html-vas-response","89","171534","0.0-38.0-1.0","","4150","How happy are you right now?","0.5462962962962963","delaylearn","learning","mood_trial","5f4839443d0cb52ec017448e","7uCfc104cAOVao6EaYhu5HXcAFN2","","","","","","","","","","","","","","","","","","","","[""Very unhappy"",""Very happy""]",""
"html-keyboard-response","90","173918","0.0-39.0","","null","<div style=""font-size:100px;"">+</div>","null","delaylearn","learning","ITI","5f4839443d0cb52ec017448e","7uCfc104cAOVao6EaYhu5HXcAFN2","","","","","","","","","","","","","","","","","","","2379","",""
"html-keyboard-response","91","174762","0.0-40.0-0.0","","840.9000000953674","<div style=""display: flex; flex-direction: column; align-items: center; margin-top: -40px;""><img src=""images/pattern_6.png"" style=""width: 234px; height: 230px; margin-top: -50px;""><div style=""display: flex; justify-content: space-between; margin-top: 33px;""><img src=""images/choice_trial_11.png"" style=""width: 408px; height: 417px; margin-right: 200px;""><img src=""images/choice_trial_5.png"" style=""width: 408px; height: 417px;""></div></div>","j","delaylearn","learning","trial","5f4839443d0cb52ec017448e","7uCfc104cAOVao6EaYhu5HXcAFN2","2","images/choice_trial_11.png","images/choice_trial_5.png","images/pattern_6.png","f","f","750","11","5","5","0","17","0","0","5","110","","","","",""
"html-keyboard-response","92","175769","0.0-40.0-1.0","","null","<div style=""display: flex; flex-direction: column; align-items: center; margin-top: -40px;""><img src=""images/pattern_6.png"" style=""width: 234px; height: 230px; margin-top: -50px;""><div style=""display: flex; justify-content: space-between; margin-top: 33px;""><img src=""images/choice_trial_5.png"" style=""width: 408px; height: 417px; margin-left:608px;""></div></div>","null","delaylearn","learning","display_response","5f4839443d0cb52ec017448e","7uCfc104cAOVao6EaYhu5HXcAFN2","","","","","","","","","","","","","","","","","chosen stimuli: images/choice_trial_5.png","","","",""
"html-keyboard-response","93","176535","0.0-40.0-2.0","","null","","null","delaylearn","learning","feedback_duration_window","5f4839443d0cb52ec017448e","7uCfc104cAOVao6EaYhu5HXcAFN2","","","","","","","","","","","","","","","","","","750","","",""
"html-keyboard-response","94","178037","0.0-40.0-3.0","","null","<div style='margin:auto;width: auto; font-size: 150%'><span style='font-weight: bold; font-size: 100px; color: red;'>0 points!</span><br><br></div>","null","delaylearn","learning","feedback_image_window","5f4839443d0cb52ec017448e","7uCfc104cAOVao6EaYhu5HXcAFN2","","","","","","","","","","","","","","","","","","","","",""
"html-keyboard-response","95","180084","0.0-41.0","","null","<div style=""font-size:100px;"">+</div>","null","delaylearn","learning","ITI","5f4839443d0cb52ec017448e","7uCfc104cAOVao6EaYhu5HXcAFN2","","","","","","","","","","","","","","","","","","","2043","",""
"html-keyboard-response","96","181288","0.0-42.0-0.0","","1202.3000001907349","<div style=""display: flex; flex-direction: column; align-items: center; margin-top: -40px;""><img src=""images/pattern_4.png"" style=""width: 234px; height: 230px; margin-top: -50px;""><div style=""display: flex; justify-content: space-between; margin-top: 33px;""><img src=""images/choice_trial_16.png"" style=""width: 408px; height: 417px; margin-right: 200px;""><img src=""images/choice_trial_4.png"" style=""width: 408px; height: 417px;""></div></div>","j","delaylearn","learning","trial","5f4839443d0cb52ec017448e","7uCfc104cAOVao6EaYhu5HXcAFN2","2","images/choice_trial_16.png","images/choice_trial_4.png","images/pattern_4.png","j","j","7000","16","4","3","1","18","1","1","4","120","","","","",""
"html-keyboard-response","97","182304","0.0-42.0-1.0","","null","<div style=""display: flex; flex-direction: column; align-items: center; margin-top: -40px;""><img src=""images/pattern_4.png"" style=""width: 234px; height: 230px; margin-top: -50px;""><div style=""display: flex; justify-content: space-between; margin-top: 33px;""><img src=""images/choice_trial_4.png"" style=""width: 408px; height: 417px; margin-left:608px;""></div></div>","null","delaylearn","learning","display_response","5f4839443d0cb52ec017448e","7uCfc104cAOVao6EaYhu5HXcAFN2","","","","","","","","","","","","","","","","","chosen stimuli: images/choice_trial_4.png","","","",""
"html-keyboard-response","98","189310","0.0-42.0-2.0","","null","","null","delaylearn","learning","feedback_duration_window","5f4839443d0cb52ec017448e","7uCfc104cAOVao6EaYhu5HXcAFN2","","","","","","","","","","","","","","","","","","7000","","",""
"html-keyboard-response","99","190821","0.0-42.0-3.0","","null","<div style='margin:auto;width: auto; font-size: 150%'><span style='font-weight: bold; font-size: 100px; color: green;'>+10 points!</span><br><br></div>","null","delaylearn","learning","feedback_image_window","5f4839443d0cb52ec017448e","7uCfc104cAOVao6EaYhu5HXcAFN2","","","","","","","","","","","","","","","","","","","","",""
"html-keyboard-response","100","192696","0.0-43.0","","null","<div style=""font-size:100px;"">+</div>","null","delaylearn","learning","ITI","5f4839443d0cb52ec017448e","7uCfc104cAOVao6EaYhu5HXcAFN2","","","","","","","","","","","","","","","","","","","1866","",""
"html-keyboard-response","101","193712","0.0-44.0-0.0","","1013.2000002861023","<div style=""display: flex; flex-direction: column; align-items: center; margin-top: -40px;""><img src=""images/pattern_7.png"" style=""width: 234px; height: 230px; margin-top: -50px;""><div style=""display: flex; justify-content: space-between; margin-top: 33px;""><img src=""images/choice_trial_8.png"" style=""width: 408px; height: 417px; margin-right: 200px;""><img src=""images/choice_trial_15.png"" style=""width: 408px; height: 417px;""></div></div>","j","delaylearn","learning","trial","5f4839443d0cb52ec017448e","7uCfc104cAOVao6EaYhu5HXcAFN2","2","images/choice_trial_8.png","images/choice_trial_15.png","images/pattern_7.png","j","f","750","8","15","6","0","19","0","1","15","130","","","","",""
"html-keyboard-response","102","194719","0.0-44.0-1.0","","null","<div style=""display: flex; flex-direction: column; align-items: center; margin-top: -40px;""><img src=""images/pattern_7.png"" style=""width: 234px; height: 230px; margin-top: -50px;""><div style=""display: flex; justify-content: space-between; margin-top: 33px;""><img src=""images/choice_trial_15.png"" style=""width: 408px; height: 417px; margin-left:608px;""></div></div>","null","delaylearn","learning","display_response","5f4839443d0cb52ec017448e","7uCfc104cAOVao6EaYhu5HXcAFN2","","","","","","","","","","","","","","","","","chosen stimuli: images/choice_trial_15.png","","","",""
"html-keyboard-response","103","195484","0.0-44.0-2.0","","null","","null","delaylearn","learning","feedback_duration_window","5f4839443d0cb52ec017448e","7uCfc104cAOVao6EaYhu5HXcAFN2","","","","","","","","","","","","","","","","","","750","","",""
"html-keyboard-response","104","196989","0.0-44.0-3.0","","null","<div style='margin:auto;width: auto; font-size: 150%'><span style='font-weight: bold; font-size: 100px; color: green;'>+10 points!</span><br><br></div>","null","delaylearn","learning","feedback_image_window","5f4839443d0cb52ec017448e","7uCfc104cAOVao6EaYhu5HXcAFN2","","","","","","","","","","","","","","","","","","","","",""
"html-keyboard-response","105","199131","0.0-45.0","","null","<div style=""font-size:100px;"">+</div>","null","delaylearn","learning","ITI","5f4839443d0cb52ec017448e","7uCfc104cAOVao6EaYhu5HXcAFN2","","","","","","","","","","","","","","","","","","","2140","",""
"html-keyboard-response","106","200182","0.0-46.0-0.0","","1047.7999997138977","<div style=""display: flex; flex-direction: column; align-items: center; margin-top: -40px;""><img src=""images/pattern_1.png"" style=""width: 234px; height: 230px; margin-top: -50px;""><div style=""display: flex; justify-content: space-between; margin-top: 33px;""><img src=""images/choice_trial_3.png"" style=""width: 408px; height: 417px; margin-right: 200px;""><img src=""images/choice_trial_10.png"" style=""width: 408px; height: 417px;""></div></div>","f","delaylearn","learning","trial","5f4839443d0cb52ec017448e","7uCfc104cAOVao6EaYhu5HXcAFN2","2","images/choice_trial_3.png","images/choice_trial_10.png","images/pattern_1.png","f","f","7000","3","10","1","0","20","1","1","3","140","","","","",""
"html-keyboard-response","107","201184","0.0-46.0-1.0","","null","<div style=""display: flex; flex-direction: column; align-items: center; margin-top: -40px;""><img src=""images/pattern_1.png"" style=""width: 234px; height: 230px; margin-top: -50px;""><div style=""display: flex; justify-content: space-between; margin-top: 33px;""><img src=""images/choice_trial_3.png"" style=""width: 408px; height: 417px; margin-right: 608px;""></div></div>","null","delaylearn","learning","display_response","5f4839443d0cb52ec017448e","7uCfc104cAOVao6EaYhu5HXcAFN2","","","","","","","","","","","","","","","","","chosen stimuli: images/choice_trial_3.png","","","",""
"html-keyboard-response","108","208199","0.0-46.0-2.0","","null","","null","delaylearn","learning","feedback_duration_window","5f4839443d0cb52ec017448e","7uCfc104cAOVao6EaYhu5HXcAFN2","","","","","","","","","","","","","","","","","","7000","","",""
"html-keyboard-response","109","209705","0.0-46.0-3.0","","null","<div style='margin:auto;width: auto; font-size: 150%'><span style='font-weight: bold; font-size: 100px; color: green;'>+10 points!</span><br><br></div>","null","delaylearn","learning","feedback_image_window","5f4839443d0cb52ec017448e","7uCfc104cAOVao6EaYhu5HXcAFN2","","","","","","","","","","","","","","","","","","","","",""
"html-keyboard-response","110","211582","0.0-47.0","","null","<div style=""font-size:100px;"">+</div>","null","delaylearn","learning","ITI","5f4839443d0cb52ec017448e","7uCfc104cAOVao6EaYhu5HXcAFN2","","","","","","","","","","","","","","","","","","","1875","",""
"html-keyboard-response","111","212531","0.0-48.0-0.0","","947","<div style=""display: flex; flex-direction: column; align-items: center; margin-top: -40px;""><img src=""images/pattern_6.png"" style=""width: 234px; height: 230px; margin-top: -50px;""><div style=""display: flex; justify-content: space-between; margin-top: 33px;""><img src=""images/choice_trial_5.png"" style=""width: 408px; height: 417px; margin-right: 200px;""><img src=""images/choice_trial_11.png"" style=""width: 408px; height: 417px;""></div></div>","f","delaylearn","learning","trial","5f4839443d0cb52ec017448e","7uCfc104cAOVao6EaYhu5HXcAFN2","2","images/choice_trial_5.png","images/choice_trial_11.png","images/pattern_6.png","j","j","750","5","11","5","1","21","0","0","5","140","","","","",""
"html-keyboard-response","112","213535","0.0-48.0-1.0","","null","<div style=""display: flex; flex-direction: column; align-items: center; margin-top: -40px;""><img src=""images/pattern_6.png"" style=""width: 234px; height: 230px; margin-top: -50px;""><div style=""display: flex; justify-content: space-between; margin-top: 33px;""><img src=""images/choice_trial_5.png"" style=""width: 408px; height: 417px; margin-right: 608px;""></div></div>","null","delaylearn","learning","display_response","5f4839443d0cb52ec017448e","7uCfc104cAOVao6EaYhu5HXcAFN2","","","","","","","","","","","","","","","","","chosen stimuli: images/choice_trial_5.png","","","",""
"html-keyboard-response","113","214300","0.0-48.0-2.0","","null","","null","delaylearn","learning","feedback_duration_window","5f4839443d0cb52ec017448e","7uCfc104cAOVao6EaYhu5HXcAFN2","","","","","","","","","","","","","","","","","","750","","",""
"html-keyboard-response","114","215807","0.0-48.0-3.0","","null","<div style='margin:auto;width: auto; font-size: 150%'><span style='font-weight: bold; font-size: 100px; color: red;'>0 points!</span><br><br></div>","null","delaylearn","learning","feedback_image_window","5f4839443d0cb52ec017448e","7uCfc104cAOVao6EaYhu5HXcAFN2","","","","","","","","","","","","","","","","","","","","",""
"html-keyboard-response","115","218198","0.0-49.0","","null","<div style=""font-size:100px;"">+</div>","null","delaylearn","learning","ITI","5f4839443d0cb52ec017448e","7uCfc104cAOVao6EaYhu5HXcAFN2","","","","","","","","","","","","","","","","","","","2380","",""
"html-keyboard-response","116","219465","0.0-50.0-0.0","","1266.3000001907349","<div style=""display: flex; flex-direction: column; align-items: center; margin-top: -40px;""><img src=""images/pattern_4.png"" style=""width: 234px; height: 230px; margin-top: -50px;""><div style=""display: flex; justify-content: space-between; margin-top: 33px;""><img src=""images/choice_trial_4.png"" style=""width: 408px; height: 417px; margin-right: 200px;""><img src=""images/choice_trial_16.png"" style=""width: 408px; height: 417px;""></div></div>","f","delaylearn","learning","trial","5f4839443d0cb52ec017448e","7uCfc104cAOVao6EaYhu5HXcAFN2","2","images/choice_trial_4.png","images/choice_trial_16.png","images/pattern_4.png","f","f","7000","4","16","3","0","22","1","1","4","150","","","","",""
"html-keyboard-response","117","220481","0.0-50.0-1.0","","null","<div style=""display: flex; flex-direction: column; align-items: center; margin-top: -40px;""><img src=""images/pattern_4.png"" style=""width: 234px; height: 230px; margin-top: -50px;""><div style=""display: flex; justify-content: space-between; margin-top: 33px;""><img src=""images/choice_trial_4.png"" style=""width: 408px; height: 417px; margin-right: 608px;""></div></div>","null","delaylearn","learning","display_response","5f4839443d0cb52ec017448e","7uCfc104cAOVao6EaYhu5HXcAFN2","","","","","","","","","","","","","","","","","chosen stimuli: images/choice_trial_4.png","","","",""
"html-keyboard-response","118","227490","0.0-50.0-2.0","","null","","null","delaylearn","learning","feedback_duration_window","5f4839443d0cb52ec017448e","7uCfc104cAOVao6EaYhu5HXcAFN2","","","","","","","","","","","","","","","","","","7000","","",""
"html-keyboard-response","119","229002","0.0-50.0-3.0","","null","<div style='margin:auto;width: auto; font-size: 150%'><span style='font-weight: bold; font-size: 100px; color: green;'>+10 points!</span><br><br></div>","null","delaylearn","learning","feedback_image_window","5f4839443d0cb52ec017448e","7uCfc104cAOVao6EaYhu5HXcAFN2","","","","","","","","","","","","","","","","","","","","",""
"html-keyboard-response","120","229514","0.0-51.0-0.0","","null","","null","","","mood_trial_fixation","","","","","","","","","","","","","","","","","","","","","","",""
"lmdlab-html-vas-response","121","235935","0.0-51.0-1.0","","5415","How happy are you right now?","0.3726851851851852","delaylearn","learning","mood_trial","5f4839443d0cb52ec017448e","7uCfc104cAOVao6EaYhu5HXcAFN2","","","","","","","","","","","","","","","","","","","","[""Very unhappy"",""Very happy""]",""
"html-keyboard-response","122","237849","0.0-52.0","","null","<div style=""font-size:100px;"">+</div>","null","delaylearn","learning","ITI","5f4839443d0cb52ec017448e","7uCfc104cAOVao6EaYhu5HXcAFN2","","","","","","","","","","","","","","","","","","","1904","",""
"html-keyboard-response","123","239007","0.0-53.0-0.0","","1156.1999998092651","<div style=""display: flex; flex-direction: column; align-items: center; margin-top: -40px;""><img src=""images/pattern_7.png"" style=""width: 234px; height: 230px; margin-top: -50px;""><div style=""display: flex; justify-content: space-between; margin-top: 33px;""><img src=""images/choice_trial_15.png"" style=""width: 408px; height: 417px; margin-right: 200px;""><img src=""images/choice_trial_8.png"" style=""width: 408px; height: 417px;""></div></div>","j","delaylearn","learning","trial","5f4839443d0cb52ec017448e","7uCfc104cAOVao6EaYhu5HXcAFN2","2","images/choice_trial_15.png","images/choice_trial_8.png","images/pattern_7.png","j","j","750","15","8","6","1","23","1","1","8","160","","","","",""
"html-keyboard-response","124","240017","0.0-53.0-1.0","","null","<div style=""display: flex; flex-direction: column; align-items: center; margin-top: -40px;""><img src=""images/pattern_7.png"" style=""width: 234px; height: 230px; margin-top: -50px;""><div style=""display: flex; justify-content: space-between; margin-top: 33px;""><img src=""images/choice_trial_8.png"" style=""width: 408px; height: 417px; margin-left:608px;""></div></div>","null","delaylearn","learning","display_response","5f4839443d0cb52ec017448e","7uCfc104cAOVao6EaYhu5HXcAFN2","","","","","","","","","","","","","","","","","chosen stimuli: images/choice_trial_8.png","","","",""
"html-keyboard-response","125","240779","0.0-53.0-2.0","","null","","null","delaylearn","learning","feedback_duration_window","5f4839443d0cb52ec017448e","7uCfc104cAOVao6EaYhu5HXcAFN2","","","","","","","","","","","","","","","","","","750","","",""
"html-keyboard-response","126","242287","0.0-53.0-3.0","","null","<div style='margin:auto;width: auto; font-size: 150%'><span style='font-weight: bold; font-size: 100px; color: green;'>+10 points!</span><br><br></div>","null","delaylearn","learning","feedback_image_window","5f4839443d0cb52ec017448e","7uCfc104cAOVao6EaYhu5HXcAFN2","","","","","","","","","","","","","","","","","","","","",""
"html-keyboard-response","127","244731","0.0-54.0","","null","<div style=""font-size:100px;"">+</div>","null","delaylearn","learning","ITI","5f4839443d0cb52ec017448e","7uCfc104cAOVao6EaYhu5HXcAFN2","","","","","","","","","","","","","","","","","","","2429","",""
"html-keyboard-response","128","245642","0.0-55.0-0.0","","909.0999999046326","<div style=""display: flex; flex-direction: column; align-items: center; margin-top: -40px;""><img src=""images/pattern_1.png"" style=""width: 234px; height: 230px; margin-top: -50px;""><div style=""display: flex; justify-content: space-between; margin-top: 33px;""><img src=""images/choice_trial_10.png"" style=""width: 408px; height: 417px; margin-right: 200px;""><img src=""images/choice_trial_3.png"" style=""width: 408px; height: 417px;""></div></div>","j","delaylearn","learning","trial","5f4839443d0cb52ec017448e","7uCfc104cAOVao6EaYhu5HXcAFN2","2","images/choice_trial_10.png","images/choice_trial_3.png","images/pattern_1.png","f","j","7000","10","3","1","1","24","1","0","3","160","","","","",""
"html-keyboard-response","129","246651","0.0-55.0-1.0","","null","<div style=""display: flex; flex-direction: column; align-items: center; margin-top: -40px;""><img src=""images/pattern_1.png"" style=""width: 234px; height: 230px; margin-top: -50px;""><div style=""display: flex; justify-content: space-between; margin-top: 33px;""><img src=""images/choice_trial_3.png"" style=""width: 408px; height: 417px; margin-left:608px;""></div></div>","null","delaylearn","learning","display_response","5f4839443d0cb52ec017448e","7uCfc104cAOVao6EaYhu5HXcAFN2","","","","","","","","","","","","","","","","","chosen stimuli: images/choice_trial_3.png","","","",""
"html-keyboard-response","130","253653","0.0-55.0-2.0","","null","","null","delaylearn","learning","feedback_duration_window","5f4839443d0cb52ec017448e","7uCfc104cAOVao6EaYhu5HXcAFN2","","","","","","","","","","","","","","","","","","7000","","",""
"html-keyboard-response","131","255167","0.0-55.0-3.0","","null","<div style='margin:auto;width: auto; font-size: 150%'><span style='font-weight: bold; font-size: 100px; color: red;'>0 points!</span><br><br></div>","null","delaylearn","learning","feedback_image_window","5f4839443d0cb52ec017448e","7uCfc104cAOVao6EaYhu5HXcAFN2","","","","","","","","","","","","","","","","","","","","",""
"html-keyboard-response","132","256873","0.0-56.0","","null","<div style=""font-size:100px;"">+</div>","null","delaylearn","learning","ITI","5f4839443d0cb52ec017448e","7uCfc104cAOVao6EaYhu5HXcAFN2","","","","","","","","","","","","","","","","","","","1698","",""
"html-keyboard-response","133","257977","0.0-57.0-0.0","","1101.7999997138977","<div style=""display: flex; flex-direction: column; align-items: center; margin-top: -40px;""><img src=""images/pattern_5.png"" style=""width: 234px; height: 230px; margin-top: -50px;""><div style=""display: flex; justify-content: space-between; margin-top: 33px;""><img src=""images/choice_trial_9.png"" style=""width: 408px; height: 417px; margin-right: 200px;""><img src=""images/choice_trial_2.png"" style=""width: 408px; height: 417px;""></div></div>","f","delaylearn","learning","trial","5f4839443d0cb52ec017448e","7uCfc104cAOVao6EaYhu5HXcAFN2","2","images/choice_trial_9.png","images/choice_trial_2.png","images/pattern_5.png","j","j","750","9","2","4","1","25","0","0","9","160","","","","",""
"html-keyboard-response","134","258984","0.0-57.0-1.0","","null","<div style=""display: flex; flex-direction: column; align-items: center; margin-top: -40px;""><img src=""images/pattern_5.png"" style=""width: 234px; height: 230px; margin-top: -50px;""><div style=""display: flex; justify-content: space-between; margin-top: 33px;""><img src=""images/choice_trial_9.png"" style=""width: 408px; height: 417px; margin-right: 608px;""></div></div>","null","delaylearn","learning","display_response","5f4839443d0cb52ec017448e","7uCfc104cAOVao6EaYhu5HXcAFN2","","","","","","","","","","","","","","","","","chosen stimuli: images/choice_trial_9.png","","","",""
"html-keyboard-response","135","259751","0.0-57.0-2.0","","null","","null","delaylearn","learning","feedback_duration_window","5f4839443d0cb52ec017448e","7uCfc104cAOVao6EaYhu5HXcAFN2","","","","","","","","","","","","","","","","","","750","","",""
"html-keyboard-response","136","261268","0.0-57.0-3.0","","null","<div style='margin:auto;width: auto; font-size: 150%'><span style='font-weight: bold; font-size: 100px; color: red;'>0 points!</span><br><br></div>","null","delaylearn","learning","feedback_image_window","5f4839443d0cb52ec017448e","7uCfc104cAOVao6EaYhu5HXcAFN2","","","","","","","","","","","","","","","","","","","","",""
"html-keyboard-response","137","263117","0.0-58.0","","null","<div style=""font-size:100px;"">+</div>","null","delaylearn","learning","ITI","5f4839443d0cb52ec017448e","7uCfc104cAOVao6EaYhu5HXcAFN2","","","","","","","","","","","","","","","","","","","1835","",""
"html-keyboard-response","138","264514","0.0-59.0-0.0","","1394.7999997138977","<div style=""display: flex; flex-direction: column; align-items: center; margin-top: -40px;""><img src=""images/pattern_3.png"" style=""width: 234px; height: 230px; margin-top: -50px;""><div style=""display: flex; justify-content: space-between; margin-top: 33px;""><img src=""images/choice_trial_14.png"" style=""width: 408px; height: 417px; margin-right: 200px;""><img src=""images/choice_trial_12.png"" style=""width: 408px; height: 417px;""></div></div>","f","delaylearn","learning","trial","5f4839443d0cb52ec017448e","7uCfc104cAOVao6EaYhu5HXcAFN2","2","images/choice_trial_14.png","images/choice_trial_12.png","images/pattern_3.png","j","j","7000","14","12","2","1","26","0","0","14","160","","","","",""
"html-keyboard-response","139","265522","0.0-59.0-1.0","","null","<div style=""display: flex; flex-direction: column; align-items: center; margin-top: -40px;""><img src=""images/pattern_3.png"" style=""width: 234px; height: 230px; margin-top: -50px;""><div style=""display: flex; justify-content: space-between; margin-top: 33px;""><img src=""images/choice_trial_14.png"" style=""width: 408px; height: 417px; margin-right: 608px;""></div></div>","null","delaylearn","learning","display_response","5f4839443d0cb52ec017448e","7uCfc104cAOVao6EaYhu5HXcAFN2","","","","","","","","","","","","","","","","","chosen stimuli: images/choice_trial_14.png","","","",""
"html-keyboard-response","140","272535","0.0-59.0-2.0","","null","","null","delaylearn","learning","feedback_duration_window","5f4839443d0cb52ec017448e","7uCfc104cAOVao6EaYhu5HXcAFN2","","","","","","","","","","","","","","","","","","7000","","",""
"html-keyboard-response","141","274053","0.0-59.0-3.0","","null","<div style='margin:auto;width: auto; font-size: 150%'><span style='font-weight: bold; font-size: 100px; color: red;'>0 points!</span><br><br></div>","null","delaylearn","learning","feedback_image_window","5f4839443d0cb52ec017448e","7uCfc104cAOVao6EaYhu5HXcAFN2","","","","","","","","","","","","","","","","","","","","",""
"lmdlab-html-vas-response","142","280401","0.0-60.0-0.0","","4831","*How <b><u>confident</u></b> are you feeling about your answers at this moment?*","0.2175925925925926","rewlearn","rate_confidence","","5f4839443d0cb52ec017448e","7uCfc104cAOVao6EaYhu5HXcAFN2","","","","","","","","","","","","","","","","","","","","[""No confidence"",""Complete confidence""]",""
"lmdlab-rest-trial-limit","143","336504","0.0-60.0-1.0","","54589.300000190735","<div style=""font-size:40px;""><b>Please take a break!</b><br><br><br><br><p>Great work: you earned 160 points.<br><br><br><p>You have completed part(s) 1 of 5.<br><br><br><br>When you are ready to continue<br><br><br>please click the button.</p><br><br>","0","delaylearn","learning","break","5f4839443d0cb52ec017448e","7uCfc104cAOVao6EaYhu5HXcAFN2","","","","","","","","","","","","","","","","","","","","","0"
"html-keyboard-response","144","339512","0.0-60.0-2.0","","null","<div style=""font-size:100px;"">+</div>","null","delaylearn","learning","pre_fixation","5f4839443d0cb52ec017448e","","","","","","","","","","","","","","","","","","","","","",""
"lmdlab-html-vas-response","145","343058","0.0-60.0-3.0-0.0","","2541","How happy are you right now?","0.3425925925925926","delaylearn","learning","mood_baseline","5f4839443d0cb52ec017448e","7uCfc104cAOVao6EaYhu5HXcAFN2","","","","","","","","","","","","","","","","","","","","[""Very unhappy"",""Very happy""]",""
"html-keyboard-response","146","344569","0.0-60.0-3.0-1.0","","null","","null","","","mood_baseline_fixation","","","","","","","","","","","","","","","","","","","","","","",""
"html-keyboard-response","147","347074","0.0-61.0","","null","<div style=""font-size:100px;"">+</div>","null","delaylearn","learning","ITI","5f4839443d0cb52ec017448e","7uCfc104cAOVao6EaYhu5HXcAFN2","","","","","","","","","","","","","","","","","","","2500","",""
"html-keyboard-response","148","348497","0.0-62.0-0.0","","1419.5999999046326","<div style=""display: flex; flex-direction: column; align-items: center; margin-top: -40px;""><img src=""images/pattern_7.png"" style=""width: 234px; height: 230px; margin-top: -50px;""><div style=""display: flex; justify-content: space-between; margin-top: 33px;""><img src=""images/choice_trial_15.png"" style=""width: 408px; height: 417px; margin-right: 200px;""><img src=""images/choice_trial_8.png"" style=""width: 408px; height: 417px;""></div></div>","j","delaylearn","learning","trial","5f4839443d0cb52ec017448e","7uCfc104cAOVao6EaYhu5HXcAFN2","2","images/choice_trial_15.png","images/choice_trial_8.png","images/pattern_7.png","j","j","750","15","8","6","1","27","1","1","8","170","","","","",""
"html-keyboard-response","149","349514","0.0-62.0-1.0","","null","<div style=""display: flex; flex-direction: column; align-items: center; margin-top: -40px;""><img src=""images/pattern_7.png"" style=""width: 234px; height: 230px; margin-top: -50px;""><div style=""display: flex; justify-content: space-between; margin-top: 33px;""><img src=""images/choice_trial_8.png"" style=""width: 408px; height: 417px; margin-left:608px;""></div></div>","null","delaylearn","learning","display_response","5f4839443d0cb52ec017448e","7uCfc104cAOVao6EaYhu5HXcAFN2","","","","","","","","","","","","","","","","","chosen stimuli: images/choice_trial_8.png","","","",""
"html-keyboard-response","150","350279","0.0-62.0-2.0","","null","","null","delaylearn","learning","feedback_duration_window","5f4839443d0cb52ec017448e","7uCfc104cAOVao6EaYhu5HXcAFN2","","","","","","","","","","","","","","","","","","750","","",""
"html-keyboard-response","151","351781","0.0-62.0-3.0","","null","<div style='margin:auto;width: auto; font-size: 150%'><span style='font-weight: bold; font-size: 100px; color: green;'>+10 points!</span><br><br></div>","null","delaylearn","learning","feedback_image_window","5f4839443d0cb52ec017448e","7uCfc104cAOVao6EaYhu5HXcAFN2","","","","","","","","","","","","","","","","","","","","",""
"html-keyboard-response","152","352295","0.0-63.0-0.0","","null","","null","","","mood_trial_fixation","","","","","","","","","","","","","","","","","","","","","","",""
"lmdlab-html-vas-response","153","359244","0.0-63.0-1.0","","5947","How happy are you right now?","0.33101851851851855","delaylearn","learning","mood_trial","5f4839443d0cb52ec017448e","7uCfc104cAOVao6EaYhu5HXcAFN2","","","","","","","","","","","","","","","","","","","","[""Very unhappy"",""Very happy""]",""
"html-keyboard-response","154","360958","0.0-64.0","","null","<div style=""font-size:100px;"">+</div>","null","delaylearn","learning","ITI","5f4839443d0cb52ec017448e","7uCfc104cAOVao6EaYhu5HXcAFN2","","","","","","","","","","","","","","","","","","","1701","",""
"html-keyboard-response","155","362023","0.0-65.0-0.0","","1062.4000000953674","<div style=""display: flex; flex-direction: column; align-items: center; margin-top: -40px;""><img src=""images/pattern_1.png"" style=""width: 234px; height: 230px; margin-top: -50px;""><div style=""display: flex; justify-content: space-between; margin-top: 33px;""><img src=""images/choice_trial_3.png"" style=""width: 408px; height: 417px; margin-right: 200px;""><img src=""images/choice_trial_10.png"" style=""width: 408px; height: 417px;""></div></div>","f","delaylearn","learning","trial","5f4839443d0cb52ec017448e","7uCfc104cAOVao6EaYhu5HXcAFN2","2","images/choice_trial_3.png","images/choice_trial_10.png","images/pattern_1.png","f","f","7000","3","10","1","0","28","1","1","3","180","","","","",""
"html-keyboard-response","156","363032","0.0-65.0-1.0","","null","<div style=""display: flex; flex-direction: column; align-items: center; margin-top: -40px;""><img src=""images/pattern_1.png"" style=""width: 234px; height: 230px; margin-top: -50px;""><div style=""display: flex; justify-content: space-between; margin-top: 33px;""><img src=""images/choice_trial_3.png"" style=""width: 408px; height: 417px; margin-right: 608px;""></div></div>","null","delaylearn","learning","display_response","5f4839443d0cb52ec017448e","7uCfc104cAOVao6EaYhu5HXcAFN2","","","","","","","","","","","","","","","","","chosen stimuli: images/choice_trial_3.png","","","",""
"html-keyboard-response","157","370033","0.0-65.0-2.0","","null","","null","delaylearn","learning","feedback_duration_window","5f4839443d0cb52ec017448e","7uCfc104cAOVao6EaYhu5HXcAFN2","","","","","","","","","","","","","","","","","","7000","","",""
"html-keyboard-response","158","371536","0.0-65.0-3.0","","null","<div style='margin:auto;width: auto; font-size: 150%'><span style='font-weight: bold; font-size: 100px; color: green;'>+10 points!</span><br><br></div>","null","delaylearn","learning","feedback_image_window","5f4839443d0cb52ec017448e","7uCfc104cAOVao6EaYhu5HXcAFN2","","","","","","","","","","","","","","","","","","","","",""
"html-keyboard-response","159","373427","0.0-66.0","","null","<div style=""font-size:100px;"">+</div>","null","delaylearn","learning","ITI","5f4839443d0cb52ec017448e","7uCfc104cAOVao6EaYhu5HXcAFN2","","","","","","","","","","","","","","","","","","","1885","",""
"html-keyboard-response","160","374990","0.0-67.0-0.0","","1560.3000001907349","<div style=""display: flex; flex-direction: column; align-items: center; margin-top: -40px;""><img src=""images/pattern_5.png"" style=""width: 234px; height: 230px; margin-top: -50px;""><div style=""display: flex; justify-content: space-between; margin-top: 33px;""><img src=""images/choice_trial_2.png"" style=""width: 408px; height: 417px; margin-right: 200px;""><img src=""images/choice_trial_9.png"" style=""width: 408px; height: 417px;""></div></div>","j","delaylearn","learning","trial","5f4839443d0cb52ec017448e","7uCfc104cAOVao6EaYhu5HXcAFN2","2","images/choice_trial_2.png","images/choice_trial_9.png","images/pattern_5.png","f","f","750","2","9","4","0","29","0","0","9","180","","","","",""
"html-keyboard-response","161","375998","0.0-67.0-1.0","","null","<div style=""display: flex; flex-direction: column; align-items: center; margin-top: -40px;""><img src=""images/pattern_5.png"" style=""width: 234px; height: 230px; margin-top: -50px;""><div style=""display: flex; justify-content: space-between; margin-top: 33px;""><img src=""images/choice_trial_9.png"" style=""width: 408px; height: 417px; margin-left:608px;""></div></div>","null","delaylearn","learning","display_response","5f4839443d0cb52ec017448e","7uCfc104cAOVao6EaYhu5HXcAFN2","","","","","","","","","","","","","","","","","chosen stimuli: images/choice_trial_9.png","","","",""
"html-keyboard-response","162","376761","0.0-67.0-2.0","","null","","null","delaylearn","learning","feedback_duration_window","5f4839443d0cb52ec017448e","7uCfc104cAOVao6EaYhu5HXcAFN2","","","","","","","","","","","","","","","","","","750","","",""
"html-keyboard-response","163","378267","0.0-67.0-3.0","","null","<div style='margin:auto;width: auto; font-size: 150%'><span style='font-weight: bold; font-size: 100px; color: red;'>0 points!</span><br><br></div>","null","delaylearn","learning","feedback_image_window","5f4839443d0cb52ec017448e","7uCfc104cAOVao6EaYhu5HXcAFN2","","","","","","","","","","","","","","","","","","","","",""
"html-keyboard-response","164","380618","0.0-68.0","","null","<div style=""font-size:100px;"">+</div>","null","delaylearn","learning","ITI","5f4839443d0cb52ec017448e","7uCfc104cAOVao6EaYhu5HXcAFN2","","","","","","","","","","","","","","","","","","","2336","",""
"html-keyboard-response","165","381926","0.0-69.0-0.0","","1304.8000001907349","<div style=""display: flex; flex-direction: column; align-items: center; margin-top: -40px;""><img src=""images/pattern_6.png"" style=""width: 234px; height: 230px; margin-top: -50px;""><div style=""display: flex; justify-content: space-between; margin-top: 33px;""><img src=""images/choice_trial_5.png"" style=""width: 408px; height: 417px; margin-right: 200px;""><img src=""images/choice_trial_11.png"" style=""width: 408px; height: 417px;""></div></div>","f","delaylearn","learning","trial","5f4839443d0cb52ec017448e","7uCfc104cAOVao6EaYhu5HXcAFN2","2","images/choice_trial_5.png","images/choice_trial_11.png","images/pattern_6.png","j","j","750","5","11","5","1","30","0","0","5","180","","","","",""
"html-keyboard-response","166","382931","0.0-69.0-1.0","","null","<div style=""display: flex; flex-direction: column; align-items: center; margin-top: -40px;""><img src=""images/pattern_6.png"" style=""width: 234px; height: 230px; margin-top: -50px;""><div style=""display: flex; justify-content: space-between; margin-top: 33px;""><img src=""images/choice_trial_5.png"" style=""width: 408px; height: 417px; margin-right: 608px;""></div></div>","null","delaylearn","learning","display_response","5f4839443d0cb52ec017448e","7uCfc104cAOVao6EaYhu5HXcAFN2","","","","","","","","","","","","","","","","","chosen stimuli: images/choice_trial_5.png","","","",""
"html-keyboard-response","167","383695","0.0-69.0-2.0","","null","","null","delaylearn","learning","feedback_duration_window","5f4839443d0cb52ec017448e","7uCfc104cAOVao6EaYhu5HXcAFN2","","","","","","","","","","","","","","","","","","750","","",""
"html-keyboard-response","168","385199","0.0-69.0-3.0","","null","<div style='margin:auto;width: auto; font-size: 150%'><span style='font-weight: bold; font-size: 100px; color: red;'>0 points!</span><br><br></div>","null","delaylearn","learning","feedback_image_window","5f4839443d0cb52ec017448e","7uCfc104cAOVao6EaYhu5HXcAFN2","","","","","","","","","","","","","","","","","","","","",""
"html-keyboard-response","169","385709","0.0-70.0-0.0","","null","","null","","","mood_trial_fixation","","","","","","","","","","","","","","","","","","","","","","",""
"lmdlab-html-vas-response","170","390574","0.0-70.0-1.0","","3855","How happy are you right now?","0.26851851851851855","delaylearn","learning","mood_trial","5f4839443d0cb52ec017448e","7uCfc104cAOVao6EaYhu5HXcAFN2","","","","","","","","","","","","","","","","","","","","[""Very unhappy"",""Very happy""]",""
"html-keyboard-response","171","392837","0.0-71.0","","null","<div style=""font-size:100px;"">+</div>","null","delaylearn","learning","ITI","5f4839443d0cb52ec017448e","7uCfc104cAOVao6EaYhu5HXcAFN2","","","","","","","","","","","","","","","","","","","2260","",""
"html-keyboard-response","172","393690","0.0-72.0-0.0","","850.0999999046326","<div style=""display: flex; flex-direction: column; align-items: center; margin-top: -40px;""><img src=""images/pattern_4.png"" style=""width: 234px; height: 230px; margin-top: -50px;""><div style=""display: flex; justify-content: space-between; margin-top: 33px;""><img src=""images/choice_trial_16.png"" style=""width: 408px; height: 417px; margin-right: 200px;""><img src=""images/choice_trial_4.png"" style=""width: 408px; height: 417px;""></div></div>","j","delaylearn","learning","trial","5f4839443d0cb52ec017448e","7uCfc104cAOVao6EaYhu5HXcAFN2","2","images/choice_trial_16.png","images/choice_trial_4.png","images/pattern_4.png","j","j","7000","16","4","3","1","31","1","1","4","190","","","","",""
"html-keyboard-response","173","394698","0.0-72.0-1.0","","null","<div style=""display: flex; flex-direction: column; align-items: center; margin-top: -40px;""><img src=""images/pattern_4.png"" style=""width: 234px; height: 230px; margin-top: -50px;""><div style=""display: flex; justify-content: space-between; margin-top: 33px;""><img src=""images/choice_trial_4.png"" style=""width: 408px; height: 417px; margin-left:608px;""></div></div>","null","delaylearn","learning","display_response","5f4839443d0cb52ec017448e","7uCfc104cAOVao6EaYhu5HXcAFN2","","","","","","","","","","","","","","","","","chosen stimuli: images/choice_trial_4.png","","","",""
"html-keyboard-response","174","401711","0.0-72.0-2.0","","null","","null","delaylearn","learning","feedback_duration_window","5f4839443d0cb52ec017448e","7uCfc104cAOVao6EaYhu5HXcAFN2","","","","","","","","","","","","","","","","","","7000","","",""
"html-keyboard-response","175","403215","0.0-72.0-3.0","","null","<div style='margin:auto;width: auto; font-size: 150%'><span style='font-weight: bold; font-size: 100px; color: green;'>+10 points!</span><br><br></div>","null","delaylearn","learning","feedback_image_window","5f4839443d0cb52ec017448e","7uCfc104cAOVao6EaYhu5HXcAFN2","","","","","","","","","","","","","","","","","","","","",""
"html-keyboard-response","176","405296","0.0-73.0","","null","<div style=""font-size:100px;"">+</div>","null","delaylearn","learning","ITI","5f4839443d0cb52ec017448e","7uCfc104cAOVao6EaYhu5HXcAFN2","","","","","","","","","","","","","","","","","","","2066","",""
"html-keyboard-response","177","406533","0.0-74.0-0.0","","1234","<div style=""display: flex; flex-direction: column; align-items: center; margin-top: -40px;""><img src=""images/pattern_3.png"" style=""width: 234px; height: 230px; margin-top: -50px;""><div style=""display: flex; justify-content: space-between; margin-top: 33px;""><img src=""images/choice_trial_14.png"" style=""width: 408px; height: 417px; margin-right: 200px;""><img src=""images/choice_trial_12.png"" style=""width: 408px; height: 417px;""></div></div>","f","delaylearn","learning","trial","5f4839443d0cb52ec017448e","7uCfc104cAOVao6EaYhu5HXcAFN2","2","images/choice_trial_14.png","images/choice_trial_12.png","images/pattern_3.png","j","j","7000","14","12","2","1","32","0","0","14","190","","","","",""
"html-keyboard-response","178","407548","0.0-74.0-1.0","","null","<div style=""display: flex; flex-direction: column; align-items: center; margin-top: -40px;""><img src=""images/pattern_3.png"" style=""width: 234px; height: 230px; margin-top: -50px;""><div style=""display: flex; justify-content: space-between; margin-top: 33px;""><img src=""images/choice_trial_14.png"" style=""width: 408px; height: 417px; margin-right: 608px;""></div></div>","null","delaylearn","learning","display_response","5f4839443d0cb52ec017448e","7uCfc104cAOVao6EaYhu5HXcAFN2","","","","","","","","","","","","","","","","","chosen stimuli: images/choice_trial_14.png","","","",""
"html-keyboard-response","179","414561","0.0-74.0-2.0","","null","","null","delaylearn","learning","feedback_duration_window","5f4839443d0cb52ec017448e","7uCfc104cAOVao6EaYhu5HXcAFN2","","","","","","","","","","","","","","","","","","7000","","",""
"html-keyboard-response","180","416065","0.0-74.0-3.0","","null","<div style='margin:auto;width: auto; font-size: 150%'><span style='font-weight: bold; font-size: 100px; color: red;'>0 points!</span><br><br></div>","null","delaylearn","learning","feedback_image_window","5f4839443d0cb52ec017448e","7uCfc104cAOVao6EaYhu5HXcAFN2","","","","","","","","","","","","","","","","","","","","",""
"html-keyboard-response","181","418355","0.0-75.0","","null","<div style=""font-size:100px;"">+</div>","null","delaylearn","learning","ITI","5f4839443d0cb52ec017448e","7uCfc104cAOVao6EaYhu5HXcAFN2","","","","","","","","","","","","","","","","","","","2280","",""
"html-keyboard-response","182","419766","0.0-76.0-0.0","","1410","<div style=""display: flex; flex-direction: column; align-items: center; margin-top: -40px;""><img src=""images/pattern_5.png"" style=""width: 234px; height: 230px; margin-top: -50px;""><div style=""display: flex; justify-content: space-between; margin-top: 33px;""><img src=""images/choice_trial_2.png"" style=""width: 408px; height: 417px; margin-right: 200px;""><img src=""images/choice_trial_9.png"" style=""width: 408px; height: 417px;""></div></div>","j","delaylearn","learning","trial","5f4839443d0cb52ec017448e","7uCfc104cAOVao6EaYhu5HXcAFN2","2","images/choice_trial_2.png","images/choice_trial_9.png","images/pattern_5.png","j","f","750","2","9","4","0","33","0","1","9","200","","","","",""
"html-keyboard-response","183","420780","0.0-76.0-1.0","","null","<div style=""display: flex; flex-direction: column; align-items: center; margin-top: -40px;""><img src=""images/pattern_5.png"" style=""width: 234px; height: 230px; margin-top: -50px;""><div style=""display: flex; justify-content: space-between; margin-top: 33px;""><img src=""images/choice_trial_9.png"" style=""width: 408px; height: 417px; margin-left:608px;""></div></div>","null","delaylearn","learning","display_response","5f4839443d0cb52ec017448e","7uCfc104cAOVao6EaYhu5HXcAFN2","","","","","","","","","","","","","","","","","chosen stimuli: images/choice_trial_9.png","","","",""
"html-keyboard-response","184","421533","0.0-76.0-2.0","","null","","null","delaylearn","learning","feedback_duration_window","5f4839443d0cb52ec017448e","7uCfc104cAOVao6EaYhu5HXcAFN2","","","","","","","","","","","","","","","","","","750","","",""
"html-keyboard-response","185","423049","0.0-76.0-3.0","","null","<div style='margin:auto;width: auto; font-size: 150%'><span style='font-weight: bold; font-size: 100px; color: green;'>+10 points!</span><br><br></div>","null","delaylearn","learning","feedback_image_window","5f4839443d0cb52ec017448e","7uCfc104cAOVao6EaYhu5HXcAFN2","","","","","","","","","","","","","","","","","","","","",""
"html-keyboard-response","186","425288","0.0-77.0","","null","<div style=""font-size:100px;"">+</div>","null","delaylearn","learning","ITI","5f4839443d0cb52ec017448e","7uCfc104cAOVao6EaYhu5HXcAFN2","","","","","","","","","","","","","","","","","","","2226","",""
"html-keyboard-response","187","426829","0.0-78.0-0.0","","1539.5999999046326","<div style=""display: flex; flex-direction: column; align-items: center; margin-top: -40px;""><img src=""images/pattern_1.png"" style=""width: 234px; height: 230px; margin-top: -50px;""><div style=""display: flex; justify-content: space-between; margin-top: 33px;""><img src=""images/choice_trial_3.png"" style=""width: 408px; height: 417px; margin-right: 200px;""><img src=""images/choice_trial_10.png"" style=""width: 408px; height: 417px;""></div></div>","f","delaylearn","learning","trial","5f4839443d0cb52ec017448e","7uCfc104cAOVao6EaYhu5HXcAFN2","2","images/choice_trial_3.png","images/choice_trial_10.png","images/pattern_1.png","f","f","7000","3","10","1","0","34","1","1","3","210","","","","",""
"html-keyboard-response","188","427830","0.0-78.0-1.0","","null","<div style=""display: flex; flex-direction: column; align-items: center; margin-top: -40px;""><img src=""images/pattern_1.png"" style=""width: 234px; height: 230px; margin-top: -50px;""><div style=""display: flex; justify-content: space-between; margin-top: 33px;""><img src=""images/choice_trial_3.png"" style=""width: 408px; height: 417px; margin-right: 608px;""></div></div>","null","delaylearn","learning","display_response","5f4839443d0cb52ec017448e","7uCfc104cAOVao6EaYhu5HXcAFN2","","","","","","","","","","","","","","","","","chosen stimuli: images/choice_trial_3.png","","","",""
"html-keyboard-response","189","434844","0.0-78.0-2.0","","null","","null","delaylearn","learning","feedback_duration_window","5f4839443d0cb52ec017448e","7uCfc104cAOVao6EaYhu5HXcAFN2","","","","","","","","","","","","","","","","","","7000","","",""
"html-keyboard-response","190","436352","0.0-78.0-3.0","","null","<div style='margin:auto;width: auto; font-size: 150%'><span style='font-weight: bold; font-size: 100px; color: green;'>+10 points!</span><br><br></div>","null","delaylearn","learning","feedback_image_window","5f4839443d0cb52ec017448e","7uCfc104cAOVao6EaYhu5HXcAFN2","","","","","","","","","","","","","","","","","","","","",""
"html-keyboard-response","191","436860","0.0-79.0-0.0","","null","","null","","","mood_trial_fixation","","","","","","","","","","","","","","","","","","","","","","",""
"lmdlab-html-vas-response","192","442372","0.0-79.0-1.0","","4494","How happy are you right now?","0.3333333333333333","delaylearn","learning","mood_trial","5f4839443d0cb52ec017448e","7uCfc104cAOVao6EaYhu5HXcAFN2","","","","","","","","","","","","","","","","","","","","[""Very unhappy"",""Very happy""]",""
"html-keyboard-response","193","443901","0.0-80.0","","null","<div style=""font-size:100px;"">+</div>","null","delaylearn","learning","ITI","5f4839443d0cb52ec017448e","7uCfc104cAOVao6EaYhu5HXcAFN2","","","","","","","","","","","","","","","","","","","1521","",""
"html-keyboard-response","194","446915","0.0-81.0-0.0","","null","<div style=""display: flex; flex-direction: column; align-items: center; margin-top: -40px;""><img src=""images/pattern_6.png"" style=""width: 234px; height: 230px; margin-top: -50px;""><div style=""display: flex; justify-content: space-between; margin-top: 33px;""><img src=""images/choice_trial_11.png"" style=""width: 408px; height: 417px; margin-right: 200px;""><img src=""images/choice_trial_5.png"" style=""width: 408px; height: 417px;""></div></div>","null","delaylearn","learning","trial","5f4839443d0cb52ec017448e","7uCfc104cAOVao6EaYhu5HXcAFN2","2","images/choice_trial_11.png","images/choice_trial_5.png","images/pattern_6.png","j","f","750","11","5","5","0","35","0","0","0","210","","","","",""
"html-keyboard-response","195","447931","0.0-81.0-1.0","","null","<div style='font-weight: bold; font-size: 75px; color: red;'>Missed Trial <br><br><br><br> Please respond faster</div>","null","delaylearn","learning","display_response","5f4839443d0cb52ec017448e","7uCfc104cAOVao6EaYhu5HXcAFN2","","","","","","","","","","","","","","","","","Missed trial","","","",""
"html-keyboard-response","196","447937","0.0-81.0-2.0","","null","","null","delaylearn","learning","feedback_duration_window","5f4839443d0cb52ec017448e","7uCfc104cAOVao6EaYhu5HXcAFN2","","","","","","","","","","","","","","","","","","0","","",""
"html-keyboard-response","197","447942","0.0-81.0-3.0","","null","","null","delaylearn","learning","feedback_image_window","5f4839443d0cb52ec017448e","7uCfc104cAOVao6EaYhu5HXcAFN2","","","","","","","","","","","","","","","","","","","","",""
"html-keyboard-response","198","449711","0.0-82.0","","null","<div style=""font-size:100px;"">+</div>","null","delaylearn","learning","ITI","5f4839443d0cb52ec017448e","7uCfc104cAOVao6EaYhu5HXcAFN2","","","","","","","","","","","","","","","","","","","1759","",""
"html-keyboard-response","199","450550","0.0-83.0-0.0","","836.4000000953674","<div style=""display: flex; flex-direction: column; align-items: center; margin-top: -40px;""><img src=""images/pattern_3.png"" style=""width: 234px; height: 230px; margin-top: -50px;""><div style=""display: flex; justify-content: space-between; margin-top: 33px;""><img src=""images/choice_trial_14.png"" style=""width: 408px; height: 417px; margin-right: 200px;""><img src=""images/choice_trial_12.png"" style=""width: 408px; height: 417px;""></div></div>","f","delaylearn","learning","trial","5f4839443d0cb52ec017448e","7uCfc104cAOVao6EaYhu5HXcAFN2","2","images/choice_trial_14.png","images/choice_trial_12.png","images/pattern_3.png","j","j","7000","14","12","2","1","36","0","0","14","210","","","","",""
"html-keyboard-response","200","451564","0.0-83.0-1.0","","null","<div style=""display: flex; flex-direction: column; align-items: center; margin-top: -40px;""><img src=""images/pattern_3.png"" style=""width: 234px; height: 230px; margin-top: -50px;""><div style=""display: flex; justify-content: space-between; margin-top: 33px;""><img src=""images/choice_trial_14.png"" style=""width: 408px; height: 417px; margin-right: 608px;""></div></div>","null","delaylearn","learning","display_response","5f4839443d0cb52ec017448e","7uCfc104cAOVao6EaYhu5HXcAFN2","","","","","","","","","","","","","","","","","chosen stimuli: images/choice_trial_14.png","","","",""
"html-keyboard-response","201","458578","0.0-83.0-2.0","","null","","null","delaylearn","learning","feedback_duration_window","5f4839443d0cb52ec017448e","7uCfc104cAOVao6EaYhu5HXcAFN2","","","","","","","","","","","","","","","","","","7000","","",""
"html-keyboard-response","202","460095","0.0-83.0-3.0","","null","<div style='margin:auto;width: auto; font-size: 150%'><span style='font-weight: bold; font-size: 100px; color: red;'>0 points!</span><br><br></div>","null","delaylearn","learning","feedback_image_window","5f4839443d0cb52ec017448e","7uCfc104cAOVao6EaYhu5HXcAFN2","","","","","","","","","","","","","","","","","","","","",""
"html-keyboard-response","203","462357","0.0-84.0","","null","<div style=""font-size:100px;"">+</div>","null","delaylearn","learning","ITI","5f4839443d0cb52ec017448e","7uCfc104cAOVao6EaYhu5HXcAFN2","","","","","","","","","","","","","","","","","","","2245","",""
"html-keyboard-response","204","463021","0.0-85.0-0.0","","659.0999999046326","<div style=""display: flex; flex-direction: column; align-items: center; margin-top: -40px;""><img src=""images/pattern_4.png"" style=""width: 234px; height: 230px; margin-top: -50px;""><div style=""display: flex; justify-content: space-between; margin-top: 33px;""><img src=""images/choice_trial_16.png"" style=""width: 408px; height: 417px; margin-right: 200px;""><img src=""images/choice_trial_4.png"" style=""width: 408px; height: 417px;""></div></div>","j","delaylearn","learning","trial","5f4839443d0cb52ec017448e","7uCfc104cAOVao6EaYhu5HXcAFN2","2","images/choice_trial_16.png","images/choice_trial_4.png","images/pattern_4.png","f","j","7000","16","4","3","1","37","1","0","4","210","","","","",""
"html-keyboard-response","205","464030","0.0-85.0-1.0","","null","<div style=""display: flex; flex-direction: column; align-items: center; margin-top: -40px;""><img src=""images/pattern_4.png"" style=""width: 234px; height: 230px; margin-top: -50px;""><div style=""display: flex; justify-content: space-between; margin-top: 33px;""><img src=""images/choice_trial_4.png"" style=""width: 408px; height: 417px; margin-left:608px;""></div></div>","null","delaylearn","learning","display_response","5f4839443d0cb52ec017448e","7uCfc104cAOVao6EaYhu5HXcAFN2","","","","","","","","","","","","","","","","","chosen stimuli: images/choice_trial_4.png","","","",""
"html-keyboard-response","206","471043","0.0-85.0-2.0","","null","","null","delaylearn","learning","feedback_duration_window","5f4839443d0cb52ec017448e","7uCfc104cAOVao6EaYhu5HXcAFN2","","","","","","","","","","","","","","","","","","7000","","",""
"html-keyboard-response","207","472549","0.0-85.0-3.0","","null","<div style='margin:auto;width: auto; font-size: 150%'><span style='font-weight: bold; font-size: 100px; color: red;'>0 points!</span><br><br></div>","null","delaylearn","learning","feedback_image_window","5f4839443d0cb52ec017448e","7uCfc104cAOVao6EaYhu5HXcAFN2","","","","","","","","","","","","","","","","","","","","",""
"html-keyboard-response","208","474944","0.0-86.0","","null","<div style=""font-size:100px;"">+</div>","null","delaylearn","learning","ITI","5f4839443d0cb52ec017448e","7uCfc104cAOVao6EaYhu5HXcAFN2","","","","","","","","","","","","","","","","","","","2380","",""
"html-keyboard-response","209","476080","0.0-87.0-0.0","","1134.0999999046326","<div style=""display: flex; flex-direction: column; align-items: center; margin-top: -40px;""><img src=""images/pattern_7.png"" style=""width: 234px; height: 230px; margin-top: -50px;""><div style=""display: flex; justify-content: space-between; margin-top: 33px;""><img src=""images/choice_trial_8.png"" style=""width: 408px; height: 417px; margin-right: 200px;""><img src=""images/choice_trial_15.png"" style=""width: 408px; height: 417px;""></div></div>","f","delaylearn","learning","trial","5f4839443d0cb52ec017448e","7uCfc104cAOVao6EaYhu5HXcAFN2","2","images/choice_trial_8.png","images/choice_trial_15.png","images/pattern_7.png","f","f","750","8","15","6","0","38","1","1","8","220","","","","",""
"html-keyboard-response","210","477096","0.0-87.0-1.0","","null","<div style=""display: flex; flex-direction: column; align-items: center; margin-top: -40px;""><img src=""images/pattern_7.png"" style=""width: 234px; height: 230px; margin-top: -50px;""><div style=""display: flex; justify-content: space-between; margin-top: 33px;""><img src=""images/choice_trial_8.png"" style=""width: 408px; height: 417px; margin-right: 608px;""></div></div>","null","delaylearn","learning","display_response","5f4839443d0cb52ec017448e","7uCfc104cAOVao6EaYhu5HXcAFN2","","","","","","","","","","","","","","","","","chosen stimuli: images/choice_trial_8.png","","","",""
"html-keyboard-response","211","477848","0.0-87.0-2.0","","null","","null","delaylearn","learning","feedback_duration_window","5f4839443d0cb52ec017448e","7uCfc104cAOVao6EaYhu5HXcAFN2","","","","","","","","","","","","","","","","","","750","","",""
"html-keyboard-response","212","479350","0.0-87.0-3.0","","null","<div style='margin:auto;width: auto; font-size: 150%'><span style='font-weight: bold; font-size: 100px; color: green;'>+10 points!</span><br><br></div>","null","delaylearn","learning","feedback_image_window","5f4839443d0cb52ec017448e","7uCfc104cAOVao6EaYhu5HXcAFN2","","","","","","","","","","","","","","","","","","","","",""
"html-keyboard-response","213","480993","0.0-88.0","","null","<div style=""font-size:100px;"">+</div>","null","delaylearn","learning","ITI","5f4839443d0cb52ec017448e","7uCfc104cAOVao6EaYhu5HXcAFN2","","","","","","","","","","","","","","","","","","","1630","",""
"html-keyboard-response","214","482022","0.0-89.0-0.0","","1025.5","<div style=""display: flex; flex-direction: column; align-items: center; margin-top: -40px;""><img src=""images/pattern_1.png"" style=""width: 234px; height: 230px; margin-top: -50px;""><div style=""display: flex; justify-content: space-between; margin-top: 33px;""><img src=""images/choice_trial_3.png"" style=""width: 408px; height: 417px; margin-right: 200px;""><img src=""images/choice_trial_10.png"" style=""width: 408px; height: 417px;""></div></div>","f","delaylearn","learning","trial","5f4839443d0cb52ec017448e","7uCfc104cAOVao6EaYhu5HXcAFN2","2","images/choice_trial_3.png","images/choice_trial_10.png","images/pattern_1.png","f","f","7000","3","10","1","0","39","1","1","3","230","","","","",""
"html-keyboard-response","215","483028","0.0-89.0-1.0","","null","<div style=""display: flex; flex-direction: column; align-items: center; margin-top: -40px;""><img src=""images/pattern_1.png"" style=""width: 234px; height: 230px; margin-top: -50px;""><div style=""display: flex; justify-content: space-between; margin-top: 33px;""><img src=""images/choice_trial_3.png"" style=""width: 408px; height: 417px; margin-right: 608px;""></div></div>","null","delaylearn","learning","display_response","5f4839443d0cb52ec017448e","7uCfc104cAOVao6EaYhu5HXcAFN2","","","","","","","","","","","","","","","","","chosen stimuli: images/choice_trial_3.png","","","",""
"html-keyboard-response","216","490030","0.0-89.0-2.0","","null","","null","delaylearn","learning","feedback_duration_window","5f4839443d0cb52ec017448e","7uCfc104cAOVao6EaYhu5HXcAFN2","","","","","","","","","","","","","","","","","","7000","","",""
"html-keyboard-response","217","491534","0.0-89.0-3.0","","null","<div style='margin:auto;width: auto; font-size: 150%'><span style='font-weight: bold; font-size: 100px; color: green;'>+10 points!</span><br><br></div>","null","delaylearn","learning","feedback_image_window","5f4839443d0cb52ec017448e","7uCfc104cAOVao6EaYhu5HXcAFN2","","","","","","","","","","","","","","","","","","","","",""
"html-keyboard-response","218","492043","0.0-90.0-0.0","","null","","null","","","mood_trial_fixation","","","","","","","","","","","","","","","","","","","","","","",""
"lmdlab-html-vas-response","219","497566","0.0-90.0-1.0","","4504","How happy are you right now?","0.38425925925925924","delaylearn","learning","mood_trial","5f4839443d0cb52ec017448e","7uCfc104cAOVao6EaYhu5HXcAFN2","","","","","","","","","","","","","","","","","","","","[""Very unhappy"",""Very happy""]",""
"html-keyboard-response","220","499164","0.0-91.0","","null","<div style=""font-size:100px;"">+</div>","null","delaylearn","learning","ITI","5f4839443d0cb52ec017448e","7uCfc104cAOVao6EaYhu5HXcAFN2","","","","","","","","","","","","","","","","","","","1587","",""
