"trial_type","trial_index","time_elapsed","internal_node_id","participant","rt","stimulus","response","exp_name","exp_stage","test_part","subjectID","databaseID","counterbal","choice_stimuli_1","choice_stimuli_2","pattern_stimuli","rewarded_answer","correct_answer","feedback_duration_times","stim_left","stim_right","pair","leftright_counter","trial","response_correct","response_rewarded","chosen_stim","counter","displayed_choice","feedback_durations","ITI_duration","labels","rest_warning"
"pavlovia","0","445","0.0-0.0","","","","","","","","","","","","","","","","","","","","","","","","","","","","","",""
"html-keyboard-response","1","3448","0.0-1.0","","null","<div style=""font-size:100px;"">+</div>","null","delaylearn","learning","pre_fixation","60fd1bde8dda943c26fa38a2","","","","","","","","","","","","","","","","","","","","","",""
"html-keyboard-response","2","6321","0.0-2.0-0.0","","2861","<div style=""display: flex; flex-direction: column; align-items: center; margin-top: -40px;""><img src=""images/demo_images/pattern_1.png"" style=""width: 234px; height: 230px; margin-top: -50px;""><div style=""display: flex; justify-content: space-between; margin-top: 33px;""><img src=""images/demo_images/choice_trial_2.png"" style=""width: 408px; height: 417px; margin-right: 200px;""><img src=""images/demo_images/choice_trial_1.png"" style=""width: 408px; height: 417px;""></div></div>","j","delaylearn","learning","trial","60fd1bde8dda943c26fa38a2","blTw2k48dbMu7aJPKhPQzjME9O23","1","images/demo_images/choice_trial_2.png","images/demo_images/choice_trial_1.png","images/demo_images/pattern_1.png","j","j","3000","2","1","20","1","1","1","1","1","10","","","","",""
"html-keyboard-response","3","7329","0.0-2.0-1.0","","null","<div style=""display: flex; flex-direction: column; align-items: center; margin-top: -40px;""><img src=""images/demo_images/pattern_1.png"" style=""width: 234px; height: 230px; margin-top: -50px;""><div style=""display: flex; justify-content: space-between; margin-top: 33px;""><img src=""images/demo_images/choice_trial_1.png"" style=""width: 408px; height: 417px; margin-left:608px;""></div></div>","null","delaylearn","learning","display_response","60fd1bde8dda943c26fa38a2","blTw2k48dbMu7aJPKhPQzjME9O23","","","","","","","","","","","","","","","","","chosen stimuli: images/demo_images/choice_trial_1.png","","","",""
"html-keyboard-response","4","10332","0.0-2.0-2.0","","null","","null","delaylearn","learning","feedback_duration_window","60fd1bde8dda943c26fa38a2","blTw2k48dbMu7aJPKhPQzjME9O23","","","","","","","","","","","","","","","","","","3000","","",""
"html-keyboard-response","5","11835","0.0-2.0-3.0","","null","<div style='margin:auto;width: auto; font-size: 150%'><span style='font-weight: bold; font-size: 100px; color: green;'>+10 points!</span><br><br></div>","null","delaylearn","learning","feedback_image_window","60fd1bde8dda943c26fa38a2","blTw2k48dbMu7aJPKhPQzjME9O23","","","","","","","","","","","","","","","","","","","","",""
"html-keyboard-response","6","14251","0.0-3.0","","null","<div style=""font-size:100px;"">+</div>","null","delaylearn","learning","ITI","60fd1bde8dda943c26fa38a2","blTw2k48dbMu7aJPKhPQzjME9O23","","","","","","","","","","","","","","","","","","","2413","",""
"html-keyboard-response","7","15598","0.0-4.0-0.0","","1336","<div style=""display: flex; flex-direction: column; align-items: center; margin-top: -40px;""><img src=""images/demo_images/pattern_1.png"" style=""width: 234px; height: 230px; margin-top: -50px;""><div style=""display: flex; justify-content: space-between; margin-top: 33px;""><img src=""images/demo_images/choice_trial_2.png"" style=""width: 408px; height: 417px; margin-right: 200px;""><img src=""images/demo_images/choice_trial_1.png"" style=""width: 408px; height: 417px;""></div></div>","j","delaylearn","learning","trial","60fd1bde8dda943c26fa38a2","blTw2k48dbMu7aJPKhPQzjME9O23","1","images/demo_images/choice_trial_2.png","images/demo_images/choice_trial_1.png","images/demo_images/pattern_1.png","j","j","3000","2","1","20","1","2","1","1","1","20","","","","",""
"html-keyboard-response","8","16606","0.0-4.0-1.0","","null","<div style=""display: flex; flex-direction: column; align-items: center; margin-top: -40px;""><img src=""images/demo_images/pattern_1.png"" style=""width: 234px; height: 230px; margin-top: -50px;""><div style=""display: flex; justify-content: space-between; margin-top: 33px;""><img src=""images/demo_images/choice_trial_1.png"" style=""width: 408px; height: 417px; margin-left:608px;""></div></div>","null","delaylearn","learning","display_response","60fd1bde8dda943c26fa38a2","blTw2k48dbMu7aJPKhPQzjME9O23","","","","","","","","","","","","","","","","","chosen stimuli: images/demo_images/choice_trial_1.png","","","",""
"html-keyboard-response","9","19607","0.0-4.0-2.0","","null","","null","delaylearn","learning","feedback_duration_window","60fd1bde8dda943c26fa38a2","blTw2k48dbMu7aJPKhPQzjME9O23","","","","","","","","","","","","","","","","","","3000","","",""
"html-keyboard-response","10","21110","0.0-4.0-3.0","","null","<div style='margin:auto;width: auto; font-size: 150%'><span style='font-weight: bold; font-size: 100px; color: green;'>+10 points!</span><br><br></div>","null","delaylearn","learning","feedback_image_window","60fd1bde8dda943c26fa38a2","blTw2k48dbMu7aJPKhPQzjME9O23","","","","","","","","","","","","","","","","","","","","",""
"html-keyboard-response","11","23356","0.0-5.0","","null","<div style=""font-size:100px;"">+</div>","null","delaylearn","learning","ITI","60fd1bde8dda943c26fa38a2","blTw2k48dbMu7aJPKhPQzjME9O23","","","","","","","","","","","","","","","","","","","2244","",""
"html-keyboard-response","12","24241","0.0-6.0-0.0","","874.0000000000291","<div style=""display: flex; flex-direction: column; align-items: center; margin-top: -40px;""><img src=""images/demo_images/pattern_1.png"" style=""width: 234px; height: 230px; margin-top: -50px;""><div style=""display: flex; justify-content: space-between; margin-top: 33px;""><img src=""images/demo_images/choice_trial_1.png"" style=""width: 408px; height: 417px; margin-right: 200px;""><img src=""images/demo_images/choice_trial_2.png"" style=""width: 408px; height: 417px;""></div></div>","f","delaylearn","learning","trial","60fd1bde8dda943c26fa38a2","blTw2k48dbMu7aJPKhPQzjME9O23","1","images/demo_images/choice_trial_1.png","images/demo_images/choice_trial_2.png","images/demo_images/pattern_1.png","j","f","3000","1","2","20","0","3","1","0","1","20","","","","",""
"html-keyboard-response","13","25252","0.0-6.0-1.0","","null","<div style=""display: flex; flex-direction: column; align-items: center; margin-top: -40px;""><img src=""images/demo_images/pattern_1.png"" style=""width: 234px; height: 230px; margin-top: -50px;""><div style=""display: flex; justify-content: space-between; margin-top: 33px;""><img src=""images/demo_images/choice_trial_1.png"" style=""width: 408px; height: 417px; margin-right: 608px;""></div></div>","null","delaylearn","learning","display_response","60fd1bde8dda943c26fa38a2","blTw2k48dbMu7aJPKhPQzjME9O23","","","","","","","","","","","","","","","","","chosen stimuli: images/demo_images/choice_trial_1.png","","","",""
"html-keyboard-response","14","28254","0.0-6.0-2.0","","null","","null","delaylearn","learning","feedback_duration_window","60fd1bde8dda943c26fa38a2","blTw2k48dbMu7aJPKhPQzjME9O23","","","","","","","","","","","","","","","","","","3000","","",""
"html-keyboard-response","15","29756","0.0-6.0-3.0","","null","<div style='margin:auto;width: auto; font-size: 150%'><span style='font-weight: bold; font-size: 100px; color: red;'>0 points!</span><br><br></div>","null","delaylearn","learning","feedback_image_window","60fd1bde8dda943c26fa38a2","blTw2k48dbMu7aJPKhPQzjME9O23","","","","","","","","","","","","","","","","","","","","",""
"html-keyboard-response","16","32037","0.0-7.0","","null","<div style=""font-size:100px;"">+</div>","null","delaylearn","learning","ITI","60fd1bde8dda943c26fa38a2","blTw2k48dbMu7aJPKhPQzjME9O23","","","","","","","","","","","","","","","","","","","2278","",""
"html-keyboard-response","17","33079","0.0-8.0-0.0","","1031","<div style=""display: flex; flex-direction: column; align-items: center; margin-top: -40px;""><img src=""images/demo_images/pattern_1.png"" style=""width: 234px; height: 230px; margin-top: -50px;""><div style=""display: flex; justify-content: space-between; margin-top: 33px;""><img src=""images/demo_images/choice_trial_1.png"" style=""width: 408px; height: 417px; margin-right: 200px;""><img src=""images/demo_images/choice_trial_2.png"" style=""width: 408px; height: 417px;""></div></div>","j","delaylearn","learning","trial","60fd1bde8dda943c26fa38a2","blTw2k48dbMu7aJPKhPQzjME9O23","1","images/demo_images/choice_trial_1.png","images/demo_images/choice_trial_2.png","images/demo_images/pattern_1.png","f","f","3000","1","2","20","0","4","0","0","2","20","","","","",""
"html-keyboard-response","18","34086","0.0-8.0-1.0","","null","<div style=""display: flex; flex-direction: column; align-items: center; margin-top: -40px;""><img src=""images/demo_images/pattern_1.png"" style=""width: 234px; height: 230px; margin-top: -50px;""><div style=""display: flex; justify-content: space-between; margin-top: 33px;""><img src=""images/demo_images/choice_trial_2.png"" style=""width: 408px; height: 417px; margin-left:608px;""></div></div>","null","delaylearn","learning","display_response","60fd1bde8dda943c26fa38a2","blTw2k48dbMu7aJPKhPQzjME9O23","","","","","","","","","","","","","","","","","chosen stimuli: images/demo_images/choice_trial_2.png","","","",""
"html-keyboard-response","19","37088","0.0-8.0-2.0","","null","","null","delaylearn","learning","feedback_duration_window","60fd1bde8dda943c26fa38a2","blTw2k48dbMu7aJPKhPQzjME9O23","","","","","","","","","","","","","","","","","","3000","","",""
"html-keyboard-response","20","38590","0.0-8.0-3.0","","null","<div style='margin:auto;width: auto; font-size: 150%'><span style='font-weight: bold; font-size: 100px; color: red;'>0 points!</span><br><br></div>","null","delaylearn","learning","feedback_image_window","60fd1bde8dda943c26fa38a2","blTw2k48dbMu7aJPKhPQzjME9O23","","","","","","","","","","","","","","","","","","","","",""
"html-keyboard-response","21","39093","0.0-9.0-0.0","","null","","null","","","mood_trial_fixation","","","","","","","","","","","","","","","","","","","","","","",""
"lmdlab-html-vas-response","22","44285","0.0-9.0-1.0","","4185","How happy are you right now?","0.4962962962962963","delaylearn","learning","mood_trial","60fd1bde8dda943c26fa38a2","blTw2k48dbMu7aJPKhPQzjME9O23","","","","","","","","","","","","","","","","","","","","[""Very unhappy"",""Very happy""]",""
"html-keyboard-response","23","45845","0.0-10.0","","null","<div style=""font-size:100px;"">+</div>","null","delaylearn","learning","ITI","60fd1bde8dda943c26fa38a2","blTw2k48dbMu7aJPKhPQzjME9O23","","","","","","","","","","","","","","","","","","","1558","",""
"html-keyboard-response","24","47978","0.0-11.0-0.0","","2123.000000000029","<div style=""display: flex; flex-direction: column; align-items: center; margin-top: -40px;""><img src=""images/demo_images/pattern_1.png"" style=""width: 234px; height: 230px; margin-top: -50px;""><div style=""display: flex; justify-content: space-between; margin-top: 33px;""><img src=""images/demo_images/choice_trial_2.png"" style=""width: 408px; height: 417px; margin-right: 200px;""><img src=""images/demo_images/choice_trial_1.png"" style=""width: 408px; height: 417px;""></div></div>","j","delaylearn","learning","trial","60fd1bde8dda943c26fa38a2","blTw2k48dbMu7aJPKhPQzjME9O23","1","images/demo_images/choice_trial_2.png","images/demo_images/choice_trial_1.png","images/demo_images/pattern_1.png","j","j","3000","2","1","20","1","5","1","1","1","30","","","","",""
"html-keyboard-response","25","48986","0.0-11.0-1.0","","null","<div style=""display: flex; flex-direction: column; align-items: center; margin-top: -40px;""><img src=""images/demo_images/pattern_1.png"" style=""width: 234px; height: 230px; margin-top: -50px;""><div style=""display: flex; justify-content: space-between; margin-top: 33px;""><img src=""images/demo_images/choice_trial_1.png"" style=""width: 408px; height: 417px; margin-left:608px;""></div></div>","null","delaylearn","learning","display_response","60fd1bde8dda943c26fa38a2","blTw2k48dbMu7aJPKhPQzjME9O23","","","","","","","","","","","","","","","","","chosen stimuli: images/demo_images/choice_trial_1.png","","","",""
"html-keyboard-response","26","51988","0.0-11.0-2.0","","null","","null","delaylearn","learning","feedback_duration_window","60fd1bde8dda943c26fa38a2","blTw2k48dbMu7aJPKhPQzjME9O23","","","","","","","","","","","","","","","","","","3000","","",""
"html-keyboard-response","27","53491","0.0-11.0-3.0","","null","<div style='margin:auto;width: auto; font-size: 150%'><span style='font-weight: bold; font-size: 100px; color: green;'>+10 points!</span><br><br></div>","null","delaylearn","learning","feedback_image_window","60fd1bde8dda943c26fa38a2","blTw2k48dbMu7aJPKhPQzjME9O23","","","","","","","","","","","","","","","","","","","","",""
"html-keyboard-response","28","55528","0.0-12.0","","null","<div style=""font-size:100px;"">+</div>","null","delaylearn","learning","ITI","60fd1bde8dda943c26fa38a2","blTw2k48dbMu7aJPKhPQzjME9O23","","","","","","","","","","","","","","","","","","","2035","",""
"html-keyboard-response","29","56561","0.0-13.0-0.0","","1023.0000000000291","<div style=""display: flex; flex-direction: column; align-items: center; margin-top: -40px;""><img src=""images/demo_images/pattern_1.png"" style=""width: 234px; height: 230px; margin-top: -50px;""><div style=""display: flex; justify-content: space-between; margin-top: 33px;""><img src=""images/demo_images/choice_trial_1.png"" style=""width: 408px; height: 417px; margin-right: 200px;""><img src=""images/demo_images/choice_trial_2.png"" style=""width: 408px; height: 417px;""></div></div>","f","delaylearn","learning","trial","60fd1bde8dda943c26fa38a2","blTw2k48dbMu7aJPKhPQzjME9O23","1","images/demo_images/choice_trial_1.png","images/demo_images/choice_trial_2.png","images/demo_images/pattern_1.png","f","f","3000","1","2","20","0","6","1","1","1","40","","","","",""
"html-keyboard-response","30","57569","0.0-13.0-1.0","","null","<div style=""display: flex; flex-direction: column; align-items: center; margin-top: -40px;""><img src=""images/demo_images/pattern_1.png"" style=""width: 234px; height: 230px; margin-top: -50px;""><div style=""display: flex; justify-content: space-between; margin-top: 33px;""><img src=""images/demo_images/choice_trial_1.png"" style=""width: 408px; height: 417px; margin-right: 608px;""></div></div>","null","delaylearn","learning","display_response","60fd1bde8dda943c26fa38a2","blTw2k48dbMu7aJPKhPQzjME9O23","","","","","","","","","","","","","","","","","chosen stimuli: images/demo_images/choice_trial_1.png","","","",""
"html-keyboard-response","31","60571","0.0-13.0-2.0","","null","","null","delaylearn","learning","feedback_duration_window","60fd1bde8dda943c26fa38a2","blTw2k48dbMu7aJPKhPQzjME9O23","","","","","","","","","","","","","","","","","","3000","","",""
"html-keyboard-response","32","62073","0.0-13.0-3.0","","null","<div style='margin:auto;width: auto; font-size: 150%'><span style='font-weight: bold; font-size: 100px; color: green;'>+10 points!</span><br><br></div>","null","delaylearn","learning","feedback_image_window","60fd1bde8dda943c26fa38a2","blTw2k48dbMu7aJPKhPQzjME9O23","","","","","","","","","","","","","","","","","","","","",""
"html-keyboard-response","33","63630","0.0-14.0","","null","<div style=""font-size:100px;"">+</div>","null","delaylearn","learning","ITI","60fd1bde8dda943c26fa38a2","blTw2k48dbMu7aJPKhPQzjME9O23","","","","","","","","","","","","","","","","","","","1555","",""
"html-keyboard-response","34","64274","0.0-15.0-0.0","","633","<div style=""display: flex; flex-direction: column; align-items: center; margin-top: -40px;""><img src=""images/demo_images/pattern_1.png"" style=""width: 234px; height: 230px; margin-top: -50px;""><div style=""display: flex; justify-content: space-between; margin-top: 33px;""><img src=""images/demo_images/choice_trial_2.png"" style=""width: 408px; height: 417px; margin-right: 200px;""><img src=""images/demo_images/choice_trial_1.png"" style=""width: 408px; height: 417px;""></div></div>","j","delaylearn","learning","trial","60fd1bde8dda943c26fa38a2","blTw2k48dbMu7aJPKhPQzjME9O23","1","images/demo_images/choice_trial_2.png","images/demo_images/choice_trial_1.png","images/demo_images/pattern_1.png","j","j","3000","2","1","20","1","7","1","1","1","50","","","","",""
"html-keyboard-response","35","65282","0.0-15.0-1.0","","null","<div style=""display: flex; flex-direction: column; align-items: center; margin-top: -40px;""><img src=""images/demo_images/pattern_1.png"" style=""width: 234px; height: 230px; margin-top: -50px;""><div style=""display: flex; justify-content: space-between; margin-top: 33px;""><img src=""images/demo_images/choice_trial_1.png"" style=""width: 408px; height: 417px; margin-left:608px;""></div></div>","null","delaylearn","learning","display_response","60fd1bde8dda943c26fa38a2","blTw2k48dbMu7aJPKhPQzjME9O23","","","","","","","","","","","","","","","","","chosen stimuli: images/demo_images/choice_trial_1.png","","","",""
"html-keyboard-response","36","68284","0.0-15.0-2.0","","null","","null","delaylearn","learning","feedback_duration_window","60fd1bde8dda943c26fa38a2","blTw2k48dbMu7aJPKhPQzjME9O23","","","","","","","","","","","","","","","","","","3000","","",""
"html-keyboard-response","37","69787","0.0-15.0-3.0","","null","<div style='margin:auto;width: auto; font-size: 150%'><span style='font-weight: bold; font-size: 100px; color: green;'>+10 points!</span><br><br></div>","null","delaylearn","learning","feedback_image_window","60fd1bde8dda943c26fa38a2","blTw2k48dbMu7aJPKhPQzjME9O23","","","","","","","","","","","","","","","","","","","","",""
"html-keyboard-response","38","71620","0.0-16.0","","null","<div style=""font-size:100px;"">+</div>","null","delaylearn","learning","ITI","60fd1bde8dda943c26fa38a2","blTw2k48dbMu7aJPKhPQzjME9O23","","","","","","","","","","","","","","","","","","","1830","",""
"html-keyboard-response","39","72234","0.0-17.0-0.0","","605.0000000000291","<div style=""display: flex; flex-direction: column; align-items: center; margin-top: -40px;""><img src=""images/demo_images/pattern_1.png"" style=""width: 234px; height: 230px; margin-top: -50px;""><div style=""display: flex; justify-content: space-between; margin-top: 33px;""><img src=""images/demo_images/choice_trial_1.png"" style=""width: 408px; height: 417px; margin-right: 200px;""><img src=""images/demo_images/choice_trial_2.png"" style=""width: 408px; height: 417px;""></div></div>","f","delaylearn","learning","trial","60fd1bde8dda943c26fa38a2","blTw2k48dbMu7aJPKhPQzjME9O23","1","images/demo_images/choice_trial_1.png","images/demo_images/choice_trial_2.png","images/demo_images/pattern_1.png","f","f","3000","1","2","20","0","8","1","1","1","60","","","","",""
"html-keyboard-response","40","73242","0.0-17.0-1.0","","null","<div style=""display: flex; flex-direction: column; align-items: center; margin-top: -40px;""><img src=""images/demo_images/pattern_1.png"" style=""width: 234px; height: 230px; margin-top: -50px;""><div style=""display: flex; justify-content: space-between; margin-top: 33px;""><img src=""images/demo_images/choice_trial_1.png"" style=""width: 408px; height: 417px; margin-right: 608px;""></div></div>","null","delaylearn","learning","display_response","60fd1bde8dda943c26fa38a2","blTw2k48dbMu7aJPKhPQzjME9O23","","","","","","","","","","","","","","","","","chosen stimuli: images/demo_images/choice_trial_1.png","","","",""
"html-keyboard-response","41","76244","0.0-17.0-2.0","","null","","null","delaylearn","learning","feedback_duration_window","60fd1bde8dda943c26fa38a2","blTw2k48dbMu7aJPKhPQzjME9O23","","","","","","","","","","","","","","","","","","3000","","",""
"html-keyboard-response","42","77747","0.0-17.0-3.0","","null","<div style='margin:auto;width: auto; font-size: 150%'><span style='font-weight: bold; font-size: 100px; color: green;'>+10 points!</span><br><br></div>","null","delaylearn","learning","feedback_image_window","60fd1bde8dda943c26fa38a2","blTw2k48dbMu7aJPKhPQzjME9O23","","","","","","","","","","","","","","","","","","","","",""
"html-button-response","43","81168","0.0-18.0","","3416","
  <div style=""display: flex; align-items: center; justify-content: center; height: 80vh;"">
  <div>
          <img src=""images/inst_demo_finish.png"" style=""width: 80vw; height:auto;"">
          <br><br>
      </div>
      <br><br>
  </div>","0","","","","","","","","","","","","","","","","","","","","","","","","","",""
"html-keyboard-response","44","83320","0.0-19.0","","2147","
  <div style=""display: flex; align-items: center; justify-content: center; height: 80vh;"">
  <div>
          <img src=""images/inst_6.png"" style=""width: 80vw; height:auto;"">
          <br><br>
      </div>
      <br><br>
  </div>","j","","","","","","","","","","","","","","","","","","","","","","","","","",""
"html-keyboard-response","45","86322","0.0-20.0","","null","<div style=""font-size:100px;"">+</div>","null","delaylearn","learning","pre_fixation","60fd1bde8dda943c26fa38a2","","","","","","","","","","","","","","","","","","","","","",""
"html-keyboard-response","46","87955","0.0-21.0","","null","<div style=""font-size:100px;"">+</div>","null","delaylearn","learning","ITI","60fd1bde8dda943c26fa38a2","blTw2k48dbMu7aJPKhPQzjME9O23","","","","","","","","","","","","","","","","","","","1629","",""
"html-keyboard-response","47","89488","0.0-22.0-0.0","","1522","<div style=""display: flex; flex-direction: column; align-items: center; margin-top: -40px;""><img src=""images/pattern_3.png"" style=""width: 234px; height: 230px; margin-top: -50px;""><div style=""display: flex; justify-content: space-between; margin-top: 33px;""><img src=""images/choice_trial_5.png"" style=""width: 408px; height: 417px; margin-right: 200px;""><img src=""images/choice_trial_6.png"" style=""width: 408px; height: 417px;""></div></div>","f","delaylearn","learning","trial","60fd1bde8dda943c26fa38a2","blTw2k48dbMu7aJPKhPQzjME9O23","1","images/choice_trial_5.png","images/choice_trial_6.png","images/pattern_3.png","f","f","7000","5","6","2","0","9","1","1","5","70","","","","",""
"html-keyboard-response","48","90496","0.0-22.0-1.0","","null","<div style=""display: flex; flex-direction: column; align-items: center; margin-top: -40px;""><img src=""images/pattern_3.png"" style=""width: 234px; height: 230px; margin-top: -50px;""><div style=""display: flex; justify-content: space-between; margin-top: 33px;""><img src=""images/choice_trial_5.png"" style=""width: 408px; height: 417px; margin-right: 608px;""></div></div>","null","delaylearn","learning","display_response","60fd1bde8dda943c26fa38a2","blTw2k48dbMu7aJPKhPQzjME9O23","","","","","","","","","","","","","","","","","chosen stimuli: images/choice_trial_5.png","","","",""
"html-keyboard-response","49","97498","0.0-22.0-2.0","","null","","null","delaylearn","learning","feedback_duration_window","60fd1bde8dda943c26fa38a2","blTw2k48dbMu7aJPKhPQzjME9O23","","","","","","","","","","","","","","","","","","7000","","",""
"html-keyboard-response","50","99001","0.0-22.0-3.0","","null","<div style='margin:auto;width: auto; font-size: 150%'><span style='font-weight: bold; font-size: 100px; color: green;'>+10 points!</span><br><br></div>","null","delaylearn","learning","feedback_image_window","60fd1bde8dda943c26fa38a2","blTw2k48dbMu7aJPKhPQzjME9O23","","","","","","","","","","","","","","","","","","","","",""
"html-keyboard-response","51","100571","0.0-23.0","","null","<div style=""font-size:100px;"">+</div>","null","delaylearn","learning","ITI","60fd1bde8dda943c26fa38a2","blTw2k48dbMu7aJPKhPQzjME9O23","","","","","","","","","","","","","","","","","","","1568","",""
"html-keyboard-response","52","103175","0.0-24.0-0.0","","2594","<div style=""display: flex; flex-direction: column; align-items: center; margin-top: -40px;""><img src=""images/pattern_7.png"" style=""width: 234px; height: 230px; margin-top: -50px;""><div style=""display: flex; justify-content: space-between; margin-top: 33px;""><img src=""images/choice_trial_14.png"" style=""width: 408px; height: 417px; margin-right: 200px;""><img src=""images/choice_trial_13.png"" style=""width: 408px; height: 417px;""></div></div>","f","delaylearn","learning","trial","60fd1bde8dda943c26fa38a2","blTw2k48dbMu7aJPKhPQzjME9O23","1","images/choice_trial_14.png","images/choice_trial_13.png","images/pattern_7.png","j","j","750","14","13","6","1","10","0","0","14","70","","","","",""
"html-keyboard-response","53","104182","0.0-24.0-1.0","","null","<div style=""display: flex; flex-direction: column; align-items: center; margin-top: -40px;""><img src=""images/pattern_7.png"" style=""width: 234px; height: 230px; margin-top: -50px;""><div style=""display: flex; justify-content: space-between; margin-top: 33px;""><img src=""images/choice_trial_14.png"" style=""width: 408px; height: 417px; margin-right: 608px;""></div></div>","null","delaylearn","learning","display_response","60fd1bde8dda943c26fa38a2","blTw2k48dbMu7aJPKhPQzjME9O23","","","","","","","","","","","","","","","","","chosen stimuli: images/choice_trial_14.png","","","",""
"html-keyboard-response","54","104934","0.0-24.0-2.0","","null","","null","delaylearn","learning","feedback_duration_window","60fd1bde8dda943c26fa38a2","blTw2k48dbMu7aJPKhPQzjME9O23","","","","","","","","","","","","","","","","","","750","","",""
"html-keyboard-response","55","106436","0.0-24.0-3.0","","null","<div style='margin:auto;width: auto; font-size: 150%'><span style='font-weight: bold; font-size: 100px; color: red;'>0 points!</span><br><br></div>","null","delaylearn","learning","feedback_image_window","60fd1bde8dda943c26fa38a2","blTw2k48dbMu7aJPKhPQzjME9O23","","","","","","","","","","","","","","","","","","","","",""
"html-keyboard-response","56","108638","0.0-25.0","","null","<div style=""font-size:100px;"">+</div>","null","delaylearn","learning","ITI","60fd1bde8dda943c26fa38a2","blTw2k48dbMu7aJPKhPQzjME9O23","","","","","","","","","","","","","","","","","","","2200","",""
"html-keyboard-response","57","111268","0.0-26.0-0.0","","2619","<div style=""display: flex; flex-direction: column; align-items: center; margin-top: -40px;""><img src=""images/pattern_4.png"" style=""width: 234px; height: 230px; margin-top: -50px;""><div style=""display: flex; justify-content: space-between; margin-top: 33px;""><img src=""images/choice_trial_7.png"" style=""width: 408px; height: 417px; margin-right: 200px;""><img src=""images/choice_trial_8.png"" style=""width: 408px; height: 417px;""></div></div>","j","delaylearn","learning","trial","60fd1bde8dda943c26fa38a2","blTw2k48dbMu7aJPKhPQzjME9O23","1","images/choice_trial_7.png","images/choice_trial_8.png","images/pattern_4.png","f","f","7000","7","8","3","0","11","0","0","8","70","","","","",""
"html-keyboard-response","58","112276","0.0-26.0-1.0","","null","<div style=""display: flex; flex-direction: column; align-items: center; margin-top: -40px;""><img src=""images/pattern_4.png"" style=""width: 234px; height: 230px; margin-top: -50px;""><div style=""display: flex; justify-content: space-between; margin-top: 33px;""><img src=""images/choice_trial_8.png"" style=""width: 408px; height: 417px; margin-left:608px;""></div></div>","null","delaylearn","learning","display_response","60fd1bde8dda943c26fa38a2","blTw2k48dbMu7aJPKhPQzjME9O23","","","","","","","","","","","","","","","","","chosen stimuli: images/choice_trial_8.png","","","",""
"html-keyboard-response","59","119278","0.0-26.0-2.0","","null","","null","delaylearn","learning","feedback_duration_window","60fd1bde8dda943c26fa38a2","blTw2k48dbMu7aJPKhPQzjME9O23","","","","","","","","","","","","","","","","","","7000","","",""
"html-keyboard-response","60","120779","0.0-26.0-3.0","","null","<div style='margin:auto;width: auto; font-size: 150%'><span style='font-weight: bold; font-size: 100px; color: red;'>0 points!</span><br><br></div>","null","delaylearn","learning","feedback_image_window","60fd1bde8dda943c26fa38a2","blTw2k48dbMu7aJPKhPQzjME9O23","","","","","","","","","","","","","","","","","","","","",""
"html-keyboard-response","61","123155","0.0-27.0","","null","<div style=""font-size:100px;"">+</div>","null","delaylearn","learning","ITI","60fd1bde8dda943c26fa38a2","blTw2k48dbMu7aJPKhPQzjME9O23","","","","","","","","","","","","","","","","","","","2373","",""
"html-keyboard-response","62","124819","0.0-28.0-0.0","","1653","<div style=""display: flex; flex-direction: column; align-items: center; margin-top: -40px;""><img src=""images/pattern_5.png"" style=""width: 234px; height: 230px; margin-top: -50px;""><div style=""display: flex; justify-content: space-between; margin-top: 33px;""><img src=""images/choice_trial_10.png"" style=""width: 408px; height: 417px; margin-right: 200px;""><img src=""images/choice_trial_9.png"" style=""width: 408px; height: 417px;""></div></div>","j","delaylearn","learning","trial","60fd1bde8dda943c26fa38a2","blTw2k48dbMu7aJPKhPQzjME9O23","1","images/choice_trial_10.png","images/choice_trial_9.png","images/pattern_5.png","j","j","750","10","9","4","1","12","1","1","9","80","","","","",""
"html-keyboard-response","63","125827","0.0-28.0-1.0","","null","<div style=""display: flex; flex-direction: column; align-items: center; margin-top: -40px;""><img src=""images/pattern_5.png"" style=""width: 234px; height: 230px; margin-top: -50px;""><div style=""display: flex; justify-content: space-between; margin-top: 33px;""><img src=""images/choice_trial_9.png"" style=""width: 408px; height: 417px; margin-left:608px;""></div></div>","null","delaylearn","learning","display_response","60fd1bde8dda943c26fa38a2","blTw2k48dbMu7aJPKhPQzjME9O23","","","","","","","","","","","","","","","","","chosen stimuli: images/choice_trial_9.png","","","",""
"html-keyboard-response","64","126579","0.0-28.0-2.0","","null","","null","delaylearn","learning","feedback_duration_window","60fd1bde8dda943c26fa38a2","blTw2k48dbMu7aJPKhPQzjME9O23","","","","","","","","","","","","","","","","","","750","","",""
"html-keyboard-response","65","128082","0.0-28.0-3.0","","null","<div style='margin:auto;width: auto; font-size: 150%'><span style='font-weight: bold; font-size: 100px; color: green;'>+10 points!</span><br><br></div>","null","delaylearn","learning","feedback_image_window","60fd1bde8dda943c26fa38a2","blTw2k48dbMu7aJPKhPQzjME9O23","","","","","","","","","","","","","","","","","","","","",""
"html-keyboard-response","66","129638","0.0-29.0","","null","<div style=""font-size:100px;"">+</div>","null","delaylearn","learning","ITI","60fd1bde8dda943c26fa38a2","blTw2k48dbMu7aJPKhPQzjME9O23","","","","","","","","","","","","","","","","","","","1554","",""
"html-keyboard-response","67","131797","0.0-30.0-0.0","","2149","<div style=""display: flex; flex-direction: column; align-items: center; margin-top: -40px;""><img src=""images/pattern_6.png"" style=""width: 234px; height: 230px; margin-top: -50px;""><div style=""display: flex; justify-content: space-between; margin-top: 33px;""><img src=""images/choice_trial_11.png"" style=""width: 408px; height: 417px; margin-right: 200px;""><img src=""images/choice_trial_12.png"" style=""width: 408px; height: 417px;""></div></div>","f","delaylearn","learning","trial","60fd1bde8dda943c26fa38a2","blTw2k48dbMu7aJPKhPQzjME9O23","1","images/choice_trial_11.png","images/choice_trial_12.png","images/pattern_6.png","j","f","750","11","12","5","0","13","1","0","11","80","","","","",""
"html-keyboard-response","68","132806","0.0-30.0-1.0","","null","<div style=""display: flex; flex-direction: column; align-items: center; margin-top: -40px;""><img src=""images/pattern_6.png"" style=""width: 234px; height: 230px; margin-top: -50px;""><div style=""display: flex; justify-content: space-between; margin-top: 33px;""><img src=""images/choice_trial_11.png"" style=""width: 408px; height: 417px; margin-right: 608px;""></div></div>","null","delaylearn","learning","display_response","60fd1bde8dda943c26fa38a2","blTw2k48dbMu7aJPKhPQzjME9O23","","","","","","","","","","","","","","","","","chosen stimuli: images/choice_trial_11.png","","","",""
"html-keyboard-response","69","133557","0.0-30.0-2.0","","null","","null","delaylearn","learning","feedback_duration_window","60fd1bde8dda943c26fa38a2","blTw2k48dbMu7aJPKhPQzjME9O23","","","","","","","","","","","","","","","","","","750","","",""
"html-keyboard-response","70","135059","0.0-30.0-3.0","","null","<div style='margin:auto;width: auto; font-size: 150%'><span style='font-weight: bold; font-size: 100px; color: red;'>0 points!</span><br><br></div>","null","delaylearn","learning","feedback_image_window","60fd1bde8dda943c26fa38a2","blTw2k48dbMu7aJPKhPQzjME9O23","","","","","","","","","","","","","","","","","","","","",""
"html-keyboard-response","71","135561","0.0-31.0-0.0","","null","","null","","","mood_trial_fixation","","","","","","","","","","","","","","","","","","","","","","",""
"lmdlab-html-vas-response","72","141328","0.0-31.0-1.0","","4762","How happy are you right now?","0.4648148148148148","delaylearn","learning","mood_trial","60fd1bde8dda943c26fa38a2","blTw2k48dbMu7aJPKhPQzjME9O23","","","","","","","","","","","","","","","","","","","","[""Very unhappy"",""Very happy""]",""
"html-keyboard-response","73","143606","0.0-32.0","","null","<div style=""font-size:100px;"">+</div>","null","delaylearn","learning","ITI","60fd1bde8dda943c26fa38a2","blTw2k48dbMu7aJPKhPQzjME9O23","","","","","","","","","","","","","","","","","","","2276","",""
"html-keyboard-response","74","145005","0.0-33.0-0.0","","1389","<div style=""display: flex; flex-direction: column; align-items: center; margin-top: -40px;""><img src=""images/pattern_1.png"" style=""width: 234px; height: 230px; margin-top: -50px;""><div style=""display: flex; justify-content: space-between; margin-top: 33px;""><img src=""images/choice_trial_2.png"" style=""width: 408px; height: 417px; margin-right: 200px;""><img src=""images/choice_trial_1.png"" style=""width: 408px; height: 417px;""></div></div>","f","delaylearn","learning","trial","60fd1bde8dda943c26fa38a2","blTw2k48dbMu7aJPKhPQzjME9O23","1","images/choice_trial_2.png","images/choice_trial_1.png","images/pattern_1.png","j","j","7000","2","1","1","1","14","0","0","2","80","","","","",""
"html-keyboard-response","75","146012","0.0-33.0-1.0","","null","<div style=""display: flex; flex-direction: column; align-items: center; margin-top: -40px;""><img src=""images/pattern_1.png"" style=""width: 234px; height: 230px; margin-top: -50px;""><div style=""display: flex; justify-content: space-between; margin-top: 33px;""><img src=""images/choice_trial_2.png"" style=""width: 408px; height: 417px; margin-right: 608px;""></div></div>","null","delaylearn","learning","display_response","60fd1bde8dda943c26fa38a2","blTw2k48dbMu7aJPKhPQzjME9O23","","","","","","","","","","","","","","","","","chosen stimuli: images/choice_trial_2.png","","","",""
"html-keyboard-response","76","153013","0.0-33.0-2.0","","null","","null","delaylearn","learning","feedback_duration_window","60fd1bde8dda943c26fa38a2","blTw2k48dbMu7aJPKhPQzjME9O23","","","","","","","","","","","","","","","","","","7000","","",""
"html-keyboard-response","77","154516","0.0-33.0-3.0","","null","<div style='margin:auto;width: auto; font-size: 150%'><span style='font-weight: bold; font-size: 100px; color: red;'>0 points!</span><br><br></div>","null","delaylearn","learning","feedback_image_window","60fd1bde8dda943c26fa38a2","blTw2k48dbMu7aJPKhPQzjME9O23","","","","","","","","","","","","","","","","","","","","",""
"html-keyboard-response","78","156426","0.0-34.0","","null","<div style=""font-size:100px;"">+</div>","null","delaylearn","learning","ITI","60fd1bde8dda943c26fa38a2","blTw2k48dbMu7aJPKhPQzjME9O23","","","","","","","","","","","","","","","","","","","1908","",""
"html-keyboard-response","79","158004","0.0-35.0-0.0","","1567.9999999999418","<div style=""display: flex; flex-direction: column; align-items: center; margin-top: -40px;""><img src=""images/pattern_3.png"" style=""width: 234px; height: 230px; margin-top: -50px;""><div style=""display: flex; justify-content: space-between; margin-top: 33px;""><img src=""images/choice_trial_6.png"" style=""width: 408px; height: 417px; margin-right: 200px;""><img src=""images/choice_trial_5.png"" style=""width: 408px; height: 417px;""></div></div>","j","delaylearn","learning","trial","60fd1bde8dda943c26fa38a2","blTw2k48dbMu7aJPKhPQzjME9O23","1","images/choice_trial_6.png","images/choice_trial_5.png","images/pattern_3.png","f","j","7000","6","5","2","1","15","1","0","5","80","","","","",""
"html-keyboard-response","80","159011","0.0-35.0-1.0","","null","<div style=""display: flex; flex-direction: column; align-items: center; margin-top: -40px;""><img src=""images/pattern_3.png"" style=""width: 234px; height: 230px; margin-top: -50px;""><div style=""display: flex; justify-content: space-between; margin-top: 33px;""><img src=""images/choice_trial_5.png"" style=""width: 408px; height: 417px; margin-left:608px;""></div></div>","null","delaylearn","learning","display_response","60fd1bde8dda943c26fa38a2","blTw2k48dbMu7aJPKhPQzjME9O23","","","","","","","","","","","","","","","","","chosen stimuli: images/choice_trial_5.png","","","",""
"html-keyboard-response","81","166012","0.0-35.0-2.0","","null","","null","delaylearn","learning","feedback_duration_window","60fd1bde8dda943c26fa38a2","blTw2k48dbMu7aJPKhPQzjME9O23","","","","","","","","","","","","","","","","","","7000","","",""
"html-keyboard-response","82","167515","0.0-35.0-3.0","","null","<div style='margin:auto;width: auto; font-size: 150%'><span style='font-weight: bold; font-size: 100px; color: red;'>0 points!</span><br><br></div>","null","delaylearn","learning","feedback_image_window","60fd1bde8dda943c26fa38a2","blTw2k48dbMu7aJPKhPQzjME9O23","","","","","","","","","","","","","","","","","","","","",""
"html-keyboard-response","83","169600","0.0-36.0","","null","<div style=""font-size:100px;"">+</div>","null","delaylearn","learning","ITI","60fd1bde8dda943c26fa38a2","blTw2k48dbMu7aJPKhPQzjME9O23","","","","","","","","","","","","","","","","","","","2083","",""
"html-keyboard-response","84","170722","0.0-37.0-0.0","","1111.0000000000582","<div style=""display: flex; flex-direction: column; align-items: center; margin-top: -40px;""><img src=""images/pattern_5.png"" style=""width: 234px; height: 230px; margin-top: -50px;""><div style=""display: flex; justify-content: space-between; margin-top: 33px;""><img src=""images/choice_trial_9.png"" style=""width: 408px; height: 417px; margin-right: 200px;""><img src=""images/choice_trial_10.png"" style=""width: 408px; height: 417px;""></div></div>","f","delaylearn","learning","trial","60fd1bde8dda943c26fa38a2","blTw2k48dbMu7aJPKhPQzjME9O23","1","images/choice_trial_9.png","images/choice_trial_10.png","images/pattern_5.png","f","f","750","9","10","4","0","16","1","1","9","90","","","","",""
"html-keyboard-response","85","171728","0.0-37.0-1.0","","null","<div style=""display: flex; flex-direction: column; align-items: center; margin-top: -40px;""><img src=""images/pattern_5.png"" style=""width: 234px; height: 230px; margin-top: -50px;""><div style=""display: flex; justify-content: space-between; margin-top: 33px;""><img src=""images/choice_trial_9.png"" style=""width: 408px; height: 417px; margin-right: 608px;""></div></div>","null","delaylearn","learning","display_response","60fd1bde8dda943c26fa38a2","blTw2k48dbMu7aJPKhPQzjME9O23","","","","","","","","","","","","","","","","","chosen stimuli: images/choice_trial_9.png","","","",""
"html-keyboard-response","86","172480","0.0-37.0-2.0","","null","","null","delaylearn","learning","feedback_duration_window","60fd1bde8dda943c26fa38a2","blTw2k48dbMu7aJPKhPQzjME9O23","","","","","","","","","","","","","","","","","","750","","",""
"html-keyboard-response","87","173982","0.0-37.0-3.0","","null","<div style='margin:auto;width: auto; font-size: 150%'><span style='font-weight: bold; font-size: 100px; color: green;'>+10 points!</span><br><br></div>","null","delaylearn","learning","feedback_image_window","60fd1bde8dda943c26fa38a2","blTw2k48dbMu7aJPKhPQzjME9O23","","","","","","","","","","","","","","","","","","","","",""
"html-keyboard-response","88","174484","0.0-38.0-0.0","","null","","null","","","mood_trial_fixation","","","","","","","","","","","","","","","","","","","","","","",""
"lmdlab-html-vas-response","89","178674","0.0-38.0-1.0","","3185","How happy are you right now?","0.5351851851851852","delaylearn","learning","mood_trial","60fd1bde8dda943c26fa38a2","blTw2k48dbMu7aJPKhPQzjME9O23","","","","","","","","","","","","","","","","","","","","[""Very unhappy"",""Very happy""]",""
"html-keyboard-response","90","180649","0.0-39.0","","null","<div style=""font-size:100px;"">+</div>","null","delaylearn","learning","ITI","60fd1bde8dda943c26fa38a2","blTw2k48dbMu7aJPKhPQzjME9O23","","","","","","","","","","","","","","","","","","","1974","",""
"html-keyboard-response","91","181967","0.0-40.0-0.0","","1304","<div style=""display: flex; flex-direction: column; align-items: center; margin-top: -40px;""><img src=""images/pattern_6.png"" style=""width: 234px; height: 230px; margin-top: -50px;""><div style=""display: flex; justify-content: space-between; margin-top: 33px;""><img src=""images/choice_trial_11.png"" style=""width: 408px; height: 417px; margin-right: 200px;""><img src=""images/choice_trial_12.png"" style=""width: 408px; height: 417px;""></div></div>","f","delaylearn","learning","trial","60fd1bde8dda943c26fa38a2","blTw2k48dbMu7aJPKhPQzjME9O23","1","images/choice_trial_11.png","images/choice_trial_12.png","images/pattern_6.png","f","f","750","11","12","5","0","17","1","1","11","100","","","","",""
"html-keyboard-response","92","182976","0.0-40.0-1.0","","null","<div style=""display: flex; flex-direction: column; align-items: center; margin-top: -40px;""><img src=""images/pattern_6.png"" style=""width: 234px; height: 230px; margin-top: -50px;""><div style=""display: flex; justify-content: space-between; margin-top: 33px;""><img src=""images/choice_trial_11.png"" style=""width: 408px; height: 417px; margin-right: 608px;""></div></div>","null","delaylearn","learning","display_response","60fd1bde8dda943c26fa38a2","blTw2k48dbMu7aJPKhPQzjME9O23","","","","","","","","","","","","","","","","","chosen stimuli: images/choice_trial_11.png","","","",""
"html-keyboard-response","93","183729","0.0-40.0-2.0","","null","","null","delaylearn","learning","feedback_duration_window","60fd1bde8dda943c26fa38a2","blTw2k48dbMu7aJPKhPQzjME9O23","","","","","","","","","","","","","","","","","","750","","",""
"html-keyboard-response","94","185231","0.0-40.0-3.0","","null","<div style='margin:auto;width: auto; font-size: 150%'><span style='font-weight: bold; font-size: 100px; color: green;'>+10 points!</span><br><br></div>","null","delaylearn","learning","feedback_image_window","60fd1bde8dda943c26fa38a2","blTw2k48dbMu7aJPKhPQzjME9O23","","","","","","","","","","","","","","","","","","","","",""
"html-keyboard-response","95","187282","0.0-41.0","","null","<div style=""font-size:100px;"">+</div>","null","delaylearn","learning","ITI","60fd1bde8dda943c26fa38a2","blTw2k48dbMu7aJPKhPQzjME9O23","","","","","","","","","","","","","","","","","","","2048","",""
"html-keyboard-response","96","189149","0.0-42.0-0.0","","1855.9999999999418","<div style=""display: flex; flex-direction: column; align-items: center; margin-top: -40px;""><img src=""images/pattern_4.png"" style=""width: 234px; height: 230px; margin-top: -50px;""><div style=""display: flex; justify-content: space-between; margin-top: 33px;""><img src=""images/choice_trial_8.png"" style=""width: 408px; height: 417px; margin-right: 200px;""><img src=""images/choice_trial_7.png"" style=""width: 408px; height: 417px;""></div></div>","f","delaylearn","learning","trial","60fd1bde8dda943c26fa38a2","blTw2k48dbMu7aJPKhPQzjME9O23","1","images/choice_trial_8.png","images/choice_trial_7.png","images/pattern_4.png","j","j","7000","8","7","3","1","18","0","0","8","100","","","","",""
"html-keyboard-response","97","190158","0.0-42.0-1.0","","null","<div style=""display: flex; flex-direction: column; align-items: center; margin-top: -40px;""><img src=""images/pattern_4.png"" style=""width: 234px; height: 230px; margin-top: -50px;""><div style=""display: flex; justify-content: space-between; margin-top: 33px;""><img src=""images/choice_trial_8.png"" style=""width: 408px; height: 417px; margin-right: 608px;""></div></div>","null","delaylearn","learning","display_response","60fd1bde8dda943c26fa38a2","blTw2k48dbMu7aJPKhPQzjME9O23","","","","","","","","","","","","","","","","","chosen stimuli: images/choice_trial_8.png","","","",""
"html-keyboard-response","98","197160","0.0-42.0-2.0","","null","","null","delaylearn","learning","feedback_duration_window","60fd1bde8dda943c26fa38a2","blTw2k48dbMu7aJPKhPQzjME9O23","","","","","","","","","","","","","","","","","","7000","","",""
"html-keyboard-response","99","198664","0.0-42.0-3.0","","null","<div style='margin:auto;width: auto; font-size: 150%'><span style='font-weight: bold; font-size: 100px; color: red;'>0 points!</span><br><br></div>","null","delaylearn","learning","feedback_image_window","60fd1bde8dda943c26fa38a2","blTw2k48dbMu7aJPKhPQzjME9O23","","","","","","","","","","","","","","","","","","","","",""
"html-keyboard-response","100","200569","0.0-43.0","","null","<div style=""font-size:100px;"">+</div>","null","delaylearn","learning","ITI","60fd1bde8dda943c26fa38a2","blTw2k48dbMu7aJPKhPQzjME9O23","","","","","","","","","","","","","","","","","","","1903","",""
"html-keyboard-response","101","202391","0.0-44.0-0.0","","1811","<div style=""display: flex; flex-direction: column; align-items: center; margin-top: -40px;""><img src=""images/pattern_7.png"" style=""width: 234px; height: 230px; margin-top: -50px;""><div style=""display: flex; justify-content: space-between; margin-top: 33px;""><img src=""images/choice_trial_13.png"" style=""width: 408px; height: 417px; margin-right: 200px;""><img src=""images/choice_trial_14.png"" style=""width: 408px; height: 417px;""></div></div>","j","delaylearn","learning","trial","60fd1bde8dda943c26fa38a2","blTw2k48dbMu7aJPKhPQzjME9O23","1","images/choice_trial_13.png","images/choice_trial_14.png","images/pattern_7.png","j","f","750","13","14","6","0","19","0","1","14","110","","","","",""
"html-keyboard-response","102","203400","0.0-44.0-1.0","","null","<div style=""display: flex; flex-direction: column; align-items: center; margin-top: -40px;""><img src=""images/pattern_7.png"" style=""width: 234px; height: 230px; margin-top: -50px;""><div style=""display: flex; justify-content: space-between; margin-top: 33px;""><img src=""images/choice_trial_14.png"" style=""width: 408px; height: 417px; margin-left:608px;""></div></div>","null","delaylearn","learning","display_response","60fd1bde8dda943c26fa38a2","blTw2k48dbMu7aJPKhPQzjME9O23","","","","","","","","","","","","","","","","","chosen stimuli: images/choice_trial_14.png","","","",""
"html-keyboard-response","103","204152","0.0-44.0-2.0","","null","","null","delaylearn","learning","feedback_duration_window","60fd1bde8dda943c26fa38a2","blTw2k48dbMu7aJPKhPQzjME9O23","","","","","","","","","","","","","","","","","","750","","",""
"html-keyboard-response","104","205654","0.0-44.0-3.0","","null","<div style='margin:auto;width: auto; font-size: 150%'><span style='font-weight: bold; font-size: 100px; color: green;'>+10 points!</span><br><br></div>","null","delaylearn","learning","feedback_image_window","60fd1bde8dda943c26fa38a2","blTw2k48dbMu7aJPKhPQzjME9O23","","","","","","","","","","","","","","","","","","","","",""
"html-keyboard-response","105","208109","0.0-45.0","","null","<div style=""font-size:100px;"">+</div>","null","delaylearn","learning","ITI","60fd1bde8dda943c26fa38a2","blTw2k48dbMu7aJPKhPQzjME9O23","","","","","","","","","","","","","","","","","","","2453","",""
"html-keyboard-response","106","209649","0.0-46.0-0.0","","1528.9999999999418","<div style=""display: flex; flex-direction: column; align-items: center; margin-top: -40px;""><img src=""images/pattern_1.png"" style=""width: 234px; height: 230px; margin-top: -50px;""><div style=""display: flex; justify-content: space-between; margin-top: 33px;""><img src=""images/choice_trial_1.png"" style=""width: 408px; height: 417px; margin-right: 200px;""><img src=""images/choice_trial_2.png"" style=""width: 408px; height: 417px;""></div></div>","j","delaylearn","learning","trial","60fd1bde8dda943c26fa38a2","blTw2k48dbMu7aJPKhPQzjME9O23","1","images/choice_trial_1.png","images/choice_trial_2.png","images/pattern_1.png","f","f","7000","1","2","1","0","20","0","0","2","110","","","","",""
"html-keyboard-response","107","210657","0.0-46.0-1.0","","null","<div style=""display: flex; flex-direction: column; align-items: center; margin-top: -40px;""><img src=""images/pattern_1.png"" style=""width: 234px; height: 230px; margin-top: -50px;""><div style=""display: flex; justify-content: space-between; margin-top: 33px;""><img src=""images/choice_trial_2.png"" style=""width: 408px; height: 417px; margin-left:608px;""></div></div>","null","delaylearn","learning","display_response","60fd1bde8dda943c26fa38a2","blTw2k48dbMu7aJPKhPQzjME9O23","","","","","","","","","","","","","","","","","chosen stimuli: images/choice_trial_2.png","","","",""
"html-keyboard-response","108","217659","0.0-46.0-2.0","","null","","null","delaylearn","learning","feedback_duration_window","60fd1bde8dda943c26fa38a2","blTw2k48dbMu7aJPKhPQzjME9O23","","","","","","","","","","","","","","","","","","7000","","",""
"html-keyboard-response","109","219161","0.0-46.0-3.0","","null","<div style='margin:auto;width: auto; font-size: 150%'><span style='font-weight: bold; font-size: 100px; color: red;'>0 points!</span><br><br></div>","null","delaylearn","learning","feedback_image_window","60fd1bde8dda943c26fa38a2","blTw2k48dbMu7aJPKhPQzjME9O23","","","","","","","","","","","","","","","","","","","","",""
"html-keyboard-response","110","221119","0.0-47.0","","null","<div style=""font-size:100px;"">+</div>","null","delaylearn","learning","ITI","60fd1bde8dda943c26fa38a2","blTw2k48dbMu7aJPKhPQzjME9O23","","","","","","","","","","","","","","","","","","","1956","",""
"html-keyboard-response","111","222777","0.0-48.0-0.0","","1648","<div style=""display: flex; flex-direction: column; align-items: center; margin-top: -40px;""><img src=""images/pattern_6.png"" style=""width: 234px; height: 230px; margin-top: -50px;""><div style=""display: flex; justify-content: space-between; margin-top: 33px;""><img src=""images/choice_trial_12.png"" style=""width: 408px; height: 417px; margin-right: 200px;""><img src=""images/choice_trial_11.png"" style=""width: 408px; height: 417px;""></div></div>","j","delaylearn","learning","trial","60fd1bde8dda943c26fa38a2","blTw2k48dbMu7aJPKhPQzjME9O23","1","images/choice_trial_12.png","images/choice_trial_11.png","images/pattern_6.png","j","j","750","12","11","5","1","21","1","1","11","120","","","","",""
"html-keyboard-response","112","223785","0.0-48.0-1.0","","null","<div style=""display: flex; flex-direction: column; align-items: center; margin-top: -40px;""><img src=""images/pattern_6.png"" style=""width: 234px; height: 230px; margin-top: -50px;""><div style=""display: flex; justify-content: space-between; margin-top: 33px;""><img src=""images/choice_trial_11.png"" style=""width: 408px; height: 417px; margin-left:608px;""></div></div>","null","delaylearn","learning","display_response","60fd1bde8dda943c26fa38a2","blTw2k48dbMu7aJPKhPQzjME9O23","","","","","","","","","","","","","","","","","chosen stimuli: images/choice_trial_11.png","","","",""
"html-keyboard-response","113","224537","0.0-48.0-2.0","","null","","null","delaylearn","learning","feedback_duration_window","60fd1bde8dda943c26fa38a2","blTw2k48dbMu7aJPKhPQzjME9O23","","","","","","","","","","","","","","","","","","750","","",""
"html-keyboard-response","114","226039","0.0-48.0-3.0","","null","<div style='margin:auto;width: auto; font-size: 150%'><span style='font-weight: bold; font-size: 100px; color: green;'>+10 points!</span><br><br></div>","null","delaylearn","learning","feedback_image_window","60fd1bde8dda943c26fa38a2","blTw2k48dbMu7aJPKhPQzjME9O23","","","","","","","","","","","","","","","","","","","","",""
"html-keyboard-response","115","227756","0.0-49.0","","null","<div style=""font-size:100px;"">+</div>","null","delaylearn","learning","ITI","60fd1bde8dda943c26fa38a2","blTw2k48dbMu7aJPKhPQzjME9O23","","","","","","","","","","","","","","","","","","","1714","",""
"html-keyboard-response","116","229618","0.0-50.0-0.0","","1852","<div style=""display: flex; flex-direction: column; align-items: center; margin-top: -40px;""><img src=""images/pattern_4.png"" style=""width: 234px; height: 230px; margin-top: -50px;""><div style=""display: flex; justify-content: space-between; margin-top: 33px;""><img src=""images/choice_trial_7.png"" style=""width: 408px; height: 417px; margin-right: 200px;""><img src=""images/choice_trial_8.png"" style=""width: 408px; height: 417px;""></div></div>","f","delaylearn","learning","trial","60fd1bde8dda943c26fa38a2","blTw2k48dbMu7aJPKhPQzjME9O23","1","images/choice_trial_7.png","images/choice_trial_8.png","images/pattern_4.png","f","f","7000","7","8","3","0","22","1","1","7","130","","","","",""
"html-keyboard-response","117","230627","0.0-50.0-1.0","","null","<div style=""display: flex; flex-direction: column; align-items: center; margin-top: -40px;""><img src=""images/pattern_4.png"" style=""width: 234px; height: 230px; margin-top: -50px;""><div style=""display: flex; justify-content: space-between; margin-top: 33px;""><img src=""images/choice_trial_7.png"" style=""width: 408px; height: 417px; margin-right: 608px;""></div></div>","null","delaylearn","learning","display_response","60fd1bde8dda943c26fa38a2","blTw2k48dbMu7aJPKhPQzjME9O23","","","","","","","","","","","","","","","","","chosen stimuli: images/choice_trial_7.png","","","",""
"html-keyboard-response","118","237629","0.0-50.0-2.0","","null","","null","delaylearn","learning","feedback_duration_window","60fd1bde8dda943c26fa38a2","blTw2k48dbMu7aJPKhPQzjME9O23","","","","","","","","","","","","","","","","","","7000","","",""
"html-keyboard-response","119","239132","0.0-50.0-3.0","","null","<div style='margin:auto;width: auto; font-size: 150%'><span style='font-weight: bold; font-size: 100px; color: green;'>+10 points!</span><br><br></div>","null","delaylearn","learning","feedback_image_window","60fd1bde8dda943c26fa38a2","blTw2k48dbMu7aJPKhPQzjME9O23","","","","","","","","","","","","","","","","","","","","",""
"html-keyboard-response","120","239634","0.0-51.0-0.0","","null","","null","","","mood_trial_fixation","","","","","","","","","","","","","","","","","","","","","","",""
"lmdlab-html-vas-response","121","263641","0.0-51.0-1.0","","null","How happy are you right now?","","delaylearn","learning","mood_trial","60fd1bde8dda943c26fa38a2","blTw2k48dbMu7aJPKhPQzjME9O23","","","","","","","","","","","","","","","","","","","","[""Very unhappy"",""Very happy""]",""
"html-keyboard-response","122","266082","0.0-52.0","","null","<div style=""font-size:100px;"">+</div>","null","delaylearn","learning","ITI","60fd1bde8dda943c26fa38a2","blTw2k48dbMu7aJPKhPQzjME9O23","","","","","","","","","","","","","","","","","","","2439","",""
"html-keyboard-response","123","267610","0.0-53.0-0.0","","1515.9999999999418","<div style=""display: flex; flex-direction: column; align-items: center; margin-top: -40px;""><img src=""images/pattern_7.png"" style=""width: 234px; height: 230px; margin-top: -50px;""><div style=""display: flex; justify-content: space-between; margin-top: 33px;""><img src=""images/choice_trial_14.png"" style=""width: 408px; height: 417px; margin-right: 200px;""><img src=""images/choice_trial_13.png"" style=""width: 408px; height: 417px;""></div></div>","f","delaylearn","learning","trial","60fd1bde8dda943c26fa38a2","blTw2k48dbMu7aJPKhPQzjME9O23","1","images/choice_trial_14.png","images/choice_trial_13.png","images/pattern_7.png","j","j","750","14","13","6","1","23","0","0","14","130","","","","",""
"html-keyboard-response","124","268616","0.0-53.0-1.0","","null","<div style=""display: flex; flex-direction: column; align-items: center; margin-top: -40px;""><img src=""images/pattern_7.png"" style=""width: 234px; height: 230px; margin-top: -50px;""><div style=""display: flex; justify-content: space-between; margin-top: 33px;""><img src=""images/choice_trial_14.png"" style=""width: 408px; height: 417px; margin-right: 608px;""></div></div>","null","delaylearn","learning","display_response","60fd1bde8dda943c26fa38a2","blTw2k48dbMu7aJPKhPQzjME9O23","","","","","","","","","","","","","","","","","chosen stimuli: images/choice_trial_14.png","","","",""
"html-keyboard-response","125","269367","0.0-53.0-2.0","","null","","null","delaylearn","learning","feedback_duration_window","60fd1bde8dda943c26fa38a2","blTw2k48dbMu7aJPKhPQzjME9O23","","","","","","","","","","","","","","","","","","750","","",""
"html-keyboard-response","126","270868","0.0-53.0-3.0","","null","<div style='margin:auto;width: auto; font-size: 150%'><span style='font-weight: bold; font-size: 100px; color: red;'>0 points!</span><br><br></div>","null","delaylearn","learning","feedback_image_window","60fd1bde8dda943c26fa38a2","blTw2k48dbMu7aJPKhPQzjME9O23","","","","","","","","","","","","","","","","","","","","",""
"html-keyboard-response","127","272892","0.0-54.0","","null","<div style=""font-size:100px;"">+</div>","null","delaylearn","learning","ITI","60fd1bde8dda943c26fa38a2","blTw2k48dbMu7aJPKhPQzjME9O23","","","","","","","","","","","","","","","","","","","2022","",""
"html-keyboard-response","128","273742","0.0-55.0-0.0","","844.0000000000582","<div style=""display: flex; flex-direction: column; align-items: center; margin-top: -40px;""><img src=""images/pattern_1.png"" style=""width: 234px; height: 230px; margin-top: -50px;""><div style=""display: flex; justify-content: space-between; margin-top: 33px;""><img src=""images/choice_trial_2.png"" style=""width: 408px; height: 417px; margin-right: 200px;""><img src=""images/choice_trial_1.png"" style=""width: 408px; height: 417px;""></div></div>","f","delaylearn","learning","trial","60fd1bde8dda943c26fa38a2","blTw2k48dbMu7aJPKhPQzjME9O23","1","images/choice_trial_2.png","images/choice_trial_1.png","images/pattern_1.png","f","j","7000","2","1","1","1","24","0","1","2","140","","","","",""
"html-keyboard-response","129","274747","0.0-55.0-1.0","","null","<div style=""display: flex; flex-direction: column; align-items: center; margin-top: -40px;""><img src=""images/pattern_1.png"" style=""width: 234px; height: 230px; margin-top: -50px;""><div style=""display: flex; justify-content: space-between; margin-top: 33px;""><img src=""images/choice_trial_2.png"" style=""width: 408px; height: 417px; margin-right: 608px;""></div></div>","null","delaylearn","learning","display_response","60fd1bde8dda943c26fa38a2","blTw2k48dbMu7aJPKhPQzjME9O23","","","","","","","","","","","","","","","","","chosen stimuli: images/choice_trial_2.png","","","",""
"html-keyboard-response","130","281748","0.0-55.0-2.0","","null","","null","delaylearn","learning","feedback_duration_window","60fd1bde8dda943c26fa38a2","blTw2k48dbMu7aJPKhPQzjME9O23","","","","","","","","","","","","","","","","","","7000","","",""
"html-keyboard-response","131","283250","0.0-55.0-3.0","","null","<div style='margin:auto;width: auto; font-size: 150%'><span style='font-weight: bold; font-size: 100px; color: green;'>+10 points!</span><br><br></div>","null","delaylearn","learning","feedback_image_window","60fd1bde8dda943c26fa38a2","blTw2k48dbMu7aJPKhPQzjME9O23","","","","","","","","","","","","","","","","","","","","",""
"html-keyboard-response","132","285334","0.0-56.0","","null","<div style=""font-size:100px;"">+</div>","null","delaylearn","learning","ITI","60fd1bde8dda943c26fa38a2","blTw2k48dbMu7aJPKhPQzjME9O23","","","","","","","","","","","","","","","","","","","2082","",""
"html-keyboard-response","133","286408","0.0-57.0-0.0","","1068","<div style=""display: flex; flex-direction: column; align-items: center; margin-top: -40px;""><img src=""images/pattern_5.png"" style=""width: 234px; height: 230px; margin-top: -50px;""><div style=""display: flex; justify-content: space-between; margin-top: 33px;""><img src=""images/choice_trial_10.png"" style=""width: 408px; height: 417px; margin-right: 200px;""><img src=""images/choice_trial_9.png"" style=""width: 408px; height: 417px;""></div></div>","j","delaylearn","learning","trial","60fd1bde8dda943c26fa38a2","blTw2k48dbMu7aJPKhPQzjME9O23","1","images/choice_trial_10.png","images/choice_trial_9.png","images/pattern_5.png","j","j","750","10","9","4","1","25","1","1","9","150","","","","",""
"html-keyboard-response","134","287414","0.0-57.0-1.0","","null","<div style=""display: flex; flex-direction: column; align-items: center; margin-top: -40px;""><img src=""images/pattern_5.png"" style=""width: 234px; height: 230px; margin-top: -50px;""><div style=""display: flex; justify-content: space-between; margin-top: 33px;""><img src=""images/choice_trial_9.png"" style=""width: 408px; height: 417px; margin-left:608px;""></div></div>","null","delaylearn","learning","display_response","60fd1bde8dda943c26fa38a2","blTw2k48dbMu7aJPKhPQzjME9O23","","","","","","","","","","","","","","","","","chosen stimuli: images/choice_trial_9.png","","","",""
"html-keyboard-response","135","288165","0.0-57.0-2.0","","null","","null","delaylearn","learning","feedback_duration_window","60fd1bde8dda943c26fa38a2","blTw2k48dbMu7aJPKhPQzjME9O23","","","","","","","","","","","","","","","","","","750","","",""
"html-keyboard-response","136","289666","0.0-57.0-3.0","","null","<div style='margin:auto;width: auto; font-size: 150%'><span style='font-weight: bold; font-size: 100px; color: green;'>+10 points!</span><br><br></div>","null","delaylearn","learning","feedback_image_window","60fd1bde8dda943c26fa38a2","blTw2k48dbMu7aJPKhPQzjME9O23","","","","","","","","","","","","","","","","","","","","",""
"html-keyboard-response","137","291329","0.0-58.0","","null","<div style=""font-size:100px;"">+</div>","null","delaylearn","learning","ITI","60fd1bde8dda943c26fa38a2","blTw2k48dbMu7aJPKhPQzjME9O23","","","","","","","","","","","","","","","","","","","1661","",""
"html-keyboard-response","138","292403","0.0-59.0-0.0","","1063.0000000000582","<div style=""display: flex; flex-direction: column; align-items: center; margin-top: -40px;""><img src=""images/pattern_3.png"" style=""width: 234px; height: 230px; margin-top: -50px;""><div style=""display: flex; justify-content: space-between; margin-top: 33px;""><img src=""images/choice_trial_6.png"" style=""width: 408px; height: 417px; margin-right: 200px;""><img src=""images/choice_trial_5.png"" style=""width: 408px; height: 417px;""></div></div>","j","delaylearn","learning","trial","60fd1bde8dda943c26fa38a2","blTw2k48dbMu7aJPKhPQzjME9O23","1","images/choice_trial_6.png","images/choice_trial_5.png","images/pattern_3.png","j","j","7000","6","5","2","1","26","1","1","5","160","","","","",""
"html-keyboard-response","139","293411","0.0-59.0-1.0","","null","<div style=""display: flex; flex-direction: column; align-items: center; margin-top: -40px;""><img src=""images/pattern_3.png"" style=""width: 234px; height: 230px; margin-top: -50px;""><div style=""display: flex; justify-content: space-between; margin-top: 33px;""><img src=""images/choice_trial_5.png"" style=""width: 408px; height: 417px; margin-left:608px;""></div></div>","null","delaylearn","learning","display_response","60fd1bde8dda943c26fa38a2","blTw2k48dbMu7aJPKhPQzjME9O23","","","","","","","","","","","","","","","","","chosen stimuli: images/choice_trial_5.png","","","",""
"html-keyboard-response","140","300413","0.0-59.0-2.0","","null","","null","delaylearn","learning","feedback_duration_window","60fd1bde8dda943c26fa38a2","blTw2k48dbMu7aJPKhPQzjME9O23","","","","","","","","","","","","","","","","","","7000","","",""
"html-keyboard-response","141","301916","0.0-59.0-3.0","","null","<div style='margin:auto;width: auto; font-size: 150%'><span style='font-weight: bold; font-size: 100px; color: green;'>+10 points!</span><br><br></div>","null","delaylearn","learning","feedback_image_window","60fd1bde8dda943c26fa38a2","blTw2k48dbMu7aJPKhPQzjME9O23","","","","","","","","","","","","","","","","","","","","",""
"lmdlab-html-vas-response","142","308311","0.0-60.0-0.0","","4889","*How <b><u>confident</u></b> are you feeling about your answers at this moment?*","0.3055555555555556","rewlearn","rate_confidence","","60fd1bde8dda943c26fa38a2","blTw2k48dbMu7aJPKhPQzjME9O23","","","","","","","","","","","","","","","","","","","","[""No confidence"",""Complete confidence""]",""
"lmdlab-rest-trial-limit","143","331994","0.0-60.0-1.0","","22166.99999999994","<div style=""font-size:40px;""><b>Please take a break!</b><br><br><br><br><p>Great work: you earned 160 points.<br><br><br><p>You have completed part(s) 1 of 5.<br><br><br><br>When you are ready to continue<br><br><br>please click the button.</p><br><br>","0","delaylearn","learning","break","60fd1bde8dda943c26fa38a2","blTw2k48dbMu7aJPKhPQzjME9O23","","","","","","","","","","","","","","","","","","","","","0"
"html-keyboard-response","144","334998","0.0-60.0-2.0","","null","<div style=""font-size:100px;"">+</div>","null","delaylearn","learning","pre_fixation","60fd1bde8dda943c26fa38a2","","","","","","","","","","","","","","","","","","","","","",""
"lmdlab-html-vas-response","145","340182","0.0-60.0-3.0-0.0","","4175","How happy are you right now?","0.5111111111111111","delaylearn","learning","mood_baseline","60fd1bde8dda943c26fa38a2","blTw2k48dbMu7aJPKhPQzjME9O23","","","","","","","","","","","","","","","","","","","","[""Very unhappy"",""Very happy""]",""
"html-keyboard-response","146","341685","0.0-60.0-3.0-1.0","","null","","null","","","mood_baseline_fixation","","","","","","","","","","","","","","","","","","","","","","",""
"html-keyboard-response","147","343678","0.0-61.0","","null","<div style=""font-size:100px;"">+</div>","null","delaylearn","learning","ITI","60fd1bde8dda943c26fa38a2","blTw2k48dbMu7aJPKhPQzjME9O23","","","","","","","","","","","","","","","","","","","1989","",""
"html-keyboard-response","148","346691","0.0-62.0-0.0","","null","<div style=""display: flex; flex-direction: column; align-items: center; margin-top: -40px;""><img src=""images/pattern_7.png"" style=""width: 234px; height: 230px; margin-top: -50px;""><div style=""display: flex; justify-content: space-between; margin-top: 33px;""><img src=""images/choice_trial_14.png"" style=""width: 408px; height: 417px; margin-right: 200px;""><img src=""images/choice_trial_13.png"" style=""width: 408px; height: 417px;""></div></div>","null","delaylearn","learning","trial","60fd1bde8dda943c26fa38a2","blTw2k48dbMu7aJPKhPQzjME9O23","1","images/choice_trial_14.png","images/choice_trial_13.png","images/pattern_7.png","j","j","750","14","13","6","1","27","0","0","0","160","","","","",""
"html-keyboard-response","149","347694","0.0-62.0-1.0","","null","<div style='font-weight: bold; font-size: 75px; color: red;'>Missed Trial <br><br><br><br> Please respond faster</div>","null","delaylearn","learning","display_response","60fd1bde8dda943c26fa38a2","blTw2k48dbMu7aJPKhPQzjME9O23","","","","","","","","","","","","","","","","","Missed trial","","","",""
"html-keyboard-response","150","347695","0.0-62.0-2.0","","null","","null","delaylearn","learning","feedback_duration_window","60fd1bde8dda943c26fa38a2","blTw2k48dbMu7aJPKhPQzjME9O23","","","","","","","","","","","","","","","","","","0","","",""
"html-keyboard-response","151","347696","0.0-62.0-3.0","","null","","null","delaylearn","learning","feedback_image_window","60fd1bde8dda943c26fa38a2","blTw2k48dbMu7aJPKhPQzjME9O23","","","","","","","","","","","","","","","","","","","","",""
"html-keyboard-response","152","348198","0.0-63.0-0.0","","null","","null","","","mood_trial_fixation","","","","","","","","","","","","","","","","","","","","","","",""
"lmdlab-html-vas-response","153","351592","0.0-63.0-1.0","","2387","How happy are you right now?","0.3648148148148148","delaylearn","learning","mood_trial","60fd1bde8dda943c26fa38a2","blTw2k48dbMu7aJPKhPQzjME9O23","","","","","","","","","","","","","","","","","","","","[""Very unhappy"",""Very happy""]",""
"html-keyboard-response","154","353960","0.0-64.0","","null","<div style=""font-size:100px;"">+</div>","null","delaylearn","learning","ITI","60fd1bde8dda943c26fa38a2","blTw2k48dbMu7aJPKhPQzjME9O23","","","","","","","","","","","","","","","","","","","2366","",""
"html-keyboard-response","155","354888","0.0-65.0-0.0","","917","<div style=""display: flex; flex-direction: column; align-items: center; margin-top: -40px;""><img src=""images/pattern_1.png"" style=""width: 234px; height: 230px; margin-top: -50px;""><div style=""display: flex; justify-content: space-between; margin-top: 33px;""><img src=""images/choice_trial_1.png"" style=""width: 408px; height: 417px; margin-right: 200px;""><img src=""images/choice_trial_2.png"" style=""width: 408px; height: 417px;""></div></div>","j","delaylearn","learning","trial","60fd1bde8dda943c26fa38a2","blTw2k48dbMu7aJPKhPQzjME9O23","1","images/choice_trial_1.png","images/choice_trial_2.png","images/pattern_1.png","f","f","7000","1","2","1","0","28","0","0","2","160","","","","",""
"html-keyboard-response","156","355896","0.0-65.0-1.0","","null","<div style=""display: flex; flex-direction: column; align-items: center; margin-top: -40px;""><img src=""images/pattern_1.png"" style=""width: 234px; height: 230px; margin-top: -50px;""><div style=""display: flex; justify-content: space-between; margin-top: 33px;""><img src=""images/choice_trial_2.png"" style=""width: 408px; height: 417px; margin-left:608px;""></div></div>","null","delaylearn","learning","display_response","60fd1bde8dda943c26fa38a2","blTw2k48dbMu7aJPKhPQzjME9O23","","","","","","","","","","","","","","","","","chosen stimuli: images/choice_trial_2.png","","","",""
"html-keyboard-response","157","362899","0.0-65.0-2.0","","null","","null","delaylearn","learning","feedback_duration_window","60fd1bde8dda943c26fa38a2","blTw2k48dbMu7aJPKhPQzjME9O23","","","","","","","","","","","","","","","","","","7000","","",""
"html-keyboard-response","158","364402","0.0-65.0-3.0","","null","<div style='margin:auto;width: auto; font-size: 150%'><span style='font-weight: bold; font-size: 100px; color: red;'>0 points!</span><br><br></div>","null","delaylearn","learning","feedback_image_window","60fd1bde8dda943c26fa38a2","blTw2k48dbMu7aJPKhPQzjME9O23","","","","","","","","","","","","","","","","","","","","",""
"html-keyboard-response","159","365999","0.0-66.0","","null","<div style=""font-size:100px;"">+</div>","null","delaylearn","learning","ITI","60fd1bde8dda943c26fa38a2","blTw2k48dbMu7aJPKhPQzjME9O23","","","","","","","","","","","","","","","","","","","1594","",""
"html-keyboard-response","160","366999","0.0-67.0-0.0","","990","<div style=""display: flex; flex-direction: column; align-items: center; margin-top: -40px;""><img src=""images/pattern_5.png"" style=""width: 234px; height: 230px; margin-top: -50px;""><div style=""display: flex; justify-content: space-between; margin-top: 33px;""><img src=""images/choice_trial_9.png"" style=""width: 408px; height: 417px; margin-right: 200px;""><img src=""images/choice_trial_10.png"" style=""width: 408px; height: 417px;""></div></div>","f","delaylearn","learning","trial","60fd1bde8dda943c26fa38a2","blTw2k48dbMu7aJPKhPQzjME9O23","1","images/choice_trial_9.png","images/choice_trial_10.png","images/pattern_5.png","f","f","750","9","10","4","0","29","1","1","9","170","","","","",""
"html-keyboard-response","161","368006","0.0-67.0-1.0","","null","<div style=""display: flex; flex-direction: column; align-items: center; margin-top: -40px;""><img src=""images/pattern_5.png"" style=""width: 234px; height: 230px; margin-top: -50px;""><div style=""display: flex; justify-content: space-between; margin-top: 33px;""><img src=""images/choice_trial_9.png"" style=""width: 408px; height: 417px; margin-right: 608px;""></div></div>","null","delaylearn","learning","display_response","60fd1bde8dda943c26fa38a2","blTw2k48dbMu7aJPKhPQzjME9O23","","","","","","","","","","","","","","","","","chosen stimuli: images/choice_trial_9.png","","","",""
"html-keyboard-response","162","368758","0.0-67.0-2.0","","null","","null","delaylearn","learning","feedback_duration_window","60fd1bde8dda943c26fa38a2","blTw2k48dbMu7aJPKhPQzjME9O23","","","","","","","","","","","","","","","","","","750","","",""
"html-keyboard-response","163","370261","0.0-67.0-3.0","","null","<div style='margin:auto;width: auto; font-size: 150%'><span style='font-weight: bold; font-size: 100px; color: green;'>+10 points!</span><br><br></div>","null","delaylearn","learning","feedback_image_window","60fd1bde8dda943c26fa38a2","blTw2k48dbMu7aJPKhPQzjME9O23","","","","","","","","","","","","","","","","","","","","",""
"html-keyboard-response","164","371905","0.0-68.0","","null","<div style=""font-size:100px;"">+</div>","null","delaylearn","learning","ITI","60fd1bde8dda943c26fa38a2","blTw2k48dbMu7aJPKhPQzjME9O23","","","","","","","","","","","","","","","","","","","1642","",""
"html-keyboard-response","165","373787","0.0-69.0-0.0","","1871","<div style=""display: flex; flex-direction: column; align-items: center; margin-top: -40px;""><img src=""images/pattern_6.png"" style=""width: 234px; height: 230px; margin-top: -50px;""><div style=""display: flex; justify-content: space-between; margin-top: 33px;""><img src=""images/choice_trial_12.png"" style=""width: 408px; height: 417px; margin-right: 200px;""><img src=""images/choice_trial_11.png"" style=""width: 408px; height: 417px;""></div></div>","j","delaylearn","learning","trial","60fd1bde8dda943c26fa38a2","blTw2k48dbMu7aJPKhPQzjME9O23","1","images/choice_trial_12.png","images/choice_trial_11.png","images/pattern_6.png","j","j","750","12","11","5","1","30","1","1","11","180","","","","",""
"html-keyboard-response","166","374794","0.0-69.0-1.0","","null","<div style=""display: flex; flex-direction: column; align-items: center; margin-top: -40px;""><img src=""images/pattern_6.png"" style=""width: 234px; height: 230px; margin-top: -50px;""><div style=""display: flex; justify-content: space-between; margin-top: 33px;""><img src=""images/choice_trial_11.png"" style=""width: 408px; height: 417px; margin-left:608px;""></div></div>","null","delaylearn","learning","display_response","60fd1bde8dda943c26fa38a2","blTw2k48dbMu7aJPKhPQzjME9O23","","","","","","","","","","","","","","","","","chosen stimuli: images/choice_trial_11.png","","","",""
"html-keyboard-response","167","375546","0.0-69.0-2.0","","null","","null","delaylearn","learning","feedback_duration_window","60fd1bde8dda943c26fa38a2","blTw2k48dbMu7aJPKhPQzjME9O23","","","","","","","","","","","","","","","","","","750","","",""
"html-keyboard-response","168","377048","0.0-69.0-3.0","","null","<div style='margin:auto;width: auto; font-size: 150%'><span style='font-weight: bold; font-size: 100px; color: green;'>+10 points!</span><br><br></div>","null","delaylearn","learning","feedback_image_window","60fd1bde8dda943c26fa38a2","blTw2k48dbMu7aJPKhPQzjME9O23","","","","","","","","","","","","","","","","","","","","",""
"html-keyboard-response","169","377549","0.0-70.0-0.0","","null","","null","","","mood_trial_fixation","","","","","","","","","","","","","","","","","","","","","","",""
"lmdlab-html-vas-response","170","380806","0.0-70.0-1.0","","2254","How happy are you right now?","0.524074074074074","delaylearn","learning","mood_trial","60fd1bde8dda943c26fa38a2","blTw2k48dbMu7aJPKhPQzjME9O23","","","","","","","","","","","","","","","","","","","","[""Very unhappy"",""Very happy""]",""
"html-keyboard-response","171","382979","0.0-71.0","","null","<div style=""font-size:100px;"">+</div>","null","delaylearn","learning","ITI","60fd1bde8dda943c26fa38a2","blTw2k48dbMu7aJPKhPQzjME9O23","","","","","","","","","","","","","","","","","","","2171","",""
"html-keyboard-response","172","384617","0.0-72.0-0.0","","1626","<div style=""display: flex; flex-direction: column; align-items: center; margin-top: -40px;""><img src=""images/pattern_4.png"" style=""width: 234px; height: 230px; margin-top: -50px;""><div style=""display: flex; justify-content: space-between; margin-top: 33px;""><img src=""images/choice_trial_8.png"" style=""width: 408px; height: 417px; margin-right: 200px;""><img src=""images/choice_trial_7.png"" style=""width: 408px; height: 417px;""></div></div>","j","delaylearn","learning","trial","60fd1bde8dda943c26fa38a2","blTw2k48dbMu7aJPKhPQzjME9O23","1","images/choice_trial_8.png","images/choice_trial_7.png","images/pattern_4.png","j","j","7000","8","7","3","1","31","1","1","7","190","","","","",""
"html-keyboard-response","173","385626","0.0-72.0-1.0","","null","<div style=""display: flex; flex-direction: column; align-items: center; margin-top: -40px;""><img src=""images/pattern_4.png"" style=""width: 234px; height: 230px; margin-top: -50px;""><div style=""display: flex; justify-content: space-between; margin-top: 33px;""><img src=""images/choice_trial_7.png"" style=""width: 408px; height: 417px; margin-left:608px;""></div></div>","null","delaylearn","learning","display_response","60fd1bde8dda943c26fa38a2","blTw2k48dbMu7aJPKhPQzjME9O23","","","","","","","","","","","","","","","","","chosen stimuli: images/choice_trial_7.png","","","",""
"html-keyboard-response","174","392628","0.0-72.0-2.0","","null","","null","delaylearn","learning","feedback_duration_window","60fd1bde8dda943c26fa38a2","blTw2k48dbMu7aJPKhPQzjME9O23","","","","","","","","","","","","","","","","","","7000","","",""
"html-keyboard-response","175","394131","0.0-72.0-3.0","","null","<div style='margin:auto;width: auto; font-size: 150%'><span style='font-weight: bold; font-size: 100px; color: green;'>+10 points!</span><br><br></div>","null","delaylearn","learning","feedback_image_window","60fd1bde8dda943c26fa38a2","blTw2k48dbMu7aJPKhPQzjME9O23","","","","","","","","","","","","","","","","","","","","",""
"html-keyboard-response","176","396510","0.0-73.0","","null","<div style=""font-size:100px;"">+</div>","null","delaylearn","learning","ITI","60fd1bde8dda943c26fa38a2","blTw2k48dbMu7aJPKhPQzjME9O23","","","","","","","","","","","","","","","","","","","2376","",""
"html-keyboard-response","177","397974","0.0-74.0-0.0","","1453","<div style=""display: flex; flex-direction: column; align-items: center; margin-top: -40px;""><img src=""images/pattern_3.png"" style=""width: 234px; height: 230px; margin-top: -50px;""><div style=""display: flex; justify-content: space-between; margin-top: 33px;""><img src=""images/choice_trial_6.png"" style=""width: 408px; height: 417px; margin-right: 200px;""><img src=""images/choice_trial_5.png"" style=""width: 408px; height: 417px;""></div></div>","j","delaylearn","learning","trial","60fd1bde8dda943c26fa38a2","blTw2k48dbMu7aJPKhPQzjME9O23","1","images/choice_trial_6.png","images/choice_trial_5.png","images/pattern_3.png","j","j","7000","6","5","2","1","32","1","1","5","200","","","","",""
"html-keyboard-response","178","398981","0.0-74.0-1.0","","null","<div style=""display: flex; flex-direction: column; align-items: center; margin-top: -40px;""><img src=""images/pattern_3.png"" style=""width: 234px; height: 230px; margin-top: -50px;""><div style=""display: flex; justify-content: space-between; margin-top: 33px;""><img src=""images/choice_trial_5.png"" style=""width: 408px; height: 417px; margin-left:608px;""></div></div>","null","delaylearn","learning","display_response","60fd1bde8dda943c26fa38a2","blTw2k48dbMu7aJPKhPQzjME9O23","","","","","","","","","","","","","","","","","chosen stimuli: images/choice_trial_5.png","","","",""
"html-keyboard-response","179","405984","0.0-74.0-2.0","","null","","null","delaylearn","learning","feedback_duration_window","60fd1bde8dda943c26fa38a2","blTw2k48dbMu7aJPKhPQzjME9O23","","","","","","","","","","","","","","","","","","7000","","",""
"html-keyboard-response","180","407486","0.0-74.0-3.0","","null","<div style='margin:auto;width: auto; font-size: 150%'><span style='font-weight: bold; font-size: 100px; color: green;'>+10 points!</span><br><br></div>","null","delaylearn","learning","feedback_image_window","60fd1bde8dda943c26fa38a2","blTw2k48dbMu7aJPKhPQzjME9O23","","","","","","","","","","","","","","","","","","","","",""
"html-keyboard-response","181","409954","0.0-75.0","","null","<div style=""font-size:100px;"">+</div>","null","delaylearn","learning","ITI","60fd1bde8dda943c26fa38a2","blTw2k48dbMu7aJPKhPQzjME9O23","","","","","","","","","","","","","","","","","","","2466","",""
"html-keyboard-response","182","410943","0.0-76.0-0.0","","979","<div style=""display: flex; flex-direction: column; align-items: center; margin-top: -40px;""><img src=""images/pattern_5.png"" style=""width: 234px; height: 230px; margin-top: -50px;""><div style=""display: flex; justify-content: space-between; margin-top: 33px;""><img src=""images/choice_trial_9.png"" style=""width: 408px; height: 417px; margin-right: 200px;""><img src=""images/choice_trial_10.png"" style=""width: 408px; height: 417px;""></div></div>","f","delaylearn","learning","trial","60fd1bde8dda943c26fa38a2","blTw2k48dbMu7aJPKhPQzjME9O23","1","images/choice_trial_9.png","images/choice_trial_10.png","images/pattern_5.png","j","f","750","9","10","4","0","33","1","0","9","200","","","","",""
"html-keyboard-response","183","411948","0.0-76.0-1.0","","null","<div style=""display: flex; flex-direction: column; align-items: center; margin-top: -40px;""><img src=""images/pattern_5.png"" style=""width: 234px; height: 230px; margin-top: -50px;""><div style=""display: flex; justify-content: space-between; margin-top: 33px;""><img src=""images/choice_trial_9.png"" style=""width: 408px; height: 417px; margin-right: 608px;""></div></div>","null","delaylearn","learning","display_response","60fd1bde8dda943c26fa38a2","blTw2k48dbMu7aJPKhPQzjME9O23","","","","","","","","","","","","","","","","","chosen stimuli: images/choice_trial_9.png","","","",""
"html-keyboard-response","184","412700","0.0-76.0-2.0","","null","","null","delaylearn","learning","feedback_duration_window","60fd1bde8dda943c26fa38a2","blTw2k48dbMu7aJPKhPQzjME9O23","","","","","","","","","","","","","","","","","","750","","",""
"html-keyboard-response","185","414203","0.0-76.0-3.0","","null","<div style='margin:auto;width: auto; font-size: 150%'><span style='font-weight: bold; font-size: 100px; color: red;'>0 points!</span><br><br></div>","null","delaylearn","learning","feedback_image_window","60fd1bde8dda943c26fa38a2","blTw2k48dbMu7aJPKhPQzjME9O23","","","","","","","","","","","","","","","","","","","","",""
"html-keyboard-response","186","416238","0.0-77.0","","null","<div style=""font-size:100px;"">+</div>","null","delaylearn","learning","ITI","60fd1bde8dda943c26fa38a2","blTw2k48dbMu7aJPKhPQzjME9O23","","","","","","","","","","","","","","","","","","","2033","",""
"html-keyboard-response","187","417752","0.0-78.0-0.0","","1503","<div style=""display: flex; flex-direction: column; align-items: center; margin-top: -40px;""><img src=""images/pattern_1.png"" style=""width: 234px; height: 230px; margin-top: -50px;""><div style=""display: flex; justify-content: space-between; margin-top: 33px;""><img src=""images/choice_trial_1.png"" style=""width: 408px; height: 417px; margin-right: 200px;""><img src=""images/choice_trial_2.png"" style=""width: 408px; height: 417px;""></div></div>","j","delaylearn","learning","trial","60fd1bde8dda943c26fa38a2","blTw2k48dbMu7aJPKhPQzjME9O23","1","images/choice_trial_1.png","images/choice_trial_2.png","images/pattern_1.png","f","f","7000","1","2","1","0","34","0","0","2","200","","","","",""
"html-keyboard-response","188","418760","0.0-78.0-1.0","","null","<div style=""display: flex; flex-direction: column; align-items: center; margin-top: -40px;""><img src=""images/pattern_1.png"" style=""width: 234px; height: 230px; margin-top: -50px;""><div style=""display: flex; justify-content: space-between; margin-top: 33px;""><img src=""images/choice_trial_2.png"" style=""width: 408px; height: 417px; margin-left:608px;""></div></div>","null","delaylearn","learning","display_response","60fd1bde8dda943c26fa38a2","blTw2k48dbMu7aJPKhPQzjME9O23","","","","","","","","","","","","","","","","","chosen stimuli: images/choice_trial_2.png","","","",""
"html-keyboard-response","189","425762","0.0-78.0-2.0","","null","","null","delaylearn","learning","feedback_duration_window","60fd1bde8dda943c26fa38a2","blTw2k48dbMu7aJPKhPQzjME9O23","","","","","","","","","","","","","","","","","","7000","","",""
"html-keyboard-response","190","427265","0.0-78.0-3.0","","null","<div style='margin:auto;width: auto; font-size: 150%'><span style='font-weight: bold; font-size: 100px; color: red;'>0 points!</span><br><br></div>","null","delaylearn","learning","feedback_image_window","60fd1bde8dda943c26fa38a2","blTw2k48dbMu7aJPKhPQzjME9O23","","","","","","","","","","","","","","","","","","","","",""
"html-keyboard-response","191","427767","0.0-79.0-0.0","","null","","null","","","mood_trial_fixation","","","","","","","","","","","","","","","","","","","","","","",""
"lmdlab-html-vas-response","192","432884","0.0-79.0-1.0","","4112","How happy are you right now?","0.5074074074074074","delaylearn","learning","mood_trial","60fd1bde8dda943c26fa38a2","blTw2k48dbMu7aJPKhPQzjME9O23","","","","","","","","","","","","","","","","","","","","[""Very unhappy"",""Very happy""]",""
"html-keyboard-response","193","434619","0.0-80.0","","null","<div style=""font-size:100px;"">+</div>","null","delaylearn","learning","ITI","60fd1bde8dda943c26fa38a2","blTw2k48dbMu7aJPKhPQzjME9O23","","","","","","","","","","","","","","","","","","","1733","",""
"html-keyboard-response","194","435346","0.0-81.0-0.0","","719.9999999998836","<div style=""display: flex; flex-direction: column; align-items: center; margin-top: -40px;""><img src=""images/pattern_6.png"" style=""width: 234px; height: 230px; margin-top: -50px;""><div style=""display: flex; justify-content: space-between; margin-top: 33px;""><img src=""images/choice_trial_11.png"" style=""width: 408px; height: 417px; margin-right: 200px;""><img src=""images/choice_trial_12.png"" style=""width: 408px; height: 417px;""></div></div>","f","delaylearn","learning","trial","60fd1bde8dda943c26fa38a2","blTw2k48dbMu7aJPKhPQzjME9O23","1","images/choice_trial_11.png","images/choice_trial_12.png","images/pattern_6.png","j","f","750","11","12","5","0","35","1","0","11","200","","","","",""
"html-keyboard-response","195","436355","0.0-81.0-1.0","","null","<div style=""display: flex; flex-direction: column; align-items: center; margin-top: -40px;""><img src=""images/pattern_6.png"" style=""width: 234px; height: 230px; margin-top: -50px;""><div style=""display: flex; justify-content: space-between; margin-top: 33px;""><img src=""images/choice_trial_11.png"" style=""width: 408px; height: 417px; margin-right: 608px;""></div></div>","null","delaylearn","learning","display_response","60fd1bde8dda943c26fa38a2","blTw2k48dbMu7aJPKhPQzjME9O23","","","","","","","","","","","","","","","","","chosen stimuli: images/choice_trial_11.png","","","",""
"html-keyboard-response","196","437107","0.0-81.0-2.0","","null","","null","delaylearn","learning","feedback_duration_window","60fd1bde8dda943c26fa38a2","blTw2k48dbMu7aJPKhPQzjME9O23","","","","","","","","","","","","","","","","","","750","","",""
"html-keyboard-response","197","438610","0.0-81.0-3.0","","null","<div style='margin:auto;width: auto; font-size: 150%'><span style='font-weight: bold; font-size: 100px; color: red;'>0 points!</span><br><br></div>","null","delaylearn","learning","feedback_image_window","60fd1bde8dda943c26fa38a2","blTw2k48dbMu7aJPKhPQzjME9O23","","","","","","","","","","","","","","","","","","","","",""
"html-keyboard-response","198","440436","0.0-82.0","","null","<div style=""font-size:100px;"">+</div>","null","delaylearn","learning","ITI","60fd1bde8dda943c26fa38a2","blTw2k48dbMu7aJPKhPQzjME9O23","","","","","","","","","","","","","","","","","","","1823","",""
"html-keyboard-response","199","441491","0.0-83.0-0.0","","1044","<div style=""display: flex; flex-direction: column; align-items: center; margin-top: -40px;""><img src=""images/pattern_3.png"" style=""width: 234px; height: 230px; margin-top: -50px;""><div style=""display: flex; justify-content: space-between; margin-top: 33px;""><img src=""images/choice_trial_6.png"" style=""width: 408px; height: 417px; margin-right: 200px;""><img src=""images/choice_trial_5.png"" style=""width: 408px; height: 417px;""></div></div>","f","delaylearn","learning","trial","60fd1bde8dda943c26fa38a2","blTw2k48dbMu7aJPKhPQzjME9O23","1","images/choice_trial_6.png","images/choice_trial_5.png","images/pattern_3.png","j","j","7000","6","5","2","1","36","0","0","6","200","","","","",""
"html-keyboard-response","200","442499","0.0-83.0-1.0","","null","<div style=""display: flex; flex-direction: column; align-items: center; margin-top: -40px;""><img src=""images/pattern_3.png"" style=""width: 234px; height: 230px; margin-top: -50px;""><div style=""display: flex; justify-content: space-between; margin-top: 33px;""><img src=""images/choice_trial_6.png"" style=""width: 408px; height: 417px; margin-right: 608px;""></div></div>","null","delaylearn","learning","display_response","60fd1bde8dda943c26fa38a2","blTw2k48dbMu7aJPKhPQzjME9O23","","","","","","","","","","","","","","","","","chosen stimuli: images/choice_trial_6.png","","","",""
"html-keyboard-response","201","449501","0.0-83.0-2.0","","null","","null","delaylearn","learning","feedback_duration_window","60fd1bde8dda943c26fa38a2","blTw2k48dbMu7aJPKhPQzjME9O23","","","","","","","","","","","","","","","","","","7000","","",""
"html-keyboard-response","202","451004","0.0-83.0-3.0","","null","<div style='margin:auto;width: auto; font-size: 150%'><span style='font-weight: bold; font-size: 100px; color: red;'>0 points!</span><br><br></div>","null","delaylearn","learning","feedback_image_window","60fd1bde8dda943c26fa38a2","blTw2k48dbMu7aJPKhPQzjME9O23","","","","","","","","","","","","","","","","","","","","",""
"html-keyboard-response","203","453156","0.0-84.0","","null","<div style=""font-size:100px;"">+</div>","null","delaylearn","learning","ITI","60fd1bde8dda943c26fa38a2","blTw2k48dbMu7aJPKhPQzjME9O23","","","","","","","","","","","","","","","","","","","2150","",""
"html-keyboard-response","204","454501","0.0-85.0-0.0","","1335.0000000001164","<div style=""display: flex; flex-direction: column; align-items: center; margin-top: -40px;""><img src=""images/pattern_4.png"" style=""width: 234px; height: 230px; margin-top: -50px;""><div style=""display: flex; justify-content: space-between; margin-top: 33px;""><img src=""images/choice_trial_8.png"" style=""width: 408px; height: 417px; margin-right: 200px;""><img src=""images/choice_trial_7.png"" style=""width: 408px; height: 417px;""></div></div>","j","delaylearn","learning","trial","60fd1bde8dda943c26fa38a2","blTw2k48dbMu7aJPKhPQzjME9O23","1","images/choice_trial_8.png","images/choice_trial_7.png","images/pattern_4.png","f","j","7000","8","7","3","1","37","1","0","7","200","","","","",""
"html-keyboard-response","205","455510","0.0-85.0-1.0","","null","<div style=""display: flex; flex-direction: column; align-items: center; margin-top: -40px;""><img src=""images/pattern_4.png"" style=""width: 234px; height: 230px; margin-top: -50px;""><div style=""display: flex; justify-content: space-between; margin-top: 33px;""><img src=""images/choice_trial_7.png"" style=""width: 408px; height: 417px; margin-left:608px;""></div></div>","null","delaylearn","learning","display_response","60fd1bde8dda943c26fa38a2","blTw2k48dbMu7aJPKhPQzjME9O23","","","","","","","","","","","","","","","","","chosen stimuli: images/choice_trial_7.png","","","",""
"html-keyboard-response","206","462512","0.0-85.0-2.0","","null","","null","delaylearn","learning","feedback_duration_window","60fd1bde8dda943c26fa38a2","blTw2k48dbMu7aJPKhPQzjME9O23","","","","","","","","","","","","","","","","","","7000","","",""
"html-keyboard-response","207","464014","0.0-85.0-3.0","","null","<div style='margin:auto;width: auto; font-size: 150%'><span style='font-weight: bold; font-size: 100px; color: red;'>0 points!</span><br><br></div>","null","delaylearn","learning","feedback_image_window","60fd1bde8dda943c26fa38a2","blTw2k48dbMu7aJPKhPQzjME9O23","","","","","","","","","","","","","","","","","","","","",""
"html-keyboard-response","208","465575","0.0-86.0","","null","<div style=""font-size:100px;"">+</div>","null","delaylearn","learning","ITI","60fd1bde8dda943c26fa38a2","blTw2k48dbMu7aJPKhPQzjME9O23","","","","","","","","","","","","","","","","","","","1558","",""
"html-keyboard-response","209","467706","0.0-87.0-0.0","","2120","<div style=""display: flex; flex-direction: column; align-items: center; margin-top: -40px;""><img src=""images/pattern_7.png"" style=""width: 234px; height: 230px; margin-top: -50px;""><div style=""display: flex; justify-content: space-between; margin-top: 33px;""><img src=""images/choice_trial_13.png"" style=""width: 408px; height: 417px; margin-right: 200px;""><img src=""images/choice_trial_14.png"" style=""width: 408px; height: 417px;""></div></div>","j","delaylearn","learning","trial","60fd1bde8dda943c26fa38a2","blTw2k48dbMu7aJPKhPQzjME9O23","1","images/choice_trial_13.png","images/choice_trial_14.png","images/pattern_7.png","f","f","750","13","14","6","0","38","0","0","14","200","","","","",""
"html-keyboard-response","210","468712","0.0-87.0-1.0","","null","<div style=""display: flex; flex-direction: column; align-items: center; margin-top: -40px;""><img src=""images/pattern_7.png"" style=""width: 234px; height: 230px; margin-top: -50px;""><div style=""display: flex; justify-content: space-between; margin-top: 33px;""><img src=""images/choice_trial_14.png"" style=""width: 408px; height: 417px; margin-left:608px;""></div></div>","null","delaylearn","learning","display_response","60fd1bde8dda943c26fa38a2","blTw2k48dbMu7aJPKhPQzjME9O23","","","","","","","","","","","","","","","","","chosen stimuli: images/choice_trial_14.png","","","",""
"html-keyboard-response","211","469465","0.0-87.0-2.0","","null","","null","delaylearn","learning","feedback_duration_window","60fd1bde8dda943c26fa38a2","blTw2k48dbMu7aJPKhPQzjME9O23","","","","","","","","","","","","","","","","","","750","","",""
"html-keyboard-response","212","470967","0.0-87.0-3.0","","null","<div style='margin:auto;width: auto; font-size: 150%'><span style='font-weight: bold; font-size: 100px; color: red;'>0 points!</span><br><br></div>","null","delaylearn","learning","feedback_image_window","60fd1bde8dda943c26fa38a2","blTw2k48dbMu7aJPKhPQzjME9O23","","","","","","","","","","","","","","","","","","","","",""
"html-keyboard-response","213","473114","0.0-88.0","","null","<div style=""font-size:100px;"">+</div>","null","delaylearn","learning","ITI","60fd1bde8dda943c26fa38a2","blTw2k48dbMu7aJPKhPQzjME9O23","","","","","","","","","","","","","","","","","","","2144","",""
"html-keyboard-response","214","474371","0.0-89.0-0.0","","1243.9999999998836","<div style=""display: flex; flex-direction: column; align-items: center; margin-top: -40px;""><img src=""images/pattern_1.png"" style=""width: 234px; height: 230px; margin-top: -50px;""><div style=""display: flex; justify-content: space-between; margin-top: 33px;""><img src=""images/choice_trial_1.png"" style=""width: 408px; height: 417px; margin-right: 200px;""><img src=""images/choice_trial_2.png"" style=""width: 408px; height: 417px;""></div></div>","f","delaylearn","learning","trial","60fd1bde8dda943c26fa38a2","blTw2k48dbMu7aJPKhPQzjME9O23","1","images/choice_trial_1.png","images/choice_trial_2.png","images/pattern_1.png","f","f","7000","1","2","1","0","39","1","1","1","210","","","","",""
"html-keyboard-response","215","475380","0.0-89.0-1.0","","null","<div style=""display: flex; flex-direction: column; align-items: center; margin-top: -40px;""><img src=""images/pattern_1.png"" style=""width: 234px; height: 230px; margin-top: -50px;""><div style=""display: flex; justify-content: space-between; margin-top: 33px;""><img src=""images/choice_trial_1.png"" style=""width: 408px; height: 417px; margin-right: 608px;""></div></div>","null","delaylearn","learning","display_response","60fd1bde8dda943c26fa38a2","blTw2k48dbMu7aJPKhPQzjME9O23","","","","","","","","","","","","","","","","","chosen stimuli: images/choice_trial_1.png","","","",""
"html-keyboard-response","216","482382","0.0-89.0-2.0","","null","","null","delaylearn","learning","feedback_duration_window","60fd1bde8dda943c26fa38a2","blTw2k48dbMu7aJPKhPQzjME9O23","","","","","","","","","","","","","","","","","","7000","","",""
"html-keyboard-response","217","483885","0.0-89.0-3.0","","null","<div style='margin:auto;width: auto; font-size: 150%'><span style='font-weight: bold; font-size: 100px; color: green;'>+10 points!</span><br><br></div>","null","delaylearn","learning","feedback_image_window","60fd1bde8dda943c26fa38a2","blTw2k48dbMu7aJPKhPQzjME9O23","","","","","","","","","","","","","","","","","","","","",""
"html-keyboard-response","218","484387","0.0-90.0-0.0","","null","","null","","","mood_trial_fixation","","","","","","","","","","","","","","","","","","","","","","",""
"lmdlab-html-vas-response","219","489051","0.0-90.0-1.0","","3659","How happy are you right now?","0.4703703703703704","delaylearn","learning","mood_trial","60fd1bde8dda943c26fa38a2","blTw2k48dbMu7aJPKhPQzjME9O23","","","","","","","","","","","","","","","","","","","","[""Very unhappy"",""Very happy""]",""
"html-keyboard-response","220","491542","0.0-91.0","","null","<div style=""font-size:100px;"">+</div>","null","delaylearn","learning","ITI","60fd1bde8dda943c26fa38a2","blTw2k48dbMu7aJPKhPQzjME9O23","","","","","","","","","","","","","","","","","","","2489","",""
"html-keyboard-response","221","492563","0.0-92.0-0.0","","1009","<div style=""display: flex; flex-direction: column; align-items: center; margin-top: -40px;""><img src=""images/pattern_3.png"" style=""width: 234px; height: 230px; margin-top: -50px;""><div style=""display: flex; justify-content: space-between; margin-top: 33px;""><img src=""images/choice_trial_5.png"" style=""width: 408px; height: 417px; margin-right: 200px;""><img src=""images/choice_trial_6.png"" style=""width: 408px; height: 417px;""></div></div>","j","delaylearn","learning","trial","60fd1bde8dda943c26fa38a2","blTw2k48dbMu7aJPKhPQzjME9O23","1","images/choice_trial_5.png","images/choice_trial_6.png","images/pattern_3.png","j","f","7000","5","6","2","0","40","0","1","6","220","","","","",""
