"trial_type","trial_index","time_elapsed","internal_node_id","participant","rt","stimulus","response","exp_name","exp_stage","test_part","subjectID","databaseID","counterbal","choice_stimuli_1","choice_stimuli_2","pattern_stimuli","rewarded_answer","correct_answer","feedback_duration_times","stim_left","stim_right","pair","leftright_counter","trial","response_correct","response_rewarded","chosen_stim","counter","displayed_choice","feedback_durations","ITI_duration","labels","rest_warning"
"pavlovia","0","716","0.0-0.0","","","","","","","","","","","","","","","","","","","","","","","","","","","","","",""
"html-keyboard-response","1","3726","0.0-1.0","","null","<div style=""font-size:100px;"">+</div>","null","delaylearn","learning","pre_fixation","601efb79aa55223eeec6b2a6","","","","","","","","","","","","","","","","","","","","","",""
"html-keyboard-response","2","5351","0.0-2.0-0.0","","1623.3999999761581","<div style=""display: flex; flex-direction: column; align-items: center; margin-top: -40px;""><img src=""images/demo_images/pattern_1.png"" style=""width: 234px; height: 230px; margin-top: -50px;""><div style=""display: flex; justify-content: space-between; margin-top: 33px;""><img src=""images/demo_images/choice_trial_2.png"" style=""width: 408px; height: 417px; margin-right: 200px;""><img src=""images/demo_images/choice_trial_1.png"" style=""width: 408px; height: 417px;""></div></div>","j","delaylearn","learning","trial","601efb79aa55223eeec6b2a6","mBi95Bg2lBZgBuLisZ7qBNUgDJm2","5","images/demo_images/choice_trial_2.png","images/demo_images/choice_trial_1.png","images/demo_images/pattern_1.png","j","j","3000","2","1","20","1","1","1","1","1","10","","","","",""
"html-keyboard-response","3","6359","0.0-2.0-1.0","","null","<div style=""display: flex; flex-direction: column; align-items: center; margin-top: -40px;""><img src=""images/demo_images/pattern_1.png"" style=""width: 234px; height: 230px; margin-top: -50px;""><div style=""display: flex; justify-content: space-between; margin-top: 33px;""><img src=""images/demo_images/choice_trial_1.png"" style=""width: 408px; height: 417px; margin-left:608px;""></div></div>","null","delaylearn","learning","display_response","601efb79aa55223eeec6b2a6","mBi95Bg2lBZgBuLisZ7qBNUgDJm2","","","","","","","","","","","","","","","","","chosen stimuli: images/demo_images/choice_trial_1.png","","","",""
"html-keyboard-response","4","9367","0.0-2.0-2.0","","null","","null","delaylearn","learning","feedback_duration_window","601efb79aa55223eeec6b2a6","mBi95Bg2lBZgBuLisZ7qBNUgDJm2","","","","","","","","","","","","","","","","","","3000","","",""
"html-keyboard-response","5","10877","0.0-2.0-3.0","","null","<div style='margin:auto;width: auto; font-size: 150%'><span style='font-weight: bold; font-size: 100px; color: green;'>+10 points!</span><br><br></div>","null","delaylearn","learning","feedback_image_window","601efb79aa55223eeec6b2a6","mBi95Bg2lBZgBuLisZ7qBNUgDJm2","","","","","","","","","","","","","","","","","","","","",""
"html-keyboard-response","6","13382","0.0-3.0","","null","<div style=""font-size:100px;"">+</div>","null","delaylearn","learning","ITI","601efb79aa55223eeec6b2a6","mBi95Bg2lBZgBuLisZ7qBNUgDJm2","","","","","","","","","","","","","","","","","","","2492","",""
"html-keyboard-response","7","15080","0.0-4.0-0.0","","1696.6000000238419","<div style=""display: flex; flex-direction: column; align-items: center; margin-top: -40px;""><img src=""images/demo_images/pattern_1.png"" style=""width: 234px; height: 230px; margin-top: -50px;""><div style=""display: flex; justify-content: space-between; margin-top: 33px;""><img src=""images/demo_images/choice_trial_2.png"" style=""width: 408px; height: 417px; margin-right: 200px;""><img src=""images/demo_images/choice_trial_1.png"" style=""width: 408px; height: 417px;""></div></div>","j","delaylearn","learning","trial","601efb79aa55223eeec6b2a6","mBi95Bg2lBZgBuLisZ7qBNUgDJm2","5","images/demo_images/choice_trial_2.png","images/demo_images/choice_trial_1.png","images/demo_images/pattern_1.png","j","j","3000","2","1","20","1","2","1","1","1","20","","","","",""
"html-keyboard-response","8","16096","0.0-4.0-1.0","","null","<div style=""display: flex; flex-direction: column; align-items: center; margin-top: -40px;""><img src=""images/demo_images/pattern_1.png"" style=""width: 234px; height: 230px; margin-top: -50px;""><div style=""display: flex; justify-content: space-between; margin-top: 33px;""><img src=""images/demo_images/choice_trial_1.png"" style=""width: 408px; height: 417px; margin-left:608px;""></div></div>","null","delaylearn","learning","display_response","601efb79aa55223eeec6b2a6","mBi95Bg2lBZgBuLisZ7qBNUgDJm2","","","","","","","","","","","","","","","","","chosen stimuli: images/demo_images/choice_trial_1.png","","","",""
"html-keyboard-response","9","19110","0.0-4.0-2.0","","null","","null","delaylearn","learning","feedback_duration_window","601efb79aa55223eeec6b2a6","mBi95Bg2lBZgBuLisZ7qBNUgDJm2","","","","","","","","","","","","","","","","","","3000","","",""
"html-keyboard-response","10","20625","0.0-4.0-3.0","","null","<div style='margin:auto;width: auto; font-size: 150%'><span style='font-weight: bold; font-size: 100px; color: green;'>+10 points!</span><br><br></div>","null","delaylearn","learning","feedback_image_window","601efb79aa55223eeec6b2a6","mBi95Bg2lBZgBuLisZ7qBNUgDJm2","","","","","","","","","","","","","","","","","","","","",""
"html-keyboard-response","11","22292","0.0-5.0","","null","<div style=""font-size:100px;"">+</div>","null","delaylearn","learning","ITI","601efb79aa55223eeec6b2a6","mBi95Bg2lBZgBuLisZ7qBNUgDJm2","","","","","","","","","","","","","","","","","","","1656","",""
"html-keyboard-response","12","23885","0.0-6.0-0.0","","1591.5","<div style=""display: flex; flex-direction: column; align-items: center; margin-top: -40px;""><img src=""images/demo_images/pattern_1.png"" style=""width: 234px; height: 230px; margin-top: -50px;""><div style=""display: flex; justify-content: space-between; margin-top: 33px;""><img src=""images/demo_images/choice_trial_1.png"" style=""width: 408px; height: 417px; margin-right: 200px;""><img src=""images/demo_images/choice_trial_2.png"" style=""width: 408px; height: 417px;""></div></div>","f","delaylearn","learning","trial","601efb79aa55223eeec6b2a6","mBi95Bg2lBZgBuLisZ7qBNUgDJm2","5","images/demo_images/choice_trial_1.png","images/demo_images/choice_trial_2.png","images/demo_images/pattern_1.png","j","f","3000","1","2","20","0","3","1","0","1","20","","","","",""
"html-keyboard-response","13","24891","0.0-6.0-1.0","","null","<div style=""display: flex; flex-direction: column; align-items: center; margin-top: -40px;""><img src=""images/demo_images/pattern_1.png"" style=""width: 234px; height: 230px; margin-top: -50px;""><div style=""display: flex; justify-content: space-between; margin-top: 33px;""><img src=""images/demo_images/choice_trial_1.png"" style=""width: 408px; height: 417px; margin-right: 608px;""></div></div>","null","delaylearn","learning","display_response","601efb79aa55223eeec6b2a6","mBi95Bg2lBZgBuLisZ7qBNUgDJm2","","","","","","","","","","","","","","","","","chosen stimuli: images/demo_images/choice_trial_1.png","","","",""
"html-keyboard-response","14","27902","0.0-6.0-2.0","","null","","null","delaylearn","learning","feedback_duration_window","601efb79aa55223eeec6b2a6","mBi95Bg2lBZgBuLisZ7qBNUgDJm2","","","","","","","","","","","","","","","","","","3000","","",""
"html-keyboard-response","15","29405","0.0-6.0-3.0","","null","<div style='margin:auto;width: auto; font-size: 150%'><span style='font-weight: bold; font-size: 100px; color: red;'>0 points!</span><br><br></div>","null","delaylearn","learning","feedback_image_window","601efb79aa55223eeec6b2a6","mBi95Bg2lBZgBuLisZ7qBNUgDJm2","","","","","","","","","","","","","","","","","","","","",""
"html-keyboard-response","16","31499","0.0-7.0","","null","<div style=""font-size:100px;"">+</div>","null","delaylearn","learning","ITI","601efb79aa55223eeec6b2a6","mBi95Bg2lBZgBuLisZ7qBNUgDJm2","","","","","","","","","","","","","","","","","","","2083","",""
"html-keyboard-response","17","32280","0.0-8.0-0.0","","779.3999999761581","<div style=""display: flex; flex-direction: column; align-items: center; margin-top: -40px;""><img src=""images/demo_images/pattern_1.png"" style=""width: 234px; height: 230px; margin-top: -50px;""><div style=""display: flex; justify-content: space-between; margin-top: 33px;""><img src=""images/demo_images/choice_trial_1.png"" style=""width: 408px; height: 417px; margin-right: 200px;""><img src=""images/demo_images/choice_trial_2.png"" style=""width: 408px; height: 417px;""></div></div>","j","delaylearn","learning","trial","601efb79aa55223eeec6b2a6","mBi95Bg2lBZgBuLisZ7qBNUgDJm2","5","images/demo_images/choice_trial_1.png","images/demo_images/choice_trial_2.png","images/demo_images/pattern_1.png","f","f","3000","1","2","20","0","4","0","0","2","20","","","","",""
"html-keyboard-response","18","33286","0.0-8.0-1.0","","null","<div style=""display: flex; flex-direction: column; align-items: center; margin-top: -40px;""><img src=""images/demo_images/pattern_1.png"" style=""width: 234px; height: 230px; margin-top: -50px;""><div style=""display: flex; justify-content: space-between; margin-top: 33px;""><img src=""images/demo_images/choice_trial_2.png"" style=""width: 408px; height: 417px; margin-left:608px;""></div></div>","null","delaylearn","learning","display_response","601efb79aa55223eeec6b2a6","mBi95Bg2lBZgBuLisZ7qBNUgDJm2","","","","","","","","","","","","","","","","","chosen stimuli: images/demo_images/choice_trial_2.png","","","",""
"html-keyboard-response","19","36296","0.0-8.0-2.0","","null","","null","delaylearn","learning","feedback_duration_window","601efb79aa55223eeec6b2a6","mBi95Bg2lBZgBuLisZ7qBNUgDJm2","","","","","","","","","","","","","","","","","","3000","","",""
"html-keyboard-response","20","37806","0.0-8.0-3.0","","null","<div style='margin:auto;width: auto; font-size: 150%'><span style='font-weight: bold; font-size: 100px; color: red;'>0 points!</span><br><br></div>","null","delaylearn","learning","feedback_image_window","601efb79aa55223eeec6b2a6","mBi95Bg2lBZgBuLisZ7qBNUgDJm2","","","","","","","","","","","","","","","","","","","","",""
"html-keyboard-response","21","38316","0.0-9.0-0.0","","null","","null","","","mood_trial_fixation","","","","","","","","","","","","","","","","","","","","","","",""
"lmdlab-html-vas-response","22","54156","0.0-9.0-1.0","","14825","How happy are you right now?","0.41514753811930255","delaylearn","learning","mood_trial","601efb79aa55223eeec6b2a6","mBi95Bg2lBZgBuLisZ7qBNUgDJm2","","","","","","","","","","","","","","","","","","","","[""Very unhappy"",""Very happy""]",""
"html-keyboard-response","23","55879","0.0-10.0","","null","<div style=""font-size:100px;"">+</div>","null","delaylearn","learning","ITI","601efb79aa55223eeec6b2a6","mBi95Bg2lBZgBuLisZ7qBNUgDJm2","","","","","","","","","","","","","","","","","","","1714","",""
"html-keyboard-response","24","58414","0.0-11.0-0.0","","2533.7000000476837","<div style=""display: flex; flex-direction: column; align-items: center; margin-top: -40px;""><img src=""images/demo_images/pattern_1.png"" style=""width: 234px; height: 230px; margin-top: -50px;""><div style=""display: flex; justify-content: space-between; margin-top: 33px;""><img src=""images/demo_images/choice_trial_2.png"" style=""width: 408px; height: 417px; margin-right: 200px;""><img src=""images/demo_images/choice_trial_1.png"" style=""width: 408px; height: 417px;""></div></div>","f","delaylearn","learning","trial","601efb79aa55223eeec6b2a6","mBi95Bg2lBZgBuLisZ7qBNUgDJm2","5","images/demo_images/choice_trial_2.png","images/demo_images/choice_trial_1.png","images/demo_images/pattern_1.png","j","j","3000","2","1","20","1","5","0","0","2","20","","","","",""
"html-keyboard-response","25","59431","0.0-11.0-1.0","","null","<div style=""display: flex; flex-direction: column; align-items: center; margin-top: -40px;""><img src=""images/demo_images/pattern_1.png"" style=""width: 234px; height: 230px; margin-top: -50px;""><div style=""display: flex; justify-content: space-between; margin-top: 33px;""><img src=""images/demo_images/choice_trial_2.png"" style=""width: 408px; height: 417px; margin-right: 608px;""></div></div>","null","delaylearn","learning","display_response","601efb79aa55223eeec6b2a6","mBi95Bg2lBZgBuLisZ7qBNUgDJm2","","","","","","","","","","","","","","","","","chosen stimuli: images/demo_images/choice_trial_2.png","","","",""
"html-keyboard-response","26","62446","0.0-11.0-2.0","","null","","null","delaylearn","learning","feedback_duration_window","601efb79aa55223eeec6b2a6","mBi95Bg2lBZgBuLisZ7qBNUgDJm2","","","","","","","","","","","","","","","","","","3000","","",""
"html-keyboard-response","27","63951","0.0-11.0-3.0","","null","<div style='margin:auto;width: auto; font-size: 150%'><span style='font-weight: bold; font-size: 100px; color: red;'>0 points!</span><br><br></div>","null","delaylearn","learning","feedback_image_window","601efb79aa55223eeec6b2a6","mBi95Bg2lBZgBuLisZ7qBNUgDJm2","","","","","","","","","","","","","","","","","","","","",""
"html-keyboard-response","28","66203","0.0-12.0","","null","<div style=""font-size:100px;"">+</div>","null","delaylearn","learning","ITI","601efb79aa55223eeec6b2a6","mBi95Bg2lBZgBuLisZ7qBNUgDJm2","","","","","","","","","","","","","","","","","","","2246","",""
"html-keyboard-response","29","69208","0.0-13.0-0.0","","null","<div style=""display: flex; flex-direction: column; align-items: center; margin-top: -40px;""><img src=""images/demo_images/pattern_1.png"" style=""width: 234px; height: 230px; margin-top: -50px;""><div style=""display: flex; justify-content: space-between; margin-top: 33px;""><img src=""images/demo_images/choice_trial_1.png"" style=""width: 408px; height: 417px; margin-right: 200px;""><img src=""images/demo_images/choice_trial_2.png"" style=""width: 408px; height: 417px;""></div></div>","null","delaylearn","learning","trial","601efb79aa55223eeec6b2a6","mBi95Bg2lBZgBuLisZ7qBNUgDJm2","5","images/demo_images/choice_trial_1.png","images/demo_images/choice_trial_2.png","images/demo_images/pattern_1.png","f","f","3000","1","2","20","0","6","0","0","0","20","","","","",""
"html-keyboard-response","30","70221","0.0-13.0-1.0","","null","<div style='font-weight: bold; font-size: 75px; color: red;'>Missed Trial <br><br><br><br> Please respond faster</div>","null","delaylearn","learning","display_response","601efb79aa55223eeec6b2a6","mBi95Bg2lBZgBuLisZ7qBNUgDJm2","","","","","","","","","","","","","","","","","Missed trial","","","",""
"html-keyboard-response","31","70226","0.0-13.0-2.0","","null","","null","delaylearn","learning","feedback_duration_window","601efb79aa55223eeec6b2a6","mBi95Bg2lBZgBuLisZ7qBNUgDJm2","","","","","","","","","","","","","","","","","","0","","",""
"html-keyboard-response","32","70231","0.0-13.0-3.0","","null","","null","delaylearn","learning","feedback_image_window","601efb79aa55223eeec6b2a6","mBi95Bg2lBZgBuLisZ7qBNUgDJm2","","","","","","","","","","","","","","","","","","","","",""
"html-keyboard-response","33","72102","0.0-14.0","","null","<div style=""font-size:100px;"">+</div>","null","delaylearn","learning","ITI","601efb79aa55223eeec6b2a6","mBi95Bg2lBZgBuLisZ7qBNUgDJm2","","","","","","","","","","","","","","","","","","","1868","",""
"html-keyboard-response","34","73191","0.0-15.0-0.0","","1087.7999999523163","<div style=""display: flex; flex-direction: column; align-items: center; margin-top: -40px;""><img src=""images/demo_images/pattern_1.png"" style=""width: 234px; height: 230px; margin-top: -50px;""><div style=""display: flex; justify-content: space-between; margin-top: 33px;""><img src=""images/demo_images/choice_trial_2.png"" style=""width: 408px; height: 417px; margin-right: 200px;""><img src=""images/demo_images/choice_trial_1.png"" style=""width: 408px; height: 417px;""></div></div>","f","delaylearn","learning","trial","601efb79aa55223eeec6b2a6","mBi95Bg2lBZgBuLisZ7qBNUgDJm2","5","images/demo_images/choice_trial_2.png","images/demo_images/choice_trial_1.png","images/demo_images/pattern_1.png","j","j","3000","2","1","20","1","7","0","0","2","20","","","","",""
"html-keyboard-response","35","74199","0.0-15.0-1.0","","null","<div style=""display: flex; flex-direction: column; align-items: center; margin-top: -40px;""><img src=""images/demo_images/pattern_1.png"" style=""width: 234px; height: 230px; margin-top: -50px;""><div style=""display: flex; justify-content: space-between; margin-top: 33px;""><img src=""images/demo_images/choice_trial_2.png"" style=""width: 408px; height: 417px; margin-right: 608px;""></div></div>","null","delaylearn","learning","display_response","601efb79aa55223eeec6b2a6","mBi95Bg2lBZgBuLisZ7qBNUgDJm2","","","","","","","","","","","","","","","","","chosen stimuli: images/demo_images/choice_trial_2.png","","","",""
"html-keyboard-response","36","77202","0.0-15.0-2.0","","null","","null","delaylearn","learning","feedback_duration_window","601efb79aa55223eeec6b2a6","mBi95Bg2lBZgBuLisZ7qBNUgDJm2","","","","","","","","","","","","","","","","","","3000","","",""
"html-keyboard-response","37","78717","0.0-15.0-3.0","","null","<div style='margin:auto;width: auto; font-size: 150%'><span style='font-weight: bold; font-size: 100px; color: red;'>0 points!</span><br><br></div>","null","delaylearn","learning","feedback_image_window","601efb79aa55223eeec6b2a6","mBi95Bg2lBZgBuLisZ7qBNUgDJm2","","","","","","","","","","","","","","","","","","","","",""
"html-keyboard-response","38","80471","0.0-16.0","","null","<div style=""font-size:100px;"">+</div>","null","delaylearn","learning","ITI","601efb79aa55223eeec6b2a6","mBi95Bg2lBZgBuLisZ7qBNUgDJm2","","","","","","","","","","","","","","","","","","","1751","",""
"html-keyboard-response","39","81782","0.0-17.0-0.0","","1310.6000000238419","<div style=""display: flex; flex-direction: column; align-items: center; margin-top: -40px;""><img src=""images/demo_images/pattern_1.png"" style=""width: 234px; height: 230px; margin-top: -50px;""><div style=""display: flex; justify-content: space-between; margin-top: 33px;""><img src=""images/demo_images/choice_trial_1.png"" style=""width: 408px; height: 417px; margin-right: 200px;""><img src=""images/demo_images/choice_trial_2.png"" style=""width: 408px; height: 417px;""></div></div>","j","delaylearn","learning","trial","601efb79aa55223eeec6b2a6","mBi95Bg2lBZgBuLisZ7qBNUgDJm2","5","images/demo_images/choice_trial_1.png","images/demo_images/choice_trial_2.png","images/demo_images/pattern_1.png","f","f","3000","1","2","20","0","8","0","0","2","20","","","","",""
"html-keyboard-response","40","82793","0.0-17.0-1.0","","null","<div style=""display: flex; flex-direction: column; align-items: center; margin-top: -40px;""><img src=""images/demo_images/pattern_1.png"" style=""width: 234px; height: 230px; margin-top: -50px;""><div style=""display: flex; justify-content: space-between; margin-top: 33px;""><img src=""images/demo_images/choice_trial_2.png"" style=""width: 408px; height: 417px; margin-left:608px;""></div></div>","null","delaylearn","learning","display_response","601efb79aa55223eeec6b2a6","mBi95Bg2lBZgBuLisZ7qBNUgDJm2","","","","","","","","","","","","","","","","","chosen stimuli: images/demo_images/choice_trial_2.png","","","",""
"html-keyboard-response","41","85796","0.0-17.0-2.0","","null","","null","delaylearn","learning","feedback_duration_window","601efb79aa55223eeec6b2a6","mBi95Bg2lBZgBuLisZ7qBNUgDJm2","","","","","","","","","","","","","","","","","","3000","","",""
"html-keyboard-response","42","87303","0.0-17.0-3.0","","null","<div style='margin:auto;width: auto; font-size: 150%'><span style='font-weight: bold; font-size: 100px; color: red;'>0 points!</span><br><br></div>","null","delaylearn","learning","feedback_image_window","601efb79aa55223eeec6b2a6","mBi95Bg2lBZgBuLisZ7qBNUgDJm2","","","","","","","","","","","","","","","","","","","","",""
"html-button-response","43","92228","0.0-18.0","","4924.299999952316","
  <div style=""display: flex; align-items: center; justify-content: center; height: 80vh;"">
  <div>
          <img src=""images/inst_demo_finish.png"" style=""width: 80vw; height:auto;"">
          <br><br>
      </div>
      <br><br>
  </div>","0","","","","","","","","","","","","","","","","","","","","","","","","","",""
"html-keyboard-response","44","97629","0.0-19.0","","5400.100000023842","
  <div style=""display: flex; align-items: center; justify-content: center; height: 80vh;"">
  <div>
          <img src=""images/inst_6.png"" style=""width: 80vw; height:auto;"">
          <br><br>
      </div>
      <br><br>
  </div>","f","","","","","","","","","","","","","","","","","","","","","","","","","",""
"html-keyboard-response","45","100642","0.0-20.0","","null","<div style=""font-size:100px;"">+</div>","null","delaylearn","learning","pre_fixation","601efb79aa55223eeec6b2a6","","","","","","","","","","","","","","","","","","","","","",""
"html-keyboard-response","46","103078","0.0-21.0","","null","<div style=""font-size:100px;"">+</div>","null","delaylearn","learning","ITI","601efb79aa55223eeec6b2a6","mBi95Bg2lBZgBuLisZ7qBNUgDJm2","","","","","","","","","","","","","","","","","","","2429","",""
"html-keyboard-response","47","104367","0.0-22.0-0.0","","1288.3999999761581","<div style=""display: flex; flex-direction: column; align-items: center; margin-top: -40px;""><img src=""images/pattern_3.png"" style=""width: 234px; height: 230px; margin-top: -50px;""><div style=""display: flex; justify-content: space-between; margin-top: 33px;""><img src=""images/choice_trial_16.png"" style=""width: 408px; height: 417px; margin-right: 200px;""><img src=""images/choice_trial_2.png"" style=""width: 408px; height: 417px;""></div></div>","j","delaylearn","learning","trial","601efb79aa55223eeec6b2a6","mBi95Bg2lBZgBuLisZ7qBNUgDJm2","5","images/choice_trial_16.png","images/choice_trial_2.png","images/pattern_3.png","f","f","7000","16","2","2","0","9","0","0","2","20","","","","",""
"html-keyboard-response","48","105372","0.0-22.0-1.0","","null","<div style=""display: flex; flex-direction: column; align-items: center; margin-top: -40px;""><img src=""images/pattern_3.png"" style=""width: 234px; height: 230px; margin-top: -50px;""><div style=""display: flex; justify-content: space-between; margin-top: 33px;""><img src=""images/choice_trial_2.png"" style=""width: 408px; height: 417px; margin-left:608px;""></div></div>","null","delaylearn","learning","display_response","601efb79aa55223eeec6b2a6","mBi95Bg2lBZgBuLisZ7qBNUgDJm2","","","","","","","","","","","","","","","","","chosen stimuli: images/choice_trial_2.png","","","",""
"html-keyboard-response","49","112387","0.0-22.0-2.0","","null","","null","delaylearn","learning","feedback_duration_window","601efb79aa55223eeec6b2a6","mBi95Bg2lBZgBuLisZ7qBNUgDJm2","","","","","","","","","","","","","","","","","","7000","","",""
"html-keyboard-response","50","113892","0.0-22.0-3.0","","null","<div style='margin:auto;width: auto; font-size: 150%'><span style='font-weight: bold; font-size: 100px; color: red;'>0 points!</span><br><br></div>","null","delaylearn","learning","feedback_image_window","601efb79aa55223eeec6b2a6","mBi95Bg2lBZgBuLisZ7qBNUgDJm2","","","","","","","","","","","","","","","","","","","","",""
"html-keyboard-response","51","116255","0.0-23.0","","null","<div style=""font-size:100px;"">+</div>","null","delaylearn","learning","ITI","601efb79aa55223eeec6b2a6","mBi95Bg2lBZgBuLisZ7qBNUgDJm2","","","","","","","","","","","","","","","","","","","2351","",""
"html-keyboard-response","52","117899","0.0-24.0-0.0","","1642.0999999046326","<div style=""display: flex; flex-direction: column; align-items: center; margin-top: -40px;""><img src=""images/pattern_7.png"" style=""width: 234px; height: 230px; margin-top: -50px;""><div style=""display: flex; justify-content: space-between; margin-top: 33px;""><img src=""images/choice_trial_10.png"" style=""width: 408px; height: 417px; margin-right: 200px;""><img src=""images/choice_trial_8.png"" style=""width: 408px; height: 417px;""></div></div>","f","delaylearn","learning","trial","601efb79aa55223eeec6b2a6","mBi95Bg2lBZgBuLisZ7qBNUgDJm2","5","images/choice_trial_10.png","images/choice_trial_8.png","images/pattern_7.png","j","j","750","10","8","6","1","10","0","0","10","20","","","","",""
"html-keyboard-response","53","118914","0.0-24.0-1.0","","null","<div style=""display: flex; flex-direction: column; align-items: center; margin-top: -40px;""><img src=""images/pattern_7.png"" style=""width: 234px; height: 230px; margin-top: -50px;""><div style=""display: flex; justify-content: space-between; margin-top: 33px;""><img src=""images/choice_trial_10.png"" style=""width: 408px; height: 417px; margin-right: 608px;""></div></div>","null","delaylearn","learning","display_response","601efb79aa55223eeec6b2a6","mBi95Bg2lBZgBuLisZ7qBNUgDJm2","","","","","","","","","","","","","","","","","chosen stimuli: images/choice_trial_10.png","","","",""
"html-keyboard-response","54","119679","0.0-24.0-2.0","","null","","null","delaylearn","learning","feedback_duration_window","601efb79aa55223eeec6b2a6","mBi95Bg2lBZgBuLisZ7qBNUgDJm2","","","","","","","","","","","","","","","","","","750","","",""
"html-keyboard-response","55","121182","0.0-24.0-3.0","","null","<div style='margin:auto;width: auto; font-size: 150%'><span style='font-weight: bold; font-size: 100px; color: red;'>0 points!</span><br><br></div>","null","delaylearn","learning","feedback_image_window","601efb79aa55223eeec6b2a6","mBi95Bg2lBZgBuLisZ7qBNUgDJm2","","","","","","","","","","","","","","","","","","","","",""
"html-keyboard-response","56","123540","0.0-25.0","","null","<div style=""font-size:100px;"">+</div>","null","delaylearn","learning","ITI","601efb79aa55223eeec6b2a6","mBi95Bg2lBZgBuLisZ7qBNUgDJm2","","","","","","","","","","","","","","","","","","","2354","",""
"html-keyboard-response","57","124693","0.0-26.0-0.0","","1152","<div style=""display: flex; flex-direction: column; align-items: center; margin-top: -40px;""><img src=""images/pattern_4.png"" style=""width: 234px; height: 230px; margin-top: -50px;""><div style=""display: flex; justify-content: space-between; margin-top: 33px;""><img src=""images/choice_trial_11.png"" style=""width: 408px; height: 417px; margin-right: 200px;""><img src=""images/choice_trial_4.png"" style=""width: 408px; height: 417px;""></div></div>","f","delaylearn","learning","trial","601efb79aa55223eeec6b2a6","mBi95Bg2lBZgBuLisZ7qBNUgDJm2","5","images/choice_trial_11.png","images/choice_trial_4.png","images/pattern_4.png","f","f","7000","11","4","3","0","11","1","1","11","30","","","","",""
"html-keyboard-response","58","125697","0.0-26.0-1.0","","null","<div style=""display: flex; flex-direction: column; align-items: center; margin-top: -40px;""><img src=""images/pattern_4.png"" style=""width: 234px; height: 230px; margin-top: -50px;""><div style=""display: flex; justify-content: space-between; margin-top: 33px;""><img src=""images/choice_trial_11.png"" style=""width: 408px; height: 417px; margin-right: 608px;""></div></div>","null","delaylearn","learning","display_response","601efb79aa55223eeec6b2a6","mBi95Bg2lBZgBuLisZ7qBNUgDJm2","","","","","","","","","","","","","","","","","chosen stimuli: images/choice_trial_11.png","","","",""
"html-keyboard-response","59","132706","0.0-26.0-2.0","","null","","null","delaylearn","learning","feedback_duration_window","601efb79aa55223eeec6b2a6","mBi95Bg2lBZgBuLisZ7qBNUgDJm2","","","","","","","","","","","","","","","","","","7000","","",""
"html-keyboard-response","60","134218","0.0-26.0-3.0","","null","<div style='margin:auto;width: auto; font-size: 150%'><span style='font-weight: bold; font-size: 100px; color: green;'>+10 points!</span><br><br></div>","null","delaylearn","learning","feedback_image_window","601efb79aa55223eeec6b2a6","mBi95Bg2lBZgBuLisZ7qBNUgDJm2","","","","","","","","","","","","","","","","","","","","",""
"html-keyboard-response","61","135916","0.0-27.0","","null","<div style=""font-size:100px;"">+</div>","null","delaylearn","learning","ITI","601efb79aa55223eeec6b2a6","mBi95Bg2lBZgBuLisZ7qBNUgDJm2","","","","","","","","","","","","","","","","","","","1691","",""
"html-keyboard-response","62","137019","0.0-28.0-0.0","","1101.3999999761581","<div style=""display: flex; flex-direction: column; align-items: center; margin-top: -40px;""><img src=""images/pattern_5.png"" style=""width: 234px; height: 230px; margin-top: -50px;""><div style=""display: flex; justify-content: space-between; margin-top: 33px;""><img src=""images/choice_trial_13.png"" style=""width: 408px; height: 417px; margin-right: 200px;""><img src=""images/choice_trial_7.png"" style=""width: 408px; height: 417px;""></div></div>","j","delaylearn","learning","trial","601efb79aa55223eeec6b2a6","mBi95Bg2lBZgBuLisZ7qBNUgDJm2","5","images/choice_trial_13.png","images/choice_trial_7.png","images/pattern_5.png","j","j","750","13","7","4","1","12","1","1","7","40","","","","",""
"html-keyboard-response","63","138029","0.0-28.0-1.0","","null","<div style=""display: flex; flex-direction: column; align-items: center; margin-top: -40px;""><img src=""images/pattern_5.png"" style=""width: 234px; height: 230px; margin-top: -50px;""><div style=""display: flex; justify-content: space-between; margin-top: 33px;""><img src=""images/choice_trial_7.png"" style=""width: 408px; height: 417px; margin-left:608px;""></div></div>","null","delaylearn","learning","display_response","601efb79aa55223eeec6b2a6","mBi95Bg2lBZgBuLisZ7qBNUgDJm2","","","","","","","","","","","","","","","","","chosen stimuli: images/choice_trial_7.png","","","",""
"html-keyboard-response","64","138790","0.0-28.0-2.0","","null","","null","delaylearn","learning","feedback_duration_window","601efb79aa55223eeec6b2a6","mBi95Bg2lBZgBuLisZ7qBNUgDJm2","","","","","","","","","","","","","","","","","","750","","",""
"html-keyboard-response","65","140301","0.0-28.0-3.0","","null","<div style='margin:auto;width: auto; font-size: 150%'><span style='font-weight: bold; font-size: 100px; color: green;'>+10 points!</span><br><br></div>","null","delaylearn","learning","feedback_image_window","601efb79aa55223eeec6b2a6","mBi95Bg2lBZgBuLisZ7qBNUgDJm2","","","","","","","","","","","","","","","","","","","","",""
"html-keyboard-response","66","142493","0.0-29.0","","null","<div style=""font-size:100px;"">+</div>","null","delaylearn","learning","ITI","601efb79aa55223eeec6b2a6","mBi95Bg2lBZgBuLisZ7qBNUgDJm2","","","","","","","","","","","","","","","","","","","2190","",""
"html-keyboard-response","67","143703","0.0-30.0-0.0","","1207.9000000953674","<div style=""display: flex; flex-direction: column; align-items: center; margin-top: -40px;""><img src=""images/pattern_6.png"" style=""width: 234px; height: 230px; margin-top: -50px;""><div style=""display: flex; justify-content: space-between; margin-top: 33px;""><img src=""images/choice_trial_14.png"" style=""width: 408px; height: 417px; margin-right: 200px;""><img src=""images/choice_trial_9.png"" style=""width: 408px; height: 417px;""></div></div>","j","delaylearn","learning","trial","601efb79aa55223eeec6b2a6","mBi95Bg2lBZgBuLisZ7qBNUgDJm2","5","images/choice_trial_14.png","images/choice_trial_9.png","images/pattern_6.png","j","f","750","14","9","5","0","13","0","1","9","50","","","","",""
"html-keyboard-response","68","144706","0.0-30.0-1.0","","null","<div style=""display: flex; flex-direction: column; align-items: center; margin-top: -40px;""><img src=""images/pattern_6.png"" style=""width: 234px; height: 230px; margin-top: -50px;""><div style=""display: flex; justify-content: space-between; margin-top: 33px;""><img src=""images/choice_trial_9.png"" style=""width: 408px; height: 417px; margin-left:608px;""></div></div>","null","delaylearn","learning","display_response","601efb79aa55223eeec6b2a6","mBi95Bg2lBZgBuLisZ7qBNUgDJm2","","","","","","","","","","","","","","","","","chosen stimuli: images/choice_trial_9.png","","","",""
"html-keyboard-response","69","145467","0.0-30.0-2.0","","null","","null","delaylearn","learning","feedback_duration_window","601efb79aa55223eeec6b2a6","mBi95Bg2lBZgBuLisZ7qBNUgDJm2","","","","","","","","","","","","","","","","","","750","","",""
"html-keyboard-response","70","146974","0.0-30.0-3.0","","null","<div style='margin:auto;width: auto; font-size: 150%'><span style='font-weight: bold; font-size: 100px; color: green;'>+10 points!</span><br><br></div>","null","delaylearn","learning","feedback_image_window","601efb79aa55223eeec6b2a6","mBi95Bg2lBZgBuLisZ7qBNUgDJm2","","","","","","","","","","","","","","","","","","","","",""
"html-keyboard-response","71","147490","0.0-31.0-0.0","","null","","null","","","mood_trial_fixation","","","","","","","","","","","","","","","","","","","","","","",""
"lmdlab-html-vas-response","72","159618","0.0-31.0-1.0","","11114","How happy are you right now?","0.5791135797800333","delaylearn","learning","mood_trial","601efb79aa55223eeec6b2a6","mBi95Bg2lBZgBuLisZ7qBNUgDJm2","","","","","","","","","","","","","","","","","","","","[""Very unhappy"",""Very happy""]",""
"html-keyboard-response","73","161349","0.0-32.0","","null","<div style=""font-size:100px;"">+</div>","null","delaylearn","learning","ITI","601efb79aa55223eeec6b2a6","mBi95Bg2lBZgBuLisZ7qBNUgDJm2","","","","","","","","","","","","","","","","","","","1720","",""
"html-keyboard-response","74","162762","0.0-33.0-0.0","","1412","<div style=""display: flex; flex-direction: column; align-items: center; margin-top: -40px;""><img src=""images/pattern_1.png"" style=""width: 234px; height: 230px; margin-top: -50px;""><div style=""display: flex; justify-content: space-between; margin-top: 33px;""><img src=""images/choice_trial_15.png"" style=""width: 408px; height: 417px; margin-right: 200px;""><img src=""images/choice_trial_6.png"" style=""width: 408px; height: 417px;""></div></div>","f","delaylearn","learning","trial","601efb79aa55223eeec6b2a6","mBi95Bg2lBZgBuLisZ7qBNUgDJm2","5","images/choice_trial_15.png","images/choice_trial_6.png","images/pattern_1.png","j","j","7000","15","6","1","1","14","0","0","15","50","","","","",""
"html-keyboard-response","75","163778","0.0-33.0-1.0","","null","<div style=""display: flex; flex-direction: column; align-items: center; margin-top: -40px;""><img src=""images/pattern_1.png"" style=""width: 234px; height: 230px; margin-top: -50px;""><div style=""display: flex; justify-content: space-between; margin-top: 33px;""><img src=""images/choice_trial_15.png"" style=""width: 408px; height: 417px; margin-right: 608px;""></div></div>","null","delaylearn","learning","display_response","601efb79aa55223eeec6b2a6","mBi95Bg2lBZgBuLisZ7qBNUgDJm2","","","","","","","","","","","","","","","","","chosen stimuli: images/choice_trial_15.png","","","",""
"html-keyboard-response","76","170781","0.0-33.0-2.0","","null","","null","delaylearn","learning","feedback_duration_window","601efb79aa55223eeec6b2a6","mBi95Bg2lBZgBuLisZ7qBNUgDJm2","","","","","","","","","","","","","","","","","","7000","","",""
"html-keyboard-response","77","172295","0.0-33.0-3.0","","null","<div style='margin:auto;width: auto; font-size: 150%'><span style='font-weight: bold; font-size: 100px; color: red;'>0 points!</span><br><br></div>","null","delaylearn","learning","feedback_image_window","601efb79aa55223eeec6b2a6","mBi95Bg2lBZgBuLisZ7qBNUgDJm2","","","","","","","","","","","","","","","","","","","","",""
"html-keyboard-response","78","173808","0.0-34.0","","null","<div style=""font-size:100px;"">+</div>","null","delaylearn","learning","ITI","601efb79aa55223eeec6b2a6","mBi95Bg2lBZgBuLisZ7qBNUgDJm2","","","","","","","","","","","","","","","","","","","1509","",""
"html-keyboard-response","79","175118","0.0-35.0-0.0","","1308.8999999761581","<div style=""display: flex; flex-direction: column; align-items: center; margin-top: -40px;""><img src=""images/pattern_3.png"" style=""width: 234px; height: 230px; margin-top: -50px;""><div style=""display: flex; justify-content: space-between; margin-top: 33px;""><img src=""images/choice_trial_2.png"" style=""width: 408px; height: 417px; margin-right: 200px;""><img src=""images/choice_trial_16.png"" style=""width: 408px; height: 417px;""></div></div>","f","delaylearn","learning","trial","601efb79aa55223eeec6b2a6","mBi95Bg2lBZgBuLisZ7qBNUgDJm2","5","images/choice_trial_2.png","images/choice_trial_16.png","images/pattern_3.png","f","j","7000","2","16","2","1","15","0","1","2","60","","","","",""
"html-keyboard-response","80","176126","0.0-35.0-1.0","","null","<div style=""display: flex; flex-direction: column; align-items: center; margin-top: -40px;""><img src=""images/pattern_3.png"" style=""width: 234px; height: 230px; margin-top: -50px;""><div style=""display: flex; justify-content: space-between; margin-top: 33px;""><img src=""images/choice_trial_2.png"" style=""width: 408px; height: 417px; margin-right: 608px;""></div></div>","null","delaylearn","learning","display_response","601efb79aa55223eeec6b2a6","mBi95Bg2lBZgBuLisZ7qBNUgDJm2","","","","","","","","","","","","","","","","","chosen stimuli: images/choice_trial_2.png","","","",""
"html-keyboard-response","81","183130","0.0-35.0-2.0","","null","","null","delaylearn","learning","feedback_duration_window","601efb79aa55223eeec6b2a6","mBi95Bg2lBZgBuLisZ7qBNUgDJm2","","","","","","","","","","","","","","","","","","7000","","",""
"html-keyboard-response","82","184636","0.0-35.0-3.0","","null","<div style='margin:auto;width: auto; font-size: 150%'><span style='font-weight: bold; font-size: 100px; color: green;'>+10 points!</span><br><br></div>","null","delaylearn","learning","feedback_image_window","601efb79aa55223eeec6b2a6","mBi95Bg2lBZgBuLisZ7qBNUgDJm2","","","","","","","","","","","","","","","","","","","","",""
"html-keyboard-response","83","186171","0.0-36.0","","null","<div style=""font-size:100px;"">+</div>","null","delaylearn","learning","ITI","601efb79aa55223eeec6b2a6","mBi95Bg2lBZgBuLisZ7qBNUgDJm2","","","","","","","","","","","","","","","","","","","1532","",""
"html-keyboard-response","84","187153","0.0-37.0-0.0","","980.7000000476837","<div style=""display: flex; flex-direction: column; align-items: center; margin-top: -40px;""><img src=""images/pattern_5.png"" style=""width: 234px; height: 230px; margin-top: -50px;""><div style=""display: flex; justify-content: space-between; margin-top: 33px;""><img src=""images/choice_trial_7.png"" style=""width: 408px; height: 417px; margin-right: 200px;""><img src=""images/choice_trial_13.png"" style=""width: 408px; height: 417px;""></div></div>","f","delaylearn","learning","trial","601efb79aa55223eeec6b2a6","mBi95Bg2lBZgBuLisZ7qBNUgDJm2","5","images/choice_trial_7.png","images/choice_trial_13.png","images/pattern_5.png","f","f","750","7","13","4","0","16","1","1","7","70","","","","",""
"html-keyboard-response","85","188168","0.0-37.0-1.0","","null","<div style=""display: flex; flex-direction: column; align-items: center; margin-top: -40px;""><img src=""images/pattern_5.png"" style=""width: 234px; height: 230px; margin-top: -50px;""><div style=""display: flex; justify-content: space-between; margin-top: 33px;""><img src=""images/choice_trial_7.png"" style=""width: 408px; height: 417px; margin-right: 608px;""></div></div>","null","delaylearn","learning","display_response","601efb79aa55223eeec6b2a6","mBi95Bg2lBZgBuLisZ7qBNUgDJm2","","","","","","","","","","","","","","","","","chosen stimuli: images/choice_trial_7.png","","","",""
"html-keyboard-response","86","188922","0.0-37.0-2.0","","null","","null","delaylearn","learning","feedback_duration_window","601efb79aa55223eeec6b2a6","mBi95Bg2lBZgBuLisZ7qBNUgDJm2","","","","","","","","","","","","","","","","","","750","","",""
"html-keyboard-response","87","190423","0.0-37.0-3.0","","null","<div style='margin:auto;width: auto; font-size: 150%'><span style='font-weight: bold; font-size: 100px; color: green;'>+10 points!</span><br><br></div>","null","delaylearn","learning","feedback_image_window","601efb79aa55223eeec6b2a6","mBi95Bg2lBZgBuLisZ7qBNUgDJm2","","","","","","","","","","","","","","","","","","","","",""
"html-keyboard-response","88","190934","0.0-38.0-0.0","","null","","null","","","mood_trial_fixation","","","","","","","","","","","","","","","","","","","","","","",""
"lmdlab-html-vas-response","89","195626","0.0-38.0-1.0","","3681","How happy are you right now?","0.7102864131086178","delaylearn","learning","mood_trial","601efb79aa55223eeec6b2a6","mBi95Bg2lBZgBuLisZ7qBNUgDJm2","","","","","","","","","","","","","","","","","","","","[""Very unhappy"",""Very happy""]",""
"html-keyboard-response","90","198026","0.0-39.0","","null","<div style=""font-size:100px;"">+</div>","null","delaylearn","learning","ITI","601efb79aa55223eeec6b2a6","mBi95Bg2lBZgBuLisZ7qBNUgDJm2","","","","","","","","","","","","","","","","","","","2388","",""
"html-keyboard-response","91","198986","0.0-40.0-0.0","","958.7999999523163","<div style=""display: flex; flex-direction: column; align-items: center; margin-top: -40px;""><img src=""images/pattern_6.png"" style=""width: 234px; height: 230px; margin-top: -50px;""><div style=""display: flex; justify-content: space-between; margin-top: 33px;""><img src=""images/choice_trial_14.png"" style=""width: 408px; height: 417px; margin-right: 200px;""><img src=""images/choice_trial_9.png"" style=""width: 408px; height: 417px;""></div></div>","j","delaylearn","learning","trial","601efb79aa55223eeec6b2a6","mBi95Bg2lBZgBuLisZ7qBNUgDJm2","5","images/choice_trial_14.png","images/choice_trial_9.png","images/pattern_6.png","f","f","750","14","9","5","0","17","0","0","9","70","","","","",""
"html-keyboard-response","92","199992","0.0-40.0-1.0","","null","<div style=""display: flex; flex-direction: column; align-items: center; margin-top: -40px;""><img src=""images/pattern_6.png"" style=""width: 234px; height: 230px; margin-top: -50px;""><div style=""display: flex; justify-content: space-between; margin-top: 33px;""><img src=""images/choice_trial_9.png"" style=""width: 408px; height: 417px; margin-left:608px;""></div></div>","null","delaylearn","learning","display_response","601efb79aa55223eeec6b2a6","mBi95Bg2lBZgBuLisZ7qBNUgDJm2","","","","","","","","","","","","","","","","","chosen stimuli: images/choice_trial_9.png","","","",""
"html-keyboard-response","93","200750","0.0-40.0-2.0","","null","","null","delaylearn","learning","feedback_duration_window","601efb79aa55223eeec6b2a6","mBi95Bg2lBZgBuLisZ7qBNUgDJm2","","","","","","","","","","","","","","","","","","750","","",""
"html-keyboard-response","94","202255","0.0-40.0-3.0","","null","<div style='margin:auto;width: auto; font-size: 150%'><span style='font-weight: bold; font-size: 100px; color: red;'>0 points!</span><br><br></div>","null","delaylearn","learning","feedback_image_window","601efb79aa55223eeec6b2a6","mBi95Bg2lBZgBuLisZ7qBNUgDJm2","","","","","","","","","","","","","","","","","","","","",""
"html-keyboard-response","95","204569","0.0-41.0","","null","<div style=""font-size:100px;"">+</div>","null","delaylearn","learning","ITI","601efb79aa55223eeec6b2a6","mBi95Bg2lBZgBuLisZ7qBNUgDJm2","","","","","","","","","","","","","","","","","","","2308","",""
"html-keyboard-response","96","205721","0.0-42.0-0.0","","1151.3000000715256","<div style=""display: flex; flex-direction: column; align-items: center; margin-top: -40px;""><img src=""images/pattern_4.png"" style=""width: 234px; height: 230px; margin-top: -50px;""><div style=""display: flex; justify-content: space-between; margin-top: 33px;""><img src=""images/choice_trial_4.png"" style=""width: 408px; height: 417px; margin-right: 200px;""><img src=""images/choice_trial_11.png"" style=""width: 408px; height: 417px;""></div></div>","j","delaylearn","learning","trial","601efb79aa55223eeec6b2a6","mBi95Bg2lBZgBuLisZ7qBNUgDJm2","5","images/choice_trial_4.png","images/choice_trial_11.png","images/pattern_4.png","j","j","7000","4","11","3","1","18","1","1","11","80","","","","",""
"html-keyboard-response","97","206730","0.0-42.0-1.0","","null","<div style=""display: flex; flex-direction: column; align-items: center; margin-top: -40px;""><img src=""images/pattern_4.png"" style=""width: 234px; height: 230px; margin-top: -50px;""><div style=""display: flex; justify-content: space-between; margin-top: 33px;""><img src=""images/choice_trial_11.png"" style=""width: 408px; height: 417px; margin-left:608px;""></div></div>","null","delaylearn","learning","display_response","601efb79aa55223eeec6b2a6","mBi95Bg2lBZgBuLisZ7qBNUgDJm2","","","","","","","","","","","","","","","","","chosen stimuli: images/choice_trial_11.png","","","",""
"html-keyboard-response","98","213739","0.0-42.0-2.0","","null","","null","delaylearn","learning","feedback_duration_window","601efb79aa55223eeec6b2a6","mBi95Bg2lBZgBuLisZ7qBNUgDJm2","","","","","","","","","","","","","","","","","","7000","","",""
"html-keyboard-response","99","215241","0.0-42.0-3.0","","null","<div style='margin:auto;width: auto; font-size: 150%'><span style='font-weight: bold; font-size: 100px; color: green;'>+10 points!</span><br><br></div>","null","delaylearn","learning","feedback_image_window","601efb79aa55223eeec6b2a6","mBi95Bg2lBZgBuLisZ7qBNUgDJm2","","","","","","","","","","","","","","","","","","","","",""
"html-keyboard-response","100","217115","0.0-43.0","","null","<div style=""font-size:100px;"">+</div>","null","delaylearn","learning","ITI","601efb79aa55223eeec6b2a6","mBi95Bg2lBZgBuLisZ7qBNUgDJm2","","","","","","","","","","","","","","","","","","","1862","",""
"html-keyboard-response","101","218309","0.0-44.0-0.0","","1192","<div style=""display: flex; flex-direction: column; align-items: center; margin-top: -40px;""><img src=""images/pattern_7.png"" style=""width: 234px; height: 230px; margin-top: -50px;""><div style=""display: flex; justify-content: space-between; margin-top: 33px;""><img src=""images/choice_trial_8.png"" style=""width: 408px; height: 417px; margin-right: 200px;""><img src=""images/choice_trial_10.png"" style=""width: 408px; height: 417px;""></div></div>","j","delaylearn","learning","trial","601efb79aa55223eeec6b2a6","mBi95Bg2lBZgBuLisZ7qBNUgDJm2","5","images/choice_trial_8.png","images/choice_trial_10.png","images/pattern_7.png","j","f","750","8","10","6","0","19","0","1","10","90","","","","",""
"html-keyboard-response","102","219311","0.0-44.0-1.0","","null","<div style=""display: flex; flex-direction: column; align-items: center; margin-top: -40px;""><img src=""images/pattern_7.png"" style=""width: 234px; height: 230px; margin-top: -50px;""><div style=""display: flex; justify-content: space-between; margin-top: 33px;""><img src=""images/choice_trial_10.png"" style=""width: 408px; height: 417px; margin-left:608px;""></div></div>","null","delaylearn","learning","display_response","601efb79aa55223eeec6b2a6","mBi95Bg2lBZgBuLisZ7qBNUgDJm2","","","","","","","","","","","","","","","","","chosen stimuli: images/choice_trial_10.png","","","",""
"html-keyboard-response","103","220069","0.0-44.0-2.0","","null","","null","delaylearn","learning","feedback_duration_window","601efb79aa55223eeec6b2a6","mBi95Bg2lBZgBuLisZ7qBNUgDJm2","","","","","","","","","","","","","","","","","","750","","",""
"html-keyboard-response","104","221584","0.0-44.0-3.0","","null","<div style='margin:auto;width: auto; font-size: 150%'><span style='font-weight: bold; font-size: 100px; color: green;'>+10 points!</span><br><br></div>","null","delaylearn","learning","feedback_image_window","601efb79aa55223eeec6b2a6","mBi95Bg2lBZgBuLisZ7qBNUgDJm2","","","","","","","","","","","","","","","","","","","","",""
"html-keyboard-response","105","223971","0.0-45.0","","null","<div style=""font-size:100px;"">+</div>","null","delaylearn","learning","ITI","601efb79aa55223eeec6b2a6","mBi95Bg2lBZgBuLisZ7qBNUgDJm2","","","","","","","","","","","","","","","","","","","2372","",""
"html-keyboard-response","106","225291","0.0-46.0-0.0","","1318.7000000476837","<div style=""display: flex; flex-direction: column; align-items: center; margin-top: -40px;""><img src=""images/pattern_1.png"" style=""width: 234px; height: 230px; margin-top: -50px;""><div style=""display: flex; justify-content: space-between; margin-top: 33px;""><img src=""images/choice_trial_6.png"" style=""width: 408px; height: 417px; margin-right: 200px;""><img src=""images/choice_trial_15.png"" style=""width: 408px; height: 417px;""></div></div>","f","delaylearn","learning","trial","601efb79aa55223eeec6b2a6","mBi95Bg2lBZgBuLisZ7qBNUgDJm2","5","images/choice_trial_6.png","images/choice_trial_15.png","images/pattern_1.png","f","f","7000","6","15","1","0","20","1","1","6","100","","","","",""
"html-keyboard-response","107","226302","0.0-46.0-1.0","","null","<div style=""display: flex; flex-direction: column; align-items: center; margin-top: -40px;""><img src=""images/pattern_1.png"" style=""width: 234px; height: 230px; margin-top: -50px;""><div style=""display: flex; justify-content: space-between; margin-top: 33px;""><img src=""images/choice_trial_6.png"" style=""width: 408px; height: 417px; margin-right: 608px;""></div></div>","null","delaylearn","learning","display_response","601efb79aa55223eeec6b2a6","mBi95Bg2lBZgBuLisZ7qBNUgDJm2","","","","","","","","","","","","","","","","","chosen stimuli: images/choice_trial_6.png","","","",""
"html-keyboard-response","108","233315","0.0-46.0-2.0","","null","","null","delaylearn","learning","feedback_duration_window","601efb79aa55223eeec6b2a6","mBi95Bg2lBZgBuLisZ7qBNUgDJm2","","","","","","","","","","","","","","","","","","7000","","",""
"html-keyboard-response","109","234821","0.0-46.0-3.0","","null","<div style='margin:auto;width: auto; font-size: 150%'><span style='font-weight: bold; font-size: 100px; color: green;'>+10 points!</span><br><br></div>","null","delaylearn","learning","feedback_image_window","601efb79aa55223eeec6b2a6","mBi95Bg2lBZgBuLisZ7qBNUgDJm2","","","","","","","","","","","","","","","","","","","","",""
"html-keyboard-response","110","236963","0.0-47.0","","null","<div style=""font-size:100px;"">+</div>","null","delaylearn","learning","ITI","601efb79aa55223eeec6b2a6","mBi95Bg2lBZgBuLisZ7qBNUgDJm2","","","","","","","","","","","","","","","","","","","2140","",""
"html-keyboard-response","111","237998","0.0-48.0-0.0","","1034.2999999523163","<div style=""display: flex; flex-direction: column; align-items: center; margin-top: -40px;""><img src=""images/pattern_6.png"" style=""width: 234px; height: 230px; margin-top: -50px;""><div style=""display: flex; justify-content: space-between; margin-top: 33px;""><img src=""images/choice_trial_9.png"" style=""width: 408px; height: 417px; margin-right: 200px;""><img src=""images/choice_trial_14.png"" style=""width: 408px; height: 417px;""></div></div>","j","delaylearn","learning","trial","601efb79aa55223eeec6b2a6","mBi95Bg2lBZgBuLisZ7qBNUgDJm2","5","images/choice_trial_9.png","images/choice_trial_14.png","images/pattern_6.png","j","j","750","9","14","5","1","21","1","1","14","110","","","","",""
"html-keyboard-response","112","239013","0.0-48.0-1.0","","null","<div style=""display: flex; flex-direction: column; align-items: center; margin-top: -40px;""><img src=""images/pattern_6.png"" style=""width: 234px; height: 230px; margin-top: -50px;""><div style=""display: flex; justify-content: space-between; margin-top: 33px;""><img src=""images/choice_trial_14.png"" style=""width: 408px; height: 417px; margin-left:608px;""></div></div>","null","delaylearn","learning","display_response","601efb79aa55223eeec6b2a6","mBi95Bg2lBZgBuLisZ7qBNUgDJm2","","","","","","","","","","","","","","","","","chosen stimuli: images/choice_trial_14.png","","","",""
"html-keyboard-response","113","239772","0.0-48.0-2.0","","null","","null","delaylearn","learning","feedback_duration_window","601efb79aa55223eeec6b2a6","mBi95Bg2lBZgBuLisZ7qBNUgDJm2","","","","","","","","","","","","","","","","","","750","","",""
"html-keyboard-response","114","241275","0.0-48.0-3.0","","null","<div style='margin:auto;width: auto; font-size: 150%'><span style='font-weight: bold; font-size: 100px; color: green;'>+10 points!</span><br><br></div>","null","delaylearn","learning","feedback_image_window","601efb79aa55223eeec6b2a6","mBi95Bg2lBZgBuLisZ7qBNUgDJm2","","","","","","","","","","","","","","","","","","","","",""
"html-keyboard-response","115","243491","0.0-49.0","","null","<div style=""font-size:100px;"">+</div>","null","delaylearn","learning","ITI","601efb79aa55223eeec6b2a6","mBi95Bg2lBZgBuLisZ7qBNUgDJm2","","","","","","","","","","","","","","","","","","","2214","",""
"html-keyboard-response","116","244343","0.0-50.0-0.0","","850.2999999523163","<div style=""display: flex; flex-direction: column; align-items: center; margin-top: -40px;""><img src=""images/pattern_4.png"" style=""width: 234px; height: 230px; margin-top: -50px;""><div style=""display: flex; justify-content: space-between; margin-top: 33px;""><img src=""images/choice_trial_11.png"" style=""width: 408px; height: 417px; margin-right: 200px;""><img src=""images/choice_trial_4.png"" style=""width: 408px; height: 417px;""></div></div>","f","delaylearn","learning","trial","601efb79aa55223eeec6b2a6","mBi95Bg2lBZgBuLisZ7qBNUgDJm2","5","images/choice_trial_11.png","images/choice_trial_4.png","images/pattern_4.png","f","f","7000","11","4","3","0","22","1","1","11","120","","","","",""
"html-keyboard-response","117","245347","0.0-50.0-1.0","","null","<div style=""display: flex; flex-direction: column; align-items: center; margin-top: -40px;""><img src=""images/pattern_4.png"" style=""width: 234px; height: 230px; margin-top: -50px;""><div style=""display: flex; justify-content: space-between; margin-top: 33px;""><img src=""images/choice_trial_11.png"" style=""width: 408px; height: 417px; margin-right: 608px;""></div></div>","null","delaylearn","learning","display_response","601efb79aa55223eeec6b2a6","mBi95Bg2lBZgBuLisZ7qBNUgDJm2","","","","","","","","","","","","","","","","","chosen stimuli: images/choice_trial_11.png","","","",""
"html-keyboard-response","118","252352","0.0-50.0-2.0","","null","","null","delaylearn","learning","feedback_duration_window","601efb79aa55223eeec6b2a6","mBi95Bg2lBZgBuLisZ7qBNUgDJm2","","","","","","","","","","","","","","","","","","7000","","",""
"html-keyboard-response","119","253859","0.0-50.0-3.0","","null","<div style='margin:auto;width: auto; font-size: 150%'><span style='font-weight: bold; font-size: 100px; color: green;'>+10 points!</span><br><br></div>","null","delaylearn","learning","feedback_image_window","601efb79aa55223eeec6b2a6","mBi95Bg2lBZgBuLisZ7qBNUgDJm2","","","","","","","","","","","","","","","","","","","","",""
"html-keyboard-response","120","254368","0.0-51.0-0.0","","null","","null","","","mood_trial_fixation","","","","","","","","","","","","","","","","","","","","","","",""
"lmdlab-html-vas-response","121","265797","0.0-51.0-1.0","","10422","How happy are you right now?","0.6697771557571432","delaylearn","learning","mood_trial","601efb79aa55223eeec6b2a6","mBi95Bg2lBZgBuLisZ7qBNUgDJm2","","","","","","","","","","","","","","","","","","","","[""Very unhappy"",""Very happy""]",""
"html-keyboard-response","122","267759","0.0-52.0","","null","<div style=""font-size:100px;"">+</div>","null","delaylearn","learning","ITI","601efb79aa55223eeec6b2a6","mBi95Bg2lBZgBuLisZ7qBNUgDJm2","","","","","","","","","","","","","","","","","","","1950","",""
"html-keyboard-response","123","268865","0.0-53.0-0.0","","1105.2000000476837","<div style=""display: flex; flex-direction: column; align-items: center; margin-top: -40px;""><img src=""images/pattern_7.png"" style=""width: 234px; height: 230px; margin-top: -50px;""><div style=""display: flex; justify-content: space-between; margin-top: 33px;""><img src=""images/choice_trial_10.png"" style=""width: 408px; height: 417px; margin-right: 200px;""><img src=""images/choice_trial_8.png"" style=""width: 408px; height: 417px;""></div></div>","j","delaylearn","learning","trial","601efb79aa55223eeec6b2a6","mBi95Bg2lBZgBuLisZ7qBNUgDJm2","5","images/choice_trial_10.png","images/choice_trial_8.png","images/pattern_7.png","j","j","750","10","8","6","1","23","1","1","8","130","","","","",""
"html-keyboard-response","124","269878","0.0-53.0-1.0","","null","<div style=""display: flex; flex-direction: column; align-items: center; margin-top: -40px;""><img src=""images/pattern_7.png"" style=""width: 234px; height: 230px; margin-top: -50px;""><div style=""display: flex; justify-content: space-between; margin-top: 33px;""><img src=""images/choice_trial_8.png"" style=""width: 408px; height: 417px; margin-left:608px;""></div></div>","null","delaylearn","learning","display_response","601efb79aa55223eeec6b2a6","mBi95Bg2lBZgBuLisZ7qBNUgDJm2","","","","","","","","","","","","","","","","","chosen stimuli: images/choice_trial_8.png","","","",""
"html-keyboard-response","125","270634","0.0-53.0-2.0","","null","","null","delaylearn","learning","feedback_duration_window","601efb79aa55223eeec6b2a6","mBi95Bg2lBZgBuLisZ7qBNUgDJm2","","","","","","","","","","","","","","","","","","750","","",""
"html-keyboard-response","126","272139","0.0-53.0-3.0","","null","<div style='margin:auto;width: auto; font-size: 150%'><span style='font-weight: bold; font-size: 100px; color: green;'>+10 points!</span><br><br></div>","null","delaylearn","learning","feedback_image_window","601efb79aa55223eeec6b2a6","mBi95Bg2lBZgBuLisZ7qBNUgDJm2","","","","","","","","","","","","","","","","","","","","",""
"html-keyboard-response","127","273915","0.0-54.0","","null","<div style=""font-size:100px;"">+</div>","null","delaylearn","learning","ITI","601efb79aa55223eeec6b2a6","mBi95Bg2lBZgBuLisZ7qBNUgDJm2","","","","","","","","","","","","","","","","","","","1767","",""
"html-keyboard-response","128","275057","0.0-55.0-0.0","","1140.2000000476837","<div style=""display: flex; flex-direction: column; align-items: center; margin-top: -40px;""><img src=""images/pattern_1.png"" style=""width: 234px; height: 230px; margin-top: -50px;""><div style=""display: flex; justify-content: space-between; margin-top: 33px;""><img src=""images/choice_trial_15.png"" style=""width: 408px; height: 417px; margin-right: 200px;""><img src=""images/choice_trial_6.png"" style=""width: 408px; height: 417px;""></div></div>","f","delaylearn","learning","trial","601efb79aa55223eeec6b2a6","mBi95Bg2lBZgBuLisZ7qBNUgDJm2","5","images/choice_trial_15.png","images/choice_trial_6.png","images/pattern_1.png","f","j","7000","15","6","1","1","24","0","1","15","140","","","","",""
"html-keyboard-response","129","276063","0.0-55.0-1.0","","null","<div style=""display: flex; flex-direction: column; align-items: center; margin-top: -40px;""><img src=""images/pattern_1.png"" style=""width: 234px; height: 230px; margin-top: -50px;""><div style=""display: flex; justify-content: space-between; margin-top: 33px;""><img src=""images/choice_trial_15.png"" style=""width: 408px; height: 417px; margin-right: 608px;""></div></div>","null","delaylearn","learning","display_response","601efb79aa55223eeec6b2a6","mBi95Bg2lBZgBuLisZ7qBNUgDJm2","","","","","","","","","","","","","","","","","chosen stimuli: images/choice_trial_15.png","","","",""
"html-keyboard-response","130","283065","0.0-55.0-2.0","","null","","null","delaylearn","learning","feedback_duration_window","601efb79aa55223eeec6b2a6","mBi95Bg2lBZgBuLisZ7qBNUgDJm2","","","","","","","","","","","","","","","","","","7000","","",""
"html-keyboard-response","131","284567","0.0-55.0-3.0","","null","<div style='margin:auto;width: auto; font-size: 150%'><span style='font-weight: bold; font-size: 100px; color: green;'>+10 points!</span><br><br></div>","null","delaylearn","learning","feedback_image_window","601efb79aa55223eeec6b2a6","mBi95Bg2lBZgBuLisZ7qBNUgDJm2","","","","","","","","","","","","","","","","","","","","",""
"html-keyboard-response","132","286953","0.0-56.0","","null","<div style=""font-size:100px;"">+</div>","null","delaylearn","learning","ITI","601efb79aa55223eeec6b2a6","mBi95Bg2lBZgBuLisZ7qBNUgDJm2","","","","","","","","","","","","","","","","","","","2377","",""
"html-keyboard-response","133","288247","0.0-57.0-0.0","","1292","<div style=""display: flex; flex-direction: column; align-items: center; margin-top: -40px;""><img src=""images/pattern_5.png"" style=""width: 234px; height: 230px; margin-top: -50px;""><div style=""display: flex; justify-content: space-between; margin-top: 33px;""><img src=""images/choice_trial_13.png"" style=""width: 408px; height: 417px; margin-right: 200px;""><img src=""images/choice_trial_7.png"" style=""width: 408px; height: 417px;""></div></div>","j","delaylearn","learning","trial","601efb79aa55223eeec6b2a6","mBi95Bg2lBZgBuLisZ7qBNUgDJm2","5","images/choice_trial_13.png","images/choice_trial_7.png","images/pattern_5.png","j","j","750","13","7","4","1","25","1","1","7","150","","","","",""
"html-keyboard-response","134","289256","0.0-57.0-1.0","","null","<div style=""display: flex; flex-direction: column; align-items: center; margin-top: -40px;""><img src=""images/pattern_5.png"" style=""width: 234px; height: 230px; margin-top: -50px;""><div style=""display: flex; justify-content: space-between; margin-top: 33px;""><img src=""images/choice_trial_7.png"" style=""width: 408px; height: 417px; margin-left:608px;""></div></div>","null","delaylearn","learning","display_response","601efb79aa55223eeec6b2a6","mBi95Bg2lBZgBuLisZ7qBNUgDJm2","","","","","","","","","","","","","","","","","chosen stimuli: images/choice_trial_7.png","","","",""
"html-keyboard-response","135","290016","0.0-57.0-2.0","","null","","null","delaylearn","learning","feedback_duration_window","601efb79aa55223eeec6b2a6","mBi95Bg2lBZgBuLisZ7qBNUgDJm2","","","","","","","","","","","","","","","","","","750","","",""
"html-keyboard-response","136","291527","0.0-57.0-3.0","","null","<div style='margin:auto;width: auto; font-size: 150%'><span style='font-weight: bold; font-size: 100px; color: green;'>+10 points!</span><br><br></div>","null","delaylearn","learning","feedback_image_window","601efb79aa55223eeec6b2a6","mBi95Bg2lBZgBuLisZ7qBNUgDJm2","","","","","","","","","","","","","","","","","","","","",""
"html-keyboard-response","137","293861","0.0-58.0","","null","<div style=""font-size:100px;"">+</div>","null","delaylearn","learning","ITI","601efb79aa55223eeec6b2a6","mBi95Bg2lBZgBuLisZ7qBNUgDJm2","","","","","","","","","","","","","","","","","","","2329","",""
"html-keyboard-response","138","295085","0.0-59.0-0.0","","1222","<div style=""display: flex; flex-direction: column; align-items: center; margin-top: -40px;""><img src=""images/pattern_3.png"" style=""width: 234px; height: 230px; margin-top: -50px;""><div style=""display: flex; justify-content: space-between; margin-top: 33px;""><img src=""images/choice_trial_2.png"" style=""width: 408px; height: 417px; margin-right: 200px;""><img src=""images/choice_trial_16.png"" style=""width: 408px; height: 417px;""></div></div>","f","delaylearn","learning","trial","601efb79aa55223eeec6b2a6","mBi95Bg2lBZgBuLisZ7qBNUgDJm2","5","images/choice_trial_2.png","images/choice_trial_16.png","images/pattern_3.png","j","j","7000","2","16","2","1","26","0","0","2","150","","","","",""
"html-keyboard-response","139","296091","0.0-59.0-1.0","","null","<div style=""display: flex; flex-direction: column; align-items: center; margin-top: -40px;""><img src=""images/pattern_3.png"" style=""width: 234px; height: 230px; margin-top: -50px;""><div style=""display: flex; justify-content: space-between; margin-top: 33px;""><img src=""images/choice_trial_2.png"" style=""width: 408px; height: 417px; margin-right: 608px;""></div></div>","null","delaylearn","learning","display_response","601efb79aa55223eeec6b2a6","mBi95Bg2lBZgBuLisZ7qBNUgDJm2","","","","","","","","","","","","","","","","","chosen stimuli: images/choice_trial_2.png","","","",""
"html-keyboard-response","140","303102","0.0-59.0-2.0","","null","","null","delaylearn","learning","feedback_duration_window","601efb79aa55223eeec6b2a6","mBi95Bg2lBZgBuLisZ7qBNUgDJm2","","","","","","","","","","","","","","","","","","7000","","",""
"html-keyboard-response","141","304605","0.0-59.0-3.0","","null","<div style='margin:auto;width: auto; font-size: 150%'><span style='font-weight: bold; font-size: 100px; color: red;'>0 points!</span><br><br></div>","null","delaylearn","learning","feedback_image_window","601efb79aa55223eeec6b2a6","mBi95Bg2lBZgBuLisZ7qBNUgDJm2","","","","","","","","","","","","","","","","","","","","",""
"lmdlab-html-vas-response","142","317657","0.0-60.0-0.0","","11534","*How <b><u>confident</u></b> are you feeling about your answers at this moment?*","0.3533950097639762","rewlearn","rate_confidence","","601efb79aa55223eeec6b2a6","mBi95Bg2lBZgBuLisZ7qBNUgDJm2","","","","","","","","","","","","","","","","","","","","[""No confidence"",""Complete confidence""]",""
"lmdlab-rest-trial-limit","143","327751","0.0-60.0-1.0","","8589.799999952316","<div style=""font-size:40px;""><b>Please take a break!</b><br><br><br><br><p>Great work: you earned 150 points.<br><br><br><p>You have completed part(s) 1 of 5.<br><br><br><br>When you are ready to continue<br><br><br>please click the button.</p><br><br>","0","delaylearn","learning","break","601efb79aa55223eeec6b2a6","mBi95Bg2lBZgBuLisZ7qBNUgDJm2","","","","","","","","","","","","","","","","","","","","","0"
"html-keyboard-response","144","330755","0.0-60.0-2.0","","null","<div style=""font-size:100px;"">+</div>","null","delaylearn","learning","pre_fixation","601efb79aa55223eeec6b2a6","","","","","","","","","","","","","","","","","","","","","",""
"lmdlab-html-vas-response","145","335772","0.0-60.0-3.0-0.0","","4009","How happy are you right now?","0.6331259229153328","delaylearn","learning","mood_baseline","601efb79aa55223eeec6b2a6","mBi95Bg2lBZgBuLisZ7qBNUgDJm2","","","","","","","","","","","","","","","","","","","","[""Very unhappy"",""Very happy""]",""
"html-keyboard-response","146","337275","0.0-60.0-3.0-1.0","","null","","null","","","mood_baseline_fixation","","","","","","","","","","","","","","","","","","","","","","",""
"html-keyboard-response","147","338875","0.0-61.0","","null","<div style=""font-size:100px;"">+</div>","null","delaylearn","learning","ITI","601efb79aa55223eeec6b2a6","mBi95Bg2lBZgBuLisZ7qBNUgDJm2","","","","","","","","","","","","","","","","","","","1590","",""
"html-keyboard-response","148","340068","0.0-62.0-0.0","","1191.2999999523163","<div style=""display: flex; flex-direction: column; align-items: center; margin-top: -40px;""><img src=""images/pattern_7.png"" style=""width: 234px; height: 230px; margin-top: -50px;""><div style=""display: flex; justify-content: space-between; margin-top: 33px;""><img src=""images/choice_trial_10.png"" style=""width: 408px; height: 417px; margin-right: 200px;""><img src=""images/choice_trial_8.png"" style=""width: 408px; height: 417px;""></div></div>","f","delaylearn","learning","trial","601efb79aa55223eeec6b2a6","mBi95Bg2lBZgBuLisZ7qBNUgDJm2","5","images/choice_trial_10.png","images/choice_trial_8.png","images/pattern_7.png","j","j","750","10","8","6","1","27","0","0","10","150","","","","",""
"html-keyboard-response","149","341078","0.0-62.0-1.0","","null","<div style=""display: flex; flex-direction: column; align-items: center; margin-top: -40px;""><img src=""images/pattern_7.png"" style=""width: 234px; height: 230px; margin-top: -50px;""><div style=""display: flex; justify-content: space-between; margin-top: 33px;""><img src=""images/choice_trial_10.png"" style=""width: 408px; height: 417px; margin-right: 608px;""></div></div>","null","delaylearn","learning","display_response","601efb79aa55223eeec6b2a6","mBi95Bg2lBZgBuLisZ7qBNUgDJm2","","","","","","","","","","","","","","","","","chosen stimuli: images/choice_trial_10.png","","","",""
"html-keyboard-response","150","341843","0.0-62.0-2.0","","null","","null","delaylearn","learning","feedback_duration_window","601efb79aa55223eeec6b2a6","mBi95Bg2lBZgBuLisZ7qBNUgDJm2","","","","","","","","","","","","","","","","","","750","","",""
"html-keyboard-response","151","343351","0.0-62.0-3.0","","null","<div style='margin:auto;width: auto; font-size: 150%'><span style='font-weight: bold; font-size: 100px; color: red;'>0 points!</span><br><br></div>","null","delaylearn","learning","feedback_image_window","601efb79aa55223eeec6b2a6","mBi95Bg2lBZgBuLisZ7qBNUgDJm2","","","","","","","","","","","","","","","","","","","","",""
"html-keyboard-response","152","343866","0.0-63.0-0.0","","null","","null","","","mood_trial_fixation","","","","","","","","","","","","","","","","","","","","","","",""
"lmdlab-html-vas-response","153","348368","0.0-63.0-1.0","","3491","How happy are you right now?","0.330270998906689","delaylearn","learning","mood_trial","601efb79aa55223eeec6b2a6","mBi95Bg2lBZgBuLisZ7qBNUgDJm2","","","","","","","","","","","","","","","","","","","","[""Very unhappy"",""Very happy""]",""
"html-keyboard-response","154","350339","0.0-64.0","","null","<div style=""font-size:100px;"">+</div>","null","delaylearn","learning","ITI","601efb79aa55223eeec6b2a6","mBi95Bg2lBZgBuLisZ7qBNUgDJm2","","","","","","","","","","","","","","","","","","","1963","",""
"html-keyboard-response","155","351483","0.0-65.0-0.0","","1143","<div style=""display: flex; flex-direction: column; align-items: center; margin-top: -40px;""><img src=""images/pattern_1.png"" style=""width: 234px; height: 230px; margin-top: -50px;""><div style=""display: flex; justify-content: space-between; margin-top: 33px;""><img src=""images/choice_trial_6.png"" style=""width: 408px; height: 417px; margin-right: 200px;""><img src=""images/choice_trial_15.png"" style=""width: 408px; height: 417px;""></div></div>","j","delaylearn","learning","trial","601efb79aa55223eeec6b2a6","mBi95Bg2lBZgBuLisZ7qBNUgDJm2","5","images/choice_trial_6.png","images/choice_trial_15.png","images/pattern_1.png","f","f","7000","6","15","1","0","28","0","0","15","150","","","","",""
"html-keyboard-response","156","352485","0.0-65.0-1.0","","null","<div style=""display: flex; flex-direction: column; align-items: center; margin-top: -40px;""><img src=""images/pattern_1.png"" style=""width: 234px; height: 230px; margin-top: -50px;""><div style=""display: flex; justify-content: space-between; margin-top: 33px;""><img src=""images/choice_trial_15.png"" style=""width: 408px; height: 417px; margin-left:608px;""></div></div>","null","delaylearn","learning","display_response","601efb79aa55223eeec6b2a6","mBi95Bg2lBZgBuLisZ7qBNUgDJm2","","","","","","","","","","","","","","","","","chosen stimuli: images/choice_trial_15.png","","","",""
"html-keyboard-response","157","359495","0.0-65.0-2.0","","null","","null","delaylearn","learning","feedback_duration_window","601efb79aa55223eeec6b2a6","mBi95Bg2lBZgBuLisZ7qBNUgDJm2","","","","","","","","","","","","","","","","","","7000","","",""
"html-keyboard-response","158","361000","0.0-65.0-3.0","","null","<div style='margin:auto;width: auto; font-size: 150%'><span style='font-weight: bold; font-size: 100px; color: red;'>0 points!</span><br><br></div>","null","delaylearn","learning","feedback_image_window","601efb79aa55223eeec6b2a6","mBi95Bg2lBZgBuLisZ7qBNUgDJm2","","","","","","","","","","","","","","","","","","","","",""
"html-keyboard-response","159","363431","0.0-66.0","","null","<div style=""font-size:100px;"">+</div>","null","delaylearn","learning","ITI","601efb79aa55223eeec6b2a6","mBi95Bg2lBZgBuLisZ7qBNUgDJm2","","","","","","","","","","","","","","","","","","","2422","",""
"html-keyboard-response","160","364349","0.0-67.0-0.0","","916.6000000238419","<div style=""display: flex; flex-direction: column; align-items: center; margin-top: -40px;""><img src=""images/pattern_5.png"" style=""width: 234px; height: 230px; margin-top: -50px;""><div style=""display: flex; justify-content: space-between; margin-top: 33px;""><img src=""images/choice_trial_7.png"" style=""width: 408px; height: 417px; margin-right: 200px;""><img src=""images/choice_trial_13.png"" style=""width: 408px; height: 417px;""></div></div>","f","delaylearn","learning","trial","601efb79aa55223eeec6b2a6","mBi95Bg2lBZgBuLisZ7qBNUgDJm2","5","images/choice_trial_7.png","images/choice_trial_13.png","images/pattern_5.png","f","f","750","7","13","4","0","29","1","1","7","160","","","","",""
"html-keyboard-response","161","365365","0.0-67.0-1.0","","null","<div style=""display: flex; flex-direction: column; align-items: center; margin-top: -40px;""><img src=""images/pattern_5.png"" style=""width: 234px; height: 230px; margin-top: -50px;""><div style=""display: flex; justify-content: space-between; margin-top: 33px;""><img src=""images/choice_trial_7.png"" style=""width: 408px; height: 417px; margin-right: 608px;""></div></div>","null","delaylearn","learning","display_response","601efb79aa55223eeec6b2a6","mBi95Bg2lBZgBuLisZ7qBNUgDJm2","","","","","","","","","","","","","","","","","chosen stimuli: images/choice_trial_7.png","","","",""
"html-keyboard-response","162","366126","0.0-67.0-2.0","","null","","null","delaylearn","learning","feedback_duration_window","601efb79aa55223eeec6b2a6","mBi95Bg2lBZgBuLisZ7qBNUgDJm2","","","","","","","","","","","","","","","","","","750","","",""
"html-keyboard-response","163","367629","0.0-67.0-3.0","","null","<div style='margin:auto;width: auto; font-size: 150%'><span style='font-weight: bold; font-size: 100px; color: green;'>+10 points!</span><br><br></div>","null","delaylearn","learning","feedback_image_window","601efb79aa55223eeec6b2a6","mBi95Bg2lBZgBuLisZ7qBNUgDJm2","","","","","","","","","","","","","","","","","","","","",""
"html-keyboard-response","164","369733","0.0-68.0","","null","<div style=""font-size:100px;"">+</div>","null","delaylearn","learning","ITI","601efb79aa55223eeec6b2a6","mBi95Bg2lBZgBuLisZ7qBNUgDJm2","","","","","","","","","","","","","","","","","","","2097","",""
"html-keyboard-response","165","371225","0.0-69.0-0.0","","1490.3999999761581","<div style=""display: flex; flex-direction: column; align-items: center; margin-top: -40px;""><img src=""images/pattern_6.png"" style=""width: 234px; height: 230px; margin-top: -50px;""><div style=""display: flex; justify-content: space-between; margin-top: 33px;""><img src=""images/choice_trial_9.png"" style=""width: 408px; height: 417px; margin-right: 200px;""><img src=""images/choice_trial_14.png"" style=""width: 408px; height: 417px;""></div></div>","j","delaylearn","learning","trial","601efb79aa55223eeec6b2a6","mBi95Bg2lBZgBuLisZ7qBNUgDJm2","5","images/choice_trial_9.png","images/choice_trial_14.png","images/pattern_6.png","j","j","750","9","14","5","1","30","1","1","14","170","","","","",""
"html-keyboard-response","166","372236","0.0-69.0-1.0","","null","<div style=""display: flex; flex-direction: column; align-items: center; margin-top: -40px;""><img src=""images/pattern_6.png"" style=""width: 234px; height: 230px; margin-top: -50px;""><div style=""display: flex; justify-content: space-between; margin-top: 33px;""><img src=""images/choice_trial_14.png"" style=""width: 408px; height: 417px; margin-left:608px;""></div></div>","null","delaylearn","learning","display_response","601efb79aa55223eeec6b2a6","mBi95Bg2lBZgBuLisZ7qBNUgDJm2","","","","","","","","","","","","","","","","","chosen stimuli: images/choice_trial_14.png","","","",""
"html-keyboard-response","167","372991","0.0-69.0-2.0","","null","","null","delaylearn","learning","feedback_duration_window","601efb79aa55223eeec6b2a6","mBi95Bg2lBZgBuLisZ7qBNUgDJm2","","","","","","","","","","","","","","","","","","750","","",""
"html-keyboard-response","168","374506","0.0-69.0-3.0","","null","<div style='margin:auto;width: auto; font-size: 150%'><span style='font-weight: bold; font-size: 100px; color: green;'>+10 points!</span><br><br></div>","null","delaylearn","learning","feedback_image_window","601efb79aa55223eeec6b2a6","mBi95Bg2lBZgBuLisZ7qBNUgDJm2","","","","","","","","","","","","","","","","","","","","",""
"html-keyboard-response","169","375021","0.0-70.0-0.0","","null","","null","","","mood_trial_fixation","","","","","","","","","","","","","","","","","","","","","","",""
"lmdlab-html-vas-response","170","380117","0.0-70.0-1.0","","4081","How happy are you right now?","0.6350549351701649","delaylearn","learning","mood_trial","601efb79aa55223eeec6b2a6","mBi95Bg2lBZgBuLisZ7qBNUgDJm2","","","","","","","","","","","","","","","","","","","","[""Very unhappy"",""Very happy""]",""
"html-keyboard-response","171","381819","0.0-71.0","","null","<div style=""font-size:100px;"">+</div>","null","delaylearn","learning","ITI","601efb79aa55223eeec6b2a6","mBi95Bg2lBZgBuLisZ7qBNUgDJm2","","","","","","","","","","","","","","","","","","","1697","",""
"html-keyboard-response","172","382628","0.0-72.0-0.0","","807.1000000238419","<div style=""display: flex; flex-direction: column; align-items: center; margin-top: -40px;""><img src=""images/pattern_4.png"" style=""width: 234px; height: 230px; margin-top: -50px;""><div style=""display: flex; justify-content: space-between; margin-top: 33px;""><img src=""images/choice_trial_4.png"" style=""width: 408px; height: 417px; margin-right: 200px;""><img src=""images/choice_trial_11.png"" style=""width: 408px; height: 417px;""></div></div>","j","delaylearn","learning","trial","601efb79aa55223eeec6b2a6","mBi95Bg2lBZgBuLisZ7qBNUgDJm2","5","images/choice_trial_4.png","images/choice_trial_11.png","images/pattern_4.png","j","j","7000","4","11","3","1","31","1","1","11","180","","","","",""
"html-keyboard-response","173","383636","0.0-72.0-1.0","","null","<div style=""display: flex; flex-direction: column; align-items: center; margin-top: -40px;""><img src=""images/pattern_4.png"" style=""width: 234px; height: 230px; margin-top: -50px;""><div style=""display: flex; justify-content: space-between; margin-top: 33px;""><img src=""images/choice_trial_11.png"" style=""width: 408px; height: 417px; margin-left:608px;""></div></div>","null","delaylearn","learning","display_response","601efb79aa55223eeec6b2a6","mBi95Bg2lBZgBuLisZ7qBNUgDJm2","","","","","","","","","","","","","","","","","chosen stimuli: images/choice_trial_11.png","","","",""
"html-keyboard-response","174","390644","0.0-72.0-2.0","","null","","null","delaylearn","learning","feedback_duration_window","601efb79aa55223eeec6b2a6","mBi95Bg2lBZgBuLisZ7qBNUgDJm2","","","","","","","","","","","","","","","","","","7000","","",""
"html-keyboard-response","175","392154","0.0-72.0-3.0","","null","<div style='margin:auto;width: auto; font-size: 150%'><span style='font-weight: bold; font-size: 100px; color: green;'>+10 points!</span><br><br></div>","null","delaylearn","learning","feedback_image_window","601efb79aa55223eeec6b2a6","mBi95Bg2lBZgBuLisZ7qBNUgDJm2","","","","","","","","","","","","","","","","","","","","",""
"html-keyboard-response","176","393710","0.0-73.0","","null","<div style=""font-size:100px;"">+</div>","null","delaylearn","learning","ITI","601efb79aa55223eeec6b2a6","mBi95Bg2lBZgBuLisZ7qBNUgDJm2","","","","","","","","","","","","","","","","","","","1546","",""
"html-keyboard-response","177","394709","0.0-74.0-0.0","","996.7000000476837","<div style=""display: flex; flex-direction: column; align-items: center; margin-top: -40px;""><img src=""images/pattern_3.png"" style=""width: 234px; height: 230px; margin-top: -50px;""><div style=""display: flex; justify-content: space-between; margin-top: 33px;""><img src=""images/choice_trial_2.png"" style=""width: 408px; height: 417px; margin-right: 200px;""><img src=""images/choice_trial_16.png"" style=""width: 408px; height: 417px;""></div></div>","f","delaylearn","learning","trial","601efb79aa55223eeec6b2a6","mBi95Bg2lBZgBuLisZ7qBNUgDJm2","5","images/choice_trial_2.png","images/choice_trial_16.png","images/pattern_3.png","j","j","7000","2","16","2","1","32","0","0","2","180","","","","",""
"html-keyboard-response","178","395716","0.0-74.0-1.0","","null","<div style=""display: flex; flex-direction: column; align-items: center; margin-top: -40px;""><img src=""images/pattern_3.png"" style=""width: 234px; height: 230px; margin-top: -50px;""><div style=""display: flex; justify-content: space-between; margin-top: 33px;""><img src=""images/choice_trial_2.png"" style=""width: 408px; height: 417px; margin-right: 608px;""></div></div>","null","delaylearn","learning","display_response","601efb79aa55223eeec6b2a6","mBi95Bg2lBZgBuLisZ7qBNUgDJm2","","","","","","","","","","","","","","","","","chosen stimuli: images/choice_trial_2.png","","","",""
"html-keyboard-response","179","402718","0.0-74.0-2.0","","null","","null","delaylearn","learning","feedback_duration_window","601efb79aa55223eeec6b2a6","mBi95Bg2lBZgBuLisZ7qBNUgDJm2","","","","","","","","","","","","","","","","","","7000","","",""
"html-keyboard-response","180","404227","0.0-74.0-3.0","","null","<div style='margin:auto;width: auto; font-size: 150%'><span style='font-weight: bold; font-size: 100px; color: red;'>0 points!</span><br><br></div>","null","delaylearn","learning","feedback_image_window","601efb79aa55223eeec6b2a6","mBi95Bg2lBZgBuLisZ7qBNUgDJm2","","","","","","","","","","","","","","","","","","","","",""
"html-keyboard-response","181","406005","0.0-75.0","","null","<div style=""font-size:100px;"">+</div>","null","delaylearn","learning","ITI","601efb79aa55223eeec6b2a6","mBi95Bg2lBZgBuLisZ7qBNUgDJm2","","","","","","","","","","","","","","","","","","","1764","",""
"html-keyboard-response","182","406842","0.0-76.0-0.0","","835.3999999761581","<div style=""display: flex; flex-direction: column; align-items: center; margin-top: -40px;""><img src=""images/pattern_5.png"" style=""width: 234px; height: 230px; margin-top: -50px;""><div style=""display: flex; justify-content: space-between; margin-top: 33px;""><img src=""images/choice_trial_7.png"" style=""width: 408px; height: 417px; margin-right: 200px;""><img src=""images/choice_trial_13.png"" style=""width: 408px; height: 417px;""></div></div>","f","delaylearn","learning","trial","601efb79aa55223eeec6b2a6","mBi95Bg2lBZgBuLisZ7qBNUgDJm2","5","images/choice_trial_7.png","images/choice_trial_13.png","images/pattern_5.png","j","f","750","7","13","4","0","33","1","0","7","180","","","","",""
"html-keyboard-response","183","407847","0.0-76.0-1.0","","null","<div style=""display: flex; flex-direction: column; align-items: center; margin-top: -40px;""><img src=""images/pattern_5.png"" style=""width: 234px; height: 230px; margin-top: -50px;""><div style=""display: flex; justify-content: space-between; margin-top: 33px;""><img src=""images/choice_trial_7.png"" style=""width: 408px; height: 417px; margin-right: 608px;""></div></div>","null","delaylearn","learning","display_response","601efb79aa55223eeec6b2a6","mBi95Bg2lBZgBuLisZ7qBNUgDJm2","","","","","","","","","","","","","","","","","chosen stimuli: images/choice_trial_7.png","","","",""
"html-keyboard-response","184","408606","0.0-76.0-2.0","","null","","null","delaylearn","learning","feedback_duration_window","601efb79aa55223eeec6b2a6","mBi95Bg2lBZgBuLisZ7qBNUgDJm2","","","","","","","","","","","","","","","","","","750","","",""
"html-keyboard-response","185","410118","0.0-76.0-3.0","","null","<div style='margin:auto;width: auto; font-size: 150%'><span style='font-weight: bold; font-size: 100px; color: red;'>0 points!</span><br><br></div>","null","delaylearn","learning","feedback_image_window","601efb79aa55223eeec6b2a6","mBi95Bg2lBZgBuLisZ7qBNUgDJm2","","","","","","","","","","","","","","","","","","","","",""
"html-keyboard-response","186","412468","0.0-77.0","","null","<div style=""font-size:100px;"">+</div>","null","delaylearn","learning","ITI","601efb79aa55223eeec6b2a6","mBi95Bg2lBZgBuLisZ7qBNUgDJm2","","","","","","","","","","","","","","","","","","","2340","",""
"html-keyboard-response","187","413453","0.0-78.0-0.0","","983.7999999523163","<div style=""display: flex; flex-direction: column; align-items: center; margin-top: -40px;""><img src=""images/pattern_1.png"" style=""width: 234px; height: 230px; margin-top: -50px;""><div style=""display: flex; justify-content: space-between; margin-top: 33px;""><img src=""images/choice_trial_6.png"" style=""width: 408px; height: 417px; margin-right: 200px;""><img src=""images/choice_trial_15.png"" style=""width: 408px; height: 417px;""></div></div>","j","delaylearn","learning","trial","601efb79aa55223eeec6b2a6","mBi95Bg2lBZgBuLisZ7qBNUgDJm2","5","images/choice_trial_6.png","images/choice_trial_15.png","images/pattern_1.png","f","f","7000","6","15","1","0","34","0","0","15","180","","","","",""
"html-keyboard-response","188","414463","0.0-78.0-1.0","","null","<div style=""display: flex; flex-direction: column; align-items: center; margin-top: -40px;""><img src=""images/pattern_1.png"" style=""width: 234px; height: 230px; margin-top: -50px;""><div style=""display: flex; justify-content: space-between; margin-top: 33px;""><img src=""images/choice_trial_15.png"" style=""width: 408px; height: 417px; margin-left:608px;""></div></div>","null","delaylearn","learning","display_response","601efb79aa55223eeec6b2a6","mBi95Bg2lBZgBuLisZ7qBNUgDJm2","","","","","","","","","","","","","","","","","chosen stimuli: images/choice_trial_15.png","","","",""
"html-keyboard-response","189","421466","0.0-78.0-2.0","","null","","null","delaylearn","learning","feedback_duration_window","601efb79aa55223eeec6b2a6","mBi95Bg2lBZgBuLisZ7qBNUgDJm2","","","","","","","","","","","","","","","","","","7000","","",""
"html-keyboard-response","190","422970","0.0-78.0-3.0","","null","<div style='margin:auto;width: auto; font-size: 150%'><span style='font-weight: bold; font-size: 100px; color: red;'>0 points!</span><br><br></div>","null","delaylearn","learning","feedback_image_window","601efb79aa55223eeec6b2a6","mBi95Bg2lBZgBuLisZ7qBNUgDJm2","","","","","","","","","","","","","","","","","","","","",""
"html-keyboard-response","191","423483","0.0-79.0-0.0","","null","","null","","","mood_trial_fixation","","","","","","","","","","","","","","","","","","","","","","",""
"lmdlab-html-vas-response","192","428226","0.0-79.0-1.0","","3737","How happy are you right now?","0.29940680282937493","delaylearn","learning","mood_trial","601efb79aa55223eeec6b2a6","mBi95Bg2lBZgBuLisZ7qBNUgDJm2","","","","","","","","","","","","","","","","","","","","[""Very unhappy"",""Very happy""]",""
"html-keyboard-response","193","430524","0.0-80.0","","null","<div style=""font-size:100px;"">+</div>","null","delaylearn","learning","ITI","601efb79aa55223eeec6b2a6","mBi95Bg2lBZgBuLisZ7qBNUgDJm2","","","","","","","","","","","","","","","","","","","2283","",""
"html-keyboard-response","194","431395","0.0-81.0-0.0","","869.1000000238419","<div style=""display: flex; flex-direction: column; align-items: center; margin-top: -40px;""><img src=""images/pattern_6.png"" style=""width: 234px; height: 230px; margin-top: -50px;""><div style=""display: flex; justify-content: space-between; margin-top: 33px;""><img src=""images/choice_trial_14.png"" style=""width: 408px; height: 417px; margin-right: 200px;""><img src=""images/choice_trial_9.png"" style=""width: 408px; height: 417px;""></div></div>","f","delaylearn","learning","trial","601efb79aa55223eeec6b2a6","mBi95Bg2lBZgBuLisZ7qBNUgDJm2","5","images/choice_trial_14.png","images/choice_trial_9.png","images/pattern_6.png","j","f","750","14","9","5","0","35","1","0","14","180","","","","",""
"html-keyboard-response","195","432401","0.0-81.0-1.0","","null","<div style=""display: flex; flex-direction: column; align-items: center; margin-top: -40px;""><img src=""images/pattern_6.png"" style=""width: 234px; height: 230px; margin-top: -50px;""><div style=""display: flex; justify-content: space-between; margin-top: 33px;""><img src=""images/choice_trial_14.png"" style=""width: 408px; height: 417px; margin-right: 608px;""></div></div>","null","delaylearn","learning","display_response","601efb79aa55223eeec6b2a6","mBi95Bg2lBZgBuLisZ7qBNUgDJm2","","","","","","","","","","","","","","","","","chosen stimuli: images/choice_trial_14.png","","","",""
"html-keyboard-response","196","433162","0.0-81.0-2.0","","null","","null","delaylearn","learning","feedback_duration_window","601efb79aa55223eeec6b2a6","mBi95Bg2lBZgBuLisZ7qBNUgDJm2","","","","","","","","","","","","","","","","","","750","","",""
"html-keyboard-response","197","434668","0.0-81.0-3.0","","null","<div style='margin:auto;width: auto; font-size: 150%'><span style='font-weight: bold; font-size: 100px; color: red;'>0 points!</span><br><br></div>","null","delaylearn","learning","feedback_image_window","601efb79aa55223eeec6b2a6","mBi95Bg2lBZgBuLisZ7qBNUgDJm2","","","","","","","","","","","","","","","","","","","","",""
"html-keyboard-response","198","436649","0.0-82.0","","null","<div style=""font-size:100px;"">+</div>","null","delaylearn","learning","ITI","601efb79aa55223eeec6b2a6","mBi95Bg2lBZgBuLisZ7qBNUgDJm2","","","","","","","","","","","","","","","","","","","1967","",""
"html-keyboard-response","199","437943","0.0-83.0-0.0","","1293","<div style=""display: flex; flex-direction: column; align-items: center; margin-top: -40px;""><img src=""images/pattern_3.png"" style=""width: 234px; height: 230px; margin-top: -50px;""><div style=""display: flex; justify-content: space-between; margin-top: 33px;""><img src=""images/choice_trial_2.png"" style=""width: 408px; height: 417px; margin-right: 200px;""><img src=""images/choice_trial_16.png"" style=""width: 408px; height: 417px;""></div></div>","f","delaylearn","learning","trial","601efb79aa55223eeec6b2a6","mBi95Bg2lBZgBuLisZ7qBNUgDJm2","5","images/choice_trial_2.png","images/choice_trial_16.png","images/pattern_3.png","j","j","7000","2","16","2","1","36","0","0","2","180","","","","",""
"html-keyboard-response","200","438945","0.0-83.0-1.0","","null","<div style=""display: flex; flex-direction: column; align-items: center; margin-top: -40px;""><img src=""images/pattern_3.png"" style=""width: 234px; height: 230px; margin-top: -50px;""><div style=""display: flex; justify-content: space-between; margin-top: 33px;""><img src=""images/choice_trial_2.png"" style=""width: 408px; height: 417px; margin-right: 608px;""></div></div>","null","delaylearn","learning","display_response","601efb79aa55223eeec6b2a6","mBi95Bg2lBZgBuLisZ7qBNUgDJm2","","","","","","","","","","","","","","","","","chosen stimuli: images/choice_trial_2.png","","","",""
"html-keyboard-response","201","445954","0.0-83.0-2.0","","null","","null","delaylearn","learning","feedback_duration_window","601efb79aa55223eeec6b2a6","mBi95Bg2lBZgBuLisZ7qBNUgDJm2","","","","","","","","","","","","","","","","","","7000","","",""
"html-keyboard-response","202","447460","0.0-83.0-3.0","","null","<div style='margin:auto;width: auto; font-size: 150%'><span style='font-weight: bold; font-size: 100px; color: red;'>0 points!</span><br><br></div>","null","delaylearn","learning","feedback_image_window","601efb79aa55223eeec6b2a6","mBi95Bg2lBZgBuLisZ7qBNUgDJm2","","","","","","","","","","","","","","","","","","","","",""
"html-keyboard-response","203","449224","0.0-84.0","","null","<div style=""font-size:100px;"">+</div>","null","delaylearn","learning","ITI","601efb79aa55223eeec6b2a6","mBi95Bg2lBZgBuLisZ7qBNUgDJm2","","","","","","","","","","","","","","","","","","","1752","",""
"html-keyboard-response","204","450434","0.0-85.0-0.0","","1207.8000000715256","<div style=""display: flex; flex-direction: column; align-items: center; margin-top: -40px;""><img src=""images/pattern_4.png"" style=""width: 234px; height: 230px; margin-top: -50px;""><div style=""display: flex; justify-content: space-between; margin-top: 33px;""><img src=""images/choice_trial_4.png"" style=""width: 408px; height: 417px; margin-right: 200px;""><img src=""images/choice_trial_11.png"" style=""width: 408px; height: 417px;""></div></div>","j","delaylearn","learning","trial","601efb79aa55223eeec6b2a6","mBi95Bg2lBZgBuLisZ7qBNUgDJm2","5","images/choice_trial_4.png","images/choice_trial_11.png","images/pattern_4.png","f","j","7000","4","11","3","1","37","1","0","11","180","","","","",""
"html-keyboard-response","205","451436","0.0-85.0-1.0","","null","<div style=""display: flex; flex-direction: column; align-items: center; margin-top: -40px;""><img src=""images/pattern_4.png"" style=""width: 234px; height: 230px; margin-top: -50px;""><div style=""display: flex; justify-content: space-between; margin-top: 33px;""><img src=""images/choice_trial_11.png"" style=""width: 408px; height: 417px; margin-left:608px;""></div></div>","null","delaylearn","learning","display_response","601efb79aa55223eeec6b2a6","mBi95Bg2lBZgBuLisZ7qBNUgDJm2","","","","","","","","","","","","","","","","","chosen stimuli: images/choice_trial_11.png","","","",""
"html-keyboard-response","206","458438","0.0-85.0-2.0","","null","","null","delaylearn","learning","feedback_duration_window","601efb79aa55223eeec6b2a6","mBi95Bg2lBZgBuLisZ7qBNUgDJm2","","","","","","","","","","","","","","","","","","7000","","",""
"html-keyboard-response","207","459944","0.0-85.0-3.0","","null","<div style='margin:auto;width: auto; font-size: 150%'><span style='font-weight: bold; font-size: 100px; color: red;'>0 points!</span><br><br></div>","null","delaylearn","learning","feedback_image_window","601efb79aa55223eeec6b2a6","mBi95Bg2lBZgBuLisZ7qBNUgDJm2","","","","","","","","","","","","","","","","","","","","",""
"html-keyboard-response","208","462008","0.0-86.0","","null","<div style=""font-size:100px;"">+</div>","null","delaylearn","learning","ITI","601efb79aa55223eeec6b2a6","mBi95Bg2lBZgBuLisZ7qBNUgDJm2","","","","","","","","","","","","","","","","","","","2056","",""
"html-keyboard-response","209","463084","0.0-87.0-0.0","","1073.8000000715256","<div style=""display: flex; flex-direction: column; align-items: center; margin-top: -40px;""><img src=""images/pattern_7.png"" style=""width: 234px; height: 230px; margin-top: -50px;""><div style=""display: flex; justify-content: space-between; margin-top: 33px;""><img src=""images/choice_trial_8.png"" style=""width: 408px; height: 417px; margin-right: 200px;""><img src=""images/choice_trial_10.png"" style=""width: 408px; height: 417px;""></div></div>","f","delaylearn","learning","trial","601efb79aa55223eeec6b2a6","mBi95Bg2lBZgBuLisZ7qBNUgDJm2","5","images/choice_trial_8.png","images/choice_trial_10.png","images/pattern_7.png","f","f","750","8","10","6","0","38","1","1","8","190","","","","",""
"html-keyboard-response","210","464100","0.0-87.0-1.0","","null","<div style=""display: flex; flex-direction: column; align-items: center; margin-top: -40px;""><img src=""images/pattern_7.png"" style=""width: 234px; height: 230px; margin-top: -50px;""><div style=""display: flex; justify-content: space-between; margin-top: 33px;""><img src=""images/choice_trial_8.png"" style=""width: 408px; height: 417px; margin-right: 608px;""></div></div>","null","delaylearn","learning","display_response","601efb79aa55223eeec6b2a6","mBi95Bg2lBZgBuLisZ7qBNUgDJm2","","","","","","","","","","","","","","","","","chosen stimuli: images/choice_trial_8.png","","","",""
"html-keyboard-response","211","464860","0.0-87.0-2.0","","null","","null","delaylearn","learning","feedback_duration_window","601efb79aa55223eeec6b2a6","mBi95Bg2lBZgBuLisZ7qBNUgDJm2","","","","","","","","","","","","","","","","","","750","","",""
"html-keyboard-response","212","466369","0.0-87.0-3.0","","null","<div style='margin:auto;width: auto; font-size: 150%'><span style='font-weight: bold; font-size: 100px; color: green;'>+10 points!</span><br><br></div>","null","delaylearn","learning","feedback_image_window","601efb79aa55223eeec6b2a6","mBi95Bg2lBZgBuLisZ7qBNUgDJm2","","","","","","","","","","","","","","","","","","","","",""
"html-keyboard-response","213","468407","0.0-88.0","","null","<div style=""font-size:100px;"">+</div>","null","delaylearn","learning","ITI","601efb79aa55223eeec6b2a6","mBi95Bg2lBZgBuLisZ7qBNUgDJm2","","","","","","","","","","","","","","","","","","","2031","",""
"html-keyboard-response","214","469413","0.0-89.0-0.0","","1004.1999999284744","<div style=""display: flex; flex-direction: column; align-items: center; margin-top: -40px;""><img src=""images/pattern_1.png"" style=""width: 234px; height: 230px; margin-top: -50px;""><div style=""display: flex; justify-content: space-between; margin-top: 33px;""><img src=""images/choice_trial_6.png"" style=""width: 408px; height: 417px; margin-right: 200px;""><img src=""images/choice_trial_15.png"" style=""width: 408px; height: 417px;""></div></div>","f","delaylearn","learning","trial","601efb79aa55223eeec6b2a6","mBi95Bg2lBZgBuLisZ7qBNUgDJm2","5","images/choice_trial_6.png","images/choice_trial_15.png","images/pattern_1.png","f","f","7000","6","15","1","0","39","1","1","6","200","","","","",""
"html-keyboard-response","215","470420","0.0-89.0-1.0","","null","<div style=""display: flex; flex-direction: column; align-items: center; margin-top: -40px;""><img src=""images/pattern_1.png"" style=""width: 234px; height: 230px; margin-top: -50px;""><div style=""display: flex; justify-content: space-between; margin-top: 33px;""><img src=""images/choice_trial_6.png"" style=""width: 408px; height: 417px; margin-right: 608px;""></div></div>","null","delaylearn","learning","display_response","601efb79aa55223eeec6b2a6","mBi95Bg2lBZgBuLisZ7qBNUgDJm2","","","","","","","","","","","","","","","","","chosen stimuli: images/choice_trial_6.png","","","",""
"html-keyboard-response","216","477430","0.0-89.0-2.0","","null","","null","delaylearn","learning","feedback_duration_window","601efb79aa55223eeec6b2a6","mBi95Bg2lBZgBuLisZ7qBNUgDJm2","","","","","","","","","","","","","","","","","","7000","","",""
"html-keyboard-response","217","478935","0.0-89.0-3.0","","null","<div style='margin:auto;width: auto; font-size: 150%'><span style='font-weight: bold; font-size: 100px; color: green;'>+10 points!</span><br><br></div>","null","delaylearn","learning","feedback_image_window","601efb79aa55223eeec6b2a6","mBi95Bg2lBZgBuLisZ7qBNUgDJm2","","","","","","","","","","","","","","","","","","","","",""
"html-keyboard-response","218","479446","0.0-90.0-0.0","","null","","null","","","mood_trial_fixation","","","","","","","","","","","","","","","","","","","","","","",""
"lmdlab-html-vas-response","219","484514","0.0-90.0-1.0","","4058","How happy are you right now?","0.4807339547835948","delaylearn","learning","mood_trial","601efb79aa55223eeec6b2a6","mBi95Bg2lBZgBuLisZ7qBNUgDJm2","","","","","","","","","","","","","","","","","","","","[""Very unhappy"",""Very happy""]",""
"html-keyboard-response","220","486333","0.0-91.0","","null","<div style=""font-size:100px;"">+</div>","null","delaylearn","learning","ITI","601efb79aa55223eeec6b2a6","mBi95Bg2lBZgBuLisZ7qBNUgDJm2","","","","","","","","","","","","","","","","","","","1803","",""
