"trial_type","trial_index","time_elapsed","internal_node_id","participant","rt","stimulus","response","exp_name","exp_stage","test_part","subjectID","databaseID","counterbal","choice_stimuli_1","choice_stimuli_2","pattern_stimuli","rewarded_answer","correct_answer","feedback_duration_times","stim_left","stim_right","pair","leftright_counter","trial","response_correct","response_rewarded","chosen_stim","counter","displayed_choice","feedback_durations","ITI_duration","labels","rest_warning"
"pavlovia","0","531","0.0-0.0","","","","","","","","","","","","","","","","","","","","","","","","","","","","","",""
"html-keyboard-response","1","3549","0.0-1.0","","null","<div style=""font-size:100px;"">+</div>","null","delaylearn","learning","pre_fixation","5ede1eacaa5dd5034089e865","","","","","","","","","","","","","","","","","","","","","",""
"html-keyboard-response","2","4889","0.0-2.0-0.0","","1331.7000000029802","<div style=""display: flex; flex-direction: column; align-items: center; margin-top: -40px;""><img src=""images/demo_images/pattern_1.png"" style=""width: 234px; height: 230px; margin-top: -50px;""><div style=""display: flex; justify-content: space-between; margin-top: 33px;""><img src=""images/demo_images/choice_trial_2.png"" style=""width: 408px; height: 417px; margin-right: 200px;""><img src=""images/demo_images/choice_trial_1.png"" style=""width: 408px; height: 417px;""></div></div>","j","delaylearn","learning","trial","5ede1eacaa5dd5034089e865","iJQaBKZS6McC8posC3qKHLx7L842","4","images/demo_images/choice_trial_2.png","images/demo_images/choice_trial_1.png","images/demo_images/pattern_1.png","j","j","3000","2","1","20","1","1","1","1","1","10","","","","",""
"html-keyboard-response","3","5895","0.0-2.0-1.0","","null","<div style=""display: flex; flex-direction: column; align-items: center; margin-top: -40px;""><img src=""images/demo_images/pattern_1.png"" style=""width: 234px; height: 230px; margin-top: -50px;""><div style=""display: flex; justify-content: space-between; margin-top: 33px;""><img src=""images/demo_images/choice_trial_1.png"" style=""width: 408px; height: 417px; margin-left:608px;""></div></div>","null","delaylearn","learning","display_response","5ede1eacaa5dd5034089e865","iJQaBKZS6McC8posC3qKHLx7L842","","","","","","","","","","","","","","","","","chosen stimuli: images/demo_images/choice_trial_1.png","","","",""
"html-keyboard-response","4","8904","0.0-2.0-2.0","","null","","null","delaylearn","learning","feedback_duration_window","5ede1eacaa5dd5034089e865","iJQaBKZS6McC8posC3qKHLx7L842","","","","","","","","","","","","","","","","","","3000","","",""
"html-keyboard-response","5","10422","0.0-2.0-3.0","","null","<div style='margin:auto;width: auto; font-size: 150%'><span style='font-weight: bold; font-size: 100px; color: green;'>+10 points!</span><br><br></div>","null","delaylearn","learning","feedback_image_window","5ede1eacaa5dd5034089e865","iJQaBKZS6McC8posC3qKHLx7L842","","","","","","","","","","","","","","","","","","","","",""
"html-keyboard-response","6","12276","0.0-3.0","","null","<div style=""font-size:100px;"">+</div>","null","delaylearn","learning","ITI","5ede1eacaa5dd5034089e865","iJQaBKZS6McC8posC3qKHLx7L842","","","","","","","","","","","","","","","","","","","1839","",""
"html-keyboard-response","7","13370","0.0-4.0-0.0","","1089.300000011921","<div style=""display: flex; flex-direction: column; align-items: center; margin-top: -40px;""><img src=""images/demo_images/pattern_1.png"" style=""width: 234px; height: 230px; margin-top: -50px;""><div style=""display: flex; justify-content: space-between; margin-top: 33px;""><img src=""images/demo_images/choice_trial_2.png"" style=""width: 408px; height: 417px; margin-right: 200px;""><img src=""images/demo_images/choice_trial_1.png"" style=""width: 408px; height: 417px;""></div></div>","j","delaylearn","learning","trial","5ede1eacaa5dd5034089e865","iJQaBKZS6McC8posC3qKHLx7L842","4","images/demo_images/choice_trial_2.png","images/demo_images/choice_trial_1.png","images/demo_images/pattern_1.png","j","j","3000","2","1","20","1","2","1","1","1","20","","","","",""
"html-keyboard-response","8","14388","0.0-4.0-1.0","","null","<div style=""display: flex; flex-direction: column; align-items: center; margin-top: -40px;""><img src=""images/demo_images/pattern_1.png"" style=""width: 234px; height: 230px; margin-top: -50px;""><div style=""display: flex; justify-content: space-between; margin-top: 33px;""><img src=""images/demo_images/choice_trial_1.png"" style=""width: 408px; height: 417px; margin-left:608px;""></div></div>","null","delaylearn","learning","display_response","5ede1eacaa5dd5034089e865","iJQaBKZS6McC8posC3qKHLx7L842","","","","","","","","","","","","","","","","","chosen stimuli: images/demo_images/choice_trial_1.png","","","",""
"html-keyboard-response","9","17402","0.0-4.0-2.0","","null","","null","delaylearn","learning","feedback_duration_window","5ede1eacaa5dd5034089e865","iJQaBKZS6McC8posC3qKHLx7L842","","","","","","","","","","","","","","","","","","3000","","",""
"html-keyboard-response","10","18918","0.0-4.0-3.0","","null","<div style='margin:auto;width: auto; font-size: 150%'><span style='font-weight: bold; font-size: 100px; color: green;'>+10 points!</span><br><br></div>","null","delaylearn","learning","feedback_image_window","5ede1eacaa5dd5034089e865","iJQaBKZS6McC8posC3qKHLx7L842","","","","","","","","","","","","","","","","","","","","",""
"html-keyboard-response","11","21299","0.0-5.0","","null","<div style=""font-size:100px;"">+</div>","null","delaylearn","learning","ITI","5ede1eacaa5dd5034089e865","iJQaBKZS6McC8posC3qKHLx7L842","","","","","","","","","","","","","","","","","","","2372","",""
"html-keyboard-response","12","22167","0.0-6.0-0.0","","864.2000000029802","<div style=""display: flex; flex-direction: column; align-items: center; margin-top: -40px;""><img src=""images/demo_images/pattern_1.png"" style=""width: 234px; height: 230px; margin-top: -50px;""><div style=""display: flex; justify-content: space-between; margin-top: 33px;""><img src=""images/demo_images/choice_trial_1.png"" style=""width: 408px; height: 417px; margin-right: 200px;""><img src=""images/demo_images/choice_trial_2.png"" style=""width: 408px; height: 417px;""></div></div>","f","delaylearn","learning","trial","5ede1eacaa5dd5034089e865","iJQaBKZS6McC8posC3qKHLx7L842","4","images/demo_images/choice_trial_1.png","images/demo_images/choice_trial_2.png","images/demo_images/pattern_1.png","j","f","3000","1","2","20","0","3","1","0","1","20","","","","",""
"html-keyboard-response","13","23184","0.0-6.0-1.0","","null","<div style=""display: flex; flex-direction: column; align-items: center; margin-top: -40px;""><img src=""images/demo_images/pattern_1.png"" style=""width: 234px; height: 230px; margin-top: -50px;""><div style=""display: flex; justify-content: space-between; margin-top: 33px;""><img src=""images/demo_images/choice_trial_1.png"" style=""width: 408px; height: 417px; margin-right: 608px;""></div></div>","null","delaylearn","learning","display_response","5ede1eacaa5dd5034089e865","iJQaBKZS6McC8posC3qKHLx7L842","","","","","","","","","","","","","","","","","chosen stimuli: images/demo_images/choice_trial_1.png","","","",""
"html-keyboard-response","14","26190","0.0-6.0-2.0","","null","","null","delaylearn","learning","feedback_duration_window","5ede1eacaa5dd5034089e865","iJQaBKZS6McC8posC3qKHLx7L842","","","","","","","","","","","","","","","","","","3000","","",""
"html-keyboard-response","15","27702","0.0-6.0-3.0","","null","<div style='margin:auto;width: auto; font-size: 150%'><span style='font-weight: bold; font-size: 100px; color: red;'>0 points!</span><br><br></div>","null","delaylearn","learning","feedback_image_window","5ede1eacaa5dd5034089e865","iJQaBKZS6McC8posC3qKHLx7L842","","","","","","","","","","","","","","","","","","","","",""
"html-keyboard-response","16","30036","0.0-7.0","","null","<div style=""font-size:100px;"">+</div>","null","delaylearn","learning","ITI","5ede1eacaa5dd5034089e865","iJQaBKZS6McC8posC3qKHLx7L842","","","","","","","","","","","","","","","","","","","2329","",""
"html-keyboard-response","17","30508","0.0-8.0-0.0","","468.20000000298023","<div style=""display: flex; flex-direction: column; align-items: center; margin-top: -40px;""><img src=""images/demo_images/pattern_1.png"" style=""width: 234px; height: 230px; margin-top: -50px;""><div style=""display: flex; justify-content: space-between; margin-top: 33px;""><img src=""images/demo_images/choice_trial_1.png"" style=""width: 408px; height: 417px; margin-right: 200px;""><img src=""images/demo_images/choice_trial_2.png"" style=""width: 408px; height: 417px;""></div></div>","j","delaylearn","learning","trial","5ede1eacaa5dd5034089e865","iJQaBKZS6McC8posC3qKHLx7L842","4","images/demo_images/choice_trial_1.png","images/demo_images/choice_trial_2.png","images/demo_images/pattern_1.png","f","f","3000","1","2","20","0","4","0","0","2","20","","","","",""
"html-keyboard-response","18","31524","0.0-8.0-1.0","","null","<div style=""display: flex; flex-direction: column; align-items: center; margin-top: -40px;""><img src=""images/demo_images/pattern_1.png"" style=""width: 234px; height: 230px; margin-top: -50px;""><div style=""display: flex; justify-content: space-between; margin-top: 33px;""><img src=""images/demo_images/choice_trial_2.png"" style=""width: 408px; height: 417px; margin-left:608px;""></div></div>","null","delaylearn","learning","display_response","5ede1eacaa5dd5034089e865","iJQaBKZS6McC8posC3qKHLx7L842","","","","","","","","","","","","","","","","","chosen stimuli: images/demo_images/choice_trial_2.png","","","",""
"html-keyboard-response","19","34531","0.0-8.0-2.0","","null","","null","delaylearn","learning","feedback_duration_window","5ede1eacaa5dd5034089e865","iJQaBKZS6McC8posC3qKHLx7L842","","","","","","","","","","","","","","","","","","3000","","",""
"html-keyboard-response","20","36047","0.0-8.0-3.0","","null","<div style='margin:auto;width: auto; font-size: 150%'><span style='font-weight: bold; font-size: 100px; color: red;'>0 points!</span><br><br></div>","null","delaylearn","learning","feedback_image_window","5ede1eacaa5dd5034089e865","iJQaBKZS6McC8posC3qKHLx7L842","","","","","","","","","","","","","","","","","","","","",""
"html-keyboard-response","21","36551","0.0-9.0-0.0","","null","","null","","","mood_trial_fixation","","","","","","","","","","","","","","","","","","","","","","",""
"lmdlab-html-vas-response","22","41649","0.0-9.0-1.0","","4067","How happy are you right now?","0.17592592592592593","delaylearn","learning","mood_trial","5ede1eacaa5dd5034089e865","iJQaBKZS6McC8posC3qKHLx7L842","","","","","","","","","","","","","","","","","","","","[""Very unhappy"",""Very happy""]",""
"html-keyboard-response","23","43456","0.0-10.0","","null","<div style=""font-size:100px;"">+</div>","null","delaylearn","learning","ITI","5ede1eacaa5dd5034089e865","iJQaBKZS6McC8posC3qKHLx7L842","","","","","","","","","","","","","","","","","","","1789","",""
"html-keyboard-response","24","44080","0.0-11.0-0.0","","619.7000000029802","<div style=""display: flex; flex-direction: column; align-items: center; margin-top: -40px;""><img src=""images/demo_images/pattern_1.png"" style=""width: 234px; height: 230px; margin-top: -50px;""><div style=""display: flex; justify-content: space-between; margin-top: 33px;""><img src=""images/demo_images/choice_trial_2.png"" style=""width: 408px; height: 417px; margin-right: 200px;""><img src=""images/demo_images/choice_trial_1.png"" style=""width: 408px; height: 417px;""></div></div>","j","delaylearn","learning","trial","5ede1eacaa5dd5034089e865","iJQaBKZS6McC8posC3qKHLx7L842","4","images/demo_images/choice_trial_2.png","images/demo_images/choice_trial_1.png","images/demo_images/pattern_1.png","j","j","3000","2","1","20","1","5","1","1","1","30","","","","",""
"html-keyboard-response","25","45095","0.0-11.0-1.0","","null","<div style=""display: flex; flex-direction: column; align-items: center; margin-top: -40px;""><img src=""images/demo_images/pattern_1.png"" style=""width: 234px; height: 230px; margin-top: -50px;""><div style=""display: flex; justify-content: space-between; margin-top: 33px;""><img src=""images/demo_images/choice_trial_1.png"" style=""width: 408px; height: 417px; margin-left:608px;""></div></div>","null","delaylearn","learning","display_response","5ede1eacaa5dd5034089e865","iJQaBKZS6McC8posC3qKHLx7L842","","","","","","","","","","","","","","","","","chosen stimuli: images/demo_images/choice_trial_1.png","","","",""
"html-keyboard-response","26","48108","0.0-11.0-2.0","","null","","null","delaylearn","learning","feedback_duration_window","5ede1eacaa5dd5034089e865","iJQaBKZS6McC8posC3qKHLx7L842","","","","","","","","","","","","","","","","","","3000","","",""
"html-keyboard-response","27","49622","0.0-11.0-3.0","","null","<div style='margin:auto;width: auto; font-size: 150%'><span style='font-weight: bold; font-size: 100px; color: green;'>+10 points!</span><br><br></div>","null","delaylearn","learning","feedback_image_window","5ede1eacaa5dd5034089e865","iJQaBKZS6McC8posC3qKHLx7L842","","","","","","","","","","","","","","","","","","","","",""
"html-keyboard-response","28","51514","0.0-12.0","","null","<div style=""font-size:100px;"">+</div>","null","delaylearn","learning","ITI","5ede1eacaa5dd5034089e865","iJQaBKZS6McC8posC3qKHLx7L842","","","","","","","","","","","","","","","","","","","1882","",""
"html-keyboard-response","29","52346","0.0-13.0-0.0","","830.2999999970198","<div style=""display: flex; flex-direction: column; align-items: center; margin-top: -40px;""><img src=""images/demo_images/pattern_1.png"" style=""width: 234px; height: 230px; margin-top: -50px;""><div style=""display: flex; justify-content: space-between; margin-top: 33px;""><img src=""images/demo_images/choice_trial_1.png"" style=""width: 408px; height: 417px; margin-right: 200px;""><img src=""images/demo_images/choice_trial_2.png"" style=""width: 408px; height: 417px;""></div></div>","j","delaylearn","learning","trial","5ede1eacaa5dd5034089e865","iJQaBKZS6McC8posC3qKHLx7L842","4","images/demo_images/choice_trial_1.png","images/demo_images/choice_trial_2.png","images/demo_images/pattern_1.png","f","f","3000","1","2","20","0","6","0","0","2","30","","","","",""
"html-keyboard-response","30","53352","0.0-13.0-1.0","","null","<div style=""display: flex; flex-direction: column; align-items: center; margin-top: -40px;""><img src=""images/demo_images/pattern_1.png"" style=""width: 234px; height: 230px; margin-top: -50px;""><div style=""display: flex; justify-content: space-between; margin-top: 33px;""><img src=""images/demo_images/choice_trial_2.png"" style=""width: 408px; height: 417px; margin-left:608px;""></div></div>","null","delaylearn","learning","display_response","5ede1eacaa5dd5034089e865","iJQaBKZS6McC8posC3qKHLx7L842","","","","","","","","","","","","","","","","","chosen stimuli: images/demo_images/choice_trial_2.png","","","",""
"html-keyboard-response","31","56365","0.0-13.0-2.0","","null","","null","delaylearn","learning","feedback_duration_window","5ede1eacaa5dd5034089e865","iJQaBKZS6McC8posC3qKHLx7L842","","","","","","","","","","","","","","","","","","3000","","",""
"html-keyboard-response","32","57883","0.0-13.0-3.0","","null","<div style='margin:auto;width: auto; font-size: 150%'><span style='font-weight: bold; font-size: 100px; color: red;'>0 points!</span><br><br></div>","null","delaylearn","learning","feedback_image_window","5ede1eacaa5dd5034089e865","iJQaBKZS6McC8posC3qKHLx7L842","","","","","","","","","","","","","","","","","","","","",""
"html-keyboard-response","33","59858","0.0-14.0","","null","<div style=""font-size:100px;"">+</div>","null","delaylearn","learning","ITI","5ede1eacaa5dd5034089e865","iJQaBKZS6McC8posC3qKHLx7L842","","","","","","","","","","","","","","","","","","","1972","",""
"html-keyboard-response","34","61319","0.0-15.0-0.0","","1458","<div style=""display: flex; flex-direction: column; align-items: center; margin-top: -40px;""><img src=""images/demo_images/pattern_1.png"" style=""width: 234px; height: 230px; margin-top: -50px;""><div style=""display: flex; justify-content: space-between; margin-top: 33px;""><img src=""images/demo_images/choice_trial_2.png"" style=""width: 408px; height: 417px; margin-right: 200px;""><img src=""images/demo_images/choice_trial_1.png"" style=""width: 408px; height: 417px;""></div></div>","f","delaylearn","learning","trial","5ede1eacaa5dd5034089e865","iJQaBKZS6McC8posC3qKHLx7L842","4","images/demo_images/choice_trial_2.png","images/demo_images/choice_trial_1.png","images/demo_images/pattern_1.png","j","j","3000","2","1","20","1","7","0","0","2","30","","","","",""
"html-keyboard-response","35","62338","0.0-15.0-1.0","","null","<div style=""display: flex; flex-direction: column; align-items: center; margin-top: -40px;""><img src=""images/demo_images/pattern_1.png"" style=""width: 234px; height: 230px; margin-top: -50px;""><div style=""display: flex; justify-content: space-between; margin-top: 33px;""><img src=""images/demo_images/choice_trial_2.png"" style=""width: 408px; height: 417px; margin-right: 608px;""></div></div>","null","delaylearn","learning","display_response","5ede1eacaa5dd5034089e865","iJQaBKZS6McC8posC3qKHLx7L842","","","","","","","","","","","","","","","","","chosen stimuli: images/demo_images/choice_trial_2.png","","","",""
"html-keyboard-response","36","65347","0.0-15.0-2.0","","null","","null","delaylearn","learning","feedback_duration_window","5ede1eacaa5dd5034089e865","iJQaBKZS6McC8posC3qKHLx7L842","","","","","","","","","","","","","","","","","","3000","","",""
"html-keyboard-response","37","66853","0.0-15.0-3.0","","null","<div style='margin:auto;width: auto; font-size: 150%'><span style='font-weight: bold; font-size: 100px; color: red;'>0 points!</span><br><br></div>","null","delaylearn","learning","feedback_image_window","5ede1eacaa5dd5034089e865","iJQaBKZS6McC8posC3qKHLx7L842","","","","","","","","","","","","","","","","","","","","",""
"html-keyboard-response","38","68649","0.0-16.0","","null","<div style=""font-size:100px;"">+</div>","null","delaylearn","learning","ITI","5ede1eacaa5dd5034089e865","iJQaBKZS6McC8posC3qKHLx7L842","","","","","","","","","","","","","","","","","","","1792","",""
"html-keyboard-response","39","69592","0.0-17.0-0.0","","939.2999999970198","<div style=""display: flex; flex-direction: column; align-items: center; margin-top: -40px;""><img src=""images/demo_images/pattern_1.png"" style=""width: 234px; height: 230px; margin-top: -50px;""><div style=""display: flex; justify-content: space-between; margin-top: 33px;""><img src=""images/demo_images/choice_trial_1.png"" style=""width: 408px; height: 417px; margin-right: 200px;""><img src=""images/demo_images/choice_trial_2.png"" style=""width: 408px; height: 417px;""></div></div>","f","delaylearn","learning","trial","5ede1eacaa5dd5034089e865","iJQaBKZS6McC8posC3qKHLx7L842","4","images/demo_images/choice_trial_1.png","images/demo_images/choice_trial_2.png","images/demo_images/pattern_1.png","f","f","3000","1","2","20","0","8","1","1","1","40","","","","",""
"html-keyboard-response","40","70601","0.0-17.0-1.0","","null","<div style=""display: flex; flex-direction: column; align-items: center; margin-top: -40px;""><img src=""images/demo_images/pattern_1.png"" style=""width: 234px; height: 230px; margin-top: -50px;""><div style=""display: flex; justify-content: space-between; margin-top: 33px;""><img src=""images/demo_images/choice_trial_1.png"" style=""width: 408px; height: 417px; margin-right: 608px;""></div></div>","null","delaylearn","learning","display_response","5ede1eacaa5dd5034089e865","iJQaBKZS6McC8posC3qKHLx7L842","","","","","","","","","","","","","","","","","chosen stimuli: images/demo_images/choice_trial_1.png","","","",""
"html-keyboard-response","41","73619","0.0-17.0-2.0","","null","","null","delaylearn","learning","feedback_duration_window","5ede1eacaa5dd5034089e865","iJQaBKZS6McC8posC3qKHLx7L842","","","","","","","","","","","","","","","","","","3000","","",""
"html-keyboard-response","42","75126","0.0-17.0-3.0","","null","<div style='margin:auto;width: auto; font-size: 150%'><span style='font-weight: bold; font-size: 100px; color: green;'>+10 points!</span><br><br></div>","null","delaylearn","learning","feedback_image_window","5ede1eacaa5dd5034089e865","iJQaBKZS6McC8posC3qKHLx7L842","","","","","","","","","","","","","","","","","","","","",""
"html-button-response","43","77737","0.0-18.0","","2608.6000000089407","
  <div style=""display: flex; align-items: center; justify-content: center; height: 80vh;"">
  <div>
          <img src=""images/inst_demo_finish.png"" style=""width: 80vw; height:auto;"">
          <br><br>
      </div>
      <br><br>
  </div>","0","","","","","","","","","","","","","","","","","","","","","","","","","",""
"html-keyboard-response","44","83014","0.0-19.0","","5274.9000000059605","
  <div style=""display: flex; align-items: center; justify-content: center; height: 80vh;"">
  <div>
          <img src=""images/inst_6.png"" style=""width: 80vw; height:auto;"">
          <br><br>
      </div>
      <br><br>
  </div>","j","","","","","","","","","","","","","","","","","","","","","","","","","",""
"html-keyboard-response","45","86019","0.0-20.0","","null","<div style=""font-size:100px;"">+</div>","null","delaylearn","learning","pre_fixation","5ede1eacaa5dd5034089e865","","","","","","","","","","","","","","","","","","","","","",""
"html-keyboard-response","46","88106","0.0-21.0","","null","<div style=""font-size:100px;"">+</div>","null","delaylearn","learning","ITI","5ede1eacaa5dd5034089e865","iJQaBKZS6McC8posC3qKHLx7L842","","","","","","","","","","","","","","","","","","","2069","",""
"html-keyboard-response","47","89137","0.0-22.0-0.0","","1026.5999999940395","<div style=""display: flex; flex-direction: column; align-items: center; margin-top: -40px;""><img src=""images/pattern_3.png"" style=""width: 234px; height: 230px; margin-top: -50px;""><div style=""display: flex; justify-content: space-between; margin-top: 33px;""><img src=""images/choice_trial_16.png"" style=""width: 408px; height: 417px; margin-right: 200px;""><img src=""images/choice_trial_6.png"" style=""width: 408px; height: 417px;""></div></div>","f","delaylearn","learning","trial","5ede1eacaa5dd5034089e865","iJQaBKZS6McC8posC3qKHLx7L842","4","images/choice_trial_16.png","images/choice_trial_6.png","images/pattern_3.png","f","f","7000","16","6","2","0","9","1","1","16","50","","","","",""
"html-keyboard-response","48","90150","0.0-22.0-1.0","","null","<div style=""display: flex; flex-direction: column; align-items: center; margin-top: -40px;""><img src=""images/pattern_3.png"" style=""width: 234px; height: 230px; margin-top: -50px;""><div style=""display: flex; justify-content: space-between; margin-top: 33px;""><img src=""images/choice_trial_16.png"" style=""width: 408px; height: 417px; margin-right: 608px;""></div></div>","null","delaylearn","learning","display_response","5ede1eacaa5dd5034089e865","iJQaBKZS6McC8posC3qKHLx7L842","","","","","","","","","","","","","","","","","chosen stimuli: images/choice_trial_16.png","","","",""
"html-keyboard-response","49","97153","0.0-22.0-2.0","","null","","null","delaylearn","learning","feedback_duration_window","5ede1eacaa5dd5034089e865","iJQaBKZS6McC8posC3qKHLx7L842","","","","","","","","","","","","","","","","","","7000","","",""
"html-keyboard-response","50","98670","0.0-22.0-3.0","","null","<div style='margin:auto;width: auto; font-size: 150%'><span style='font-weight: bold; font-size: 100px; color: green;'>+10 points!</span><br><br></div>","null","delaylearn","learning","feedback_image_window","5ede1eacaa5dd5034089e865","iJQaBKZS6McC8posC3qKHLx7L842","","","","","","","","","","","","","","","","","","","","",""
"html-keyboard-response","51","100779","0.0-23.0","","null","<div style=""font-size:100px;"">+</div>","null","delaylearn","learning","ITI","5ede1eacaa5dd5034089e865","iJQaBKZS6McC8posC3qKHLx7L842","","","","","","","","","","","","","","","","","","","2102","",""
"html-keyboard-response","52","102422","0.0-24.0-0.0","","1638.2000000029802","<div style=""display: flex; flex-direction: column; align-items: center; margin-top: -40px;""><img src=""images/pattern_7.png"" style=""width: 234px; height: 230px; margin-top: -50px;""><div style=""display: flex; justify-content: space-between; margin-top: 33px;""><img src=""images/choice_trial_4.png"" style=""width: 408px; height: 417px; margin-right: 200px;""><img src=""images/choice_trial_13.png"" style=""width: 408px; height: 417px;""></div></div>","j","delaylearn","learning","trial","5ede1eacaa5dd5034089e865","iJQaBKZS6McC8posC3qKHLx7L842","4","images/choice_trial_4.png","images/choice_trial_13.png","images/pattern_7.png","j","j","750","4","13","6","1","10","1","1","13","60","","","","",""
"html-keyboard-response","53","103436","0.0-24.0-1.0","","null","<div style=""display: flex; flex-direction: column; align-items: center; margin-top: -40px;""><img src=""images/pattern_7.png"" style=""width: 234px; height: 230px; margin-top: -50px;""><div style=""display: flex; justify-content: space-between; margin-top: 33px;""><img src=""images/choice_trial_13.png"" style=""width: 408px; height: 417px; margin-left:608px;""></div></div>","null","delaylearn","learning","display_response","5ede1eacaa5dd5034089e865","iJQaBKZS6McC8posC3qKHLx7L842","","","","","","","","","","","","","","","","","chosen stimuli: images/choice_trial_13.png","","","",""
"html-keyboard-response","54","104190","0.0-24.0-2.0","","null","","null","delaylearn","learning","feedback_duration_window","5ede1eacaa5dd5034089e865","iJQaBKZS6McC8posC3qKHLx7L842","","","","","","","","","","","","","","","","","","750","","",""
"html-keyboard-response","55","105703","0.0-24.0-3.0","","null","<div style='margin:auto;width: auto; font-size: 150%'><span style='font-weight: bold; font-size: 100px; color: green;'>+10 points!</span><br><br></div>","null","delaylearn","learning","feedback_image_window","5ede1eacaa5dd5034089e865","iJQaBKZS6McC8posC3qKHLx7L842","","","","","","","","","","","","","","","","","","","","",""
"html-keyboard-response","56","107363","0.0-25.0","","null","<div style=""font-size:100px;"">+</div>","null","delaylearn","learning","ITI","5ede1eacaa5dd5034089e865","iJQaBKZS6McC8posC3qKHLx7L842","","","","","","","","","","","","","","","","","","","1652","",""
"html-keyboard-response","57","109141","0.0-26.0-0.0","","1772.5","<div style=""display: flex; flex-direction: column; align-items: center; margin-top: -40px;""><img src=""images/pattern_4.png"" style=""width: 234px; height: 230px; margin-top: -50px;""><div style=""display: flex; justify-content: space-between; margin-top: 33px;""><img src=""images/choice_trial_8.png"" style=""width: 408px; height: 417px; margin-right: 200px;""><img src=""images/choice_trial_7.png"" style=""width: 408px; height: 417px;""></div></div>","f","delaylearn","learning","trial","5ede1eacaa5dd5034089e865","iJQaBKZS6McC8posC3qKHLx7L842","4","images/choice_trial_8.png","images/choice_trial_7.png","images/pattern_4.png","f","f","7000","8","7","3","0","11","1","1","8","70","","","","",""
"html-keyboard-response","58","110157","0.0-26.0-1.0","","null","<div style=""display: flex; flex-direction: column; align-items: center; margin-top: -40px;""><img src=""images/pattern_4.png"" style=""width: 234px; height: 230px; margin-top: -50px;""><div style=""display: flex; justify-content: space-between; margin-top: 33px;""><img src=""images/choice_trial_8.png"" style=""width: 408px; height: 417px; margin-right: 608px;""></div></div>","null","delaylearn","learning","display_response","5ede1eacaa5dd5034089e865","iJQaBKZS6McC8posC3qKHLx7L842","","","","","","","","","","","","","","","","","chosen stimuli: images/choice_trial_8.png","","","",""
"html-keyboard-response","59","117160","0.0-26.0-2.0","","null","","null","delaylearn","learning","feedback_duration_window","5ede1eacaa5dd5034089e865","iJQaBKZS6McC8posC3qKHLx7L842","","","","","","","","","","","","","","","","","","7000","","",""
"html-keyboard-response","60","118673","0.0-26.0-3.0","","null","<div style='margin:auto;width: auto; font-size: 150%'><span style='font-weight: bold; font-size: 100px; color: green;'>+10 points!</span><br><br></div>","null","delaylearn","learning","feedback_image_window","5ede1eacaa5dd5034089e865","iJQaBKZS6McC8posC3qKHLx7L842","","","","","","","","","","","","","","","","","","","","",""
"html-keyboard-response","61","120188","0.0-27.0","","null","<div style=""font-size:100px;"">+</div>","null","delaylearn","learning","ITI","5ede1eacaa5dd5034089e865","iJQaBKZS6McC8posC3qKHLx7L842","","","","","","","","","","","","","","","","","","","1512","",""
"html-keyboard-response","62","121139","0.0-28.0-0.0","","947.5","<div style=""display: flex; flex-direction: column; align-items: center; margin-top: -40px;""><img src=""images/pattern_5.png"" style=""width: 234px; height: 230px; margin-top: -50px;""><div style=""display: flex; justify-content: space-between; margin-top: 33px;""><img src=""images/choice_trial_15.png"" style=""width: 408px; height: 417px; margin-right: 200px;""><img src=""images/choice_trial_5.png"" style=""width: 408px; height: 417px;""></div></div>","j","delaylearn","learning","trial","5ede1eacaa5dd5034089e865","iJQaBKZS6McC8posC3qKHLx7L842","4","images/choice_trial_15.png","images/choice_trial_5.png","images/pattern_5.png","j","j","750","15","5","4","1","12","1","1","5","80","","","","",""
"html-keyboard-response","63","122151","0.0-28.0-1.0","","null","<div style=""display: flex; flex-direction: column; align-items: center; margin-top: -40px;""><img src=""images/pattern_5.png"" style=""width: 234px; height: 230px; margin-top: -50px;""><div style=""display: flex; justify-content: space-between; margin-top: 33px;""><img src=""images/choice_trial_5.png"" style=""width: 408px; height: 417px; margin-left:608px;""></div></div>","null","delaylearn","learning","display_response","5ede1eacaa5dd5034089e865","iJQaBKZS6McC8posC3qKHLx7L842","","","","","","","","","","","","","","","","","chosen stimuli: images/choice_trial_5.png","","","",""
"html-keyboard-response","64","122908","0.0-28.0-2.0","","null","","null","delaylearn","learning","feedback_duration_window","5ede1eacaa5dd5034089e865","iJQaBKZS6McC8posC3qKHLx7L842","","","","","","","","","","","","","","","","","","750","","",""
"html-keyboard-response","65","124425","0.0-28.0-3.0","","null","<div style='margin:auto;width: auto; font-size: 150%'><span style='font-weight: bold; font-size: 100px; color: green;'>+10 points!</span><br><br></div>","null","delaylearn","learning","feedback_image_window","5ede1eacaa5dd5034089e865","iJQaBKZS6McC8posC3qKHLx7L842","","","","","","","","","","","","","","","","","","","","",""
"html-keyboard-response","66","125947","0.0-29.0","","null","<div style=""font-size:100px;"">+</div>","null","delaylearn","learning","ITI","5ede1eacaa5dd5034089e865","iJQaBKZS6McC8posC3qKHLx7L842","","","","","","","","","","","","","","","","","","","1509","",""
"html-keyboard-response","67","127109","0.0-30.0-0.0","","1156.7999999970198","<div style=""display: flex; flex-direction: column; align-items: center; margin-top: -40px;""><img src=""images/pattern_6.png"" style=""width: 234px; height: 230px; margin-top: -50px;""><div style=""display: flex; justify-content: space-between; margin-top: 33px;""><img src=""images/choice_trial_10.png"" style=""width: 408px; height: 417px; margin-right: 200px;""><img src=""images/choice_trial_3.png"" style=""width: 408px; height: 417px;""></div></div>","j","delaylearn","learning","trial","5ede1eacaa5dd5034089e865","iJQaBKZS6McC8posC3qKHLx7L842","4","images/choice_trial_10.png","images/choice_trial_3.png","images/pattern_6.png","j","f","750","10","3","5","0","13","0","1","3","90","","","","",""
"html-keyboard-response","68","128125","0.0-30.0-1.0","","null","<div style=""display: flex; flex-direction: column; align-items: center; margin-top: -40px;""><img src=""images/pattern_6.png"" style=""width: 234px; height: 230px; margin-top: -50px;""><div style=""display: flex; justify-content: space-between; margin-top: 33px;""><img src=""images/choice_trial_3.png"" style=""width: 408px; height: 417px; margin-left:608px;""></div></div>","null","delaylearn","learning","display_response","5ede1eacaa5dd5034089e865","iJQaBKZS6McC8posC3qKHLx7L842","","","","","","","","","","","","","","","","","chosen stimuli: images/choice_trial_3.png","","","",""
"html-keyboard-response","69","128884","0.0-30.0-2.0","","null","","null","delaylearn","learning","feedback_duration_window","5ede1eacaa5dd5034089e865","iJQaBKZS6McC8posC3qKHLx7L842","","","","","","","","","","","","","","","","","","750","","",""
"html-keyboard-response","70","130395","0.0-30.0-3.0","","null","<div style='margin:auto;width: auto; font-size: 150%'><span style='font-weight: bold; font-size: 100px; color: green;'>+10 points!</span><br><br></div>","null","delaylearn","learning","feedback_image_window","5ede1eacaa5dd5034089e865","iJQaBKZS6McC8posC3qKHLx7L842","","","","","","","","","","","","","","","","","","","","",""
"html-keyboard-response","71","130899","0.0-31.0-0.0","","null","","null","","","mood_trial_fixation","","","","","","","","","","","","","","","","","","","","","","",""
"lmdlab-html-vas-response","72","135771","0.0-31.0-1.0","","3849","How happy are you right now?","0.9976851851851852","delaylearn","learning","mood_trial","5ede1eacaa5dd5034089e865","iJQaBKZS6McC8posC3qKHLx7L842","","","","","","","","","","","","","","","","","","","","[""Very unhappy"",""Very happy""]",""
"html-keyboard-response","73","137430","0.0-32.0","","null","<div style=""font-size:100px;"">+</div>","null","delaylearn","learning","ITI","5ede1eacaa5dd5034089e865","iJQaBKZS6McC8posC3qKHLx7L842","","","","","","","","","","","","","","","","","","","1654","",""
"html-keyboard-response","74","138525","0.0-33.0-0.0","","1089.800000011921","<div style=""display: flex; flex-direction: column; align-items: center; margin-top: -40px;""><img src=""images/pattern_1.png"" style=""width: 234px; height: 230px; margin-top: -50px;""><div style=""display: flex; justify-content: space-between; margin-top: 33px;""><img src=""images/choice_trial_9.png"" style=""width: 408px; height: 417px; margin-right: 200px;""><img src=""images/choice_trial_1.png"" style=""width: 408px; height: 417px;""></div></div>","j","delaylearn","learning","trial","5ede1eacaa5dd5034089e865","iJQaBKZS6McC8posC3qKHLx7L842","4","images/choice_trial_9.png","images/choice_trial_1.png","images/pattern_1.png","j","j","7000","9","1","1","1","14","1","1","1","100","","","","",""
"html-keyboard-response","75","139539","0.0-33.0-1.0","","null","<div style=""display: flex; flex-direction: column; align-items: center; margin-top: -40px;""><img src=""images/pattern_1.png"" style=""width: 234px; height: 230px; margin-top: -50px;""><div style=""display: flex; justify-content: space-between; margin-top: 33px;""><img src=""images/choice_trial_1.png"" style=""width: 408px; height: 417px; margin-left:608px;""></div></div>","null","delaylearn","learning","display_response","5ede1eacaa5dd5034089e865","iJQaBKZS6McC8posC3qKHLx7L842","","","","","","","","","","","","","","","","","chosen stimuli: images/choice_trial_1.png","","","",""
"html-keyboard-response","76","146546","0.0-33.0-2.0","","null","","null","delaylearn","learning","feedback_duration_window","5ede1eacaa5dd5034089e865","iJQaBKZS6McC8posC3qKHLx7L842","","","","","","","","","","","","","","","","","","7000","","",""
"html-keyboard-response","77","148062","0.0-33.0-3.0","","null","<div style='margin:auto;width: auto; font-size: 150%'><span style='font-weight: bold; font-size: 100px; color: green;'>+10 points!</span><br><br></div>","null","delaylearn","learning","feedback_image_window","5ede1eacaa5dd5034089e865","iJQaBKZS6McC8posC3qKHLx7L842","","","","","","","","","","","","","","","","","","","","",""
"html-keyboard-response","78","149894","0.0-34.0","","null","<div style=""font-size:100px;"">+</div>","null","delaylearn","learning","ITI","5ede1eacaa5dd5034089e865","iJQaBKZS6McC8posC3qKHLx7L842","","","","","","","","","","","","","","","","","","","1819","",""
"html-keyboard-response","79","150553","0.0-35.0-0.0","","654.2999999970198","<div style=""display: flex; flex-direction: column; align-items: center; margin-top: -40px;""><img src=""images/pattern_3.png"" style=""width: 234px; height: 230px; margin-top: -50px;""><div style=""display: flex; justify-content: space-between; margin-top: 33px;""><img src=""images/choice_trial_6.png"" style=""width: 408px; height: 417px; margin-right: 200px;""><img src=""images/choice_trial_16.png"" style=""width: 408px; height: 417px;""></div></div>","f","delaylearn","learning","trial","5ede1eacaa5dd5034089e865","iJQaBKZS6McC8posC3qKHLx7L842","4","images/choice_trial_6.png","images/choice_trial_16.png","images/pattern_3.png","f","j","7000","6","16","2","1","15","0","1","6","110","","","","",""
"html-keyboard-response","80","151570","0.0-35.0-1.0","","null","<div style=""display: flex; flex-direction: column; align-items: center; margin-top: -40px;""><img src=""images/pattern_3.png"" style=""width: 234px; height: 230px; margin-top: -50px;""><div style=""display: flex; justify-content: space-between; margin-top: 33px;""><img src=""images/choice_trial_6.png"" style=""width: 408px; height: 417px; margin-right: 608px;""></div></div>","null","delaylearn","learning","display_response","5ede1eacaa5dd5034089e865","iJQaBKZS6McC8posC3qKHLx7L842","","","","","","","","","","","","","","","","","chosen stimuli: images/choice_trial_6.png","","","",""
"html-keyboard-response","81","158576","0.0-35.0-2.0","","null","","null","delaylearn","learning","feedback_duration_window","5ede1eacaa5dd5034089e865","iJQaBKZS6McC8posC3qKHLx7L842","","","","","","","","","","","","","","","","","","7000","","",""
"html-keyboard-response","82","160093","0.0-35.0-3.0","","null","<div style='margin:auto;width: auto; font-size: 150%'><span style='font-weight: bold; font-size: 100px; color: green;'>+10 points!</span><br><br></div>","null","delaylearn","learning","feedback_image_window","5ede1eacaa5dd5034089e865","iJQaBKZS6McC8posC3qKHLx7L842","","","","","","","","","","","","","","","","","","","","",""
"html-keyboard-response","83","161888","0.0-36.0","","null","<div style=""font-size:100px;"">+</div>","null","delaylearn","learning","ITI","5ede1eacaa5dd5034089e865","iJQaBKZS6McC8posC3qKHLx7L842","","","","","","","","","","","","","","","","","","","1783","",""
"html-keyboard-response","84","162602","0.0-37.0-0.0","","709","<div style=""display: flex; flex-direction: column; align-items: center; margin-top: -40px;""><img src=""images/pattern_5.png"" style=""width: 234px; height: 230px; margin-top: -50px;""><div style=""display: flex; justify-content: space-between; margin-top: 33px;""><img src=""images/choice_trial_5.png"" style=""width: 408px; height: 417px; margin-right: 200px;""><img src=""images/choice_trial_15.png"" style=""width: 408px; height: 417px;""></div></div>","j","delaylearn","learning","trial","5ede1eacaa5dd5034089e865","iJQaBKZS6McC8posC3qKHLx7L842","4","images/choice_trial_5.png","images/choice_trial_15.png","images/pattern_5.png","f","f","750","5","15","4","0","16","0","0","15","110","","","","",""
"html-keyboard-response","85","163613","0.0-37.0-1.0","","null","<div style=""display: flex; flex-direction: column; align-items: center; margin-top: -40px;""><img src=""images/pattern_5.png"" style=""width: 234px; height: 230px; margin-top: -50px;""><div style=""display: flex; justify-content: space-between; margin-top: 33px;""><img src=""images/choice_trial_15.png"" style=""width: 408px; height: 417px; margin-left:608px;""></div></div>","null","delaylearn","learning","display_response","5ede1eacaa5dd5034089e865","iJQaBKZS6McC8posC3qKHLx7L842","","","","","","","","","","","","","","","","","chosen stimuli: images/choice_trial_15.png","","","",""
"html-keyboard-response","86","164369","0.0-37.0-2.0","","null","","null","delaylearn","learning","feedback_duration_window","5ede1eacaa5dd5034089e865","iJQaBKZS6McC8posC3qKHLx7L842","","","","","","","","","","","","","","","","","","750","","",""
"html-keyboard-response","87","165872","0.0-37.0-3.0","","null","<div style='margin:auto;width: auto; font-size: 150%'><span style='font-weight: bold; font-size: 100px; color: red;'>0 points!</span><br><br></div>","null","delaylearn","learning","feedback_image_window","5ede1eacaa5dd5034089e865","iJQaBKZS6McC8posC3qKHLx7L842","","","","","","","","","","","","","","","","","","","","",""
"html-keyboard-response","88","166388","0.0-38.0-0.0","","null","","null","","","mood_trial_fixation","","","","","","","","","","","","","","","","","","","","","","",""
"lmdlab-html-vas-response","89","171942","0.0-38.0-1.0","","4543","How happy are you right now?","0.7129629629629629","delaylearn","learning","mood_trial","5ede1eacaa5dd5034089e865","iJQaBKZS6McC8posC3qKHLx7L842","","","","","","","","","","","","","","","","","","","","[""Very unhappy"",""Very happy""]",""
"html-keyboard-response","90","173559","0.0-39.0","","null","<div style=""font-size:100px;"">+</div>","null","delaylearn","learning","ITI","5ede1eacaa5dd5034089e865","iJQaBKZS6McC8posC3qKHLx7L842","","","","","","","","","","","","","","","","","","","1606","",""
"html-keyboard-response","91","173974","0.0-40.0-0.0","","410.70000000298023","<div style=""display: flex; flex-direction: column; align-items: center; margin-top: -40px;""><img src=""images/pattern_6.png"" style=""width: 234px; height: 230px; margin-top: -50px;""><div style=""display: flex; justify-content: space-between; margin-top: 33px;""><img src=""images/choice_trial_10.png"" style=""width: 408px; height: 417px; margin-right: 200px;""><img src=""images/choice_trial_3.png"" style=""width: 408px; height: 417px;""></div></div>","j","delaylearn","learning","trial","5ede1eacaa5dd5034089e865","iJQaBKZS6McC8posC3qKHLx7L842","4","images/choice_trial_10.png","images/choice_trial_3.png","images/pattern_6.png","f","f","750","10","3","5","0","17","0","0","3","110","","","","",""
"html-keyboard-response","92","174983","0.0-40.0-1.0","","null","<div style=""display: flex; flex-direction: column; align-items: center; margin-top: -40px;""><img src=""images/pattern_6.png"" style=""width: 234px; height: 230px; margin-top: -50px;""><div style=""display: flex; justify-content: space-between; margin-top: 33px;""><img src=""images/choice_trial_3.png"" style=""width: 408px; height: 417px; margin-left:608px;""></div></div>","null","delaylearn","learning","display_response","5ede1eacaa5dd5034089e865","iJQaBKZS6McC8posC3qKHLx7L842","","","","","","","","","","","","","","","","","chosen stimuli: images/choice_trial_3.png","","","",""
"html-keyboard-response","93","175738","0.0-40.0-2.0","","null","","null","delaylearn","learning","feedback_duration_window","5ede1eacaa5dd5034089e865","iJQaBKZS6McC8posC3qKHLx7L842","","","","","","","","","","","","","","","","","","750","","",""
"html-keyboard-response","94","177251","0.0-40.0-3.0","","null","<div style='margin:auto;width: auto; font-size: 150%'><span style='font-weight: bold; font-size: 100px; color: red;'>0 points!</span><br><br></div>","null","delaylearn","learning","feedback_image_window","5ede1eacaa5dd5034089e865","iJQaBKZS6McC8posC3qKHLx7L842","","","","","","","","","","","","","","","","","","","","",""
"html-keyboard-response","95","179329","0.0-41.0","","null","<div style=""font-size:100px;"">+</div>","null","delaylearn","learning","ITI","5ede1eacaa5dd5034089e865","iJQaBKZS6McC8posC3qKHLx7L842","","","","","","","","","","","","","","","","","","","2066","",""
"html-keyboard-response","96","180811","0.0-42.0-0.0","","1478.5999999940395","<div style=""display: flex; flex-direction: column; align-items: center; margin-top: -40px;""><img src=""images/pattern_4.png"" style=""width: 234px; height: 230px; margin-top: -50px;""><div style=""display: flex; justify-content: space-between; margin-top: 33px;""><img src=""images/choice_trial_7.png"" style=""width: 408px; height: 417px; margin-right: 200px;""><img src=""images/choice_trial_8.png"" style=""width: 408px; height: 417px;""></div></div>","f","delaylearn","learning","trial","5ede1eacaa5dd5034089e865","iJQaBKZS6McC8posC3qKHLx7L842","4","images/choice_trial_7.png","images/choice_trial_8.png","images/pattern_4.png","j","j","7000","7","8","3","1","18","0","0","7","110","","","","",""
"html-keyboard-response","97","181817","0.0-42.0-1.0","","null","<div style=""display: flex; flex-direction: column; align-items: center; margin-top: -40px;""><img src=""images/pattern_4.png"" style=""width: 234px; height: 230px; margin-top: -50px;""><div style=""display: flex; justify-content: space-between; margin-top: 33px;""><img src=""images/choice_trial_7.png"" style=""width: 408px; height: 417px; margin-right: 608px;""></div></div>","null","delaylearn","learning","display_response","5ede1eacaa5dd5034089e865","iJQaBKZS6McC8posC3qKHLx7L842","","","","","","","","","","","","","","","","","chosen stimuli: images/choice_trial_7.png","","","",""
"html-keyboard-response","98","188830","0.0-42.0-2.0","","null","","null","delaylearn","learning","feedback_duration_window","5ede1eacaa5dd5034089e865","iJQaBKZS6McC8posC3qKHLx7L842","","","","","","","","","","","","","","","","","","7000","","",""
"html-keyboard-response","99","190337","0.0-42.0-3.0","","null","<div style='margin:auto;width: auto; font-size: 150%'><span style='font-weight: bold; font-size: 100px; color: red;'>0 points!</span><br><br></div>","null","delaylearn","learning","feedback_image_window","5ede1eacaa5dd5034089e865","iJQaBKZS6McC8posC3qKHLx7L842","","","","","","","","","","","","","","","","","","","","",""
"html-keyboard-response","100","192246","0.0-43.0","","null","<div style=""font-size:100px;"">+</div>","null","delaylearn","learning","ITI","5ede1eacaa5dd5034089e865","iJQaBKZS6McC8posC3qKHLx7L842","","","","","","","","","","","","","","","","","","","1897","",""
"html-keyboard-response","101","192804","0.0-44.0-0.0","","553.0999999940395","<div style=""display: flex; flex-direction: column; align-items: center; margin-top: -40px;""><img src=""images/pattern_7.png"" style=""width: 234px; height: 230px; margin-top: -50px;""><div style=""display: flex; justify-content: space-between; margin-top: 33px;""><img src=""images/choice_trial_13.png"" style=""width: 408px; height: 417px; margin-right: 200px;""><img src=""images/choice_trial_4.png"" style=""width: 408px; height: 417px;""></div></div>","j","delaylearn","learning","trial","5ede1eacaa5dd5034089e865","iJQaBKZS6McC8posC3qKHLx7L842","4","images/choice_trial_13.png","images/choice_trial_4.png","images/pattern_7.png","j","f","750","13","4","6","0","19","0","1","4","120","","","","",""
"html-keyboard-response","102","193820","0.0-44.0-1.0","","null","<div style=""display: flex; flex-direction: column; align-items: center; margin-top: -40px;""><img src=""images/pattern_7.png"" style=""width: 234px; height: 230px; margin-top: -50px;""><div style=""display: flex; justify-content: space-between; margin-top: 33px;""><img src=""images/choice_trial_4.png"" style=""width: 408px; height: 417px; margin-left:608px;""></div></div>","null","delaylearn","learning","display_response","5ede1eacaa5dd5034089e865","iJQaBKZS6McC8posC3qKHLx7L842","","","","","","","","","","","","","","","","","chosen stimuli: images/choice_trial_4.png","","","",""
"html-keyboard-response","103","194585","0.0-44.0-2.0","","null","","null","delaylearn","learning","feedback_duration_window","5ede1eacaa5dd5034089e865","iJQaBKZS6McC8posC3qKHLx7L842","","","","","","","","","","","","","","","","","","750","","",""
"html-keyboard-response","104","196098","0.0-44.0-3.0","","null","<div style='margin:auto;width: auto; font-size: 150%'><span style='font-weight: bold; font-size: 100px; color: green;'>+10 points!</span><br><br></div>","null","delaylearn","learning","feedback_image_window","5ede1eacaa5dd5034089e865","iJQaBKZS6McC8posC3qKHLx7L842","","","","","","","","","","","","","","","","","","","","",""
"html-keyboard-response","105","198387","0.0-45.0","","null","<div style=""font-size:100px;"">+</div>","null","delaylearn","learning","ITI","5ede1eacaa5dd5034089e865","iJQaBKZS6McC8posC3qKHLx7L842","","","","","","","","","","","","","","","","","","","2286","",""
"html-keyboard-response","106","199379","0.0-46.0-0.0","","986.5","<div style=""display: flex; flex-direction: column; align-items: center; margin-top: -40px;""><img src=""images/pattern_1.png"" style=""width: 234px; height: 230px; margin-top: -50px;""><div style=""display: flex; justify-content: space-between; margin-top: 33px;""><img src=""images/choice_trial_1.png"" style=""width: 408px; height: 417px; margin-right: 200px;""><img src=""images/choice_trial_9.png"" style=""width: 408px; height: 417px;""></div></div>","f","delaylearn","learning","trial","5ede1eacaa5dd5034089e865","iJQaBKZS6McC8posC3qKHLx7L842","4","images/choice_trial_1.png","images/choice_trial_9.png","images/pattern_1.png","f","f","7000","1","9","1","0","20","1","1","1","130","","","","",""
"html-keyboard-response","107","200385","0.0-46.0-1.0","","null","<div style=""display: flex; flex-direction: column; align-items: center; margin-top: -40px;""><img src=""images/pattern_1.png"" style=""width: 234px; height: 230px; margin-top: -50px;""><div style=""display: flex; justify-content: space-between; margin-top: 33px;""><img src=""images/choice_trial_1.png"" style=""width: 408px; height: 417px; margin-right: 608px;""></div></div>","null","delaylearn","learning","display_response","5ede1eacaa5dd5034089e865","iJQaBKZS6McC8posC3qKHLx7L842","","","","","","","","","","","","","","","","","chosen stimuli: images/choice_trial_1.png","","","",""
"html-keyboard-response","108","207393","0.0-46.0-2.0","","null","","null","delaylearn","learning","feedback_duration_window","5ede1eacaa5dd5034089e865","iJQaBKZS6McC8posC3qKHLx7L842","","","","","","","","","","","","","","","","","","7000","","",""
"html-keyboard-response","109","208913","0.0-46.0-3.0","","null","<div style='margin:auto;width: auto; font-size: 150%'><span style='font-weight: bold; font-size: 100px; color: green;'>+10 points!</span><br><br></div>","null","delaylearn","learning","feedback_image_window","5ede1eacaa5dd5034089e865","iJQaBKZS6McC8posC3qKHLx7L842","","","","","","","","","","","","","","","","","","","","",""
"html-keyboard-response","110","211153","0.0-47.0","","null","<div style=""font-size:100px;"">+</div>","null","delaylearn","learning","ITI","5ede1eacaa5dd5034089e865","iJQaBKZS6McC8posC3qKHLx7L842","","","","","","","","","","","","","","","","","","","2234","",""
"html-keyboard-response","111","211727","0.0-48.0-0.0","","568.8999999910593","<div style=""display: flex; flex-direction: column; align-items: center; margin-top: -40px;""><img src=""images/pattern_6.png"" style=""width: 234px; height: 230px; margin-top: -50px;""><div style=""display: flex; justify-content: space-between; margin-top: 33px;""><img src=""images/choice_trial_3.png"" style=""width: 408px; height: 417px; margin-right: 200px;""><img src=""images/choice_trial_10.png"" style=""width: 408px; height: 417px;""></div></div>","j","delaylearn","learning","trial","5ede1eacaa5dd5034089e865","iJQaBKZS6McC8posC3qKHLx7L842","4","images/choice_trial_3.png","images/choice_trial_10.png","images/pattern_6.png","j","j","750","3","10","5","1","21","1","1","10","140","","","","",""
"html-keyboard-response","112","212742","0.0-48.0-1.0","","null","<div style=""display: flex; flex-direction: column; align-items: center; margin-top: -40px;""><img src=""images/pattern_6.png"" style=""width: 234px; height: 230px; margin-top: -50px;""><div style=""display: flex; justify-content: space-between; margin-top: 33px;""><img src=""images/choice_trial_10.png"" style=""width: 408px; height: 417px; margin-left:608px;""></div></div>","null","delaylearn","learning","display_response","5ede1eacaa5dd5034089e865","iJQaBKZS6McC8posC3qKHLx7L842","","","","","","","","","","","","","","","","","chosen stimuli: images/choice_trial_10.png","","","",""
"html-keyboard-response","113","213499","0.0-48.0-2.0","","null","","null","delaylearn","learning","feedback_duration_window","5ede1eacaa5dd5034089e865","iJQaBKZS6McC8posC3qKHLx7L842","","","","","","","","","","","","","","","","","","750","","",""
"html-keyboard-response","114","215012","0.0-48.0-3.0","","null","<div style='margin:auto;width: auto; font-size: 150%'><span style='font-weight: bold; font-size: 100px; color: green;'>+10 points!</span><br><br></div>","null","delaylearn","learning","feedback_image_window","5ede1eacaa5dd5034089e865","iJQaBKZS6McC8posC3qKHLx7L842","","","","","","","","","","","","","","","","","","","","",""
"html-keyboard-response","115","217059","0.0-49.0","","null","<div style=""font-size:100px;"">+</div>","null","delaylearn","learning","ITI","5ede1eacaa5dd5034089e865","iJQaBKZS6McC8posC3qKHLx7L842","","","","","","","","","","","","","","","","","","","2030","",""
"html-keyboard-response","116","217517","0.0-50.0-0.0","","454.40000000596046","<div style=""display: flex; flex-direction: column; align-items: center; margin-top: -40px;""><img src=""images/pattern_4.png"" style=""width: 234px; height: 230px; margin-top: -50px;""><div style=""display: flex; justify-content: space-between; margin-top: 33px;""><img src=""images/choice_trial_8.png"" style=""width: 408px; height: 417px; margin-right: 200px;""><img src=""images/choice_trial_7.png"" style=""width: 408px; height: 417px;""></div></div>","f","delaylearn","learning","trial","5ede1eacaa5dd5034089e865","iJQaBKZS6McC8posC3qKHLx7L842","4","images/choice_trial_8.png","images/choice_trial_7.png","images/pattern_4.png","f","f","7000","8","7","3","0","22","1","1","8","150","","","","",""
"html-keyboard-response","117","218522","0.0-50.0-1.0","","null","<div style=""display: flex; flex-direction: column; align-items: center; margin-top: -40px;""><img src=""images/pattern_4.png"" style=""width: 234px; height: 230px; margin-top: -50px;""><div style=""display: flex; justify-content: space-between; margin-top: 33px;""><img src=""images/choice_trial_8.png"" style=""width: 408px; height: 417px; margin-right: 608px;""></div></div>","null","delaylearn","learning","display_response","5ede1eacaa5dd5034089e865","iJQaBKZS6McC8posC3qKHLx7L842","","","","","","","","","","","","","","","","","chosen stimuli: images/choice_trial_8.png","","","",""
"html-keyboard-response","118","225539","0.0-50.0-2.0","","null","","null","delaylearn","learning","feedback_duration_window","5ede1eacaa5dd5034089e865","iJQaBKZS6McC8posC3qKHLx7L842","","","","","","","","","","","","","","","","","","7000","","",""
"html-keyboard-response","119","227051","0.0-50.0-3.0","","null","<div style='margin:auto;width: auto; font-size: 150%'><span style='font-weight: bold; font-size: 100px; color: green;'>+10 points!</span><br><br></div>","null","delaylearn","learning","feedback_image_window","5ede1eacaa5dd5034089e865","iJQaBKZS6McC8posC3qKHLx7L842","","","","","","","","","","","","","","","","","","","","",""
"html-keyboard-response","120","227553","0.0-51.0-0.0","","null","","null","","","mood_trial_fixation","","","","","","","","","","","","","","","","","","","","","","",""
"lmdlab-html-vas-response","121","232313","0.0-51.0-1.0","","3740","How happy are you right now?","0.8819444444444444","delaylearn","learning","mood_trial","5ede1eacaa5dd5034089e865","iJQaBKZS6McC8posC3qKHLx7L842","","","","","","","","","","","","","","","","","","","","[""Very unhappy"",""Very happy""]",""
"html-keyboard-response","122","233997","0.0-52.0","","null","<div style=""font-size:100px;"">+</div>","null","delaylearn","learning","ITI","5ede1eacaa5dd5034089e865","iJQaBKZS6McC8posC3qKHLx7L842","","","","","","","","","","","","","","","","","","","1668","",""
"html-keyboard-response","123","234445","0.0-53.0-0.0","","444.70000000298023","<div style=""display: flex; flex-direction: column; align-items: center; margin-top: -40px;""><img src=""images/pattern_7.png"" style=""width: 234px; height: 230px; margin-top: -50px;""><div style=""display: flex; justify-content: space-between; margin-top: 33px;""><img src=""images/choice_trial_4.png"" style=""width: 408px; height: 417px; margin-right: 200px;""><img src=""images/choice_trial_13.png"" style=""width: 408px; height: 417px;""></div></div>","j","delaylearn","learning","trial","5ede1eacaa5dd5034089e865","iJQaBKZS6McC8posC3qKHLx7L842","4","images/choice_trial_4.png","images/choice_trial_13.png","images/pattern_7.png","j","j","750","4","13","6","1","23","1","1","13","160","","","","",""
"html-keyboard-response","124","235464","0.0-53.0-1.0","","null","<div style=""display: flex; flex-direction: column; align-items: center; margin-top: -40px;""><img src=""images/pattern_7.png"" style=""width: 234px; height: 230px; margin-top: -50px;""><div style=""display: flex; justify-content: space-between; margin-top: 33px;""><img src=""images/choice_trial_13.png"" style=""width: 408px; height: 417px; margin-left:608px;""></div></div>","null","delaylearn","learning","display_response","5ede1eacaa5dd5034089e865","iJQaBKZS6McC8posC3qKHLx7L842","","","","","","","","","","","","","","","","","chosen stimuli: images/choice_trial_13.png","","","",""
"html-keyboard-response","125","236218","0.0-53.0-2.0","","null","","null","delaylearn","learning","feedback_duration_window","5ede1eacaa5dd5034089e865","iJQaBKZS6McC8posC3qKHLx7L842","","","","","","","","","","","","","","","","","","750","","",""
"html-keyboard-response","126","237730","0.0-53.0-3.0","","null","<div style='margin:auto;width: auto; font-size: 150%'><span style='font-weight: bold; font-size: 100px; color: green;'>+10 points!</span><br><br></div>","null","delaylearn","learning","feedback_image_window","5ede1eacaa5dd5034089e865","iJQaBKZS6McC8posC3qKHLx7L842","","","","","","","","","","","","","","","","","","","","",""
"html-keyboard-response","127","239670","0.0-54.0","","null","<div style=""font-size:100px;"">+</div>","null","delaylearn","learning","ITI","5ede1eacaa5dd5034089e865","iJQaBKZS6McC8posC3qKHLx7L842","","","","","","","","","","","","","","","","","","","1937","",""
"html-keyboard-response","128","240054","0.0-55.0-0.0","","379.30000001192093","<div style=""display: flex; flex-direction: column; align-items: center; margin-top: -40px;""><img src=""images/pattern_1.png"" style=""width: 234px; height: 230px; margin-top: -50px;""><div style=""display: flex; justify-content: space-between; margin-top: 33px;""><img src=""images/choice_trial_9.png"" style=""width: 408px; height: 417px; margin-right: 200px;""><img src=""images/choice_trial_1.png"" style=""width: 408px; height: 417px;""></div></div>","f","delaylearn","learning","trial","5ede1eacaa5dd5034089e865","iJQaBKZS6McC8posC3qKHLx7L842","4","images/choice_trial_9.png","images/choice_trial_1.png","images/pattern_1.png","f","j","7000","9","1","1","1","24","0","1","9","170","","","","",""
"html-keyboard-response","129","241061","0.0-55.0-1.0","","null","<div style=""display: flex; flex-direction: column; align-items: center; margin-top: -40px;""><img src=""images/pattern_1.png"" style=""width: 234px; height: 230px; margin-top: -50px;""><div style=""display: flex; justify-content: space-between; margin-top: 33px;""><img src=""images/choice_trial_9.png"" style=""width: 408px; height: 417px; margin-right: 608px;""></div></div>","null","delaylearn","learning","display_response","5ede1eacaa5dd5034089e865","iJQaBKZS6McC8posC3qKHLx7L842","","","","","","","","","","","","","","","","","chosen stimuli: images/choice_trial_9.png","","","",""
"html-keyboard-response","130","248077","0.0-55.0-2.0","","null","","null","delaylearn","learning","feedback_duration_window","5ede1eacaa5dd5034089e865","iJQaBKZS6McC8posC3qKHLx7L842","","","","","","","","","","","","","","","","","","7000","","",""
"html-keyboard-response","131","249591","0.0-55.0-3.0","","null","<div style='margin:auto;width: auto; font-size: 150%'><span style='font-weight: bold; font-size: 100px; color: green;'>+10 points!</span><br><br></div>","null","delaylearn","learning","feedback_image_window","5ede1eacaa5dd5034089e865","iJQaBKZS6McC8posC3qKHLx7L842","","","","","","","","","","","","","","","","","","","","",""
"html-keyboard-response","132","251655","0.0-56.0","","null","<div style=""font-size:100px;"">+</div>","null","delaylearn","learning","ITI","5ede1eacaa5dd5034089e865","iJQaBKZS6McC8posC3qKHLx7L842","","","","","","","","","","","","","","","","","","","2055","",""
"html-keyboard-response","133","252598","0.0-57.0-0.0","","939.5","<div style=""display: flex; flex-direction: column; align-items: center; margin-top: -40px;""><img src=""images/pattern_5.png"" style=""width: 234px; height: 230px; margin-top: -50px;""><div style=""display: flex; justify-content: space-between; margin-top: 33px;""><img src=""images/choice_trial_15.png"" style=""width: 408px; height: 417px; margin-right: 200px;""><img src=""images/choice_trial_5.png"" style=""width: 408px; height: 417px;""></div></div>","j","delaylearn","learning","trial","5ede1eacaa5dd5034089e865","iJQaBKZS6McC8posC3qKHLx7L842","4","images/choice_trial_15.png","images/choice_trial_5.png","images/pattern_5.png","j","j","750","15","5","4","1","25","1","1","5","180","","","","",""
"html-keyboard-response","134","253606","0.0-57.0-1.0","","null","<div style=""display: flex; flex-direction: column; align-items: center; margin-top: -40px;""><img src=""images/pattern_5.png"" style=""width: 234px; height: 230px; margin-top: -50px;""><div style=""display: flex; justify-content: space-between; margin-top: 33px;""><img src=""images/choice_trial_5.png"" style=""width: 408px; height: 417px; margin-left:608px;""></div></div>","null","delaylearn","learning","display_response","5ede1eacaa5dd5034089e865","iJQaBKZS6McC8posC3qKHLx7L842","","","","","","","","","","","","","","","","","chosen stimuli: images/choice_trial_5.png","","","",""
"html-keyboard-response","135","254363","0.0-57.0-2.0","","null","","null","delaylearn","learning","feedback_duration_window","5ede1eacaa5dd5034089e865","iJQaBKZS6McC8posC3qKHLx7L842","","","","","","","","","","","","","","","","","","750","","",""
"html-keyboard-response","136","255875","0.0-57.0-3.0","","null","<div style='margin:auto;width: auto; font-size: 150%'><span style='font-weight: bold; font-size: 100px; color: green;'>+10 points!</span><br><br></div>","null","delaylearn","learning","feedback_image_window","5ede1eacaa5dd5034089e865","iJQaBKZS6McC8posC3qKHLx7L842","","","","","","","","","","","","","","","","","","","","",""
"html-keyboard-response","137","258039","0.0-58.0","","null","<div style=""font-size:100px;"">+</div>","null","delaylearn","learning","ITI","5ede1eacaa5dd5034089e865","iJQaBKZS6McC8posC3qKHLx7L842","","","","","","","","","","","","","","","","","","","2153","",""
"html-keyboard-response","138","258523","0.0-59.0-0.0","","480.09999999403954","<div style=""display: flex; flex-direction: column; align-items: center; margin-top: -40px;""><img src=""images/pattern_3.png"" style=""width: 234px; height: 230px; margin-top: -50px;""><div style=""display: flex; justify-content: space-between; margin-top: 33px;""><img src=""images/choice_trial_6.png"" style=""width: 408px; height: 417px; margin-right: 200px;""><img src=""images/choice_trial_16.png"" style=""width: 408px; height: 417px;""></div></div>","f","delaylearn","learning","trial","5ede1eacaa5dd5034089e865","iJQaBKZS6McC8posC3qKHLx7L842","4","images/choice_trial_6.png","images/choice_trial_16.png","images/pattern_3.png","j","j","7000","6","16","2","1","26","0","0","6","180","","","","",""
"html-keyboard-response","139","259532","0.0-59.0-1.0","","null","<div style=""display: flex; flex-direction: column; align-items: center; margin-top: -40px;""><img src=""images/pattern_3.png"" style=""width: 234px; height: 230px; margin-top: -50px;""><div style=""display: flex; justify-content: space-between; margin-top: 33px;""><img src=""images/choice_trial_6.png"" style=""width: 408px; height: 417px; margin-right: 608px;""></div></div>","null","delaylearn","learning","display_response","5ede1eacaa5dd5034089e865","iJQaBKZS6McC8posC3qKHLx7L842","","","","","","","","","","","","","","","","","chosen stimuli: images/choice_trial_6.png","","","",""
"html-keyboard-response","140","266540","0.0-59.0-2.0","","null","","null","delaylearn","learning","feedback_duration_window","5ede1eacaa5dd5034089e865","iJQaBKZS6McC8posC3qKHLx7L842","","","","","","","","","","","","","","","","","","7000","","",""
"html-keyboard-response","141","268046","0.0-59.0-3.0","","null","<div style='margin:auto;width: auto; font-size: 150%'><span style='font-weight: bold; font-size: 100px; color: red;'>0 points!</span><br><br></div>","null","delaylearn","learning","feedback_image_window","5ede1eacaa5dd5034089e865","iJQaBKZS6McC8posC3qKHLx7L842","","","","","","","","","","","","","","","","","","","","",""
"lmdlab-html-vas-response","142","274848","0.0-60.0-0.0","","5288","*How <b><u>confident</u></b> are you feeling about your answers at this moment?*","0.7314814814814815","rewlearn","rate_confidence","","5ede1eacaa5dd5034089e865","iJQaBKZS6McC8posC3qKHLx7L842","","","","","","","","","","","","","","","","","","","","[""No confidence"",""Complete confidence""]",""
"lmdlab-rest-trial-limit","143","281416","0.0-60.0-1.0","","5058.79999999702","<div style=""font-size:40px;""><b>Please take a break!</b><br><br><br><br><p>Great work: you earned 180 points.<br><br><br><p>You have completed part(s) 1 of 5.<br><br><br><br>When you are ready to continue<br><br><br>please click the button.</p><br><br>","0","delaylearn","learning","break","5ede1eacaa5dd5034089e865","iJQaBKZS6McC8posC3qKHLx7L842","","","","","","","","","","","","","","","","","","","","","0"
"html-keyboard-response","144","284426","0.0-60.0-2.0","","null","<div style=""font-size:100px;"">+</div>","null","delaylearn","learning","pre_fixation","5ede1eacaa5dd5034089e865","","","","","","","","","","","","","","","","","","","","","",""
"lmdlab-html-vas-response","145","289543","0.0-60.0-3.0-0.0","","4100","How happy are you right now?","0.6435185185185185","delaylearn","learning","mood_baseline","5ede1eacaa5dd5034089e865","iJQaBKZS6McC8posC3qKHLx7L842","","","","","","","","","","","","","","","","","","","","[""Very unhappy"",""Very happy""]",""
"html-keyboard-response","146","291049","0.0-60.0-3.0-1.0","","null","","null","","","mood_baseline_fixation","","","","","","","","","","","","","","","","","","","","","","",""
"html-keyboard-response","147","292965","0.0-61.0","","null","<div style=""font-size:100px;"">+</div>","null","delaylearn","learning","ITI","5ede1eacaa5dd5034089e865","iJQaBKZS6McC8posC3qKHLx7L842","","","","","","","","","","","","","","","","","","","1906","",""
"html-keyboard-response","148","293348","0.0-62.0-0.0","","380.29999999701977","<div style=""display: flex; flex-direction: column; align-items: center; margin-top: -40px;""><img src=""images/pattern_7.png"" style=""width: 234px; height: 230px; margin-top: -50px;""><div style=""display: flex; justify-content: space-between; margin-top: 33px;""><img src=""images/choice_trial_4.png"" style=""width: 408px; height: 417px; margin-right: 200px;""><img src=""images/choice_trial_13.png"" style=""width: 408px; height: 417px;""></div></div>","j","delaylearn","learning","trial","5ede1eacaa5dd5034089e865","iJQaBKZS6McC8posC3qKHLx7L842","4","images/choice_trial_4.png","images/choice_trial_13.png","images/pattern_7.png","j","j","750","4","13","6","1","27","1","1","13","190","","","","",""
"html-keyboard-response","149","294368","0.0-62.0-1.0","","null","<div style=""display: flex; flex-direction: column; align-items: center; margin-top: -40px;""><img src=""images/pattern_7.png"" style=""width: 234px; height: 230px; margin-top: -50px;""><div style=""display: flex; justify-content: space-between; margin-top: 33px;""><img src=""images/choice_trial_13.png"" style=""width: 408px; height: 417px; margin-left:608px;""></div></div>","null","delaylearn","learning","display_response","5ede1eacaa5dd5034089e865","iJQaBKZS6McC8posC3qKHLx7L842","","","","","","","","","","","","","","","","","chosen stimuli: images/choice_trial_13.png","","","",""
"html-keyboard-response","150","295124","0.0-62.0-2.0","","null","","null","delaylearn","learning","feedback_duration_window","5ede1eacaa5dd5034089e865","iJQaBKZS6McC8posC3qKHLx7L842","","","","","","","","","","","","","","","","","","750","","",""
"html-keyboard-response","151","296635","0.0-62.0-3.0","","null","<div style='margin:auto;width: auto; font-size: 150%'><span style='font-weight: bold; font-size: 100px; color: green;'>+10 points!</span><br><br></div>","null","delaylearn","learning","feedback_image_window","5ede1eacaa5dd5034089e865","iJQaBKZS6McC8posC3qKHLx7L842","","","","","","","","","","","","","","","","","","","","",""
"html-keyboard-response","152","297141","0.0-63.0-0.0","","null","","null","","","mood_trial_fixation","","","","","","","","","","","","","","","","","","","","","","",""
"lmdlab-html-vas-response","153","303297","0.0-63.0-1.0","","5144","How happy are you right now?","0.7754629629629629","delaylearn","learning","mood_trial","5ede1eacaa5dd5034089e865","iJQaBKZS6McC8posC3qKHLx7L842","","","","","","","","","","","","","","","","","","","","[""Very unhappy"",""Very happy""]",""
"html-keyboard-response","154","305493","0.0-64.0","","null","<div style=""font-size:100px;"">+</div>","null","delaylearn","learning","ITI","5ede1eacaa5dd5034089e865","iJQaBKZS6McC8posC3qKHLx7L842","","","","","","","","","","","","","","","","","","","2191","",""
"html-keyboard-response","155","306224","0.0-65.0-0.0","","727.6000000089407","<div style=""display: flex; flex-direction: column; align-items: center; margin-top: -40px;""><img src=""images/pattern_1.png"" style=""width: 234px; height: 230px; margin-top: -50px;""><div style=""display: flex; justify-content: space-between; margin-top: 33px;""><img src=""images/choice_trial_1.png"" style=""width: 408px; height: 417px; margin-right: 200px;""><img src=""images/choice_trial_9.png"" style=""width: 408px; height: 417px;""></div></div>","f","delaylearn","learning","trial","5ede1eacaa5dd5034089e865","iJQaBKZS6McC8posC3qKHLx7L842","4","images/choice_trial_1.png","images/choice_trial_9.png","images/pattern_1.png","f","f","7000","1","9","1","0","28","1","1","1","200","","","","",""
"html-keyboard-response","156","307239","0.0-65.0-1.0","","null","<div style=""display: flex; flex-direction: column; align-items: center; margin-top: -40px;""><img src=""images/pattern_1.png"" style=""width: 234px; height: 230px; margin-top: -50px;""><div style=""display: flex; justify-content: space-between; margin-top: 33px;""><img src=""images/choice_trial_1.png"" style=""width: 408px; height: 417px; margin-right: 608px;""></div></div>","null","delaylearn","learning","display_response","5ede1eacaa5dd5034089e865","iJQaBKZS6McC8posC3qKHLx7L842","","","","","","","","","","","","","","","","","chosen stimuli: images/choice_trial_1.png","","","",""
"html-keyboard-response","157","314242","0.0-65.0-2.0","","null","","null","delaylearn","learning","feedback_duration_window","5ede1eacaa5dd5034089e865","iJQaBKZS6McC8posC3qKHLx7L842","","","","","","","","","","","","","","","","","","7000","","",""
"html-keyboard-response","158","315761","0.0-65.0-3.0","","null","<div style='margin:auto;width: auto; font-size: 150%'><span style='font-weight: bold; font-size: 100px; color: green;'>+10 points!</span><br><br></div>","null","delaylearn","learning","feedback_image_window","5ede1eacaa5dd5034089e865","iJQaBKZS6McC8posC3qKHLx7L842","","","","","","","","","","","","","","","","","","","","",""
"html-keyboard-response","159","318247","0.0-66.0","","null","<div style=""font-size:100px;"">+</div>","null","delaylearn","learning","ITI","5ede1eacaa5dd5034089e865","iJQaBKZS6McC8posC3qKHLx7L842","","","","","","","","","","","","","","","","","","","2471","",""
"html-keyboard-response","160","319837","0.0-67.0-0.0","","1585.8999999910593","<div style=""display: flex; flex-direction: column; align-items: center; margin-top: -40px;""><img src=""images/pattern_5.png"" style=""width: 234px; height: 230px; margin-top: -50px;""><div style=""display: flex; justify-content: space-between; margin-top: 33px;""><img src=""images/choice_trial_5.png"" style=""width: 408px; height: 417px; margin-right: 200px;""><img src=""images/choice_trial_15.png"" style=""width: 408px; height: 417px;""></div></div>","j","delaylearn","learning","trial","5ede1eacaa5dd5034089e865","iJQaBKZS6McC8posC3qKHLx7L842","4","images/choice_trial_5.png","images/choice_trial_15.png","images/pattern_5.png","f","f","750","5","15","4","0","29","0","0","15","200","","","","",""
"html-keyboard-response","161","320849","0.0-67.0-1.0","","null","<div style=""display: flex; flex-direction: column; align-items: center; margin-top: -40px;""><img src=""images/pattern_5.png"" style=""width: 234px; height: 230px; margin-top: -50px;""><div style=""display: flex; justify-content: space-between; margin-top: 33px;""><img src=""images/choice_trial_15.png"" style=""width: 408px; height: 417px; margin-left:608px;""></div></div>","null","delaylearn","learning","display_response","5ede1eacaa5dd5034089e865","iJQaBKZS6McC8posC3qKHLx7L842","","","","","","","","","","","","","","","","","chosen stimuli: images/choice_trial_15.png","","","",""
"html-keyboard-response","162","321607","0.0-67.0-2.0","","null","","null","delaylearn","learning","feedback_duration_window","5ede1eacaa5dd5034089e865","iJQaBKZS6McC8posC3qKHLx7L842","","","","","","","","","","","","","","","","","","750","","",""
"html-keyboard-response","163","323127","0.0-67.0-3.0","","null","<div style='margin:auto;width: auto; font-size: 150%'><span style='font-weight: bold; font-size: 100px; color: red;'>0 points!</span><br><br></div>","null","delaylearn","learning","feedback_image_window","5ede1eacaa5dd5034089e865","iJQaBKZS6McC8posC3qKHLx7L842","","","","","","","","","","","","","","","","","","","","",""
"html-keyboard-response","164","324671","0.0-68.0","","null","<div style=""font-size:100px;"">+</div>","null","delaylearn","learning","ITI","5ede1eacaa5dd5034089e865","iJQaBKZS6McC8posC3qKHLx7L842","","","","","","","","","","","","","","","","","","","1532","",""
"html-keyboard-response","165","325557","0.0-69.0-0.0","","881.0999999940395","<div style=""display: flex; flex-direction: column; align-items: center; margin-top: -40px;""><img src=""images/pattern_6.png"" style=""width: 234px; height: 230px; margin-top: -50px;""><div style=""display: flex; justify-content: space-between; margin-top: 33px;""><img src=""images/choice_trial_3.png"" style=""width: 408px; height: 417px; margin-right: 200px;""><img src=""images/choice_trial_10.png"" style=""width: 408px; height: 417px;""></div></div>","f","delaylearn","learning","trial","5ede1eacaa5dd5034089e865","iJQaBKZS6McC8posC3qKHLx7L842","4","images/choice_trial_3.png","images/choice_trial_10.png","images/pattern_6.png","j","j","750","3","10","5","1","30","0","0","3","200","","","","",""
"html-keyboard-response","166","326565","0.0-69.0-1.0","","null","<div style=""display: flex; flex-direction: column; align-items: center; margin-top: -40px;""><img src=""images/pattern_6.png"" style=""width: 234px; height: 230px; margin-top: -50px;""><div style=""display: flex; justify-content: space-between; margin-top: 33px;""><img src=""images/choice_trial_3.png"" style=""width: 408px; height: 417px; margin-right: 608px;""></div></div>","null","delaylearn","learning","display_response","5ede1eacaa5dd5034089e865","iJQaBKZS6McC8posC3qKHLx7L842","","","","","","","","","","","","","","","","","chosen stimuli: images/choice_trial_3.png","","","",""
"html-keyboard-response","167","327334","0.0-69.0-2.0","","null","","null","delaylearn","learning","feedback_duration_window","5ede1eacaa5dd5034089e865","iJQaBKZS6McC8posC3qKHLx7L842","","","","","","","","","","","","","","","","","","750","","",""
"html-keyboard-response","168","328840","0.0-69.0-3.0","","null","<div style='margin:auto;width: auto; font-size: 150%'><span style='font-weight: bold; font-size: 100px; color: red;'>0 points!</span><br><br></div>","null","delaylearn","learning","feedback_image_window","5ede1eacaa5dd5034089e865","iJQaBKZS6McC8posC3qKHLx7L842","","","","","","","","","","","","","","","","","","","","",""
"html-keyboard-response","169","329357","0.0-70.0-0.0","","null","","null","","","mood_trial_fixation","","","","","","","","","","","","","","","","","","","","","","",""
"lmdlab-html-vas-response","170","334565","0.0-70.0-1.0","","4194","How happy are you right now?","0.5902777777777778","delaylearn","learning","mood_trial","5ede1eacaa5dd5034089e865","iJQaBKZS6McC8posC3qKHLx7L842","","","","","","","","","","","","","","","","","","","","[""Very unhappy"",""Very happy""]",""
"html-keyboard-response","171","336894","0.0-71.0","","null","<div style=""font-size:100px;"">+</div>","null","delaylearn","learning","ITI","5ede1eacaa5dd5034089e865","iJQaBKZS6McC8posC3qKHLx7L842","","","","","","","","","","","","","","","","","","","2313","",""
"html-keyboard-response","172","337457","0.0-72.0-0.0","","556.7000000029802","<div style=""display: flex; flex-direction: column; align-items: center; margin-top: -40px;""><img src=""images/pattern_4.png"" style=""width: 234px; height: 230px; margin-top: -50px;""><div style=""display: flex; justify-content: space-between; margin-top: 33px;""><img src=""images/choice_trial_7.png"" style=""width: 408px; height: 417px; margin-right: 200px;""><img src=""images/choice_trial_8.png"" style=""width: 408px; height: 417px;""></div></div>","j","delaylearn","learning","trial","5ede1eacaa5dd5034089e865","iJQaBKZS6McC8posC3qKHLx7L842","4","images/choice_trial_7.png","images/choice_trial_8.png","images/pattern_4.png","j","j","7000","7","8","3","1","31","1","1","8","210","","","","",""
"html-keyboard-response","173","338468","0.0-72.0-1.0","","null","<div style=""display: flex; flex-direction: column; align-items: center; margin-top: -40px;""><img src=""images/pattern_4.png"" style=""width: 234px; height: 230px; margin-top: -50px;""><div style=""display: flex; justify-content: space-between; margin-top: 33px;""><img src=""images/choice_trial_8.png"" style=""width: 408px; height: 417px; margin-left:608px;""></div></div>","null","delaylearn","learning","display_response","5ede1eacaa5dd5034089e865","iJQaBKZS6McC8posC3qKHLx7L842","","","","","","","","","","","","","","","","","chosen stimuli: images/choice_trial_8.png","","","",""
"html-keyboard-response","174","345485","0.0-72.0-2.0","","null","","null","delaylearn","learning","feedback_duration_window","5ede1eacaa5dd5034089e865","iJQaBKZS6McC8posC3qKHLx7L842","","","","","","","","","","","","","","","","","","7000","","",""
"html-keyboard-response","175","346999","0.0-72.0-3.0","","null","<div style='margin:auto;width: auto; font-size: 150%'><span style='font-weight: bold; font-size: 100px; color: green;'>+10 points!</span><br><br></div>","null","delaylearn","learning","feedback_image_window","5ede1eacaa5dd5034089e865","iJQaBKZS6McC8posC3qKHLx7L842","","","","","","","","","","","","","","","","","","","","",""
"html-keyboard-response","176","348800","0.0-73.0","","null","<div style=""font-size:100px;"">+</div>","null","delaylearn","learning","ITI","5ede1eacaa5dd5034089e865","iJQaBKZS6McC8posC3qKHLx7L842","","","","","","","","","","","","","","","","","","","1784","",""
"html-keyboard-response","177","349159","0.0-74.0-0.0","","352.69999998807907","<div style=""display: flex; flex-direction: column; align-items: center; margin-top: -40px;""><img src=""images/pattern_3.png"" style=""width: 234px; height: 230px; margin-top: -50px;""><div style=""display: flex; justify-content: space-between; margin-top: 33px;""><img src=""images/choice_trial_6.png"" style=""width: 408px; height: 417px; margin-right: 200px;""><img src=""images/choice_trial_16.png"" style=""width: 408px; height: 417px;""></div></div>","f","delaylearn","learning","trial","5ede1eacaa5dd5034089e865","iJQaBKZS6McC8posC3qKHLx7L842","4","images/choice_trial_6.png","images/choice_trial_16.png","images/pattern_3.png","j","j","7000","6","16","2","1","32","0","0","6","210","","","","",""
"html-keyboard-response","178","350169","0.0-74.0-1.0","","null","<div style=""display: flex; flex-direction: column; align-items: center; margin-top: -40px;""><img src=""images/pattern_3.png"" style=""width: 234px; height: 230px; margin-top: -50px;""><div style=""display: flex; justify-content: space-between; margin-top: 33px;""><img src=""images/choice_trial_6.png"" style=""width: 408px; height: 417px; margin-right: 608px;""></div></div>","null","delaylearn","learning","display_response","5ede1eacaa5dd5034089e865","iJQaBKZS6McC8posC3qKHLx7L842","","","","","","","","","","","","","","","","","chosen stimuli: images/choice_trial_6.png","","","",""
"html-keyboard-response","179","357173","0.0-74.0-2.0","","null","","null","delaylearn","learning","feedback_duration_window","5ede1eacaa5dd5034089e865","iJQaBKZS6McC8posC3qKHLx7L842","","","","","","","","","","","","","","","","","","7000","","",""
"html-keyboard-response","180","358690","0.0-74.0-3.0","","null","<div style='margin:auto;width: auto; font-size: 150%'><span style='font-weight: bold; font-size: 100px; color: red;'>0 points!</span><br><br></div>","null","delaylearn","learning","feedback_image_window","5ede1eacaa5dd5034089e865","iJQaBKZS6McC8posC3qKHLx7L842","","","","","","","","","","","","","","","","","","","","",""
"html-keyboard-response","181","360788","0.0-75.0","","null","<div style=""font-size:100px;"">+</div>","null","delaylearn","learning","ITI","5ede1eacaa5dd5034089e865","iJQaBKZS6McC8posC3qKHLx7L842","","","","","","","","","","","","","","","","","","","2093","",""
"html-keyboard-response","182","361598","0.0-76.0-0.0","","806.0999999940395","<div style=""display: flex; flex-direction: column; align-items: center; margin-top: -40px;""><img src=""images/pattern_5.png"" style=""width: 234px; height: 230px; margin-top: -50px;""><div style=""display: flex; justify-content: space-between; margin-top: 33px;""><img src=""images/choice_trial_5.png"" style=""width: 408px; height: 417px; margin-right: 200px;""><img src=""images/choice_trial_15.png"" style=""width: 408px; height: 417px;""></div></div>","j","delaylearn","learning","trial","5ede1eacaa5dd5034089e865","iJQaBKZS6McC8posC3qKHLx7L842","4","images/choice_trial_5.png","images/choice_trial_15.png","images/pattern_5.png","j","f","750","5","15","4","0","33","0","1","15","220","","","","",""
"html-keyboard-response","183","362616","0.0-76.0-1.0","","null","<div style=""display: flex; flex-direction: column; align-items: center; margin-top: -40px;""><img src=""images/pattern_5.png"" style=""width: 234px; height: 230px; margin-top: -50px;""><div style=""display: flex; justify-content: space-between; margin-top: 33px;""><img src=""images/choice_trial_15.png"" style=""width: 408px; height: 417px; margin-left:608px;""></div></div>","null","delaylearn","learning","display_response","5ede1eacaa5dd5034089e865","iJQaBKZS6McC8posC3qKHLx7L842","","","","","","","","","","","","","","","","","chosen stimuli: images/choice_trial_15.png","","","",""
"html-keyboard-response","184","363370","0.0-76.0-2.0","","null","","null","delaylearn","learning","feedback_duration_window","5ede1eacaa5dd5034089e865","iJQaBKZS6McC8posC3qKHLx7L842","","","","","","","","","","","","","","","","","","750","","",""
"html-keyboard-response","185","364886","0.0-76.0-3.0","","null","<div style='margin:auto;width: auto; font-size: 150%'><span style='font-weight: bold; font-size: 100px; color: green;'>+10 points!</span><br><br></div>","null","delaylearn","learning","feedback_image_window","5ede1eacaa5dd5034089e865","iJQaBKZS6McC8posC3qKHLx7L842","","","","","","","","","","","","","","","","","","","","",""
"html-keyboard-response","186","366933","0.0-77.0","","null","<div style=""font-size:100px;"">+</div>","null","delaylearn","learning","ITI","5ede1eacaa5dd5034089e865","iJQaBKZS6McC8posC3qKHLx7L842","","","","","","","","","","","","","","","","","","","2041","",""
"html-keyboard-response","187","367483","0.0-78.0-0.0","","544.3999999910593","<div style=""display: flex; flex-direction: column; align-items: center; margin-top: -40px;""><img src=""images/pattern_1.png"" style=""width: 234px; height: 230px; margin-top: -50px;""><div style=""display: flex; justify-content: space-between; margin-top: 33px;""><img src=""images/choice_trial_1.png"" style=""width: 408px; height: 417px; margin-right: 200px;""><img src=""images/choice_trial_9.png"" style=""width: 408px; height: 417px;""></div></div>","f","delaylearn","learning","trial","5ede1eacaa5dd5034089e865","iJQaBKZS6McC8posC3qKHLx7L842","4","images/choice_trial_1.png","images/choice_trial_9.png","images/pattern_1.png","f","f","7000","1","9","1","0","34","1","1","1","230","","","","",""
"html-keyboard-response","188","368494","0.0-78.0-1.0","","null","<div style=""display: flex; flex-direction: column; align-items: center; margin-top: -40px;""><img src=""images/pattern_1.png"" style=""width: 234px; height: 230px; margin-top: -50px;""><div style=""display: flex; justify-content: space-between; margin-top: 33px;""><img src=""images/choice_trial_1.png"" style=""width: 408px; height: 417px; margin-right: 608px;""></div></div>","null","delaylearn","learning","display_response","5ede1eacaa5dd5034089e865","iJQaBKZS6McC8posC3qKHLx7L842","","","","","","","","","","","","","","","","","chosen stimuli: images/choice_trial_1.png","","","",""
"html-keyboard-response","189","375513","0.0-78.0-2.0","","null","","null","delaylearn","learning","feedback_duration_window","5ede1eacaa5dd5034089e865","iJQaBKZS6McC8posC3qKHLx7L842","","","","","","","","","","","","","","","","","","7000","","",""
"html-keyboard-response","190","377026","0.0-78.0-3.0","","null","<div style='margin:auto;width: auto; font-size: 150%'><span style='font-weight: bold; font-size: 100px; color: green;'>+10 points!</span><br><br></div>","null","delaylearn","learning","feedback_image_window","5ede1eacaa5dd5034089e865","iJQaBKZS6McC8posC3qKHLx7L842","","","","","","","","","","","","","","","","","","","","",""
"html-keyboard-response","191","377528","0.0-79.0-0.0","","null","","null","","","mood_trial_fixation","","","","","","","","","","","","","","","","","","","","","","",""
"lmdlab-html-vas-response","192","381689","0.0-79.0-1.0","","3148","How happy are you right now?","0.9074074074074074","delaylearn","learning","mood_trial","5ede1eacaa5dd5034089e865","iJQaBKZS6McC8posC3qKHLx7L842","","","","","","","","","","","","","","","","","","","","[""Very unhappy"",""Very happy""]",""
"html-keyboard-response","193","384013","0.0-80.0","","null","<div style=""font-size:100px;"">+</div>","null","delaylearn","learning","ITI","5ede1eacaa5dd5034089e865","iJQaBKZS6McC8posC3qKHLx7L842","","","","","","","","","","","","","","","","","","","2314","",""
"html-keyboard-response","194","384639","0.0-81.0-0.0","","620.5","<div style=""display: flex; flex-direction: column; align-items: center; margin-top: -40px;""><img src=""images/pattern_6.png"" style=""width: 234px; height: 230px; margin-top: -50px;""><div style=""display: flex; justify-content: space-between; margin-top: 33px;""><img src=""images/choice_trial_10.png"" style=""width: 408px; height: 417px; margin-right: 200px;""><img src=""images/choice_trial_3.png"" style=""width: 408px; height: 417px;""></div></div>","j","delaylearn","learning","trial","5ede1eacaa5dd5034089e865","iJQaBKZS6McC8posC3qKHLx7L842","4","images/choice_trial_10.png","images/choice_trial_3.png","images/pattern_6.png","j","f","750","10","3","5","0","35","0","1","3","240","","","","",""
"html-keyboard-response","195","385650","0.0-81.0-1.0","","null","<div style=""display: flex; flex-direction: column; align-items: center; margin-top: -40px;""><img src=""images/pattern_6.png"" style=""width: 234px; height: 230px; margin-top: -50px;""><div style=""display: flex; justify-content: space-between; margin-top: 33px;""><img src=""images/choice_trial_3.png"" style=""width: 408px; height: 417px; margin-left:608px;""></div></div>","null","delaylearn","learning","display_response","5ede1eacaa5dd5034089e865","iJQaBKZS6McC8posC3qKHLx7L842","","","","","","","","","","","","","","","","","chosen stimuli: images/choice_trial_3.png","","","",""
"html-keyboard-response","196","386407","0.0-81.0-2.0","","null","","null","delaylearn","learning","feedback_duration_window","5ede1eacaa5dd5034089e865","iJQaBKZS6McC8posC3qKHLx7L842","","","","","","","","","","","","","","","","","","750","","",""
"html-keyboard-response","197","387919","0.0-81.0-3.0","","null","<div style='margin:auto;width: auto; font-size: 150%'><span style='font-weight: bold; font-size: 100px; color: green;'>+10 points!</span><br><br></div>","null","delaylearn","learning","feedback_image_window","5ede1eacaa5dd5034089e865","iJQaBKZS6McC8posC3qKHLx7L842","","","","","","","","","","","","","","","","","","","","",""
"html-keyboard-response","198","389562","0.0-82.0","","null","<div style=""font-size:100px;"">+</div>","null","delaylearn","learning","ITI","5ede1eacaa5dd5034089e865","iJQaBKZS6McC8posC3qKHLx7L842","","","","","","","","","","","","","","","","","","","1633","",""
"html-keyboard-response","199","390025","0.0-83.0-0.0","","457.79999999701977","<div style=""display: flex; flex-direction: column; align-items: center; margin-top: -40px;""><img src=""images/pattern_3.png"" style=""width: 234px; height: 230px; margin-top: -50px;""><div style=""display: flex; justify-content: space-between; margin-top: 33px;""><img src=""images/choice_trial_6.png"" style=""width: 408px; height: 417px; margin-right: 200px;""><img src=""images/choice_trial_16.png"" style=""width: 408px; height: 417px;""></div></div>","f","delaylearn","learning","trial","5ede1eacaa5dd5034089e865","iJQaBKZS6McC8posC3qKHLx7L842","4","images/choice_trial_6.png","images/choice_trial_16.png","images/pattern_3.png","j","j","7000","6","16","2","1","36","0","0","6","240","","","","",""
"html-keyboard-response","200","391043","0.0-83.0-1.0","","null","<div style=""display: flex; flex-direction: column; align-items: center; margin-top: -40px;""><img src=""images/pattern_3.png"" style=""width: 234px; height: 230px; margin-top: -50px;""><div style=""display: flex; justify-content: space-between; margin-top: 33px;""><img src=""images/choice_trial_6.png"" style=""width: 408px; height: 417px; margin-right: 608px;""></div></div>","null","delaylearn","learning","display_response","5ede1eacaa5dd5034089e865","iJQaBKZS6McC8posC3qKHLx7L842","","","","","","","","","","","","","","","","","chosen stimuli: images/choice_trial_6.png","","","",""
"html-keyboard-response","201","398047","0.0-83.0-2.0","","null","","null","delaylearn","learning","feedback_duration_window","5ede1eacaa5dd5034089e865","iJQaBKZS6McC8posC3qKHLx7L842","","","","","","","","","","","","","","","","","","7000","","",""
"html-keyboard-response","202","399560","0.0-83.0-3.0","","null","<div style='margin:auto;width: auto; font-size: 150%'><span style='font-weight: bold; font-size: 100px; color: red;'>0 points!</span><br><br></div>","null","delaylearn","learning","feedback_image_window","5ede1eacaa5dd5034089e865","iJQaBKZS6McC8posC3qKHLx7L842","","","","","","","","","","","","","","","","","","","","",""
"html-keyboard-response","203","401828","0.0-84.0","","null","<div style=""font-size:100px;"">+</div>","null","delaylearn","learning","ITI","5ede1eacaa5dd5034089e865","iJQaBKZS6McC8posC3qKHLx7L842","","","","","","","","","","","","","","","","","","","2260","",""
"html-keyboard-response","204","402347","0.0-85.0-0.0","","514.9000000059605","<div style=""display: flex; flex-direction: column; align-items: center; margin-top: -40px;""><img src=""images/pattern_4.png"" style=""width: 234px; height: 230px; margin-top: -50px;""><div style=""display: flex; justify-content: space-between; margin-top: 33px;""><img src=""images/choice_trial_7.png"" style=""width: 408px; height: 417px; margin-right: 200px;""><img src=""images/choice_trial_8.png"" style=""width: 408px; height: 417px;""></div></div>","j","delaylearn","learning","trial","5ede1eacaa5dd5034089e865","iJQaBKZS6McC8posC3qKHLx7L842","4","images/choice_trial_7.png","images/choice_trial_8.png","images/pattern_4.png","f","j","7000","7","8","3","1","37","1","0","8","240","","","","",""
"html-keyboard-response","205","403354","0.0-85.0-1.0","","null","<div style=""display: flex; flex-direction: column; align-items: center; margin-top: -40px;""><img src=""images/pattern_4.png"" style=""width: 234px; height: 230px; margin-top: -50px;""><div style=""display: flex; justify-content: space-between; margin-top: 33px;""><img src=""images/choice_trial_8.png"" style=""width: 408px; height: 417px; margin-left:608px;""></div></div>","null","delaylearn","learning","display_response","5ede1eacaa5dd5034089e865","iJQaBKZS6McC8posC3qKHLx7L842","","","","","","","","","","","","","","","","","chosen stimuli: images/choice_trial_8.png","","","",""
"html-keyboard-response","206","410368","0.0-85.0-2.0","","null","","null","delaylearn","learning","feedback_duration_window","5ede1eacaa5dd5034089e865","iJQaBKZS6McC8posC3qKHLx7L842","","","","","","","","","","","","","","","","","","7000","","",""
"html-keyboard-response","207","411878","0.0-85.0-3.0","","null","<div style='margin:auto;width: auto; font-size: 150%'><span style='font-weight: bold; font-size: 100px; color: red;'>0 points!</span><br><br></div>","null","delaylearn","learning","feedback_image_window","5ede1eacaa5dd5034089e865","iJQaBKZS6McC8posC3qKHLx7L842","","","","","","","","","","","","","","","","","","","","",""
"html-keyboard-response","208","414197","0.0-86.0","","null","<div style=""font-size:100px;"">+</div>","null","delaylearn","learning","ITI","5ede1eacaa5dd5034089e865","iJQaBKZS6McC8posC3qKHLx7L842","","","","","","","","","","","","","","","","","","","2314","",""
"html-keyboard-response","209","414833","0.0-87.0-0.0","","632.1000000089407","<div style=""display: flex; flex-direction: column; align-items: center; margin-top: -40px;""><img src=""images/pattern_7.png"" style=""width: 234px; height: 230px; margin-top: -50px;""><div style=""display: flex; justify-content: space-between; margin-top: 33px;""><img src=""images/choice_trial_13.png"" style=""width: 408px; height: 417px; margin-right: 200px;""><img src=""images/choice_trial_4.png"" style=""width: 408px; height: 417px;""></div></div>","f","delaylearn","learning","trial","5ede1eacaa5dd5034089e865","iJQaBKZS6McC8posC3qKHLx7L842","4","images/choice_trial_13.png","images/choice_trial_4.png","images/pattern_7.png","f","f","750","13","4","6","0","38","1","1","13","250","","","","",""
"html-keyboard-response","210","415850","0.0-87.0-1.0","","null","<div style=""display: flex; flex-direction: column; align-items: center; margin-top: -40px;""><img src=""images/pattern_7.png"" style=""width: 234px; height: 230px; margin-top: -50px;""><div style=""display: flex; justify-content: space-between; margin-top: 33px;""><img src=""images/choice_trial_13.png"" style=""width: 408px; height: 417px; margin-right: 608px;""></div></div>","null","delaylearn","learning","display_response","5ede1eacaa5dd5034089e865","iJQaBKZS6McC8posC3qKHLx7L842","","","","","","","","","","","","","","","","","chosen stimuli: images/choice_trial_13.png","","","",""
"html-keyboard-response","211","416608","0.0-87.0-2.0","","null","","null","delaylearn","learning","feedback_duration_window","5ede1eacaa5dd5034089e865","iJQaBKZS6McC8posC3qKHLx7L842","","","","","","","","","","","","","","","","","","750","","",""
"html-keyboard-response","212","418120","0.0-87.0-3.0","","null","<div style='margin:auto;width: auto; font-size: 150%'><span style='font-weight: bold; font-size: 100px; color: green;'>+10 points!</span><br><br></div>","null","delaylearn","learning","feedback_image_window","5ede1eacaa5dd5034089e865","iJQaBKZS6McC8posC3qKHLx7L842","","","","","","","","","","","","","","","","","","","","",""
"html-keyboard-response","213","419842","0.0-88.0","","null","<div style=""font-size:100px;"">+</div>","null","delaylearn","learning","ITI","5ede1eacaa5dd5034089e865","iJQaBKZS6McC8posC3qKHLx7L842","","","","","","","","","","","","","","","","","","","1720","",""
"html-keyboard-response","214","420779","0.0-89.0-0.0","","934.2999999970198","<div style=""display: flex; flex-direction: column; align-items: center; margin-top: -40px;""><img src=""images/pattern_1.png"" style=""width: 234px; height: 230px; margin-top: -50px;""><div style=""display: flex; justify-content: space-between; margin-top: 33px;""><img src=""images/choice_trial_1.png"" style=""width: 408px; height: 417px; margin-right: 200px;""><img src=""images/choice_trial_9.png"" style=""width: 408px; height: 417px;""></div></div>","j","delaylearn","learning","trial","5ede1eacaa5dd5034089e865","iJQaBKZS6McC8posC3qKHLx7L842","4","images/choice_trial_1.png","images/choice_trial_9.png","images/pattern_1.png","f","f","7000","1","9","1","0","39","0","0","9","250","","","","",""
"html-keyboard-response","215","421796","0.0-89.0-1.0","","null","<div style=""display: flex; flex-direction: column; align-items: center; margin-top: -40px;""><img src=""images/pattern_1.png"" style=""width: 234px; height: 230px; margin-top: -50px;""><div style=""display: flex; justify-content: space-between; margin-top: 33px;""><img src=""images/choice_trial_9.png"" style=""width: 408px; height: 417px; margin-left:608px;""></div></div>","null","delaylearn","learning","display_response","5ede1eacaa5dd5034089e865","iJQaBKZS6McC8posC3qKHLx7L842","","","","","","","","","","","","","","","","","chosen stimuli: images/choice_trial_9.png","","","",""
"html-keyboard-response","216","428800","0.0-89.0-2.0","","null","","null","delaylearn","learning","feedback_duration_window","5ede1eacaa5dd5034089e865","iJQaBKZS6McC8posC3qKHLx7L842","","","","","","","","","","","","","","","","","","7000","","",""
"html-keyboard-response","217","430315","0.0-89.0-3.0","","null","<div style='margin:auto;width: auto; font-size: 150%'><span style='font-weight: bold; font-size: 100px; color: red;'>0 points!</span><br><br></div>","null","delaylearn","learning","feedback_image_window","5ede1eacaa5dd5034089e865","iJQaBKZS6McC8posC3qKHLx7L842","","","","","","","","","","","","","","","","","","","","",""
"html-keyboard-response","218","430818","0.0-90.0-0.0","","null","","null","","","mood_trial_fixation","","","","","","","","","","","","","","","","","","","","","","",""
"lmdlab-html-vas-response","219","435071","0.0-90.0-1.0","","3239","How happy are you right now?","0.5185185185185185","delaylearn","learning","mood_trial","5ede1eacaa5dd5034089e865","iJQaBKZS6McC8posC3qKHLx7L842","","","","","","","","","","","","","","","","","","","","[""Very unhappy"",""Very happy""]",""
"html-keyboard-response","220","436704","0.0-91.0","","null","<div style=""font-size:100px;"">+</div>","null","delaylearn","learning","ITI","5ede1eacaa5dd5034089e865","iJQaBKZS6McC8posC3qKHLx7L842","","","","","","","","","","","","","","","","","","","1618","",""
