"trial_type","trial_index","time_elapsed","internal_node_id","participant","rt","stimulus","response","exp_name","exp_stage","test_part","subjectID","databaseID","counterbal","choice_stimuli_1","choice_stimuli_2","pattern_stimuli","rewarded_answer","correct_answer","feedback_duration_times","stim_left","stim_right","pair","leftright_counter","trial","response_correct","response_rewarded","chosen_stim","counter","displayed_choice","feedback_durations","ITI_duration","labels","rest_warning"
"pavlovia","0","487","0.0-0.0","","","","","","","","","","","","","","","","","","","","","","","","","","","","","",""
"html-keyboard-response","1","3490","0.0-1.0","","null","<div style=""font-size:100px;"">+</div>","null","delaylearn","learning","pre_fixation","62cfee5a0c2e87501bfb10bc","","","","","","","","","","","","","","","","","","","","","",""
"html-keyboard-response","2","4330","0.0-2.0-0.0","","838.7000000476837","<div style=""display: flex; flex-direction: column; align-items: center; margin-top: -40px;""><img src=""images/demo_images/pattern_1.png"" style=""width: 234px; height: 230px; margin-top: -50px;""><div style=""display: flex; justify-content: space-between; margin-top: 33px;""><img src=""images/demo_images/choice_trial_2.png"" style=""width: 408px; height: 417px; margin-right: 200px;""><img src=""images/demo_images/choice_trial_1.png"" style=""width: 408px; height: 417px;""></div></div>","j","delaylearn","learning","trial","62cfee5a0c2e87501bfb10bc","WZfOmnJy0LdMpmCbDmykk1JyM5Q2","5","images/demo_images/choice_trial_2.png","images/demo_images/choice_trial_1.png","images/demo_images/pattern_1.png","j","j","3000","2","1","20","1","1","1","1","1","10","","","","",""
"html-keyboard-response","3","5334","0.0-2.0-1.0","","null","<div style=""display: flex; flex-direction: column; align-items: center; margin-top: -40px;""><img src=""images/demo_images/pattern_1.png"" style=""width: 234px; height: 230px; margin-top: -50px;""><div style=""display: flex; justify-content: space-between; margin-top: 33px;""><img src=""images/demo_images/choice_trial_1.png"" style=""width: 408px; height: 417px; margin-left:608px;""></div></div>","null","delaylearn","learning","display_response","62cfee5a0c2e87501bfb10bc","WZfOmnJy0LdMpmCbDmykk1JyM5Q2","","","","","","","","","","","","","","","","","chosen stimuli: images/demo_images/choice_trial_1.png","","","",""
"html-keyboard-response","4","8337","0.0-2.0-2.0","","null","","null","delaylearn","learning","feedback_duration_window","62cfee5a0c2e87501bfb10bc","WZfOmnJy0LdMpmCbDmykk1JyM5Q2","","","","","","","","","","","","","","","","","","3000","","",""
"html-keyboard-response","5","9841","0.0-2.0-3.0","","null","<div style='margin:auto;width: auto; font-size: 150%'><span style='font-weight: bold; font-size: 100px; color: green;'>+10 points!</span><br><br></div>","null","delaylearn","learning","feedback_image_window","62cfee5a0c2e87501bfb10bc","WZfOmnJy0LdMpmCbDmykk1JyM5Q2","","","","","","","","","","","","","","","","","","","","",""
"html-keyboard-response","6","11701","0.0-3.0","","null","<div style=""font-size:100px;"">+</div>","null","delaylearn","learning","ITI","62cfee5a0c2e87501bfb10bc","WZfOmnJy0LdMpmCbDmykk1JyM5Q2","","","","","","","","","","","","","","","","","","","1849","",""
"html-keyboard-response","7","12318","0.0-4.0-0.0","","615.7000000476837","<div style=""display: flex; flex-direction: column; align-items: center; margin-top: -40px;""><img src=""images/demo_images/pattern_1.png"" style=""width: 234px; height: 230px; margin-top: -50px;""><div style=""display: flex; justify-content: space-between; margin-top: 33px;""><img src=""images/demo_images/choice_trial_2.png"" style=""width: 408px; height: 417px; margin-right: 200px;""><img src=""images/demo_images/choice_trial_1.png"" style=""width: 408px; height: 417px;""></div></div>","j","delaylearn","learning","trial","62cfee5a0c2e87501bfb10bc","WZfOmnJy0LdMpmCbDmykk1JyM5Q2","5","images/demo_images/choice_trial_2.png","images/demo_images/choice_trial_1.png","images/demo_images/pattern_1.png","j","j","3000","2","1","20","1","2","1","1","1","20","","","","",""
"html-keyboard-response","8","13324","0.0-4.0-1.0","","null","<div style=""display: flex; flex-direction: column; align-items: center; margin-top: -40px;""><img src=""images/demo_images/pattern_1.png"" style=""width: 234px; height: 230px; margin-top: -50px;""><div style=""display: flex; justify-content: space-between; margin-top: 33px;""><img src=""images/demo_images/choice_trial_1.png"" style=""width: 408px; height: 417px; margin-left:608px;""></div></div>","null","delaylearn","learning","display_response","62cfee5a0c2e87501bfb10bc","WZfOmnJy0LdMpmCbDmykk1JyM5Q2","","","","","","","","","","","","","","","","","chosen stimuli: images/demo_images/choice_trial_1.png","","","",""
"html-keyboard-response","9","16327","0.0-4.0-2.0","","null","","null","delaylearn","learning","feedback_duration_window","62cfee5a0c2e87501bfb10bc","WZfOmnJy0LdMpmCbDmykk1JyM5Q2","","","","","","","","","","","","","","","","","","3000","","",""
"html-keyboard-response","10","17842","0.0-4.0-3.0","","null","<div style='margin:auto;width: auto; font-size: 150%'><span style='font-weight: bold; font-size: 100px; color: green;'>+10 points!</span><br><br></div>","null","delaylearn","learning","feedback_image_window","62cfee5a0c2e87501bfb10bc","WZfOmnJy0LdMpmCbDmykk1JyM5Q2","","","","","","","","","","","","","","","","","","","","",""
"html-keyboard-response","11","19883","0.0-5.0","","null","<div style=""font-size:100px;"">+</div>","null","delaylearn","learning","ITI","62cfee5a0c2e87501bfb10bc","WZfOmnJy0LdMpmCbDmykk1JyM5Q2","","","","","","","","","","","","","","","","","","","2027","",""
"html-keyboard-response","12","20712","0.0-6.0-0.0","","827.5","<div style=""display: flex; flex-direction: column; align-items: center; margin-top: -40px;""><img src=""images/demo_images/pattern_1.png"" style=""width: 234px; height: 230px; margin-top: -50px;""><div style=""display: flex; justify-content: space-between; margin-top: 33px;""><img src=""images/demo_images/choice_trial_1.png"" style=""width: 408px; height: 417px; margin-right: 200px;""><img src=""images/demo_images/choice_trial_2.png"" style=""width: 408px; height: 417px;""></div></div>","f","delaylearn","learning","trial","62cfee5a0c2e87501bfb10bc","WZfOmnJy0LdMpmCbDmykk1JyM5Q2","5","images/demo_images/choice_trial_1.png","images/demo_images/choice_trial_2.png","images/demo_images/pattern_1.png","j","f","3000","1","2","20","0","3","1","0","1","20","","","","",""
"html-keyboard-response","13","21726","0.0-6.0-1.0","","null","<div style=""display: flex; flex-direction: column; align-items: center; margin-top: -40px;""><img src=""images/demo_images/pattern_1.png"" style=""width: 234px; height: 230px; margin-top: -50px;""><div style=""display: flex; justify-content: space-between; margin-top: 33px;""><img src=""images/demo_images/choice_trial_1.png"" style=""width: 408px; height: 417px; margin-right: 608px;""></div></div>","null","delaylearn","learning","display_response","62cfee5a0c2e87501bfb10bc","WZfOmnJy0LdMpmCbDmykk1JyM5Q2","","","","","","","","","","","","","","","","","chosen stimuli: images/demo_images/choice_trial_1.png","","","",""
"html-keyboard-response","14","24732","0.0-6.0-2.0","","null","","null","delaylearn","learning","feedback_duration_window","62cfee5a0c2e87501bfb10bc","WZfOmnJy0LdMpmCbDmykk1JyM5Q2","","","","","","","","","","","","","","","","","","3000","","",""
"html-keyboard-response","15","26239","0.0-6.0-3.0","","null","<div style='margin:auto;width: auto; font-size: 150%'><span style='font-weight: bold; font-size: 100px; color: red;'>0 points!</span><br><br></div>","null","delaylearn","learning","feedback_image_window","62cfee5a0c2e87501bfb10bc","WZfOmnJy0LdMpmCbDmykk1JyM5Q2","","","","","","","","","","","","","","","","","","","","",""
"html-keyboard-response","16","28531","0.0-7.0","","null","<div style=""font-size:100px;"">+</div>","null","delaylearn","learning","ITI","62cfee5a0c2e87501bfb10bc","WZfOmnJy0LdMpmCbDmykk1JyM5Q2","","","","","","","","","","","","","","","","","","","2279","",""
"html-keyboard-response","17","29385","0.0-8.0-0.0","","853.6999999284744","<div style=""display: flex; flex-direction: column; align-items: center; margin-top: -40px;""><img src=""images/demo_images/pattern_1.png"" style=""width: 234px; height: 230px; margin-top: -50px;""><div style=""display: flex; justify-content: space-between; margin-top: 33px;""><img src=""images/demo_images/choice_trial_1.png"" style=""width: 408px; height: 417px; margin-right: 200px;""><img src=""images/demo_images/choice_trial_2.png"" style=""width: 408px; height: 417px;""></div></div>","f","delaylearn","learning","trial","62cfee5a0c2e87501bfb10bc","WZfOmnJy0LdMpmCbDmykk1JyM5Q2","5","images/demo_images/choice_trial_1.png","images/demo_images/choice_trial_2.png","images/demo_images/pattern_1.png","f","f","3000","1","2","20","0","4","1","1","1","30","","","","",""
"html-keyboard-response","18","30399","0.0-8.0-1.0","","null","<div style=""display: flex; flex-direction: column; align-items: center; margin-top: -40px;""><img src=""images/demo_images/pattern_1.png"" style=""width: 234px; height: 230px; margin-top: -50px;""><div style=""display: flex; justify-content: space-between; margin-top: 33px;""><img src=""images/demo_images/choice_trial_1.png"" style=""width: 408px; height: 417px; margin-right: 608px;""></div></div>","null","delaylearn","learning","display_response","62cfee5a0c2e87501bfb10bc","WZfOmnJy0LdMpmCbDmykk1JyM5Q2","","","","","","","","","","","","","","","","","chosen stimuli: images/demo_images/choice_trial_1.png","","","",""
"html-keyboard-response","19","33405","0.0-8.0-2.0","","null","","null","delaylearn","learning","feedback_duration_window","62cfee5a0c2e87501bfb10bc","WZfOmnJy0LdMpmCbDmykk1JyM5Q2","","","","","","","","","","","","","","","","","","3000","","",""
"html-keyboard-response","20","34919","0.0-8.0-3.0","","null","<div style='margin:auto;width: auto; font-size: 150%'><span style='font-weight: bold; font-size: 100px; color: green;'>+10 points!</span><br><br></div>","null","delaylearn","learning","feedback_image_window","62cfee5a0c2e87501bfb10bc","WZfOmnJy0LdMpmCbDmykk1JyM5Q2","","","","","","","","","","","","","","","","","","","","",""
"html-keyboard-response","21","35429","0.0-9.0-0.0","","null","","null","","","mood_trial_fixation","","","","","","","","","","","","","","","","","","","","","","",""
"lmdlab-html-vas-response","22","41082","0.0-9.0-1.0","","4636","How happy are you right now?","0.6022617268380188","delaylearn","learning","mood_trial","62cfee5a0c2e87501bfb10bc","WZfOmnJy0LdMpmCbDmykk1JyM5Q2","","","","","","","","","","","","","","","","","","","","[""Very unhappy"",""Very happy""]",""
"html-keyboard-response","23","43354","0.0-10.0","","null","<div style=""font-size:100px;"">+</div>","null","delaylearn","learning","ITI","62cfee5a0c2e87501bfb10bc","WZfOmnJy0LdMpmCbDmykk1JyM5Q2","","","","","","","","","","","","","","","","","","","2265","",""
"html-keyboard-response","24","43884","0.0-11.0-0.0","","529","<div style=""display: flex; flex-direction: column; align-items: center; margin-top: -40px;""><img src=""images/demo_images/pattern_1.png"" style=""width: 234px; height: 230px; margin-top: -50px;""><div style=""display: flex; justify-content: space-between; margin-top: 33px;""><img src=""images/demo_images/choice_trial_2.png"" style=""width: 408px; height: 417px; margin-right: 200px;""><img src=""images/demo_images/choice_trial_1.png"" style=""width: 408px; height: 417px;""></div></div>","j","delaylearn","learning","trial","62cfee5a0c2e87501bfb10bc","WZfOmnJy0LdMpmCbDmykk1JyM5Q2","5","images/demo_images/choice_trial_2.png","images/demo_images/choice_trial_1.png","images/demo_images/pattern_1.png","j","j","3000","2","1","20","1","5","1","1","1","40","","","","",""
"html-keyboard-response","25","44896","0.0-11.0-1.0","","null","<div style=""display: flex; flex-direction: column; align-items: center; margin-top: -40px;""><img src=""images/demo_images/pattern_1.png"" style=""width: 234px; height: 230px; margin-top: -50px;""><div style=""display: flex; justify-content: space-between; margin-top: 33px;""><img src=""images/demo_images/choice_trial_1.png"" style=""width: 408px; height: 417px; margin-left:608px;""></div></div>","null","delaylearn","learning","display_response","62cfee5a0c2e87501bfb10bc","WZfOmnJy0LdMpmCbDmykk1JyM5Q2","","","","","","","","","","","","","","","","","chosen stimuli: images/demo_images/choice_trial_1.png","","","",""
"html-keyboard-response","26","47901","0.0-11.0-2.0","","null","","null","delaylearn","learning","feedback_duration_window","62cfee5a0c2e87501bfb10bc","WZfOmnJy0LdMpmCbDmykk1JyM5Q2","","","","","","","","","","","","","","","","","","3000","","",""
"html-keyboard-response","27","49404","0.0-11.0-3.0","","null","<div style='margin:auto;width: auto; font-size: 150%'><span style='font-weight: bold; font-size: 100px; color: green;'>+10 points!</span><br><br></div>","null","delaylearn","learning","feedback_image_window","62cfee5a0c2e87501bfb10bc","WZfOmnJy0LdMpmCbDmykk1JyM5Q2","","","","","","","","","","","","","","","","","","","","",""
"html-keyboard-response","28","51639","0.0-12.0","","null","<div style=""font-size:100px;"">+</div>","null","delaylearn","learning","ITI","62cfee5a0c2e87501bfb10bc","WZfOmnJy0LdMpmCbDmykk1JyM5Q2","","","","","","","","","","","","","","","","","","","2227","",""
"html-keyboard-response","29","52158","0.0-13.0-0.0","","517.7000000476837","<div style=""display: flex; flex-direction: column; align-items: center; margin-top: -40px;""><img src=""images/demo_images/pattern_1.png"" style=""width: 234px; height: 230px; margin-top: -50px;""><div style=""display: flex; justify-content: space-between; margin-top: 33px;""><img src=""images/demo_images/choice_trial_1.png"" style=""width: 408px; height: 417px; margin-right: 200px;""><img src=""images/demo_images/choice_trial_2.png"" style=""width: 408px; height: 417px;""></div></div>","f","delaylearn","learning","trial","62cfee5a0c2e87501bfb10bc","WZfOmnJy0LdMpmCbDmykk1JyM5Q2","5","images/demo_images/choice_trial_1.png","images/demo_images/choice_trial_2.png","images/demo_images/pattern_1.png","f","f","3000","1","2","20","0","6","1","1","1","50","","","","",""
"html-keyboard-response","30","53160","0.0-13.0-1.0","","null","<div style=""display: flex; flex-direction: column; align-items: center; margin-top: -40px;""><img src=""images/demo_images/pattern_1.png"" style=""width: 234px; height: 230px; margin-top: -50px;""><div style=""display: flex; justify-content: space-between; margin-top: 33px;""><img src=""images/demo_images/choice_trial_1.png"" style=""width: 408px; height: 417px; margin-right: 608px;""></div></div>","null","delaylearn","learning","display_response","62cfee5a0c2e87501bfb10bc","WZfOmnJy0LdMpmCbDmykk1JyM5Q2","","","","","","","","","","","","","","","","","chosen stimuli: images/demo_images/choice_trial_1.png","","","",""
"html-keyboard-response","31","56164","0.0-13.0-2.0","","null","","null","delaylearn","learning","feedback_duration_window","62cfee5a0c2e87501bfb10bc","WZfOmnJy0LdMpmCbDmykk1JyM5Q2","","","","","","","","","","","","","","","","","","3000","","",""
"html-keyboard-response","32","57679","0.0-13.0-3.0","","null","<div style='margin:auto;width: auto; font-size: 150%'><span style='font-weight: bold; font-size: 100px; color: green;'>+10 points!</span><br><br></div>","null","delaylearn","learning","feedback_image_window","62cfee5a0c2e87501bfb10bc","WZfOmnJy0LdMpmCbDmykk1JyM5Q2","","","","","","","","","","","","","","","","","","","","",""
"html-keyboard-response","33","59708","0.0-14.0","","null","<div style=""font-size:100px;"">+</div>","null","delaylearn","learning","ITI","62cfee5a0c2e87501bfb10bc","WZfOmnJy0LdMpmCbDmykk1JyM5Q2","","","","","","","","","","","","","","","","","","","2018","",""
"html-keyboard-response","34","60343","0.0-15.0-0.0","","634.1999999284744","<div style=""display: flex; flex-direction: column; align-items: center; margin-top: -40px;""><img src=""images/demo_images/pattern_1.png"" style=""width: 234px; height: 230px; margin-top: -50px;""><div style=""display: flex; justify-content: space-between; margin-top: 33px;""><img src=""images/demo_images/choice_trial_2.png"" style=""width: 408px; height: 417px; margin-right: 200px;""><img src=""images/demo_images/choice_trial_1.png"" style=""width: 408px; height: 417px;""></div></div>","j","delaylearn","learning","trial","62cfee5a0c2e87501bfb10bc","WZfOmnJy0LdMpmCbDmykk1JyM5Q2","5","images/demo_images/choice_trial_2.png","images/demo_images/choice_trial_1.png","images/demo_images/pattern_1.png","j","j","3000","2","1","20","1","7","1","1","1","60","","","","",""
"html-keyboard-response","35","61349","0.0-15.0-1.0","","null","<div style=""display: flex; flex-direction: column; align-items: center; margin-top: -40px;""><img src=""images/demo_images/pattern_1.png"" style=""width: 234px; height: 230px; margin-top: -50px;""><div style=""display: flex; justify-content: space-between; margin-top: 33px;""><img src=""images/demo_images/choice_trial_1.png"" style=""width: 408px; height: 417px; margin-left:608px;""></div></div>","null","delaylearn","learning","display_response","62cfee5a0c2e87501bfb10bc","WZfOmnJy0LdMpmCbDmykk1JyM5Q2","","","","","","","","","","","","","","","","","chosen stimuli: images/demo_images/choice_trial_1.png","","","",""
"html-keyboard-response","36","64355","0.0-15.0-2.0","","null","","null","delaylearn","learning","feedback_duration_window","62cfee5a0c2e87501bfb10bc","WZfOmnJy0LdMpmCbDmykk1JyM5Q2","","","","","","","","","","","","","","","","","","3000","","",""
"html-keyboard-response","37","65871","0.0-15.0-3.0","","null","<div style='margin:auto;width: auto; font-size: 150%'><span style='font-weight: bold; font-size: 100px; color: green;'>+10 points!</span><br><br></div>","null","delaylearn","learning","feedback_image_window","62cfee5a0c2e87501bfb10bc","WZfOmnJy0LdMpmCbDmykk1JyM5Q2","","","","","","","","","","","","","","","","","","","","",""
"html-keyboard-response","38","67800","0.0-16.0","","null","<div style=""font-size:100px;"">+</div>","null","delaylearn","learning","ITI","62cfee5a0c2e87501bfb10bc","WZfOmnJy0LdMpmCbDmykk1JyM5Q2","","","","","","","","","","","","","","","","","","","1919","",""
"html-keyboard-response","39","68472","0.0-17.0-0.0","","671.1000000238419","<div style=""display: flex; flex-direction: column; align-items: center; margin-top: -40px;""><img src=""images/demo_images/pattern_1.png"" style=""width: 234px; height: 230px; margin-top: -50px;""><div style=""display: flex; justify-content: space-between; margin-top: 33px;""><img src=""images/demo_images/choice_trial_1.png"" style=""width: 408px; height: 417px; margin-right: 200px;""><img src=""images/demo_images/choice_trial_2.png"" style=""width: 408px; height: 417px;""></div></div>","f","delaylearn","learning","trial","62cfee5a0c2e87501bfb10bc","WZfOmnJy0LdMpmCbDmykk1JyM5Q2","5","images/demo_images/choice_trial_1.png","images/demo_images/choice_trial_2.png","images/demo_images/pattern_1.png","f","f","3000","1","2","20","0","8","1","1","1","70","","","","",""
"html-keyboard-response","40","69488","0.0-17.0-1.0","","null","<div style=""display: flex; flex-direction: column; align-items: center; margin-top: -40px;""><img src=""images/demo_images/pattern_1.png"" style=""width: 234px; height: 230px; margin-top: -50px;""><div style=""display: flex; justify-content: space-between; margin-top: 33px;""><img src=""images/demo_images/choice_trial_1.png"" style=""width: 408px; height: 417px; margin-right: 608px;""></div></div>","null","delaylearn","learning","display_response","62cfee5a0c2e87501bfb10bc","WZfOmnJy0LdMpmCbDmykk1JyM5Q2","","","","","","","","","","","","","","","","","chosen stimuli: images/demo_images/choice_trial_1.png","","","",""
"html-keyboard-response","41","72501","0.0-17.0-2.0","","null","","null","delaylearn","learning","feedback_duration_window","62cfee5a0c2e87501bfb10bc","WZfOmnJy0LdMpmCbDmykk1JyM5Q2","","","","","","","","","","","","","","","","","","3000","","",""
"html-keyboard-response","42","74006","0.0-17.0-3.0","","null","<div style='margin:auto;width: auto; font-size: 150%'><span style='font-weight: bold; font-size: 100px; color: green;'>+10 points!</span><br><br></div>","null","delaylearn","learning","feedback_image_window","62cfee5a0c2e87501bfb10bc","WZfOmnJy0LdMpmCbDmykk1JyM5Q2","","","","","","","","","","","","","","","","","","","","",""
"html-button-response","43","77148","0.0-18.0","","3140.600000023842","
  <div style=""display: flex; align-items: center; justify-content: center; height: 80vh;"">
  <div>
          <img src=""images/inst_demo_finish.png"" style=""width: 80vw; height:auto;"">
          <br><br>
      </div>
      <br><br>
  </div>","0","","","","","","","","","","","","","","","","","","","","","","","","","",""
"html-keyboard-response","44","80947","0.0-19.0","","3798.3000000715256","
  <div style=""display: flex; align-items: center; justify-content: center; height: 80vh;"">
  <div>
          <img src=""images/inst_6.png"" style=""width: 80vw; height:auto;"">
          <br><br>
      </div>
      <br><br>
  </div>","j","","","","","","","","","","","","","","","","","","","","","","","","","",""
"html-keyboard-response","45","83958","0.0-20.0","","null","<div style=""font-size:100px;"">+</div>","null","delaylearn","learning","pre_fixation","62cfee5a0c2e87501bfb10bc","","","","","","","","","","","","","","","","","","","","","",""
"html-keyboard-response","46","85889","0.0-21.0","","null","<div style=""font-size:100px;"">+</div>","null","delaylearn","learning","ITI","62cfee5a0c2e87501bfb10bc","WZfOmnJy0LdMpmCbDmykk1JyM5Q2","","","","","","","","","","","","","","","","","","","1929","",""
"html-keyboard-response","47","87294","0.0-22.0-0.0","","1404","<div style=""display: flex; flex-direction: column; align-items: center; margin-top: -40px;""><img src=""images/pattern_3.png"" style=""width: 234px; height: 230px; margin-top: -50px;""><div style=""display: flex; justify-content: space-between; margin-top: 33px;""><img src=""images/choice_trial_16.png"" style=""width: 408px; height: 417px; margin-right: 200px;""><img src=""images/choice_trial_2.png"" style=""width: 408px; height: 417px;""></div></div>","f","delaylearn","learning","trial","62cfee5a0c2e87501bfb10bc","WZfOmnJy0LdMpmCbDmykk1JyM5Q2","5","images/choice_trial_16.png","images/choice_trial_2.png","images/pattern_3.png","f","f","7000","16","2","2","0","9","1","1","16","80","","","","",""
"html-keyboard-response","48","88298","0.0-22.0-1.0","","null","<div style=""display: flex; flex-direction: column; align-items: center; margin-top: -40px;""><img src=""images/pattern_3.png"" style=""width: 234px; height: 230px; margin-top: -50px;""><div style=""display: flex; justify-content: space-between; margin-top: 33px;""><img src=""images/choice_trial_16.png"" style=""width: 408px; height: 417px; margin-right: 608px;""></div></div>","null","delaylearn","learning","display_response","62cfee5a0c2e87501bfb10bc","WZfOmnJy0LdMpmCbDmykk1JyM5Q2","","","","","","","","","","","","","","","","","chosen stimuli: images/choice_trial_16.png","","","",""
"html-keyboard-response","49","95313","0.0-22.0-2.0","","null","","null","delaylearn","learning","feedback_duration_window","62cfee5a0c2e87501bfb10bc","WZfOmnJy0LdMpmCbDmykk1JyM5Q2","","","","","","","","","","","","","","","","","","7000","","",""
"html-keyboard-response","50","96827","0.0-22.0-3.0","","null","<div style='margin:auto;width: auto; font-size: 150%'><span style='font-weight: bold; font-size: 100px; color: green;'>+10 points!</span><br><br></div>","null","delaylearn","learning","feedback_image_window","62cfee5a0c2e87501bfb10bc","WZfOmnJy0LdMpmCbDmykk1JyM5Q2","","","","","","","","","","","","","","","","","","","","",""
"html-keyboard-response","51","98901","0.0-23.0","","null","<div style=""font-size:100px;"">+</div>","null","delaylearn","learning","ITI","62cfee5a0c2e87501bfb10bc","WZfOmnJy0LdMpmCbDmykk1JyM5Q2","","","","","","","","","","","","","","","","","","","2060","",""
"html-keyboard-response","52","101018","0.0-24.0-0.0","","2115.2999999523163","<div style=""display: flex; flex-direction: column; align-items: center; margin-top: -40px;""><img src=""images/pattern_7.png"" style=""width: 234px; height: 230px; margin-top: -50px;""><div style=""display: flex; justify-content: space-between; margin-top: 33px;""><img src=""images/choice_trial_10.png"" style=""width: 408px; height: 417px; margin-right: 200px;""><img src=""images/choice_trial_8.png"" style=""width: 408px; height: 417px;""></div></div>","j","delaylearn","learning","trial","62cfee5a0c2e87501bfb10bc","WZfOmnJy0LdMpmCbDmykk1JyM5Q2","5","images/choice_trial_10.png","images/choice_trial_8.png","images/pattern_7.png","j","j","750","10","8","6","1","10","1","1","8","90","","","","",""
"html-keyboard-response","53","102030","0.0-24.0-1.0","","null","<div style=""display: flex; flex-direction: column; align-items: center; margin-top: -40px;""><img src=""images/pattern_7.png"" style=""width: 234px; height: 230px; margin-top: -50px;""><div style=""display: flex; justify-content: space-between; margin-top: 33px;""><img src=""images/choice_trial_8.png"" style=""width: 408px; height: 417px; margin-left:608px;""></div></div>","null","delaylearn","learning","display_response","62cfee5a0c2e87501bfb10bc","WZfOmnJy0LdMpmCbDmykk1JyM5Q2","","","","","","","","","","","","","","","","","chosen stimuli: images/choice_trial_8.png","","","",""
"html-keyboard-response","54","102788","0.0-24.0-2.0","","null","","null","delaylearn","learning","feedback_duration_window","62cfee5a0c2e87501bfb10bc","WZfOmnJy0LdMpmCbDmykk1JyM5Q2","","","","","","","","","","","","","","","","","","750","","",""
"html-keyboard-response","55","104304","0.0-24.0-3.0","","null","<div style='margin:auto;width: auto; font-size: 150%'><span style='font-weight: bold; font-size: 100px; color: green;'>+10 points!</span><br><br></div>","null","delaylearn","learning","feedback_image_window","62cfee5a0c2e87501bfb10bc","WZfOmnJy0LdMpmCbDmykk1JyM5Q2","","","","","","","","","","","","","","","","","","","","",""
"html-keyboard-response","56","105962","0.0-25.0","","null","<div style=""font-size:100px;"">+</div>","null","delaylearn","learning","ITI","62cfee5a0c2e87501bfb10bc","WZfOmnJy0LdMpmCbDmykk1JyM5Q2","","","","","","","","","","","","","","","","","","","1647","",""
"html-keyboard-response","57","107453","0.0-26.0-0.0","","1490.0999999046326","<div style=""display: flex; flex-direction: column; align-items: center; margin-top: -40px;""><img src=""images/pattern_4.png"" style=""width: 234px; height: 230px; margin-top: -50px;""><div style=""display: flex; justify-content: space-between; margin-top: 33px;""><img src=""images/choice_trial_11.png"" style=""width: 408px; height: 417px; margin-right: 200px;""><img src=""images/choice_trial_4.png"" style=""width: 408px; height: 417px;""></div></div>","j","delaylearn","learning","trial","62cfee5a0c2e87501bfb10bc","WZfOmnJy0LdMpmCbDmykk1JyM5Q2","5","images/choice_trial_11.png","images/choice_trial_4.png","images/pattern_4.png","f","f","7000","11","4","3","0","11","0","0","4","90","","","","",""
"html-keyboard-response","58","108469","0.0-26.0-1.0","","null","<div style=""display: flex; flex-direction: column; align-items: center; margin-top: -40px;""><img src=""images/pattern_4.png"" style=""width: 234px; height: 230px; margin-top: -50px;""><div style=""display: flex; justify-content: space-between; margin-top: 33px;""><img src=""images/choice_trial_4.png"" style=""width: 408px; height: 417px; margin-left:608px;""></div></div>","null","delaylearn","learning","display_response","62cfee5a0c2e87501bfb10bc","WZfOmnJy0LdMpmCbDmykk1JyM5Q2","","","","","","","","","","","","","","","","","chosen stimuli: images/choice_trial_4.png","","","",""
"html-keyboard-response","59","115485","0.0-26.0-2.0","","null","","null","delaylearn","learning","feedback_duration_window","62cfee5a0c2e87501bfb10bc","WZfOmnJy0LdMpmCbDmykk1JyM5Q2","","","","","","","","","","","","","","","","","","7000","","",""
"html-keyboard-response","60","116991","0.0-26.0-3.0","","null","<div style='margin:auto;width: auto; font-size: 150%'><span style='font-weight: bold; font-size: 100px; color: red;'>0 points!</span><br><br></div>","null","delaylearn","learning","feedback_image_window","62cfee5a0c2e87501bfb10bc","WZfOmnJy0LdMpmCbDmykk1JyM5Q2","","","","","","","","","","","","","","","","","","","","",""
"html-keyboard-response","61","119309","0.0-27.0","","null","<div style=""font-size:100px;"">+</div>","null","delaylearn","learning","ITI","62cfee5a0c2e87501bfb10bc","WZfOmnJy0LdMpmCbDmykk1JyM5Q2","","","","","","","","","","","","","","","","","","","2306","",""
"html-keyboard-response","62","121067","0.0-28.0-0.0","","1756.2000000476837","<div style=""display: flex; flex-direction: column; align-items: center; margin-top: -40px;""><img src=""images/pattern_5.png"" style=""width: 234px; height: 230px; margin-top: -50px;""><div style=""display: flex; justify-content: space-between; margin-top: 33px;""><img src=""images/choice_trial_13.png"" style=""width: 408px; height: 417px; margin-right: 200px;""><img src=""images/choice_trial_7.png"" style=""width: 408px; height: 417px;""></div></div>","f","delaylearn","learning","trial","62cfee5a0c2e87501bfb10bc","WZfOmnJy0LdMpmCbDmykk1JyM5Q2","5","images/choice_trial_13.png","images/choice_trial_7.png","images/pattern_5.png","j","j","750","13","7","4","1","12","0","0","13","90","","","","",""
"html-keyboard-response","63","122078","0.0-28.0-1.0","","null","<div style=""display: flex; flex-direction: column; align-items: center; margin-top: -40px;""><img src=""images/pattern_5.png"" style=""width: 234px; height: 230px; margin-top: -50px;""><div style=""display: flex; justify-content: space-between; margin-top: 33px;""><img src=""images/choice_trial_13.png"" style=""width: 408px; height: 417px; margin-right: 608px;""></div></div>","null","delaylearn","learning","display_response","62cfee5a0c2e87501bfb10bc","WZfOmnJy0LdMpmCbDmykk1JyM5Q2","","","","","","","","","","","","","","","","","chosen stimuli: images/choice_trial_13.png","","","",""
"html-keyboard-response","64","122835","0.0-28.0-2.0","","null","","null","delaylearn","learning","feedback_duration_window","62cfee5a0c2e87501bfb10bc","WZfOmnJy0LdMpmCbDmykk1JyM5Q2","","","","","","","","","","","","","","","","","","750","","",""
"html-keyboard-response","65","124350","0.0-28.0-3.0","","null","<div style='margin:auto;width: auto; font-size: 150%'><span style='font-weight: bold; font-size: 100px; color: red;'>0 points!</span><br><br></div>","null","delaylearn","learning","feedback_image_window","62cfee5a0c2e87501bfb10bc","WZfOmnJy0LdMpmCbDmykk1JyM5Q2","","","","","","","","","","","","","","","","","","","","",""
"html-keyboard-response","66","126460","0.0-29.0","","null","<div style=""font-size:100px;"">+</div>","null","delaylearn","learning","ITI","62cfee5a0c2e87501bfb10bc","WZfOmnJy0LdMpmCbDmykk1JyM5Q2","","","","","","","","","","","","","","","","","","","2106","",""
"html-keyboard-response","67","128182","0.0-30.0-0.0","","1721","<div style=""display: flex; flex-direction: column; align-items: center; margin-top: -40px;""><img src=""images/pattern_6.png"" style=""width: 234px; height: 230px; margin-top: -50px;""><div style=""display: flex; justify-content: space-between; margin-top: 33px;""><img src=""images/choice_trial_14.png"" style=""width: 408px; height: 417px; margin-right: 200px;""><img src=""images/choice_trial_9.png"" style=""width: 408px; height: 417px;""></div></div>","j","delaylearn","learning","trial","62cfee5a0c2e87501bfb10bc","WZfOmnJy0LdMpmCbDmykk1JyM5Q2","5","images/choice_trial_14.png","images/choice_trial_9.png","images/pattern_6.png","j","f","750","14","9","5","0","13","0","1","9","100","","","","",""
"html-keyboard-response","68","129199","0.0-30.0-1.0","","null","<div style=""display: flex; flex-direction: column; align-items: center; margin-top: -40px;""><img src=""images/pattern_6.png"" style=""width: 234px; height: 230px; margin-top: -50px;""><div style=""display: flex; justify-content: space-between; margin-top: 33px;""><img src=""images/choice_trial_9.png"" style=""width: 408px; height: 417px; margin-left:608px;""></div></div>","null","delaylearn","learning","display_response","62cfee5a0c2e87501bfb10bc","WZfOmnJy0LdMpmCbDmykk1JyM5Q2","","","","","","","","","","","","","","","","","chosen stimuli: images/choice_trial_9.png","","","",""
"html-keyboard-response","69","129960","0.0-30.0-2.0","","null","","null","delaylearn","learning","feedback_duration_window","62cfee5a0c2e87501bfb10bc","WZfOmnJy0LdMpmCbDmykk1JyM5Q2","","","","","","","","","","","","","","","","","","750","","",""
"html-keyboard-response","70","131475","0.0-30.0-3.0","","null","<div style='margin:auto;width: auto; font-size: 150%'><span style='font-weight: bold; font-size: 100px; color: green;'>+10 points!</span><br><br></div>","null","delaylearn","learning","feedback_image_window","62cfee5a0c2e87501bfb10bc","WZfOmnJy0LdMpmCbDmykk1JyM5Q2","","","","","","","","","","","","","","","","","","","","",""
"html-keyboard-response","71","131985","0.0-31.0-0.0","","null","","null","","","mood_trial_fixation","","","","","","","","","","","","","","","","","","","","","","",""
"lmdlab-html-vas-response","72","135781","0.0-31.0-1.0","","2787","How happy are you right now?","0.71221542536345","delaylearn","learning","mood_trial","62cfee5a0c2e87501bfb10bc","WZfOmnJy0LdMpmCbDmykk1JyM5Q2","","","","","","","","","","","","","","","","","","","","[""Very unhappy"",""Very happy""]",""
"html-keyboard-response","73","137494","0.0-32.0","","null","<div style=""font-size:100px;"">+</div>","null","delaylearn","learning","ITI","62cfee5a0c2e87501bfb10bc","WZfOmnJy0LdMpmCbDmykk1JyM5Q2","","","","","","","","","","","","","","","","","","","1712","",""
"html-keyboard-response","74","138839","0.0-33.0-0.0","","1343.7000000476837","<div style=""display: flex; flex-direction: column; align-items: center; margin-top: -40px;""><img src=""images/pattern_1.png"" style=""width: 234px; height: 230px; margin-top: -50px;""><div style=""display: flex; justify-content: space-between; margin-top: 33px;""><img src=""images/choice_trial_15.png"" style=""width: 408px; height: 417px; margin-right: 200px;""><img src=""images/choice_trial_6.png"" style=""width: 408px; height: 417px;""></div></div>","f","delaylearn","learning","trial","62cfee5a0c2e87501bfb10bc","WZfOmnJy0LdMpmCbDmykk1JyM5Q2","5","images/choice_trial_15.png","images/choice_trial_6.png","images/pattern_1.png","j","j","7000","15","6","1","1","14","0","0","15","100","","","","",""
"html-keyboard-response","75","139849","0.0-33.0-1.0","","null","<div style=""display: flex; flex-direction: column; align-items: center; margin-top: -40px;""><img src=""images/pattern_1.png"" style=""width: 234px; height: 230px; margin-top: -50px;""><div style=""display: flex; justify-content: space-between; margin-top: 33px;""><img src=""images/choice_trial_15.png"" style=""width: 408px; height: 417px; margin-right: 608px;""></div></div>","null","delaylearn","learning","display_response","62cfee5a0c2e87501bfb10bc","WZfOmnJy0LdMpmCbDmykk1JyM5Q2","","","","","","","","","","","","","","","","","chosen stimuli: images/choice_trial_15.png","","","",""
"html-keyboard-response","76","146853","0.0-33.0-2.0","","null","","null","delaylearn","learning","feedback_duration_window","62cfee5a0c2e87501bfb10bc","WZfOmnJy0LdMpmCbDmykk1JyM5Q2","","","","","","","","","","","","","","","","","","7000","","",""
"html-keyboard-response","77","148366","0.0-33.0-3.0","","null","<div style='margin:auto;width: auto; font-size: 150%'><span style='font-weight: bold; font-size: 100px; color: red;'>0 points!</span><br><br></div>","null","delaylearn","learning","feedback_image_window","62cfee5a0c2e87501bfb10bc","WZfOmnJy0LdMpmCbDmykk1JyM5Q2","","","","","","","","","","","","","","","","","","","","",""
"html-keyboard-response","78","150514","0.0-34.0","","null","<div style=""font-size:100px;"">+</div>","null","delaylearn","learning","ITI","62cfee5a0c2e87501bfb10bc","WZfOmnJy0LdMpmCbDmykk1JyM5Q2","","","","","","","","","","","","","","","","","","","2140","",""
"html-keyboard-response","79","151714","0.0-35.0-0.0","","1199.3000000715256","<div style=""display: flex; flex-direction: column; align-items: center; margin-top: -40px;""><img src=""images/pattern_3.png"" style=""width: 234px; height: 230px; margin-top: -50px;""><div style=""display: flex; justify-content: space-between; margin-top: 33px;""><img src=""images/choice_trial_2.png"" style=""width: 408px; height: 417px; margin-right: 200px;""><img src=""images/choice_trial_16.png"" style=""width: 408px; height: 417px;""></div></div>","j","delaylearn","learning","trial","62cfee5a0c2e87501bfb10bc","WZfOmnJy0LdMpmCbDmykk1JyM5Q2","5","images/choice_trial_2.png","images/choice_trial_16.png","images/pattern_3.png","f","j","7000","2","16","2","1","15","1","0","16","100","","","","",""
"html-keyboard-response","80","152727","0.0-35.0-1.0","","null","<div style=""display: flex; flex-direction: column; align-items: center; margin-top: -40px;""><img src=""images/pattern_3.png"" style=""width: 234px; height: 230px; margin-top: -50px;""><div style=""display: flex; justify-content: space-between; margin-top: 33px;""><img src=""images/choice_trial_16.png"" style=""width: 408px; height: 417px; margin-left:608px;""></div></div>","null","delaylearn","learning","display_response","62cfee5a0c2e87501bfb10bc","WZfOmnJy0LdMpmCbDmykk1JyM5Q2","","","","","","","","","","","","","","","","","chosen stimuli: images/choice_trial_16.png","","","",""
"html-keyboard-response","81","159735","0.0-35.0-2.0","","null","","null","delaylearn","learning","feedback_duration_window","62cfee5a0c2e87501bfb10bc","WZfOmnJy0LdMpmCbDmykk1JyM5Q2","","","","","","","","","","","","","","","","","","7000","","",""
"html-keyboard-response","82","161248","0.0-35.0-3.0","","null","<div style='margin:auto;width: auto; font-size: 150%'><span style='font-weight: bold; font-size: 100px; color: red;'>0 points!</span><br><br></div>","null","delaylearn","learning","feedback_image_window","62cfee5a0c2e87501bfb10bc","WZfOmnJy0LdMpmCbDmykk1JyM5Q2","","","","","","","","","","","","","","","","","","","","",""
"html-keyboard-response","83","163043","0.0-36.0","","null","<div style=""font-size:100px;"">+</div>","null","delaylearn","learning","ITI","62cfee5a0c2e87501bfb10bc","WZfOmnJy0LdMpmCbDmykk1JyM5Q2","","","","","","","","","","","","","","","","","","","1791","",""
"html-keyboard-response","84","164371","0.0-37.0-0.0","","1327","<div style=""display: flex; flex-direction: column; align-items: center; margin-top: -40px;""><img src=""images/pattern_5.png"" style=""width: 234px; height: 230px; margin-top: -50px;""><div style=""display: flex; justify-content: space-between; margin-top: 33px;""><img src=""images/choice_trial_7.png"" style=""width: 408px; height: 417px; margin-right: 200px;""><img src=""images/choice_trial_13.png"" style=""width: 408px; height: 417px;""></div></div>","j","delaylearn","learning","trial","62cfee5a0c2e87501bfb10bc","WZfOmnJy0LdMpmCbDmykk1JyM5Q2","5","images/choice_trial_7.png","images/choice_trial_13.png","images/pattern_5.png","f","f","750","7","13","4","0","16","0","0","13","100","","","","",""
"html-keyboard-response","85","165381","0.0-37.0-1.0","","null","<div style=""display: flex; flex-direction: column; align-items: center; margin-top: -40px;""><img src=""images/pattern_5.png"" style=""width: 234px; height: 230px; margin-top: -50px;""><div style=""display: flex; justify-content: space-between; margin-top: 33px;""><img src=""images/choice_trial_13.png"" style=""width: 408px; height: 417px; margin-left:608px;""></div></div>","null","delaylearn","learning","display_response","62cfee5a0c2e87501bfb10bc","WZfOmnJy0LdMpmCbDmykk1JyM5Q2","","","","","","","","","","","","","","","","","chosen stimuli: images/choice_trial_13.png","","","",""
"html-keyboard-response","86","166142","0.0-37.0-2.0","","null","","null","delaylearn","learning","feedback_duration_window","62cfee5a0c2e87501bfb10bc","WZfOmnJy0LdMpmCbDmykk1JyM5Q2","","","","","","","","","","","","","","","","","","750","","",""
"html-keyboard-response","87","167657","0.0-37.0-3.0","","null","<div style='margin:auto;width: auto; font-size: 150%'><span style='font-weight: bold; font-size: 100px; color: red;'>0 points!</span><br><br></div>","null","delaylearn","learning","feedback_image_window","62cfee5a0c2e87501bfb10bc","WZfOmnJy0LdMpmCbDmykk1JyM5Q2","","","","","","","","","","","","","","","","","","","","",""
"html-keyboard-response","88","168166","0.0-38.0-0.0","","null","","null","","","mood_trial_fixation","","","","","","","","","","","","","","","","","","","","","","",""
"lmdlab-html-vas-response","89","172533","0.0-38.0-1.0","","3358","How happy are you right now?","0.3823543297871564","delaylearn","learning","mood_trial","62cfee5a0c2e87501bfb10bc","WZfOmnJy0LdMpmCbDmykk1JyM5Q2","","","","","","","","","","","","","","","","","","","","[""Very unhappy"",""Very happy""]",""
"html-keyboard-response","90","174142","0.0-39.0","","null","<div style=""font-size:100px;"">+</div>","null","delaylearn","learning","ITI","62cfee5a0c2e87501bfb10bc","WZfOmnJy0LdMpmCbDmykk1JyM5Q2","","","","","","","","","","","","","","","","","","","1603","",""
"html-keyboard-response","91","176464","0.0-40.0-0.0","","2321.2999999523163","<div style=""display: flex; flex-direction: column; align-items: center; margin-top: -40px;""><img src=""images/pattern_6.png"" style=""width: 234px; height: 230px; margin-top: -50px;""><div style=""display: flex; justify-content: space-between; margin-top: 33px;""><img src=""images/choice_trial_14.png"" style=""width: 408px; height: 417px; margin-right: 200px;""><img src=""images/choice_trial_9.png"" style=""width: 408px; height: 417px;""></div></div>","f","delaylearn","learning","trial","62cfee5a0c2e87501bfb10bc","WZfOmnJy0LdMpmCbDmykk1JyM5Q2","5","images/choice_trial_14.png","images/choice_trial_9.png","images/pattern_6.png","f","f","750","14","9","5","0","17","1","1","14","110","","","","",""
"html-keyboard-response","92","177473","0.0-40.0-1.0","","null","<div style=""display: flex; flex-direction: column; align-items: center; margin-top: -40px;""><img src=""images/pattern_6.png"" style=""width: 234px; height: 230px; margin-top: -50px;""><div style=""display: flex; justify-content: space-between; margin-top: 33px;""><img src=""images/choice_trial_14.png"" style=""width: 408px; height: 417px; margin-right: 608px;""></div></div>","null","delaylearn","learning","display_response","62cfee5a0c2e87501bfb10bc","WZfOmnJy0LdMpmCbDmykk1JyM5Q2","","","","","","","","","","","","","","","","","chosen stimuli: images/choice_trial_14.png","","","",""
"html-keyboard-response","93","178233","0.0-40.0-2.0","","null","","null","delaylearn","learning","feedback_duration_window","62cfee5a0c2e87501bfb10bc","WZfOmnJy0LdMpmCbDmykk1JyM5Q2","","","","","","","","","","","","","","","","","","750","","",""
"html-keyboard-response","94","179748","0.0-40.0-3.0","","null","<div style='margin:auto;width: auto; font-size: 150%'><span style='font-weight: bold; font-size: 100px; color: green;'>+10 points!</span><br><br></div>","null","delaylearn","learning","feedback_image_window","62cfee5a0c2e87501bfb10bc","WZfOmnJy0LdMpmCbDmykk1JyM5Q2","","","","","","","","","","","","","","","","","","","","",""
"html-keyboard-response","95","181283","0.0-41.0","","null","<div style=""font-size:100px;"">+</div>","null","delaylearn","learning","ITI","62cfee5a0c2e87501bfb10bc","WZfOmnJy0LdMpmCbDmykk1JyM5Q2","","","","","","","","","","","","","","","","","","","1532","",""
"html-keyboard-response","96","182601","0.0-42.0-0.0","","1317","<div style=""display: flex; flex-direction: column; align-items: center; margin-top: -40px;""><img src=""images/pattern_4.png"" style=""width: 234px; height: 230px; margin-top: -50px;""><div style=""display: flex; justify-content: space-between; margin-top: 33px;""><img src=""images/choice_trial_4.png"" style=""width: 408px; height: 417px; margin-right: 200px;""><img src=""images/choice_trial_11.png"" style=""width: 408px; height: 417px;""></div></div>","j","delaylearn","learning","trial","62cfee5a0c2e87501bfb10bc","WZfOmnJy0LdMpmCbDmykk1JyM5Q2","5","images/choice_trial_4.png","images/choice_trial_11.png","images/pattern_4.png","j","j","7000","4","11","3","1","18","1","1","11","120","","","","",""
"html-keyboard-response","97","183603","0.0-42.0-1.0","","null","<div style=""display: flex; flex-direction: column; align-items: center; margin-top: -40px;""><img src=""images/pattern_4.png"" style=""width: 234px; height: 230px; margin-top: -50px;""><div style=""display: flex; justify-content: space-between; margin-top: 33px;""><img src=""images/choice_trial_11.png"" style=""width: 408px; height: 417px; margin-left:608px;""></div></div>","null","delaylearn","learning","display_response","62cfee5a0c2e87501bfb10bc","WZfOmnJy0LdMpmCbDmykk1JyM5Q2","","","","","","","","","","","","","","","","","chosen stimuli: images/choice_trial_11.png","","","",""
"html-keyboard-response","98","190618","0.0-42.0-2.0","","null","","null","delaylearn","learning","feedback_duration_window","62cfee5a0c2e87501bfb10bc","WZfOmnJy0LdMpmCbDmykk1JyM5Q2","","","","","","","","","","","","","","","","","","7000","","",""
"html-keyboard-response","99","192123","0.0-42.0-3.0","","null","<div style='margin:auto;width: auto; font-size: 150%'><span style='font-weight: bold; font-size: 100px; color: green;'>+10 points!</span><br><br></div>","null","delaylearn","learning","feedback_image_window","62cfee5a0c2e87501bfb10bc","WZfOmnJy0LdMpmCbDmykk1JyM5Q2","","","","","","","","","","","","","","","","","","","","",""
"html-keyboard-response","100","193814","0.0-43.0","","null","<div style=""font-size:100px;"">+</div>","null","delaylearn","learning","ITI","62cfee5a0c2e87501bfb10bc","WZfOmnJy0LdMpmCbDmykk1JyM5Q2","","","","","","","","","","","","","","","","","","","1680","",""
"html-keyboard-response","101","196309","0.0-44.0-0.0","","2493.7999999523163","<div style=""display: flex; flex-direction: column; align-items: center; margin-top: -40px;""><img src=""images/pattern_7.png"" style=""width: 234px; height: 230px; margin-top: -50px;""><div style=""display: flex; justify-content: space-between; margin-top: 33px;""><img src=""images/choice_trial_8.png"" style=""width: 408px; height: 417px; margin-right: 200px;""><img src=""images/choice_trial_10.png"" style=""width: 408px; height: 417px;""></div></div>","j","delaylearn","learning","trial","62cfee5a0c2e87501bfb10bc","WZfOmnJy0LdMpmCbDmykk1JyM5Q2","5","images/choice_trial_8.png","images/choice_trial_10.png","images/pattern_7.png","j","f","750","8","10","6","0","19","0","1","10","130","","","","",""
"html-keyboard-response","102","197313","0.0-44.0-1.0","","null","<div style=""display: flex; flex-direction: column; align-items: center; margin-top: -40px;""><img src=""images/pattern_7.png"" style=""width: 234px; height: 230px; margin-top: -50px;""><div style=""display: flex; justify-content: space-between; margin-top: 33px;""><img src=""images/choice_trial_10.png"" style=""width: 408px; height: 417px; margin-left:608px;""></div></div>","null","delaylearn","learning","display_response","62cfee5a0c2e87501bfb10bc","WZfOmnJy0LdMpmCbDmykk1JyM5Q2","","","","","","","","","","","","","","","","","chosen stimuli: images/choice_trial_10.png","","","",""
"html-keyboard-response","103","198073","0.0-44.0-2.0","","null","","null","delaylearn","learning","feedback_duration_window","62cfee5a0c2e87501bfb10bc","WZfOmnJy0LdMpmCbDmykk1JyM5Q2","","","","","","","","","","","","","","","","","","750","","",""
"html-keyboard-response","104","199590","0.0-44.0-3.0","","null","<div style='margin:auto;width: auto; font-size: 150%'><span style='font-weight: bold; font-size: 100px; color: green;'>+10 points!</span><br><br></div>","null","delaylearn","learning","feedback_image_window","62cfee5a0c2e87501bfb10bc","WZfOmnJy0LdMpmCbDmykk1JyM5Q2","","","","","","","","","","","","","","","","","","","","",""
"html-keyboard-response","105","201757","0.0-45.0","","null","<div style=""font-size:100px;"">+</div>","null","delaylearn","learning","ITI","62cfee5a0c2e87501bfb10bc","WZfOmnJy0LdMpmCbDmykk1JyM5Q2","","","","","","","","","","","","","","","","","","","2154","",""
"html-keyboard-response","106","203610","0.0-46.0-0.0","","1852.1999999284744","<div style=""display: flex; flex-direction: column; align-items: center; margin-top: -40px;""><img src=""images/pattern_1.png"" style=""width: 234px; height: 230px; margin-top: -50px;""><div style=""display: flex; justify-content: space-between; margin-top: 33px;""><img src=""images/choice_trial_6.png"" style=""width: 408px; height: 417px; margin-right: 200px;""><img src=""images/choice_trial_15.png"" style=""width: 408px; height: 417px;""></div></div>","f","delaylearn","learning","trial","62cfee5a0c2e87501bfb10bc","WZfOmnJy0LdMpmCbDmykk1JyM5Q2","5","images/choice_trial_6.png","images/choice_trial_15.png","images/pattern_1.png","f","f","7000","6","15","1","0","20","1","1","6","140","","","","",""
"html-keyboard-response","107","204618","0.0-46.0-1.0","","null","<div style=""display: flex; flex-direction: column; align-items: center; margin-top: -40px;""><img src=""images/pattern_1.png"" style=""width: 234px; height: 230px; margin-top: -50px;""><div style=""display: flex; justify-content: space-between; margin-top: 33px;""><img src=""images/choice_trial_6.png"" style=""width: 408px; height: 417px; margin-right: 608px;""></div></div>","null","delaylearn","learning","display_response","62cfee5a0c2e87501bfb10bc","WZfOmnJy0LdMpmCbDmykk1JyM5Q2","","","","","","","","","","","","","","","","","chosen stimuli: images/choice_trial_6.png","","","",""
"html-keyboard-response","108","211631","0.0-46.0-2.0","","null","","null","delaylearn","learning","feedback_duration_window","62cfee5a0c2e87501bfb10bc","WZfOmnJy0LdMpmCbDmykk1JyM5Q2","","","","","","","","","","","","","","","","","","7000","","",""
"html-keyboard-response","109","213135","0.0-46.0-3.0","","null","<div style='margin:auto;width: auto; font-size: 150%'><span style='font-weight: bold; font-size: 100px; color: green;'>+10 points!</span><br><br></div>","null","delaylearn","learning","feedback_image_window","62cfee5a0c2e87501bfb10bc","WZfOmnJy0LdMpmCbDmykk1JyM5Q2","","","","","","","","","","","","","","","","","","","","",""
"html-keyboard-response","110","215456","0.0-47.0","","null","<div style=""font-size:100px;"">+</div>","null","delaylearn","learning","ITI","62cfee5a0c2e87501bfb10bc","WZfOmnJy0LdMpmCbDmykk1JyM5Q2","","","","","","","","","","","","","","","","","","","2315","",""
"html-keyboard-response","111","217568","0.0-48.0-0.0","","2110.600000023842","<div style=""display: flex; flex-direction: column; align-items: center; margin-top: -40px;""><img src=""images/pattern_6.png"" style=""width: 234px; height: 230px; margin-top: -50px;""><div style=""display: flex; justify-content: space-between; margin-top: 33px;""><img src=""images/choice_trial_9.png"" style=""width: 408px; height: 417px; margin-right: 200px;""><img src=""images/choice_trial_14.png"" style=""width: 408px; height: 417px;""></div></div>","j","delaylearn","learning","trial","62cfee5a0c2e87501bfb10bc","WZfOmnJy0LdMpmCbDmykk1JyM5Q2","5","images/choice_trial_9.png","images/choice_trial_14.png","images/pattern_6.png","j","j","750","9","14","5","1","21","1","1","14","150","","","","",""
"html-keyboard-response","112","218571","0.0-48.0-1.0","","null","<div style=""display: flex; flex-direction: column; align-items: center; margin-top: -40px;""><img src=""images/pattern_6.png"" style=""width: 234px; height: 230px; margin-top: -50px;""><div style=""display: flex; justify-content: space-between; margin-top: 33px;""><img src=""images/choice_trial_14.png"" style=""width: 408px; height: 417px; margin-left:608px;""></div></div>","null","delaylearn","learning","display_response","62cfee5a0c2e87501bfb10bc","WZfOmnJy0LdMpmCbDmykk1JyM5Q2","","","","","","","","","","","","","","","","","chosen stimuli: images/choice_trial_14.png","","","",""
"html-keyboard-response","113","219330","0.0-48.0-2.0","","null","","null","delaylearn","learning","feedback_duration_window","62cfee5a0c2e87501bfb10bc","WZfOmnJy0LdMpmCbDmykk1JyM5Q2","","","","","","","","","","","","","","","","","","750","","",""
"html-keyboard-response","114","220844","0.0-48.0-3.0","","null","<div style='margin:auto;width: auto; font-size: 150%'><span style='font-weight: bold; font-size: 100px; color: green;'>+10 points!</span><br><br></div>","null","delaylearn","learning","feedback_image_window","62cfee5a0c2e87501bfb10bc","WZfOmnJy0LdMpmCbDmykk1JyM5Q2","","","","","","","","","","","","","","","","","","","","",""
"html-keyboard-response","115","222619","0.0-49.0","","null","<div style=""font-size:100px;"">+</div>","null","delaylearn","learning","ITI","62cfee5a0c2e87501bfb10bc","WZfOmnJy0LdMpmCbDmykk1JyM5Q2","","","","","","","","","","","","","","","","","","","1773","",""
"html-keyboard-response","116","223771","0.0-50.0-0.0","","1150.8999999761581","<div style=""display: flex; flex-direction: column; align-items: center; margin-top: -40px;""><img src=""images/pattern_4.png"" style=""width: 234px; height: 230px; margin-top: -50px;""><div style=""display: flex; justify-content: space-between; margin-top: 33px;""><img src=""images/choice_trial_11.png"" style=""width: 408px; height: 417px; margin-right: 200px;""><img src=""images/choice_trial_4.png"" style=""width: 408px; height: 417px;""></div></div>","f","delaylearn","learning","trial","62cfee5a0c2e87501bfb10bc","WZfOmnJy0LdMpmCbDmykk1JyM5Q2","5","images/choice_trial_11.png","images/choice_trial_4.png","images/pattern_4.png","f","f","7000","11","4","3","0","22","1","1","11","160","","","","",""
"html-keyboard-response","117","224774","0.0-50.0-1.0","","null","<div style=""display: flex; flex-direction: column; align-items: center; margin-top: -40px;""><img src=""images/pattern_4.png"" style=""width: 234px; height: 230px; margin-top: -50px;""><div style=""display: flex; justify-content: space-between; margin-top: 33px;""><img src=""images/choice_trial_11.png"" style=""width: 408px; height: 417px; margin-right: 608px;""></div></div>","null","delaylearn","learning","display_response","62cfee5a0c2e87501bfb10bc","WZfOmnJy0LdMpmCbDmykk1JyM5Q2","","","","","","","","","","","","","","","","","chosen stimuli: images/choice_trial_11.png","","","",""
"html-keyboard-response","118","231783","0.0-50.0-2.0","","null","","null","delaylearn","learning","feedback_duration_window","62cfee5a0c2e87501bfb10bc","WZfOmnJy0LdMpmCbDmykk1JyM5Q2","","","","","","","","","","","","","","","","","","7000","","",""
"html-keyboard-response","119","233284","0.0-50.0-3.0","","null","<div style='margin:auto;width: auto; font-size: 150%'><span style='font-weight: bold; font-size: 100px; color: green;'>+10 points!</span><br><br></div>","null","delaylearn","learning","feedback_image_window","62cfee5a0c2e87501bfb10bc","WZfOmnJy0LdMpmCbDmykk1JyM5Q2","","","","","","","","","","","","","","","","","","","","",""
"html-keyboard-response","120","233794","0.0-51.0-0.0","","null","","null","","","mood_trial_fixation","","","","","","","","","","","","","","","","","","","","","","",""
"lmdlab-html-vas-response","121","238077","0.0-51.0-1.0","","3278","How happy are you right now?","0.6311969106605007","delaylearn","learning","mood_trial","62cfee5a0c2e87501bfb10bc","WZfOmnJy0LdMpmCbDmykk1JyM5Q2","","","","","","","","","","","","","","","","","","","","[""Very unhappy"",""Very happy""]",""
"html-keyboard-response","122","239608","0.0-52.0","","null","<div style=""font-size:100px;"">+</div>","null","delaylearn","learning","ITI","62cfee5a0c2e87501bfb10bc","WZfOmnJy0LdMpmCbDmykk1JyM5Q2","","","","","","","","","","","","","","","","","","","1521","",""
"html-keyboard-response","123","240843","0.0-53.0-0.0","","1233.7999999523163","<div style=""display: flex; flex-direction: column; align-items: center; margin-top: -40px;""><img src=""images/pattern_7.png"" style=""width: 234px; height: 230px; margin-top: -50px;""><div style=""display: flex; justify-content: space-between; margin-top: 33px;""><img src=""images/choice_trial_10.png"" style=""width: 408px; height: 417px; margin-right: 200px;""><img src=""images/choice_trial_8.png"" style=""width: 408px; height: 417px;""></div></div>","f","delaylearn","learning","trial","62cfee5a0c2e87501bfb10bc","WZfOmnJy0LdMpmCbDmykk1JyM5Q2","5","images/choice_trial_10.png","images/choice_trial_8.png","images/pattern_7.png","j","j","750","10","8","6","1","23","0","0","10","160","","","","",""
"html-keyboard-response","124","241854","0.0-53.0-1.0","","null","<div style=""display: flex; flex-direction: column; align-items: center; margin-top: -40px;""><img src=""images/pattern_7.png"" style=""width: 234px; height: 230px; margin-top: -50px;""><div style=""display: flex; justify-content: space-between; margin-top: 33px;""><img src=""images/choice_trial_10.png"" style=""width: 408px; height: 417px; margin-right: 608px;""></div></div>","null","delaylearn","learning","display_response","62cfee5a0c2e87501bfb10bc","WZfOmnJy0LdMpmCbDmykk1JyM5Q2","","","","","","","","","","","","","","","","","chosen stimuli: images/choice_trial_10.png","","","",""
"html-keyboard-response","125","242615","0.0-53.0-2.0","","null","","null","delaylearn","learning","feedback_duration_window","62cfee5a0c2e87501bfb10bc","WZfOmnJy0LdMpmCbDmykk1JyM5Q2","","","","","","","","","","","","","","","","","","750","","",""
"html-keyboard-response","126","244131","0.0-53.0-3.0","","null","<div style='margin:auto;width: auto; font-size: 150%'><span style='font-weight: bold; font-size: 100px; color: red;'>0 points!</span><br><br></div>","null","delaylearn","learning","feedback_image_window","62cfee5a0c2e87501bfb10bc","WZfOmnJy0LdMpmCbDmykk1JyM5Q2","","","","","","","","","","","","","","","","","","","","",""
"html-keyboard-response","127","246115","0.0-54.0","","null","<div style=""font-size:100px;"">+</div>","null","delaylearn","learning","ITI","62cfee5a0c2e87501bfb10bc","WZfOmnJy0LdMpmCbDmykk1JyM5Q2","","","","","","","","","","","","","","","","","","","1971","",""
"html-keyboard-response","128","248154","0.0-55.0-0.0","","2037.6000000238419","<div style=""display: flex; flex-direction: column; align-items: center; margin-top: -40px;""><img src=""images/pattern_1.png"" style=""width: 234px; height: 230px; margin-top: -50px;""><div style=""display: flex; justify-content: space-between; margin-top: 33px;""><img src=""images/choice_trial_15.png"" style=""width: 408px; height: 417px; margin-right: 200px;""><img src=""images/choice_trial_6.png"" style=""width: 408px; height: 417px;""></div></div>","j","delaylearn","learning","trial","62cfee5a0c2e87501bfb10bc","WZfOmnJy0LdMpmCbDmykk1JyM5Q2","5","images/choice_trial_15.png","images/choice_trial_6.png","images/pattern_1.png","f","j","7000","15","6","1","1","24","1","0","6","160","","","","",""
"html-keyboard-response","129","249158","0.0-55.0-1.0","","null","<div style=""display: flex; flex-direction: column; align-items: center; margin-top: -40px;""><img src=""images/pattern_1.png"" style=""width: 234px; height: 230px; margin-top: -50px;""><div style=""display: flex; justify-content: space-between; margin-top: 33px;""><img src=""images/choice_trial_6.png"" style=""width: 408px; height: 417px; margin-left:608px;""></div></div>","null","delaylearn","learning","display_response","62cfee5a0c2e87501bfb10bc","WZfOmnJy0LdMpmCbDmykk1JyM5Q2","","","","","","","","","","","","","","","","","chosen stimuli: images/choice_trial_6.png","","","",""
"html-keyboard-response","130","256167","0.0-55.0-2.0","","null","","null","delaylearn","learning","feedback_duration_window","62cfee5a0c2e87501bfb10bc","WZfOmnJy0LdMpmCbDmykk1JyM5Q2","","","","","","","","","","","","","","","","","","7000","","",""
"html-keyboard-response","131","257682","0.0-55.0-3.0","","null","<div style='margin:auto;width: auto; font-size: 150%'><span style='font-weight: bold; font-size: 100px; color: red;'>0 points!</span><br><br></div>","null","delaylearn","learning","feedback_image_window","62cfee5a0c2e87501bfb10bc","WZfOmnJy0LdMpmCbDmykk1JyM5Q2","","","","","","","","","","","","","","","","","","","","",""
"html-keyboard-response","132","260051","0.0-56.0","","null","<div style=""font-size:100px;"">+</div>","null","delaylearn","learning","ITI","62cfee5a0c2e87501bfb10bc","WZfOmnJy0LdMpmCbDmykk1JyM5Q2","","","","","","","","","","","","","","","","","","","2358","",""
"html-keyboard-response","133","261289","0.0-57.0-0.0","","1237.5","<div style=""display: flex; flex-direction: column; align-items: center; margin-top: -40px;""><img src=""images/pattern_5.png"" style=""width: 234px; height: 230px; margin-top: -50px;""><div style=""display: flex; justify-content: space-between; margin-top: 33px;""><img src=""images/choice_trial_13.png"" style=""width: 408px; height: 417px; margin-right: 200px;""><img src=""images/choice_trial_7.png"" style=""width: 408px; height: 417px;""></div></div>","j","delaylearn","learning","trial","62cfee5a0c2e87501bfb10bc","WZfOmnJy0LdMpmCbDmykk1JyM5Q2","5","images/choice_trial_13.png","images/choice_trial_7.png","images/pattern_5.png","j","j","750","13","7","4","1","25","1","1","7","170","","","","",""
"html-keyboard-response","134","262293","0.0-57.0-1.0","","null","<div style=""display: flex; flex-direction: column; align-items: center; margin-top: -40px;""><img src=""images/pattern_5.png"" style=""width: 234px; height: 230px; margin-top: -50px;""><div style=""display: flex; justify-content: space-between; margin-top: 33px;""><img src=""images/choice_trial_7.png"" style=""width: 408px; height: 417px; margin-left:608px;""></div></div>","null","delaylearn","learning","display_response","62cfee5a0c2e87501bfb10bc","WZfOmnJy0LdMpmCbDmykk1JyM5Q2","","","","","","","","","","","","","","","","","chosen stimuli: images/choice_trial_7.png","","","",""
"html-keyboard-response","135","263057","0.0-57.0-2.0","","null","","null","delaylearn","learning","feedback_duration_window","62cfee5a0c2e87501bfb10bc","WZfOmnJy0LdMpmCbDmykk1JyM5Q2","","","","","","","","","","","","","","","","","","750","","",""
"html-keyboard-response","136","264571","0.0-57.0-3.0","","null","<div style='margin:auto;width: auto; font-size: 150%'><span style='font-weight: bold; font-size: 100px; color: green;'>+10 points!</span><br><br></div>","null","delaylearn","learning","feedback_image_window","62cfee5a0c2e87501bfb10bc","WZfOmnJy0LdMpmCbDmykk1JyM5Q2","","","","","","","","","","","","","","","","","","","","",""
"html-keyboard-response","137","266948","0.0-58.0","","null","<div style=""font-size:100px;"">+</div>","null","delaylearn","learning","ITI","62cfee5a0c2e87501bfb10bc","WZfOmnJy0LdMpmCbDmykk1JyM5Q2","","","","","","","","","","","","","","","","","","","2367","",""
"html-keyboard-response","138","268215","0.0-59.0-0.0","","1265.7999999523163","<div style=""display: flex; flex-direction: column; align-items: center; margin-top: -40px;""><img src=""images/pattern_3.png"" style=""width: 234px; height: 230px; margin-top: -50px;""><div style=""display: flex; justify-content: space-between; margin-top: 33px;""><img src=""images/choice_trial_2.png"" style=""width: 408px; height: 417px; margin-right: 200px;""><img src=""images/choice_trial_16.png"" style=""width: 408px; height: 417px;""></div></div>","j","delaylearn","learning","trial","62cfee5a0c2e87501bfb10bc","WZfOmnJy0LdMpmCbDmykk1JyM5Q2","5","images/choice_trial_2.png","images/choice_trial_16.png","images/pattern_3.png","j","j","7000","2","16","2","1","26","1","1","16","180","","","","",""
"html-keyboard-response","139","269224","0.0-59.0-1.0","","null","<div style=""display: flex; flex-direction: column; align-items: center; margin-top: -40px;""><img src=""images/pattern_3.png"" style=""width: 234px; height: 230px; margin-top: -50px;""><div style=""display: flex; justify-content: space-between; margin-top: 33px;""><img src=""images/choice_trial_16.png"" style=""width: 408px; height: 417px; margin-left:608px;""></div></div>","null","delaylearn","learning","display_response","62cfee5a0c2e87501bfb10bc","WZfOmnJy0LdMpmCbDmykk1JyM5Q2","","","","","","","","","","","","","","","","","chosen stimuli: images/choice_trial_16.png","","","",""
"html-keyboard-response","140","276238","0.0-59.0-2.0","","null","","null","delaylearn","learning","feedback_duration_window","62cfee5a0c2e87501bfb10bc","WZfOmnJy0LdMpmCbDmykk1JyM5Q2","","","","","","","","","","","","","","","","","","7000","","",""
"html-keyboard-response","141","277740","0.0-59.0-3.0","","null","<div style='margin:auto;width: auto; font-size: 150%'><span style='font-weight: bold; font-size: 100px; color: green;'>+10 points!</span><br><br></div>","null","delaylearn","learning","feedback_image_window","62cfee5a0c2e87501bfb10bc","WZfOmnJy0LdMpmCbDmykk1JyM5Q2","","","","","","","","","","","","","","","","","","","","",""
"lmdlab-html-vas-response","142","283211","0.0-60.0-0.0","","3951","*How <b><u>confident</u></b> are you feeling about your answers at this moment?*","0.6581789460274522","rewlearn","rate_confidence","","62cfee5a0c2e87501bfb10bc","WZfOmnJy0LdMpmCbDmykk1JyM5Q2","","","","","","","","","","","","","","","","","","","","[""No confidence"",""Complete confidence""]",""
"lmdlab-rest-trial-limit","143","354421","0.0-60.0-1.0","","69695.40000009537","<div style=""font-size:40px;""><b>Please take a break!</b><br><br><br><br><p>Great work: you earned 180 points.<br><br><br><p>You have completed part(s) 1 of 5.<br><br><br><br>When you are ready to continue<br><br><br>please click the button.</p><br><br>","0","delaylearn","learning","break","62cfee5a0c2e87501bfb10bc","WZfOmnJy0LdMpmCbDmykk1JyM5Q2","","","","","","","","","","","","","","","","","","","","","0"
"html-keyboard-response","144","357437","0.0-60.0-2.0","","null","<div style=""font-size:100px;"">+</div>","null","delaylearn","learning","pre_fixation","62cfee5a0c2e87501bfb10bc","","","","","","","","","","","","","","","","","","","","","",""
"lmdlab-html-vas-response","145","361386","0.0-60.0-3.0-0.0","","2946","How happy are you right now?","0.7315055479117712","delaylearn","learning","mood_baseline","62cfee5a0c2e87501bfb10bc","WZfOmnJy0LdMpmCbDmykk1JyM5Q2","","","","","","","","","","","","","","","","","","","","[""Very unhappy"",""Very happy""]",""
"html-keyboard-response","146","362899","0.0-60.0-3.0-1.0","","null","","null","","","mood_baseline_fixation","","","","","","","","","","","","","","","","","","","","","","",""
"html-keyboard-response","147","365062","0.0-61.0","","null","<div style=""font-size:100px;"">+</div>","null","delaylearn","learning","ITI","62cfee5a0c2e87501bfb10bc","WZfOmnJy0LdMpmCbDmykk1JyM5Q2","","","","","","","","","","","","","","","","","","","2160","",""
"html-keyboard-response","148","367466","0.0-62.0-0.0","","2402.2999999523163","<div style=""display: flex; flex-direction: column; align-items: center; margin-top: -40px;""><img src=""images/pattern_7.png"" style=""width: 234px; height: 230px; margin-top: -50px;""><div style=""display: flex; justify-content: space-between; margin-top: 33px;""><img src=""images/choice_trial_10.png"" style=""width: 408px; height: 417px; margin-right: 200px;""><img src=""images/choice_trial_8.png"" style=""width: 408px; height: 417px;""></div></div>","f","delaylearn","learning","trial","62cfee5a0c2e87501bfb10bc","WZfOmnJy0LdMpmCbDmykk1JyM5Q2","5","images/choice_trial_10.png","images/choice_trial_8.png","images/pattern_7.png","j","j","750","10","8","6","1","27","0","0","10","180","","","","",""
"html-keyboard-response","149","368470","0.0-62.0-1.0","","null","<div style=""display: flex; flex-direction: column; align-items: center; margin-top: -40px;""><img src=""images/pattern_7.png"" style=""width: 234px; height: 230px; margin-top: -50px;""><div style=""display: flex; justify-content: space-between; margin-top: 33px;""><img src=""images/choice_trial_10.png"" style=""width: 408px; height: 417px; margin-right: 608px;""></div></div>","null","delaylearn","learning","display_response","62cfee5a0c2e87501bfb10bc","WZfOmnJy0LdMpmCbDmykk1JyM5Q2","","","","","","","","","","","","","","","","","chosen stimuli: images/choice_trial_10.png","","","",""
"html-keyboard-response","150","369231","0.0-62.0-2.0","","null","","null","delaylearn","learning","feedback_duration_window","62cfee5a0c2e87501bfb10bc","WZfOmnJy0LdMpmCbDmykk1JyM5Q2","","","","","","","","","","","","","","","","","","750","","",""
"html-keyboard-response","151","370733","0.0-62.0-3.0","","null","<div style='margin:auto;width: auto; font-size: 150%'><span style='font-weight: bold; font-size: 100px; color: red;'>0 points!</span><br><br></div>","null","delaylearn","learning","feedback_image_window","62cfee5a0c2e87501bfb10bc","WZfOmnJy0LdMpmCbDmykk1JyM5Q2","","","","","","","","","","","","","","","","","","","","",""
"html-keyboard-response","152","371241","0.0-63.0-0.0","","null","","null","","","mood_trial_fixation","","","","","","","","","","","","","","","","","","","","","","",""
"lmdlab-html-vas-response","153","375740","0.0-63.0-1.0","","3490","How happy are you right now?","0.7951629523212314","delaylearn","learning","mood_trial","62cfee5a0c2e87501bfb10bc","WZfOmnJy0LdMpmCbDmykk1JyM5Q2","","","","","","","","","","","","","","","","","","","","[""Very unhappy"",""Very happy""]",""
"html-keyboard-response","154","377750","0.0-64.0","","null","<div style=""font-size:100px;"">+</div>","null","delaylearn","learning","ITI","62cfee5a0c2e87501bfb10bc","WZfOmnJy0LdMpmCbDmykk1JyM5Q2","","","","","","","","","","","","","","","","","","","2000","",""
"html-keyboard-response","155","378881","0.0-65.0-0.0","","1129.1000000238419","<div style=""display: flex; flex-direction: column; align-items: center; margin-top: -40px;""><img src=""images/pattern_1.png"" style=""width: 234px; height: 230px; margin-top: -50px;""><div style=""display: flex; justify-content: space-between; margin-top: 33px;""><img src=""images/choice_trial_6.png"" style=""width: 408px; height: 417px; margin-right: 200px;""><img src=""images/choice_trial_15.png"" style=""width: 408px; height: 417px;""></div></div>","f","delaylearn","learning","trial","62cfee5a0c2e87501bfb10bc","WZfOmnJy0LdMpmCbDmykk1JyM5Q2","5","images/choice_trial_6.png","images/choice_trial_15.png","images/pattern_1.png","f","f","7000","6","15","1","0","28","1","1","6","190","","","","",""
"html-keyboard-response","156","379889","0.0-65.0-1.0","","null","<div style=""display: flex; flex-direction: column; align-items: center; margin-top: -40px;""><img src=""images/pattern_1.png"" style=""width: 234px; height: 230px; margin-top: -50px;""><div style=""display: flex; justify-content: space-between; margin-top: 33px;""><img src=""images/choice_trial_6.png"" style=""width: 408px; height: 417px; margin-right: 608px;""></div></div>","null","delaylearn","learning","display_response","62cfee5a0c2e87501bfb10bc","WZfOmnJy0LdMpmCbDmykk1JyM5Q2","","","","","","","","","","","","","","","","","chosen stimuli: images/choice_trial_6.png","","","",""
"html-keyboard-response","157","386890","0.0-65.0-2.0","","null","","null","delaylearn","learning","feedback_duration_window","62cfee5a0c2e87501bfb10bc","WZfOmnJy0LdMpmCbDmykk1JyM5Q2","","","","","","","","","","","","","","","","","","7000","","",""
"html-keyboard-response","158","388391","0.0-65.0-3.0","","null","<div style='margin:auto;width: auto; font-size: 150%'><span style='font-weight: bold; font-size: 100px; color: green;'>+10 points!</span><br><br></div>","null","delaylearn","learning","feedback_image_window","62cfee5a0c2e87501bfb10bc","WZfOmnJy0LdMpmCbDmykk1JyM5Q2","","","","","","","","","","","","","","","","","","","","",""
"html-keyboard-response","159","390032","0.0-66.0","","null","<div style=""font-size:100px;"">+</div>","null","delaylearn","learning","ITI","62cfee5a0c2e87501bfb10bc","WZfOmnJy0LdMpmCbDmykk1JyM5Q2","","","","","","","","","","","","","","","","","","","1640","",""
"html-keyboard-response","160","391578","0.0-67.0-0.0","","1543.8999999761581","<div style=""display: flex; flex-direction: column; align-items: center; margin-top: -40px;""><img src=""images/pattern_5.png"" style=""width: 234px; height: 230px; margin-top: -50px;""><div style=""display: flex; justify-content: space-between; margin-top: 33px;""><img src=""images/choice_trial_7.png"" style=""width: 408px; height: 417px; margin-right: 200px;""><img src=""images/choice_trial_13.png"" style=""width: 408px; height: 417px;""></div></div>","f","delaylearn","learning","trial","62cfee5a0c2e87501bfb10bc","WZfOmnJy0LdMpmCbDmykk1JyM5Q2","5","images/choice_trial_7.png","images/choice_trial_13.png","images/pattern_5.png","f","f","750","7","13","4","0","29","1","1","7","200","","","","",""
"html-keyboard-response","161","392579","0.0-67.0-1.0","","null","<div style=""display: flex; flex-direction: column; align-items: center; margin-top: -40px;""><img src=""images/pattern_5.png"" style=""width: 234px; height: 230px; margin-top: -50px;""><div style=""display: flex; justify-content: space-between; margin-top: 33px;""><img src=""images/choice_trial_7.png"" style=""width: 408px; height: 417px; margin-right: 608px;""></div></div>","null","delaylearn","learning","display_response","62cfee5a0c2e87501bfb10bc","WZfOmnJy0LdMpmCbDmykk1JyM5Q2","","","","","","","","","","","","","","","","","chosen stimuli: images/choice_trial_7.png","","","",""
"html-keyboard-response","162","393340","0.0-67.0-2.0","","null","","null","delaylearn","learning","feedback_duration_window","62cfee5a0c2e87501bfb10bc","WZfOmnJy0LdMpmCbDmykk1JyM5Q2","","","","","","","","","","","","","","","","","","750","","",""
"html-keyboard-response","163","394843","0.0-67.0-3.0","","null","<div style='margin:auto;width: auto; font-size: 150%'><span style='font-weight: bold; font-size: 100px; color: green;'>+10 points!</span><br><br></div>","null","delaylearn","learning","feedback_image_window","62cfee5a0c2e87501bfb10bc","WZfOmnJy0LdMpmCbDmykk1JyM5Q2","","","","","","","","","","","","","","","","","","","","",""
"html-keyboard-response","164","396656","0.0-68.0","","null","<div style=""font-size:100px;"">+</div>","null","delaylearn","learning","ITI","62cfee5a0c2e87501bfb10bc","WZfOmnJy0LdMpmCbDmykk1JyM5Q2","","","","","","","","","","","","","","","","","","","1797","",""
"html-keyboard-response","165","397736","0.0-69.0-0.0","","1078.8999999761581","<div style=""display: flex; flex-direction: column; align-items: center; margin-top: -40px;""><img src=""images/pattern_6.png"" style=""width: 234px; height: 230px; margin-top: -50px;""><div style=""display: flex; justify-content: space-between; margin-top: 33px;""><img src=""images/choice_trial_9.png"" style=""width: 408px; height: 417px; margin-right: 200px;""><img src=""images/choice_trial_14.png"" style=""width: 408px; height: 417px;""></div></div>","j","delaylearn","learning","trial","62cfee5a0c2e87501bfb10bc","WZfOmnJy0LdMpmCbDmykk1JyM5Q2","5","images/choice_trial_9.png","images/choice_trial_14.png","images/pattern_6.png","j","j","750","9","14","5","1","30","1","1","14","210","","","","",""
"html-keyboard-response","166","398747","0.0-69.0-1.0","","null","<div style=""display: flex; flex-direction: column; align-items: center; margin-top: -40px;""><img src=""images/pattern_6.png"" style=""width: 234px; height: 230px; margin-top: -50px;""><div style=""display: flex; justify-content: space-between; margin-top: 33px;""><img src=""images/choice_trial_14.png"" style=""width: 408px; height: 417px; margin-left:608px;""></div></div>","null","delaylearn","learning","display_response","62cfee5a0c2e87501bfb10bc","WZfOmnJy0LdMpmCbDmykk1JyM5Q2","","","","","","","","","","","","","","","","","chosen stimuli: images/choice_trial_14.png","","","",""
"html-keyboard-response","167","399501","0.0-69.0-2.0","","null","","null","delaylearn","learning","feedback_duration_window","62cfee5a0c2e87501bfb10bc","WZfOmnJy0LdMpmCbDmykk1JyM5Q2","","","","","","","","","","","","","","","","","","750","","",""
"html-keyboard-response","168","401004","0.0-69.0-3.0","","null","<div style='margin:auto;width: auto; font-size: 150%'><span style='font-weight: bold; font-size: 100px; color: green;'>+10 points!</span><br><br></div>","null","delaylearn","learning","feedback_image_window","62cfee5a0c2e87501bfb10bc","WZfOmnJy0LdMpmCbDmykk1JyM5Q2","","","","","","","","","","","","","","","","","","","","",""
"html-keyboard-response","169","401513","0.0-70.0-0.0","","null","","null","","","mood_trial_fixation","","","","","","","","","","","","","","","","","","","","","","",""
"lmdlab-html-vas-response","170","405381","0.0-70.0-1.0","","2858","How happy are you right now?","0.6620611067378147","delaylearn","learning","mood_trial","62cfee5a0c2e87501bfb10bc","WZfOmnJy0LdMpmCbDmykk1JyM5Q2","","","","","","","","","","","","","","","","","","","","[""Very unhappy"",""Very happy""]",""
"html-keyboard-response","171","407377","0.0-71.0","","null","<div style=""font-size:100px;"">+</div>","null","delaylearn","learning","ITI","62cfee5a0c2e87501bfb10bc","WZfOmnJy0LdMpmCbDmykk1JyM5Q2","","","","","","","","","","","","","","","","","","","1991","",""
"html-keyboard-response","172","408623","0.0-72.0-0.0","","1244.5999999046326","<div style=""display: flex; flex-direction: column; align-items: center; margin-top: -40px;""><img src=""images/pattern_4.png"" style=""width: 234px; height: 230px; margin-top: -50px;""><div style=""display: flex; justify-content: space-between; margin-top: 33px;""><img src=""images/choice_trial_4.png"" style=""width: 408px; height: 417px; margin-right: 200px;""><img src=""images/choice_trial_11.png"" style=""width: 408px; height: 417px;""></div></div>","j","delaylearn","learning","trial","62cfee5a0c2e87501bfb10bc","WZfOmnJy0LdMpmCbDmykk1JyM5Q2","5","images/choice_trial_4.png","images/choice_trial_11.png","images/pattern_4.png","j","j","7000","4","11","3","1","31","1","1","11","220","","","","",""
"html-keyboard-response","173","409627","0.0-72.0-1.0","","null","<div style=""display: flex; flex-direction: column; align-items: center; margin-top: -40px;""><img src=""images/pattern_4.png"" style=""width: 234px; height: 230px; margin-top: -50px;""><div style=""display: flex; justify-content: space-between; margin-top: 33px;""><img src=""images/choice_trial_11.png"" style=""width: 408px; height: 417px; margin-left:608px;""></div></div>","null","delaylearn","learning","display_response","62cfee5a0c2e87501bfb10bc","WZfOmnJy0LdMpmCbDmykk1JyM5Q2","","","","","","","","","","","","","","","","","chosen stimuli: images/choice_trial_11.png","","","",""
"html-keyboard-response","174","416628","0.0-72.0-2.0","","null","","null","delaylearn","learning","feedback_duration_window","62cfee5a0c2e87501bfb10bc","WZfOmnJy0LdMpmCbDmykk1JyM5Q2","","","","","","","","","","","","","","","","","","7000","","",""
"html-keyboard-response","175","418131","0.0-72.0-3.0","","null","<div style='margin:auto;width: auto; font-size: 150%'><span style='font-weight: bold; font-size: 100px; color: green;'>+10 points!</span><br><br></div>","null","delaylearn","learning","feedback_image_window","62cfee5a0c2e87501bfb10bc","WZfOmnJy0LdMpmCbDmykk1JyM5Q2","","","","","","","","","","","","","","","","","","","","",""
"html-keyboard-response","176","420500","0.0-73.0","","null","<div style=""font-size:100px;"">+</div>","null","delaylearn","learning","ITI","62cfee5a0c2e87501bfb10bc","WZfOmnJy0LdMpmCbDmykk1JyM5Q2","","","","","","","","","","","","","","","","","","","2354","",""
"html-keyboard-response","177","421459","0.0-74.0-0.0","","957.1000000238419","<div style=""display: flex; flex-direction: column; align-items: center; margin-top: -40px;""><img src=""images/pattern_3.png"" style=""width: 234px; height: 230px; margin-top: -50px;""><div style=""display: flex; justify-content: space-between; margin-top: 33px;""><img src=""images/choice_trial_2.png"" style=""width: 408px; height: 417px; margin-right: 200px;""><img src=""images/choice_trial_16.png"" style=""width: 408px; height: 417px;""></div></div>","j","delaylearn","learning","trial","62cfee5a0c2e87501bfb10bc","WZfOmnJy0LdMpmCbDmykk1JyM5Q2","5","images/choice_trial_2.png","images/choice_trial_16.png","images/pattern_3.png","j","j","7000","2","16","2","1","32","1","1","16","230","","","","",""
"html-keyboard-response","178","422474","0.0-74.0-1.0","","null","<div style=""display: flex; flex-direction: column; align-items: center; margin-top: -40px;""><img src=""images/pattern_3.png"" style=""width: 234px; height: 230px; margin-top: -50px;""><div style=""display: flex; justify-content: space-between; margin-top: 33px;""><img src=""images/choice_trial_16.png"" style=""width: 408px; height: 417px; margin-left:608px;""></div></div>","null","delaylearn","learning","display_response","62cfee5a0c2e87501bfb10bc","WZfOmnJy0LdMpmCbDmykk1JyM5Q2","","","","","","","","","","","","","","","","","chosen stimuli: images/choice_trial_16.png","","","",""
"html-keyboard-response","179","429475","0.0-74.0-2.0","","null","","null","delaylearn","learning","feedback_duration_window","62cfee5a0c2e87501bfb10bc","WZfOmnJy0LdMpmCbDmykk1JyM5Q2","","","","","","","","","","","","","","","","","","7000","","",""
"html-keyboard-response","180","430989","0.0-74.0-3.0","","null","<div style='margin:auto;width: auto; font-size: 150%'><span style='font-weight: bold; font-size: 100px; color: green;'>+10 points!</span><br><br></div>","null","delaylearn","learning","feedback_image_window","62cfee5a0c2e87501bfb10bc","WZfOmnJy0LdMpmCbDmykk1JyM5Q2","","","","","","","","","","","","","","","","","","","","",""
"html-keyboard-response","181","432650","0.0-75.0","","null","<div style=""font-size:100px;"">+</div>","null","delaylearn","learning","ITI","62cfee5a0c2e87501bfb10bc","WZfOmnJy0LdMpmCbDmykk1JyM5Q2","","","","","","","","","","","","","","","","","","","1659","",""
"html-keyboard-response","182","434251","0.0-76.0-0.0","","1600.3999999761581","<div style=""display: flex; flex-direction: column; align-items: center; margin-top: -40px;""><img src=""images/pattern_5.png"" style=""width: 234px; height: 230px; margin-top: -50px;""><div style=""display: flex; justify-content: space-between; margin-top: 33px;""><img src=""images/choice_trial_7.png"" style=""width: 408px; height: 417px; margin-right: 200px;""><img src=""images/choice_trial_13.png"" style=""width: 408px; height: 417px;""></div></div>","f","delaylearn","learning","trial","62cfee5a0c2e87501bfb10bc","WZfOmnJy0LdMpmCbDmykk1JyM5Q2","5","images/choice_trial_7.png","images/choice_trial_13.png","images/pattern_5.png","j","f","750","7","13","4","0","33","1","0","7","230","","","","",""
"html-keyboard-response","183","435267","0.0-76.0-1.0","","null","<div style=""display: flex; flex-direction: column; align-items: center; margin-top: -40px;""><img src=""images/pattern_5.png"" style=""width: 234px; height: 230px; margin-top: -50px;""><div style=""display: flex; justify-content: space-between; margin-top: 33px;""><img src=""images/choice_trial_7.png"" style=""width: 408px; height: 417px; margin-right: 608px;""></div></div>","null","delaylearn","learning","display_response","62cfee5a0c2e87501bfb10bc","WZfOmnJy0LdMpmCbDmykk1JyM5Q2","","","","","","","","","","","","","","","","","chosen stimuli: images/choice_trial_7.png","","","",""
"html-keyboard-response","184","436031","0.0-76.0-2.0","","null","","null","delaylearn","learning","feedback_duration_window","62cfee5a0c2e87501bfb10bc","WZfOmnJy0LdMpmCbDmykk1JyM5Q2","","","","","","","","","","","","","","","","","","750","","",""
"html-keyboard-response","185","437533","0.0-76.0-3.0","","null","<div style='margin:auto;width: auto; font-size: 150%'><span style='font-weight: bold; font-size: 100px; color: red;'>0 points!</span><br><br></div>","null","delaylearn","learning","feedback_image_window","62cfee5a0c2e87501bfb10bc","WZfOmnJy0LdMpmCbDmykk1JyM5Q2","","","","","","","","","","","","","","","","","","","","",""
"html-keyboard-response","186","439606","0.0-77.0","","null","<div style=""font-size:100px;"">+</div>","null","delaylearn","learning","ITI","62cfee5a0c2e87501bfb10bc","WZfOmnJy0LdMpmCbDmykk1JyM5Q2","","","","","","","","","","","","","","","","","","","2057","",""
"html-keyboard-response","187","440941","0.0-78.0-0.0","","1334.2999999523163","<div style=""display: flex; flex-direction: column; align-items: center; margin-top: -40px;""><img src=""images/pattern_1.png"" style=""width: 234px; height: 230px; margin-top: -50px;""><div style=""display: flex; justify-content: space-between; margin-top: 33px;""><img src=""images/choice_trial_6.png"" style=""width: 408px; height: 417px; margin-right: 200px;""><img src=""images/choice_trial_15.png"" style=""width: 408px; height: 417px;""></div></div>","f","delaylearn","learning","trial","62cfee5a0c2e87501bfb10bc","WZfOmnJy0LdMpmCbDmykk1JyM5Q2","5","images/choice_trial_6.png","images/choice_trial_15.png","images/pattern_1.png","f","f","7000","6","15","1","0","34","1","1","6","240","","","","",""
"html-keyboard-response","188","441946","0.0-78.0-1.0","","null","<div style=""display: flex; flex-direction: column; align-items: center; margin-top: -40px;""><img src=""images/pattern_1.png"" style=""width: 234px; height: 230px; margin-top: -50px;""><div style=""display: flex; justify-content: space-between; margin-top: 33px;""><img src=""images/choice_trial_6.png"" style=""width: 408px; height: 417px; margin-right: 608px;""></div></div>","null","delaylearn","learning","display_response","62cfee5a0c2e87501bfb10bc","WZfOmnJy0LdMpmCbDmykk1JyM5Q2","","","","","","","","","","","","","","","","","chosen stimuli: images/choice_trial_6.png","","","",""
"html-keyboard-response","189","448952","0.0-78.0-2.0","","null","","null","delaylearn","learning","feedback_duration_window","62cfee5a0c2e87501bfb10bc","WZfOmnJy0LdMpmCbDmykk1JyM5Q2","","","","","","","","","","","","","","","","","","7000","","",""
"html-keyboard-response","190","450455","0.0-78.0-3.0","","null","<div style='margin:auto;width: auto; font-size: 150%'><span style='font-weight: bold; font-size: 100px; color: green;'>+10 points!</span><br><br></div>","null","delaylearn","learning","feedback_image_window","62cfee5a0c2e87501bfb10bc","WZfOmnJy0LdMpmCbDmykk1JyM5Q2","","","","","","","","","","","","","","","","","","","","",""
"html-keyboard-response","191","450963","0.0-79.0-0.0","","null","","null","","","mood_trial_fixation","","","","","","","","","","","","","","","","","","","","","","",""
"lmdlab-html-vas-response","192","455736","0.0-79.0-1.0","","3767","How happy are you right now?","0.7199314743827785","delaylearn","learning","mood_trial","62cfee5a0c2e87501bfb10bc","WZfOmnJy0LdMpmCbDmykk1JyM5Q2","","","","","","","","","","","","","","","","","","","","[""Very unhappy"",""Very happy""]",""
"html-keyboard-response","193","457785","0.0-80.0","","null","<div style=""font-size:100px;"">+</div>","null","delaylearn","learning","ITI","62cfee5a0c2e87501bfb10bc","WZfOmnJy0LdMpmCbDmykk1JyM5Q2","","","","","","","","","","","","","","","","","","","2040","",""
"html-keyboard-response","194","458910","0.0-81.0-0.0","","1123.4000000953674","<div style=""display: flex; flex-direction: column; align-items: center; margin-top: -40px;""><img src=""images/pattern_6.png"" style=""width: 234px; height: 230px; margin-top: -50px;""><div style=""display: flex; justify-content: space-between; margin-top: 33px;""><img src=""images/choice_trial_14.png"" style=""width: 408px; height: 417px; margin-right: 200px;""><img src=""images/choice_trial_9.png"" style=""width: 408px; height: 417px;""></div></div>","f","delaylearn","learning","trial","62cfee5a0c2e87501bfb10bc","WZfOmnJy0LdMpmCbDmykk1JyM5Q2","5","images/choice_trial_14.png","images/choice_trial_9.png","images/pattern_6.png","j","f","750","14","9","5","0","35","1","0","14","240","","","","",""
"html-keyboard-response","195","459922","0.0-81.0-1.0","","null","<div style=""display: flex; flex-direction: column; align-items: center; margin-top: -40px;""><img src=""images/pattern_6.png"" style=""width: 234px; height: 230px; margin-top: -50px;""><div style=""display: flex; justify-content: space-between; margin-top: 33px;""><img src=""images/choice_trial_14.png"" style=""width: 408px; height: 417px; margin-right: 608px;""></div></div>","null","delaylearn","learning","display_response","62cfee5a0c2e87501bfb10bc","WZfOmnJy0LdMpmCbDmykk1JyM5Q2","","","","","","","","","","","","","","","","","chosen stimuli: images/choice_trial_14.png","","","",""
"html-keyboard-response","196","460681","0.0-81.0-2.0","","null","","null","delaylearn","learning","feedback_duration_window","62cfee5a0c2e87501bfb10bc","WZfOmnJy0LdMpmCbDmykk1JyM5Q2","","","","","","","","","","","","","","","","","","750","","",""
"html-keyboard-response","197","462182","0.0-81.0-3.0","","null","<div style='margin:auto;width: auto; font-size: 150%'><span style='font-weight: bold; font-size: 100px; color: red;'>0 points!</span><br><br></div>","null","delaylearn","learning","feedback_image_window","62cfee5a0c2e87501bfb10bc","WZfOmnJy0LdMpmCbDmykk1JyM5Q2","","","","","","","","","","","","","","","","","","","","",""
"html-keyboard-response","198","464564","0.0-82.0","","null","<div style=""font-size:100px;"">+</div>","null","delaylearn","learning","ITI","62cfee5a0c2e87501bfb10bc","WZfOmnJy0LdMpmCbDmykk1JyM5Q2","","","","","","","","","","","","","","","","","","","2372","",""
"html-keyboard-response","199","466007","0.0-83.0-0.0","","1441.2000000476837","<div style=""display: flex; flex-direction: column; align-items: center; margin-top: -40px;""><img src=""images/pattern_3.png"" style=""width: 234px; height: 230px; margin-top: -50px;""><div style=""display: flex; justify-content: space-between; margin-top: 33px;""><img src=""images/choice_trial_2.png"" style=""width: 408px; height: 417px; margin-right: 200px;""><img src=""images/choice_trial_16.png"" style=""width: 408px; height: 417px;""></div></div>","j","delaylearn","learning","trial","62cfee5a0c2e87501bfb10bc","WZfOmnJy0LdMpmCbDmykk1JyM5Q2","5","images/choice_trial_2.png","images/choice_trial_16.png","images/pattern_3.png","j","j","7000","2","16","2","1","36","1","1","16","250","","","","",""
"html-keyboard-response","200","467016","0.0-83.0-1.0","","null","<div style=""display: flex; flex-direction: column; align-items: center; margin-top: -40px;""><img src=""images/pattern_3.png"" style=""width: 234px; height: 230px; margin-top: -50px;""><div style=""display: flex; justify-content: space-between; margin-top: 33px;""><img src=""images/choice_trial_16.png"" style=""width: 408px; height: 417px; margin-left:608px;""></div></div>","null","delaylearn","learning","display_response","62cfee5a0c2e87501bfb10bc","WZfOmnJy0LdMpmCbDmykk1JyM5Q2","","","","","","","","","","","","","","","","","chosen stimuli: images/choice_trial_16.png","","","",""
"html-keyboard-response","201","474024","0.0-83.0-2.0","","null","","null","delaylearn","learning","feedback_duration_window","62cfee5a0c2e87501bfb10bc","WZfOmnJy0LdMpmCbDmykk1JyM5Q2","","","","","","","","","","","","","","","","","","7000","","",""
"html-keyboard-response","202","475537","0.0-83.0-3.0","","null","<div style='margin:auto;width: auto; font-size: 150%'><span style='font-weight: bold; font-size: 100px; color: green;'>+10 points!</span><br><br></div>","null","delaylearn","learning","feedback_image_window","62cfee5a0c2e87501bfb10bc","WZfOmnJy0LdMpmCbDmykk1JyM5Q2","","","","","","","","","","","","","","","","","","","","",""
"html-keyboard-response","203","477441","0.0-84.0","","null","<div style=""font-size:100px;"">+</div>","null","delaylearn","learning","ITI","62cfee5a0c2e87501bfb10bc","WZfOmnJy0LdMpmCbDmykk1JyM5Q2","","","","","","","","","","","","","","","","","","","1898","",""
"html-keyboard-response","204","479298","0.0-85.0-0.0","","1855.5999999046326","<div style=""display: flex; flex-direction: column; align-items: center; margin-top: -40px;""><img src=""images/pattern_4.png"" style=""width: 234px; height: 230px; margin-top: -50px;""><div style=""display: flex; justify-content: space-between; margin-top: 33px;""><img src=""images/choice_trial_4.png"" style=""width: 408px; height: 417px; margin-right: 200px;""><img src=""images/choice_trial_11.png"" style=""width: 408px; height: 417px;""></div></div>","j","delaylearn","learning","trial","62cfee5a0c2e87501bfb10bc","WZfOmnJy0LdMpmCbDmykk1JyM5Q2","5","images/choice_trial_4.png","images/choice_trial_11.png","images/pattern_4.png","f","j","7000","4","11","3","1","37","1","0","11","250","","","","",""
"html-keyboard-response","205","480305","0.0-85.0-1.0","","null","<div style=""display: flex; flex-direction: column; align-items: center; margin-top: -40px;""><img src=""images/pattern_4.png"" style=""width: 234px; height: 230px; margin-top: -50px;""><div style=""display: flex; justify-content: space-between; margin-top: 33px;""><img src=""images/choice_trial_11.png"" style=""width: 408px; height: 417px; margin-left:608px;""></div></div>","null","delaylearn","learning","display_response","62cfee5a0c2e87501bfb10bc","WZfOmnJy0LdMpmCbDmykk1JyM5Q2","","","","","","","","","","","","","","","","","chosen stimuli: images/choice_trial_11.png","","","",""
"html-keyboard-response","206","487309","0.0-85.0-2.0","","null","","null","delaylearn","learning","feedback_duration_window","62cfee5a0c2e87501bfb10bc","WZfOmnJy0LdMpmCbDmykk1JyM5Q2","","","","","","","","","","","","","","","","","","7000","","",""
"html-keyboard-response","207","488812","0.0-85.0-3.0","","null","<div style='margin:auto;width: auto; font-size: 150%'><span style='font-weight: bold; font-size: 100px; color: red;'>0 points!</span><br><br></div>","null","delaylearn","learning","feedback_image_window","62cfee5a0c2e87501bfb10bc","WZfOmnJy0LdMpmCbDmykk1JyM5Q2","","","","","","","","","","","","","","","","","","","","",""
"html-keyboard-response","208","490545","0.0-86.0","","null","<div style=""font-size:100px;"">+</div>","null","delaylearn","learning","ITI","62cfee5a0c2e87501bfb10bc","WZfOmnJy0LdMpmCbDmykk1JyM5Q2","","","","","","","","","","","","","","","","","","","1719","",""
"html-keyboard-response","209","492243","0.0-87.0-0.0","","1696.8000000715256","<div style=""display: flex; flex-direction: column; align-items: center; margin-top: -40px;""><img src=""images/pattern_7.png"" style=""width: 234px; height: 230px; margin-top: -50px;""><div style=""display: flex; justify-content: space-between; margin-top: 33px;""><img src=""images/choice_trial_8.png"" style=""width: 408px; height: 417px; margin-right: 200px;""><img src=""images/choice_trial_10.png"" style=""width: 408px; height: 417px;""></div></div>","j","delaylearn","learning","trial","62cfee5a0c2e87501bfb10bc","WZfOmnJy0LdMpmCbDmykk1JyM5Q2","5","images/choice_trial_8.png","images/choice_trial_10.png","images/pattern_7.png","f","f","750","8","10","6","0","38","0","0","10","250","","","","",""
"html-keyboard-response","210","493255","0.0-87.0-1.0","","null","<div style=""display: flex; flex-direction: column; align-items: center; margin-top: -40px;""><img src=""images/pattern_7.png"" style=""width: 234px; height: 230px; margin-top: -50px;""><div style=""display: flex; justify-content: space-between; margin-top: 33px;""><img src=""images/choice_trial_10.png"" style=""width: 408px; height: 417px; margin-left:608px;""></div></div>","null","delaylearn","learning","display_response","62cfee5a0c2e87501bfb10bc","WZfOmnJy0LdMpmCbDmykk1JyM5Q2","","","","","","","","","","","","","","","","","chosen stimuli: images/choice_trial_10.png","","","",""
"html-keyboard-response","211","494016","0.0-87.0-2.0","","null","","null","delaylearn","learning","feedback_duration_window","62cfee5a0c2e87501bfb10bc","WZfOmnJy0LdMpmCbDmykk1JyM5Q2","","","","","","","","","","","","","","","","","","750","","",""
"html-keyboard-response","212","495517","0.0-87.0-3.0","","null","<div style='margin:auto;width: auto; font-size: 150%'><span style='font-weight: bold; font-size: 100px; color: red;'>0 points!</span><br><br></div>","null","delaylearn","learning","feedback_image_window","62cfee5a0c2e87501bfb10bc","WZfOmnJy0LdMpmCbDmykk1JyM5Q2","","","","","","","","","","","","","","","","","","","","",""
"html-keyboard-response","213","497094","0.0-88.0","","null","<div style=""font-size:100px;"">+</div>","null","delaylearn","learning","ITI","62cfee5a0c2e87501bfb10bc","WZfOmnJy0LdMpmCbDmykk1JyM5Q2","","","","","","","","","","","","","","","","","","","1570","",""
"html-keyboard-response","214","498432","0.0-89.0-0.0","","1335.8999999761581","<div style=""display: flex; flex-direction: column; align-items: center; margin-top: -40px;""><img src=""images/pattern_1.png"" style=""width: 234px; height: 230px; margin-top: -50px;""><div style=""display: flex; justify-content: space-between; margin-top: 33px;""><img src=""images/choice_trial_6.png"" style=""width: 408px; height: 417px; margin-right: 200px;""><img src=""images/choice_trial_15.png"" style=""width: 408px; height: 417px;""></div></div>","f","delaylearn","learning","trial","62cfee5a0c2e87501bfb10bc","WZfOmnJy0LdMpmCbDmykk1JyM5Q2","5","images/choice_trial_6.png","images/choice_trial_15.png","images/pattern_1.png","f","f","7000","6","15","1","0","39","1","1","6","260","","","","",""
"html-keyboard-response","215","499445","0.0-89.0-1.0","","null","<div style=""display: flex; flex-direction: column; align-items: center; margin-top: -40px;""><img src=""images/pattern_1.png"" style=""width: 234px; height: 230px; margin-top: -50px;""><div style=""display: flex; justify-content: space-between; margin-top: 33px;""><img src=""images/choice_trial_6.png"" style=""width: 408px; height: 417px; margin-right: 608px;""></div></div>","null","delaylearn","learning","display_response","62cfee5a0c2e87501bfb10bc","WZfOmnJy0LdMpmCbDmykk1JyM5Q2","","","","","","","","","","","","","","","","","chosen stimuli: images/choice_trial_6.png","","","",""
"html-keyboard-response","216","506457","0.0-89.0-2.0","","null","","null","delaylearn","learning","feedback_duration_window","62cfee5a0c2e87501bfb10bc","WZfOmnJy0LdMpmCbDmykk1JyM5Q2","","","","","","","","","","","","","","","","","","7000","","",""
"html-keyboard-response","217","507972","0.0-89.0-3.0","","null","<div style='margin:auto;width: auto; font-size: 150%'><span style='font-weight: bold; font-size: 100px; color: green;'>+10 points!</span><br><br></div>","null","delaylearn","learning","feedback_image_window","62cfee5a0c2e87501bfb10bc","WZfOmnJy0LdMpmCbDmykk1JyM5Q2","","","","","","","","","","","","","","","","","","","","",""
"html-keyboard-response","218","508484","0.0-90.0-0.0","","null","","null","","","mood_trial_fixation","","","","","","","","","","","","","","","","","","","","","","",""
"lmdlab-html-vas-response","219","512438","0.0-90.0-1.0","","2941","How happy are you right now?","0.667848143502311","delaylearn","learning","mood_trial","62cfee5a0c2e87501bfb10bc","WZfOmnJy0LdMpmCbDmykk1JyM5Q2","","","","","","","","","","","","","","","","","","","","[""Very unhappy"",""Very happy""]",""
"html-keyboard-response","220","514152","0.0-91.0","","null","<div style=""font-size:100px;"">+</div>","null","delaylearn","learning","ITI","62cfee5a0c2e87501bfb10bc","WZfOmnJy0LdMpmCbDmykk1JyM5Q2","","","","","","","","","","","","","","","","","","","1708","",""
