"trial_type","trial_index","time_elapsed","internal_node_id","participant","rt","stimulus","response","exp_name","exp_stage","test_part","subjectID","databaseID","counterbal","choice_stimuli_1","choice_stimuli_2","pattern_stimuli","rewarded_answer","correct_answer","feedback_duration_times","stim_left","stim_right","pair","leftright_counter","trial","response_correct","response_rewarded","chosen_stim","counter","displayed_choice","feedback_durations","ITI_duration","labels","rest_warning"
"pavlovia","0","656","0.0-0.0","","","","","","","","","","","","","","","","","","","","","","","","","","","","","",""
"html-keyboard-response","1","3664","0.0-1.0","","null","<div style=""font-size:100px;"">+</div>","null","delaylearn","learning","pre_fixation","638526640404d47424e281ff","","","","","","","","","","","","","","","","","","","","","",""
"html-keyboard-response","2","4491","0.0-2.0-0.0","","824","<div style=""display: flex; flex-direction: column; align-items: center; margin-top: -40px;""><img src=""images/demo_images/pattern_1.png"" style=""width: 234px; height: 230px; margin-top: -50px;""><div style=""display: flex; justify-content: space-between; margin-top: 33px;""><img src=""images/demo_images/choice_trial_2.png"" style=""width: 408px; height: 417px; margin-right: 200px;""><img src=""images/demo_images/choice_trial_1.png"" style=""width: 408px; height: 417px;""></div></div>","f","delaylearn","learning","trial","638526640404d47424e281ff","b3csoiYuvzcYk7dA3Q4k5T31y3Q2","3","images/demo_images/choice_trial_2.png","images/demo_images/choice_trial_1.png","images/demo_images/pattern_1.png","j","j","3000","2","1","20","1","1","0","0","2","0","","","","",""
"html-keyboard-response","3","5497","0.0-2.0-1.0","","null","<div style=""display: flex; flex-direction: column; align-items: center; margin-top: -40px;""><img src=""images/demo_images/pattern_1.png"" style=""width: 234px; height: 230px; margin-top: -50px;""><div style=""display: flex; justify-content: space-between; margin-top: 33px;""><img src=""images/demo_images/choice_trial_2.png"" style=""width: 408px; height: 417px; margin-right: 608px;""></div></div>","null","delaylearn","learning","display_response","638526640404d47424e281ff","b3csoiYuvzcYk7dA3Q4k5T31y3Q2","","","","","","","","","","","","","","","","","chosen stimuli: images/demo_images/choice_trial_2.png","","","",""
"html-keyboard-response","4","8500","0.0-2.0-2.0","","null","","null","delaylearn","learning","feedback_duration_window","638526640404d47424e281ff","b3csoiYuvzcYk7dA3Q4k5T31y3Q2","","","","","","","","","","","","","","","","","","3000","","",""
"html-keyboard-response","5","10021","0.0-2.0-3.0","","null","<div style='margin:auto;width: auto; font-size: 150%'><span style='font-weight: bold; font-size: 100px; color: red;'>0 points!</span><br><br></div>","null","delaylearn","learning","feedback_image_window","638526640404d47424e281ff","b3csoiYuvzcYk7dA3Q4k5T31y3Q2","","","","","","","","","","","","","","","","","","","","",""
"html-keyboard-response","6","11856","0.0-3.0","","null","<div style=""font-size:100px;"">+</div>","null","delaylearn","learning","ITI","638526640404d47424e281ff","b3csoiYuvzcYk7dA3Q4k5T31y3Q2","","","","","","","","","","","","","","","","","","","1832","",""
"html-keyboard-response","7","12171","0.0-4.0-0.0","","310.30000000074506","<div style=""display: flex; flex-direction: column; align-items: center; margin-top: -40px;""><img src=""images/demo_images/pattern_1.png"" style=""width: 234px; height: 230px; margin-top: -50px;""><div style=""display: flex; justify-content: space-between; margin-top: 33px;""><img src=""images/demo_images/choice_trial_2.png"" style=""width: 408px; height: 417px; margin-right: 200px;""><img src=""images/demo_images/choice_trial_1.png"" style=""width: 408px; height: 417px;""></div></div>","f","delaylearn","learning","trial","638526640404d47424e281ff","b3csoiYuvzcYk7dA3Q4k5T31y3Q2","3","images/demo_images/choice_trial_2.png","images/demo_images/choice_trial_1.png","images/demo_images/pattern_1.png","j","j","3000","2","1","20","1","2","0","0","2","0","","","","",""
"html-keyboard-response","8","13187","0.0-4.0-1.0","","null","<div style=""display: flex; flex-direction: column; align-items: center; margin-top: -40px;""><img src=""images/demo_images/pattern_1.png"" style=""width: 234px; height: 230px; margin-top: -50px;""><div style=""display: flex; justify-content: space-between; margin-top: 33px;""><img src=""images/demo_images/choice_trial_2.png"" style=""width: 408px; height: 417px; margin-right: 608px;""></div></div>","null","delaylearn","learning","display_response","638526640404d47424e281ff","b3csoiYuvzcYk7dA3Q4k5T31y3Q2","","","","","","","","","","","","","","","","","chosen stimuli: images/demo_images/choice_trial_2.png","","","",""
"html-keyboard-response","9","16191","0.0-4.0-2.0","","null","","null","delaylearn","learning","feedback_duration_window","638526640404d47424e281ff","b3csoiYuvzcYk7dA3Q4k5T31y3Q2","","","","","","","","","","","","","","","","","","3000","","",""
"html-keyboard-response","10","17708","0.0-4.0-3.0","","null","<div style='margin:auto;width: auto; font-size: 150%'><span style='font-weight: bold; font-size: 100px; color: red;'>0 points!</span><br><br></div>","null","delaylearn","learning","feedback_image_window","638526640404d47424e281ff","b3csoiYuvzcYk7dA3Q4k5T31y3Q2","","","","","","","","","","","","","","","","","","","","",""
"html-keyboard-response","11","19293","0.0-5.0","","null","<div style=""font-size:100px;"">+</div>","null","delaylearn","learning","ITI","638526640404d47424e281ff","b3csoiYuvzcYk7dA3Q4k5T31y3Q2","","","","","","","","","","","","","","","","","","","1579","",""
"html-keyboard-response","12","19603","0.0-6.0-0.0","","307.5","<div style=""display: flex; flex-direction: column; align-items: center; margin-top: -40px;""><img src=""images/demo_images/pattern_1.png"" style=""width: 234px; height: 230px; margin-top: -50px;""><div style=""display: flex; justify-content: space-between; margin-top: 33px;""><img src=""images/demo_images/choice_trial_1.png"" style=""width: 408px; height: 417px; margin-right: 200px;""><img src=""images/demo_images/choice_trial_2.png"" style=""width: 408px; height: 417px;""></div></div>","f","delaylearn","learning","trial","638526640404d47424e281ff","b3csoiYuvzcYk7dA3Q4k5T31y3Q2","3","images/demo_images/choice_trial_1.png","images/demo_images/choice_trial_2.png","images/demo_images/pattern_1.png","j","f","3000","1","2","20","0","3","1","0","1","0","","","","",""
"html-keyboard-response","13","20614","0.0-6.0-1.0","","null","<div style=""display: flex; flex-direction: column; align-items: center; margin-top: -40px;""><img src=""images/demo_images/pattern_1.png"" style=""width: 234px; height: 230px; margin-top: -50px;""><div style=""display: flex; justify-content: space-between; margin-top: 33px;""><img src=""images/demo_images/choice_trial_1.png"" style=""width: 408px; height: 417px; margin-right: 608px;""></div></div>","null","delaylearn","learning","display_response","638526640404d47424e281ff","b3csoiYuvzcYk7dA3Q4k5T31y3Q2","","","","","","","","","","","","","","","","","chosen stimuli: images/demo_images/choice_trial_1.png","","","",""
"html-keyboard-response","14","23630","0.0-6.0-2.0","","null","","null","delaylearn","learning","feedback_duration_window","638526640404d47424e281ff","b3csoiYuvzcYk7dA3Q4k5T31y3Q2","","","","","","","","","","","","","","","","","","3000","","",""
"html-keyboard-response","15","25133","0.0-6.0-3.0","","null","<div style='margin:auto;width: auto; font-size: 150%'><span style='font-weight: bold; font-size: 100px; color: red;'>0 points!</span><br><br></div>","null","delaylearn","learning","feedback_image_window","638526640404d47424e281ff","b3csoiYuvzcYk7dA3Q4k5T31y3Q2","","","","","","","","","","","","","","","","","","","","",""
"html-keyboard-response","16","27153","0.0-7.0","","null","<div style=""font-size:100px;"">+</div>","null","delaylearn","learning","ITI","638526640404d47424e281ff","b3csoiYuvzcYk7dA3Q4k5T31y3Q2","","","","","","","","","","","","","","","","","","","2014","",""
"html-keyboard-response","17","27736","0.0-8.0-0.0","","581.3000000007451","<div style=""display: flex; flex-direction: column; align-items: center; margin-top: -40px;""><img src=""images/demo_images/pattern_1.png"" style=""width: 234px; height: 230px; margin-top: -50px;""><div style=""display: flex; justify-content: space-between; margin-top: 33px;""><img src=""images/demo_images/choice_trial_1.png"" style=""width: 408px; height: 417px; margin-right: 200px;""><img src=""images/demo_images/choice_trial_2.png"" style=""width: 408px; height: 417px;""></div></div>","j","delaylearn","learning","trial","638526640404d47424e281ff","b3csoiYuvzcYk7dA3Q4k5T31y3Q2","3","images/demo_images/choice_trial_1.png","images/demo_images/choice_trial_2.png","images/demo_images/pattern_1.png","f","f","3000","1","2","20","0","4","0","0","2","0","","","","",""
"html-keyboard-response","18","28753","0.0-8.0-1.0","","null","<div style=""display: flex; flex-direction: column; align-items: center; margin-top: -40px;""><img src=""images/demo_images/pattern_1.png"" style=""width: 234px; height: 230px; margin-top: -50px;""><div style=""display: flex; justify-content: space-between; margin-top: 33px;""><img src=""images/demo_images/choice_trial_2.png"" style=""width: 408px; height: 417px; margin-left:608px;""></div></div>","null","delaylearn","learning","display_response","638526640404d47424e281ff","b3csoiYuvzcYk7dA3Q4k5T31y3Q2","","","","","","","","","","","","","","","","","chosen stimuli: images/demo_images/choice_trial_2.png","","","",""
"html-keyboard-response","19","31759","0.0-8.0-2.0","","null","","null","delaylearn","learning","feedback_duration_window","638526640404d47424e281ff","b3csoiYuvzcYk7dA3Q4k5T31y3Q2","","","","","","","","","","","","","","","","","","3000","","",""
"html-keyboard-response","20","33276","0.0-8.0-3.0","","null","<div style='margin:auto;width: auto; font-size: 150%'><span style='font-weight: bold; font-size: 100px; color: red;'>0 points!</span><br><br></div>","null","delaylearn","learning","feedback_image_window","638526640404d47424e281ff","b3csoiYuvzcYk7dA3Q4k5T31y3Q2","","","","","","","","","","","","","","","","","","","","",""
"html-keyboard-response","21","33792","0.0-9.0-0.0","","null","","null","","","mood_trial_fixation","","","","","","","","","","","","","","","","","","","","","","",""
"lmdlab-html-vas-response","22","38192","0.0-9.0-1.0","","3362","How happy are you right now?","0.12037037037037036","delaylearn","learning","mood_trial","638526640404d47424e281ff","b3csoiYuvzcYk7dA3Q4k5T31y3Q2","","","","","","","","","","","","","","","","","","","","[""Very unhappy"",""Very happy""]",""
"html-keyboard-response","23","40182","0.0-10.0","","null","<div style=""font-size:100px;"">+</div>","null","delaylearn","learning","ITI","638526640404d47424e281ff","b3csoiYuvzcYk7dA3Q4k5T31y3Q2","","","","","","","","","","","","","","","","","","","1988","",""
"html-keyboard-response","24","41129","0.0-11.0-0.0","","943.0999999977648","<div style=""display: flex; flex-direction: column; align-items: center; margin-top: -40px;""><img src=""images/demo_images/pattern_1.png"" style=""width: 234px; height: 230px; margin-top: -50px;""><div style=""display: flex; justify-content: space-between; margin-top: 33px;""><img src=""images/demo_images/choice_trial_2.png"" style=""width: 408px; height: 417px; margin-right: 200px;""><img src=""images/demo_images/choice_trial_1.png"" style=""width: 408px; height: 417px;""></div></div>","j","delaylearn","learning","trial","638526640404d47424e281ff","b3csoiYuvzcYk7dA3Q4k5T31y3Q2","3","images/demo_images/choice_trial_2.png","images/demo_images/choice_trial_1.png","images/demo_images/pattern_1.png","j","j","3000","2","1","20","1","5","1","1","1","10","","","","",""
"html-keyboard-response","25","42135","0.0-11.0-1.0","","null","<div style=""display: flex; flex-direction: column; align-items: center; margin-top: -40px;""><img src=""images/demo_images/pattern_1.png"" style=""width: 234px; height: 230px; margin-top: -50px;""><div style=""display: flex; justify-content: space-between; margin-top: 33px;""><img src=""images/demo_images/choice_trial_1.png"" style=""width: 408px; height: 417px; margin-left:608px;""></div></div>","null","delaylearn","learning","display_response","638526640404d47424e281ff","b3csoiYuvzcYk7dA3Q4k5T31y3Q2","","","","","","","","","","","","","","","","","chosen stimuli: images/demo_images/choice_trial_1.png","","","",""
"html-keyboard-response","26","45138","0.0-11.0-2.0","","null","","null","delaylearn","learning","feedback_duration_window","638526640404d47424e281ff","b3csoiYuvzcYk7dA3Q4k5T31y3Q2","","","","","","","","","","","","","","","","","","3000","","",""
"html-keyboard-response","27","46654","0.0-11.0-3.0","","null","<div style='margin:auto;width: auto; font-size: 150%'><span style='font-weight: bold; font-size: 100px; color: green;'>+10 points!</span><br><br></div>","null","delaylearn","learning","feedback_image_window","638526640404d47424e281ff","b3csoiYuvzcYk7dA3Q4k5T31y3Q2","","","","","","","","","","","","","","","","","","","","",""
"html-keyboard-response","28","48891","0.0-12.0","","null","<div style=""font-size:100px;"">+</div>","null","delaylearn","learning","ITI","638526640404d47424e281ff","b3csoiYuvzcYk7dA3Q4k5T31y3Q2","","","","","","","","","","","","","","","","","","","2221","",""
"html-keyboard-response","29","49414","0.0-13.0-0.0","","518.3999999985099","<div style=""display: flex; flex-direction: column; align-items: center; margin-top: -40px;""><img src=""images/demo_images/pattern_1.png"" style=""width: 234px; height: 230px; margin-top: -50px;""><div style=""display: flex; justify-content: space-between; margin-top: 33px;""><img src=""images/demo_images/choice_trial_1.png"" style=""width: 408px; height: 417px; margin-right: 200px;""><img src=""images/demo_images/choice_trial_2.png"" style=""width: 408px; height: 417px;""></div></div>","f","delaylearn","learning","trial","638526640404d47424e281ff","b3csoiYuvzcYk7dA3Q4k5T31y3Q2","3","images/demo_images/choice_trial_1.png","images/demo_images/choice_trial_2.png","images/demo_images/pattern_1.png","f","f","3000","1","2","20","0","6","1","1","1","20","","","","",""
"html-keyboard-response","30","50428","0.0-13.0-1.0","","null","<div style=""display: flex; flex-direction: column; align-items: center; margin-top: -40px;""><img src=""images/demo_images/pattern_1.png"" style=""width: 234px; height: 230px; margin-top: -50px;""><div style=""display: flex; justify-content: space-between; margin-top: 33px;""><img src=""images/demo_images/choice_trial_1.png"" style=""width: 408px; height: 417px; margin-right: 608px;""></div></div>","null","delaylearn","learning","display_response","638526640404d47424e281ff","b3csoiYuvzcYk7dA3Q4k5T31y3Q2","","","","","","","","","","","","","","","","","chosen stimuli: images/demo_images/choice_trial_1.png","","","",""
"html-keyboard-response","31","53430","0.0-13.0-2.0","","null","","null","delaylearn","learning","feedback_duration_window","638526640404d47424e281ff","b3csoiYuvzcYk7dA3Q4k5T31y3Q2","","","","","","","","","","","","","","","","","","3000","","",""
"html-keyboard-response","32","54948","0.0-13.0-3.0","","null","<div style='margin:auto;width: auto; font-size: 150%'><span style='font-weight: bold; font-size: 100px; color: green;'>+10 points!</span><br><br></div>","null","delaylearn","learning","feedback_image_window","638526640404d47424e281ff","b3csoiYuvzcYk7dA3Q4k5T31y3Q2","","","","","","","","","","","","","","","","","","","","",""
"html-keyboard-response","33","56682","0.0-14.0","","null","<div style=""font-size:100px;"">+</div>","null","delaylearn","learning","ITI","638526640404d47424e281ff","b3csoiYuvzcYk7dA3Q4k5T31y3Q2","","","","","","","","","","","","","","","","","","","1729","",""
"html-keyboard-response","34","57069","0.0-15.0-0.0","","383.1000000014901","<div style=""display: flex; flex-direction: column; align-items: center; margin-top: -40px;""><img src=""images/demo_images/pattern_1.png"" style=""width: 234px; height: 230px; margin-top: -50px;""><div style=""display: flex; justify-content: space-between; margin-top: 33px;""><img src=""images/demo_images/choice_trial_2.png"" style=""width: 408px; height: 417px; margin-right: 200px;""><img src=""images/demo_images/choice_trial_1.png"" style=""width: 408px; height: 417px;""></div></div>","j","delaylearn","learning","trial","638526640404d47424e281ff","b3csoiYuvzcYk7dA3Q4k5T31y3Q2","3","images/demo_images/choice_trial_2.png","images/demo_images/choice_trial_1.png","images/demo_images/pattern_1.png","j","j","3000","2","1","20","1","7","1","1","1","30","","","","",""
"html-keyboard-response","35","58083","0.0-15.0-1.0","","null","<div style=""display: flex; flex-direction: column; align-items: center; margin-top: -40px;""><img src=""images/demo_images/pattern_1.png"" style=""width: 234px; height: 230px; margin-top: -50px;""><div style=""display: flex; justify-content: space-between; margin-top: 33px;""><img src=""images/demo_images/choice_trial_1.png"" style=""width: 408px; height: 417px; margin-left:608px;""></div></div>","null","delaylearn","learning","display_response","638526640404d47424e281ff","b3csoiYuvzcYk7dA3Q4k5T31y3Q2","","","","","","","","","","","","","","","","","chosen stimuli: images/demo_images/choice_trial_1.png","","","",""
"html-keyboard-response","36","61087","0.0-15.0-2.0","","null","","null","delaylearn","learning","feedback_duration_window","638526640404d47424e281ff","b3csoiYuvzcYk7dA3Q4k5T31y3Q2","","","","","","","","","","","","","","","","","","3000","","",""
"html-keyboard-response","37","62605","0.0-15.0-3.0","","null","<div style='margin:auto;width: auto; font-size: 150%'><span style='font-weight: bold; font-size: 100px; color: green;'>+10 points!</span><br><br></div>","null","delaylearn","learning","feedback_image_window","638526640404d47424e281ff","b3csoiYuvzcYk7dA3Q4k5T31y3Q2","","","","","","","","","","","","","","","","","","","","",""
"html-keyboard-response","38","64708","0.0-16.0","","null","<div style=""font-size:100px;"">+</div>","null","delaylearn","learning","ITI","638526640404d47424e281ff","b3csoiYuvzcYk7dA3Q4k5T31y3Q2","","","","","","","","","","","","","","","","","","","2087","",""
"html-keyboard-response","39","65226","0.0-17.0-0.0","","513.1999999992549","<div style=""display: flex; flex-direction: column; align-items: center; margin-top: -40px;""><img src=""images/demo_images/pattern_1.png"" style=""width: 234px; height: 230px; margin-top: -50px;""><div style=""display: flex; justify-content: space-between; margin-top: 33px;""><img src=""images/demo_images/choice_trial_1.png"" style=""width: 408px; height: 417px; margin-right: 200px;""><img src=""images/demo_images/choice_trial_2.png"" style=""width: 408px; height: 417px;""></div></div>","f","delaylearn","learning","trial","638526640404d47424e281ff","b3csoiYuvzcYk7dA3Q4k5T31y3Q2","3","images/demo_images/choice_trial_1.png","images/demo_images/choice_trial_2.png","images/demo_images/pattern_1.png","f","f","3000","1","2","20","0","8","1","1","1","40","","","","",""
"html-keyboard-response","40","66243","0.0-17.0-1.0","","null","<div style=""display: flex; flex-direction: column; align-items: center; margin-top: -40px;""><img src=""images/demo_images/pattern_1.png"" style=""width: 234px; height: 230px; margin-top: -50px;""><div style=""display: flex; justify-content: space-between; margin-top: 33px;""><img src=""images/demo_images/choice_trial_1.png"" style=""width: 408px; height: 417px; margin-right: 608px;""></div></div>","null","delaylearn","learning","display_response","638526640404d47424e281ff","b3csoiYuvzcYk7dA3Q4k5T31y3Q2","","","","","","","","","","","","","","","","","chosen stimuli: images/demo_images/choice_trial_1.png","","","",""
"html-keyboard-response","41","69259","0.0-17.0-2.0","","null","","null","delaylearn","learning","feedback_duration_window","638526640404d47424e281ff","b3csoiYuvzcYk7dA3Q4k5T31y3Q2","","","","","","","","","","","","","","","","","","3000","","",""
"html-keyboard-response","42","70763","0.0-17.0-3.0","","null","<div style='margin:auto;width: auto; font-size: 150%'><span style='font-weight: bold; font-size: 100px; color: green;'>+10 points!</span><br><br></div>","null","delaylearn","learning","feedback_image_window","638526640404d47424e281ff","b3csoiYuvzcYk7dA3Q4k5T31y3Q2","","","","","","","","","","","","","","","","","","","","",""
"html-button-response","43","72703","0.0-18.0","","1937.699999999255","
  <div style=""display: flex; align-items: center; justify-content: center; height: 80vh;"">
  <div>
          <img src=""images/inst_demo_finish.png"" style=""width: 80vw; height:auto;"">
          <br><br>
      </div>
      <br><br>
  </div>","0","","","","","","","","","","","","","","","","","","","","","","","","","",""
"html-keyboard-response","44","75862","0.0-19.0","","3157.300000000745","
  <div style=""display: flex; align-items: center; justify-content: center; height: 80vh;"">
  <div>
          <img src=""images/inst_6.png"" style=""width: 80vw; height:auto;"">
          <br><br>
      </div>
      <br><br>
  </div>","j","","","","","","","","","","","","","","","","","","","","","","","","","",""
"html-keyboard-response","45","78871","0.0-20.0","","null","<div style=""font-size:100px;"">+</div>","null","delaylearn","learning","pre_fixation","638526640404d47424e281ff","","","","","","","","","","","","","","","","","","","","","",""
"html-keyboard-response","46","81324","0.0-21.0","","null","<div style=""font-size:100px;"">+</div>","null","delaylearn","learning","ITI","638526640404d47424e281ff","b3csoiYuvzcYk7dA3Q4k5T31y3Q2","","","","","","","","","","","","","","","","","","","2443","",""
"html-keyboard-response","47","82495","0.0-22.0-0.0","","1167.0999999977648","<div style=""display: flex; flex-direction: column; align-items: center; margin-top: -40px;""><img src=""images/pattern_3.png"" style=""width: 234px; height: 230px; margin-top: -50px;""><div style=""display: flex; justify-content: space-between; margin-top: 33px;""><img src=""images/choice_trial_13.png"" style=""width: 408px; height: 417px; margin-right: 200px;""><img src=""images/choice_trial_10.png"" style=""width: 408px; height: 417px;""></div></div>","f","delaylearn","learning","trial","638526640404d47424e281ff","b3csoiYuvzcYk7dA3Q4k5T31y3Q2","3","images/choice_trial_13.png","images/choice_trial_10.png","images/pattern_3.png","f","f","7000","13","10","2","0","9","1","1","13","50","","","","",""
"html-keyboard-response","48","83509","0.0-22.0-1.0","","null","<div style=""display: flex; flex-direction: column; align-items: center; margin-top: -40px;""><img src=""images/pattern_3.png"" style=""width: 234px; height: 230px; margin-top: -50px;""><div style=""display: flex; justify-content: space-between; margin-top: 33px;""><img src=""images/choice_trial_13.png"" style=""width: 408px; height: 417px; margin-right: 608px;""></div></div>","null","delaylearn","learning","display_response","638526640404d47424e281ff","b3csoiYuvzcYk7dA3Q4k5T31y3Q2","","","","","","","","","","","","","","","","","chosen stimuli: images/choice_trial_13.png","","","",""
"html-keyboard-response","49","90516","0.0-22.0-2.0","","null","","null","delaylearn","learning","feedback_duration_window","638526640404d47424e281ff","b3csoiYuvzcYk7dA3Q4k5T31y3Q2","","","","","","","","","","","","","","","","","","7000","","",""
"html-keyboard-response","50","92019","0.0-22.0-3.0","","null","<div style='margin:auto;width: auto; font-size: 150%'><span style='font-weight: bold; font-size: 100px; color: green;'>+10 points!</span><br><br></div>","null","delaylearn","learning","feedback_image_window","638526640404d47424e281ff","b3csoiYuvzcYk7dA3Q4k5T31y3Q2","","","","","","","","","","","","","","","","","","","","",""
"html-keyboard-response","51","93821","0.0-23.0","","null","<div style=""font-size:100px;"">+</div>","null","delaylearn","learning","ITI","638526640404d47424e281ff","b3csoiYuvzcYk7dA3Q4k5T31y3Q2","","","","","","","","","","","","","","","","","","","1800","",""
"html-keyboard-response","52","94862","0.0-24.0-0.0","","1036.800000000745","<div style=""display: flex; flex-direction: column; align-items: center; margin-top: -40px;""><img src=""images/pattern_7.png"" style=""width: 234px; height: 230px; margin-top: -50px;""><div style=""display: flex; justify-content: space-between; margin-top: 33px;""><img src=""images/choice_trial_12.png"" style=""width: 408px; height: 417px; margin-right: 200px;""><img src=""images/choice_trial_6.png"" style=""width: 408px; height: 417px;""></div></div>","f","delaylearn","learning","trial","638526640404d47424e281ff","b3csoiYuvzcYk7dA3Q4k5T31y3Q2","3","images/choice_trial_12.png","images/choice_trial_6.png","images/pattern_7.png","j","j","750","12","6","6","1","10","0","0","12","50","","","","",""
"html-keyboard-response","53","95872","0.0-24.0-1.0","","null","<div style=""display: flex; flex-direction: column; align-items: center; margin-top: -40px;""><img src=""images/pattern_7.png"" style=""width: 234px; height: 230px; margin-top: -50px;""><div style=""display: flex; justify-content: space-between; margin-top: 33px;""><img src=""images/choice_trial_12.png"" style=""width: 408px; height: 417px; margin-right: 608px;""></div></div>","null","delaylearn","learning","display_response","638526640404d47424e281ff","b3csoiYuvzcYk7dA3Q4k5T31y3Q2","","","","","","","","","","","","","","","","","chosen stimuli: images/choice_trial_12.png","","","",""
"html-keyboard-response","54","96624","0.0-24.0-2.0","","null","","null","delaylearn","learning","feedback_duration_window","638526640404d47424e281ff","b3csoiYuvzcYk7dA3Q4k5T31y3Q2","","","","","","","","","","","","","","","","","","750","","",""
"html-keyboard-response","55","98142","0.0-24.0-3.0","","null","<div style='margin:auto;width: auto; font-size: 150%'><span style='font-weight: bold; font-size: 100px; color: red;'>0 points!</span><br><br></div>","null","delaylearn","learning","feedback_image_window","638526640404d47424e281ff","b3csoiYuvzcYk7dA3Q4k5T31y3Q2","","","","","","","","","","","","","","","","","","","","",""
"html-keyboard-response","56","100409","0.0-25.0","","null","<div style=""font-size:100px;"">+</div>","null","delaylearn","learning","ITI","638526640404d47424e281ff","b3csoiYuvzcYk7dA3Q4k5T31y3Q2","","","","","","","","","","","","","","","","","","","2254","",""
"html-keyboard-response","57","101275","0.0-26.0-0.0","","862.8000000007451","<div style=""display: flex; flex-direction: column; align-items: center; margin-top: -40px;""><img src=""images/pattern_4.png"" style=""width: 234px; height: 230px; margin-top: -50px;""><div style=""display: flex; justify-content: space-between; margin-top: 33px;""><img src=""images/choice_trial_15.png"" style=""width: 408px; height: 417px; margin-right: 200px;""><img src=""images/choice_trial_9.png"" style=""width: 408px; height: 417px;""></div></div>","f","delaylearn","learning","trial","638526640404d47424e281ff","b3csoiYuvzcYk7dA3Q4k5T31y3Q2","3","images/choice_trial_15.png","images/choice_trial_9.png","images/pattern_4.png","f","f","7000","15","9","3","0","11","1","1","15","60","","","","",""
"html-keyboard-response","58","102278","0.0-26.0-1.0","","null","<div style=""display: flex; flex-direction: column; align-items: center; margin-top: -40px;""><img src=""images/pattern_4.png"" style=""width: 234px; height: 230px; margin-top: -50px;""><div style=""display: flex; justify-content: space-between; margin-top: 33px;""><img src=""images/choice_trial_15.png"" style=""width: 408px; height: 417px; margin-right: 608px;""></div></div>","null","delaylearn","learning","display_response","638526640404d47424e281ff","b3csoiYuvzcYk7dA3Q4k5T31y3Q2","","","","","","","","","","","","","","","","","chosen stimuli: images/choice_trial_15.png","","","",""
"html-keyboard-response","59","109288","0.0-26.0-2.0","","null","","null","delaylearn","learning","feedback_duration_window","638526640404d47424e281ff","b3csoiYuvzcYk7dA3Q4k5T31y3Q2","","","","","","","","","","","","","","","","","","7000","","",""
"html-keyboard-response","60","110802","0.0-26.0-3.0","","null","<div style='margin:auto;width: auto; font-size: 150%'><span style='font-weight: bold; font-size: 100px; color: green;'>+10 points!</span><br><br></div>","null","delaylearn","learning","feedback_image_window","638526640404d47424e281ff","b3csoiYuvzcYk7dA3Q4k5T31y3Q2","","","","","","","","","","","","","","","","","","","","",""
"html-keyboard-response","61","113237","0.0-27.0","","null","<div style=""font-size:100px;"">+</div>","null","delaylearn","learning","ITI","638526640404d47424e281ff","b3csoiYuvzcYk7dA3Q4k5T31y3Q2","","","","","","","","","","","","","","","","","","","2422","",""
"html-keyboard-response","62","114357","0.0-28.0-0.0","","1115.8999999985099","<div style=""display: flex; flex-direction: column; align-items: center; margin-top: -40px;""><img src=""images/pattern_5.png"" style=""width: 234px; height: 230px; margin-top: -50px;""><div style=""display: flex; justify-content: space-between; margin-top: 33px;""><img src=""images/choice_trial_2.png"" style=""width: 408px; height: 417px; margin-right: 200px;""><img src=""images/choice_trial_11.png"" style=""width: 408px; height: 417px;""></div></div>","j","delaylearn","learning","trial","638526640404d47424e281ff","b3csoiYuvzcYk7dA3Q4k5T31y3Q2","3","images/choice_trial_2.png","images/choice_trial_11.png","images/pattern_5.png","j","j","750","2","11","4","1","12","1","1","11","70","","","","",""
"html-keyboard-response","63","115375","0.0-28.0-1.0","","null","<div style=""display: flex; flex-direction: column; align-items: center; margin-top: -40px;""><img src=""images/pattern_5.png"" style=""width: 234px; height: 230px; margin-top: -50px;""><div style=""display: flex; justify-content: space-between; margin-top: 33px;""><img src=""images/choice_trial_11.png"" style=""width: 408px; height: 417px; margin-left:608px;""></div></div>","null","delaylearn","learning","display_response","638526640404d47424e281ff","b3csoiYuvzcYk7dA3Q4k5T31y3Q2","","","","","","","","","","","","","","","","","chosen stimuli: images/choice_trial_11.png","","","",""
"html-keyboard-response","64","116141","0.0-28.0-2.0","","null","","null","delaylearn","learning","feedback_duration_window","638526640404d47424e281ff","b3csoiYuvzcYk7dA3Q4k5T31y3Q2","","","","","","","","","","","","","","","","","","750","","",""
"html-keyboard-response","65","117643","0.0-28.0-3.0","","null","<div style='margin:auto;width: auto; font-size: 150%'><span style='font-weight: bold; font-size: 100px; color: green;'>+10 points!</span><br><br></div>","null","delaylearn","learning","feedback_image_window","638526640404d47424e281ff","b3csoiYuvzcYk7dA3Q4k5T31y3Q2","","","","","","","","","","","","","","","","","","","","",""
"html-keyboard-response","66","119596","0.0-29.0","","null","<div style=""font-size:100px;"">+</div>","null","delaylearn","learning","ITI","638526640404d47424e281ff","b3csoiYuvzcYk7dA3Q4k5T31y3Q2","","","","","","","","","","","","","","","","","","","1951","",""
"html-keyboard-response","67","120649","0.0-30.0-0.0","","1048.6000000014901","<div style=""display: flex; flex-direction: column; align-items: center; margin-top: -40px;""><img src=""images/pattern_6.png"" style=""width: 234px; height: 230px; margin-top: -50px;""><div style=""display: flex; justify-content: space-between; margin-top: 33px;""><img src=""images/choice_trial_16.png"" style=""width: 408px; height: 417px; margin-right: 200px;""><img src=""images/choice_trial_3.png"" style=""width: 408px; height: 417px;""></div></div>","f","delaylearn","learning","trial","638526640404d47424e281ff","b3csoiYuvzcYk7dA3Q4k5T31y3Q2","3","images/choice_trial_16.png","images/choice_trial_3.png","images/pattern_6.png","j","f","750","16","3","5","0","13","1","0","16","70","","","","",""
"html-keyboard-response","68","121652","0.0-30.0-1.0","","null","<div style=""display: flex; flex-direction: column; align-items: center; margin-top: -40px;""><img src=""images/pattern_6.png"" style=""width: 234px; height: 230px; margin-top: -50px;""><div style=""display: flex; justify-content: space-between; margin-top: 33px;""><img src=""images/choice_trial_16.png"" style=""width: 408px; height: 417px; margin-right: 608px;""></div></div>","null","delaylearn","learning","display_response","638526640404d47424e281ff","b3csoiYuvzcYk7dA3Q4k5T31y3Q2","","","","","","","","","","","","","","","","","chosen stimuli: images/choice_trial_16.png","","","",""
"html-keyboard-response","69","122414","0.0-30.0-2.0","","null","","null","delaylearn","learning","feedback_duration_window","638526640404d47424e281ff","b3csoiYuvzcYk7dA3Q4k5T31y3Q2","","","","","","","","","","","","","","","","","","750","","",""
"html-keyboard-response","70","123930","0.0-30.0-3.0","","null","<div style='margin:auto;width: auto; font-size: 150%'><span style='font-weight: bold; font-size: 100px; color: red;'>0 points!</span><br><br></div>","null","delaylearn","learning","feedback_image_window","638526640404d47424e281ff","b3csoiYuvzcYk7dA3Q4k5T31y3Q2","","","","","","","","","","","","","","","","","","","","",""
"html-keyboard-response","71","124446","0.0-31.0-0.0","","null","","null","","","mood_trial_fixation","","","","","","","","","","","","","","","","","","","","","","",""
"lmdlab-html-vas-response","72","129049","0.0-31.0-1.0","","3581","How happy are you right now?","0.4351851851851852","delaylearn","learning","mood_trial","638526640404d47424e281ff","b3csoiYuvzcYk7dA3Q4k5T31y3Q2","","","","","","","","","","","","","","","","","","","","[""Very unhappy"",""Very happy""]",""
"html-keyboard-response","73","130786","0.0-32.0","","null","<div style=""font-size:100px;"">+</div>","null","delaylearn","learning","ITI","638526640404d47424e281ff","b3csoiYuvzcYk7dA3Q4k5T31y3Q2","","","","","","","","","","","","","","","","","","","1726","",""
"html-keyboard-response","74","132539","0.0-33.0-0.0","","1748.800000000745","<div style=""display: flex; flex-direction: column; align-items: center; margin-top: -40px;""><img src=""images/pattern_1.png"" style=""width: 234px; height: 230px; margin-top: -50px;""><div style=""display: flex; justify-content: space-between; margin-top: 33px;""><img src=""images/choice_trial_8.png"" style=""width: 408px; height: 417px; margin-right: 200px;""><img src=""images/choice_trial_14.png"" style=""width: 408px; height: 417px;""></div></div>","j","delaylearn","learning","trial","638526640404d47424e281ff","b3csoiYuvzcYk7dA3Q4k5T31y3Q2","3","images/choice_trial_8.png","images/choice_trial_14.png","images/pattern_1.png","j","j","7000","8","14","1","1","14","1","1","14","80","","","","",""
"html-keyboard-response","75","133542","0.0-33.0-1.0","","null","<div style=""display: flex; flex-direction: column; align-items: center; margin-top: -40px;""><img src=""images/pattern_1.png"" style=""width: 234px; height: 230px; margin-top: -50px;""><div style=""display: flex; justify-content: space-between; margin-top: 33px;""><img src=""images/choice_trial_14.png"" style=""width: 408px; height: 417px; margin-left:608px;""></div></div>","null","delaylearn","learning","display_response","638526640404d47424e281ff","b3csoiYuvzcYk7dA3Q4k5T31y3Q2","","","","","","","","","","","","","","","","","chosen stimuli: images/choice_trial_14.png","","","",""
"html-keyboard-response","76","140550","0.0-33.0-2.0","","null","","null","delaylearn","learning","feedback_duration_window","638526640404d47424e281ff","b3csoiYuvzcYk7dA3Q4k5T31y3Q2","","","","","","","","","","","","","","","","","","7000","","",""
"html-keyboard-response","77","142054","0.0-33.0-3.0","","null","<div style='margin:auto;width: auto; font-size: 150%'><span style='font-weight: bold; font-size: 100px; color: green;'>+10 points!</span><br><br></div>","null","delaylearn","learning","feedback_image_window","638526640404d47424e281ff","b3csoiYuvzcYk7dA3Q4k5T31y3Q2","","","","","","","","","","","","","","","","","","","","",""
"html-keyboard-response","78","143685","0.0-34.0","","null","<div style=""font-size:100px;"">+</div>","null","delaylearn","learning","ITI","638526640404d47424e281ff","b3csoiYuvzcYk7dA3Q4k5T31y3Q2","","","","","","","","","","","","","","","","","","","1624","",""
"html-keyboard-response","79","144575","0.0-35.0-0.0","","887.2000000029802","<div style=""display: flex; flex-direction: column; align-items: center; margin-top: -40px;""><img src=""images/pattern_3.png"" style=""width: 234px; height: 230px; margin-top: -50px;""><div style=""display: flex; justify-content: space-between; margin-top: 33px;""><img src=""images/choice_trial_10.png"" style=""width: 408px; height: 417px; margin-right: 200px;""><img src=""images/choice_trial_13.png"" style=""width: 408px; height: 417px;""></div></div>","f","delaylearn","learning","trial","638526640404d47424e281ff","b3csoiYuvzcYk7dA3Q4k5T31y3Q2","3","images/choice_trial_10.png","images/choice_trial_13.png","images/pattern_3.png","f","j","7000","10","13","2","1","15","0","1","10","90","","","","",""
"html-keyboard-response","80","145588","0.0-35.0-1.0","","null","<div style=""display: flex; flex-direction: column; align-items: center; margin-top: -40px;""><img src=""images/pattern_3.png"" style=""width: 234px; height: 230px; margin-top: -50px;""><div style=""display: flex; justify-content: space-between; margin-top: 33px;""><img src=""images/choice_trial_10.png"" style=""width: 408px; height: 417px; margin-right: 608px;""></div></div>","null","delaylearn","learning","display_response","638526640404d47424e281ff","b3csoiYuvzcYk7dA3Q4k5T31y3Q2","","","","","","","","","","","","","","","","","chosen stimuli: images/choice_trial_10.png","","","",""
"html-keyboard-response","81","152596","0.0-35.0-2.0","","null","","null","delaylearn","learning","feedback_duration_window","638526640404d47424e281ff","b3csoiYuvzcYk7dA3Q4k5T31y3Q2","","","","","","","","","","","","","","","","","","7000","","",""
"html-keyboard-response","82","154099","0.0-35.0-3.0","","null","<div style='margin:auto;width: auto; font-size: 150%'><span style='font-weight: bold; font-size: 100px; color: green;'>+10 points!</span><br><br></div>","null","delaylearn","learning","feedback_image_window","638526640404d47424e281ff","b3csoiYuvzcYk7dA3Q4k5T31y3Q2","","","","","","","","","","","","","","","","","","","","",""
"html-keyboard-response","83","156199","0.0-36.0","","null","<div style=""font-size:100px;"">+</div>","null","delaylearn","learning","ITI","638526640404d47424e281ff","b3csoiYuvzcYk7dA3Q4k5T31y3Q2","","","","","","","","","","","","","","","","","","","2088","",""
"html-keyboard-response","84","157776","0.0-37.0-0.0","","1573.3999999985099","<div style=""display: flex; flex-direction: column; align-items: center; margin-top: -40px;""><img src=""images/pattern_5.png"" style=""width: 234px; height: 230px; margin-top: -50px;""><div style=""display: flex; justify-content: space-between; margin-top: 33px;""><img src=""images/choice_trial_11.png"" style=""width: 408px; height: 417px; margin-right: 200px;""><img src=""images/choice_trial_2.png"" style=""width: 408px; height: 417px;""></div></div>","f","delaylearn","learning","trial","638526640404d47424e281ff","b3csoiYuvzcYk7dA3Q4k5T31y3Q2","3","images/choice_trial_11.png","images/choice_trial_2.png","images/pattern_5.png","f","f","750","11","2","4","0","16","1","1","11","100","","","","",""
"html-keyboard-response","85","158786","0.0-37.0-1.0","","null","<div style=""display: flex; flex-direction: column; align-items: center; margin-top: -40px;""><img src=""images/pattern_5.png"" style=""width: 234px; height: 230px; margin-top: -50px;""><div style=""display: flex; justify-content: space-between; margin-top: 33px;""><img src=""images/choice_trial_11.png"" style=""width: 408px; height: 417px; margin-right: 608px;""></div></div>","null","delaylearn","learning","display_response","638526640404d47424e281ff","b3csoiYuvzcYk7dA3Q4k5T31y3Q2","","","","","","","","","","","","","","","","","chosen stimuli: images/choice_trial_11.png","","","",""
"html-keyboard-response","86","159552","0.0-37.0-2.0","","null","","null","delaylearn","learning","feedback_duration_window","638526640404d47424e281ff","b3csoiYuvzcYk7dA3Q4k5T31y3Q2","","","","","","","","","","","","","","","","","","750","","",""
"html-keyboard-response","87","161055","0.0-37.0-3.0","","null","<div style='margin:auto;width: auto; font-size: 150%'><span style='font-weight: bold; font-size: 100px; color: green;'>+10 points!</span><br><br></div>","null","delaylearn","learning","feedback_image_window","638526640404d47424e281ff","b3csoiYuvzcYk7dA3Q4k5T31y3Q2","","","","","","","","","","","","","","","","","","","","",""
"html-keyboard-response","88","161570","0.0-38.0-0.0","","null","","null","","","mood_trial_fixation","","","","","","","","","","","","","","","","","","","","","","",""
"lmdlab-html-vas-response","89","166976","0.0-38.0-1.0","","4385","How happy are you right now?","0.5115740740740741","delaylearn","learning","mood_trial","638526640404d47424e281ff","b3csoiYuvzcYk7dA3Q4k5T31y3Q2","","","","","","","","","","","","","","","","","","","","[""Very unhappy"",""Very happy""]",""
"html-keyboard-response","90","168544","0.0-39.0","","null","<div style=""font-size:100px;"">+</div>","null","delaylearn","learning","ITI","638526640404d47424e281ff","b3csoiYuvzcYk7dA3Q4k5T31y3Q2","","","","","","","","","","","","","","","","","","","1557","",""
"html-keyboard-response","91","170334","0.0-40.0-0.0","","1786","<div style=""display: flex; flex-direction: column; align-items: center; margin-top: -40px;""><img src=""images/pattern_6.png"" style=""width: 234px; height: 230px; margin-top: -50px;""><div style=""display: flex; justify-content: space-between; margin-top: 33px;""><img src=""images/choice_trial_16.png"" style=""width: 408px; height: 417px; margin-right: 200px;""><img src=""images/choice_trial_3.png"" style=""width: 408px; height: 417px;""></div></div>","j","delaylearn","learning","trial","638526640404d47424e281ff","b3csoiYuvzcYk7dA3Q4k5T31y3Q2","3","images/choice_trial_16.png","images/choice_trial_3.png","images/pattern_6.png","f","f","750","16","3","5","0","17","0","0","3","100","","","","",""
"html-keyboard-response","92","171348","0.0-40.0-1.0","","null","<div style=""display: flex; flex-direction: column; align-items: center; margin-top: -40px;""><img src=""images/pattern_6.png"" style=""width: 234px; height: 230px; margin-top: -50px;""><div style=""display: flex; justify-content: space-between; margin-top: 33px;""><img src=""images/choice_trial_3.png"" style=""width: 408px; height: 417px; margin-left:608px;""></div></div>","null","delaylearn","learning","display_response","638526640404d47424e281ff","b3csoiYuvzcYk7dA3Q4k5T31y3Q2","","","","","","","","","","","","","","","","","chosen stimuli: images/choice_trial_3.png","","","",""
"html-keyboard-response","93","172100","0.0-40.0-2.0","","null","","null","delaylearn","learning","feedback_duration_window","638526640404d47424e281ff","b3csoiYuvzcYk7dA3Q4k5T31y3Q2","","","","","","","","","","","","","","","","","","750","","",""
"html-keyboard-response","94","173602","0.0-40.0-3.0","","null","<div style='margin:auto;width: auto; font-size: 150%'><span style='font-weight: bold; font-size: 100px; color: red;'>0 points!</span><br><br></div>","null","delaylearn","learning","feedback_image_window","638526640404d47424e281ff","b3csoiYuvzcYk7dA3Q4k5T31y3Q2","","","","","","","","","","","","","","","","","","","","",""
"html-keyboard-response","95","175753","0.0-41.0","","null","<div style=""font-size:100px;"">+</div>","null","delaylearn","learning","ITI","638526640404d47424e281ff","b3csoiYuvzcYk7dA3Q4k5T31y3Q2","","","","","","","","","","","","","","","","","","","2146","",""
"html-keyboard-response","96","178169","0.0-42.0-0.0","","2412.199999999255","<div style=""display: flex; flex-direction: column; align-items: center; margin-top: -40px;""><img src=""images/pattern_4.png"" style=""width: 234px; height: 230px; margin-top: -50px;""><div style=""display: flex; justify-content: space-between; margin-top: 33px;""><img src=""images/choice_trial_9.png"" style=""width: 408px; height: 417px; margin-right: 200px;""><img src=""images/choice_trial_15.png"" style=""width: 408px; height: 417px;""></div></div>","j","delaylearn","learning","trial","638526640404d47424e281ff","b3csoiYuvzcYk7dA3Q4k5T31y3Q2","3","images/choice_trial_9.png","images/choice_trial_15.png","images/pattern_4.png","j","j","7000","9","15","3","1","18","1","1","15","110","","","","",""
"html-keyboard-response","97","179173","0.0-42.0-1.0","","null","<div style=""display: flex; flex-direction: column; align-items: center; margin-top: -40px;""><img src=""images/pattern_4.png"" style=""width: 234px; height: 230px; margin-top: -50px;""><div style=""display: flex; justify-content: space-between; margin-top: 33px;""><img src=""images/choice_trial_15.png"" style=""width: 408px; height: 417px; margin-left:608px;""></div></div>","null","delaylearn","learning","display_response","638526640404d47424e281ff","b3csoiYuvzcYk7dA3Q4k5T31y3Q2","","","","","","","","","","","","","","","","","chosen stimuli: images/choice_trial_15.png","","","",""
"html-keyboard-response","98","186180","0.0-42.0-2.0","","null","","null","delaylearn","learning","feedback_duration_window","638526640404d47424e281ff","b3csoiYuvzcYk7dA3Q4k5T31y3Q2","","","","","","","","","","","","","","","","","","7000","","",""
"html-keyboard-response","99","187697","0.0-42.0-3.0","","null","<div style='margin:auto;width: auto; font-size: 150%'><span style='font-weight: bold; font-size: 100px; color: green;'>+10 points!</span><br><br></div>","null","delaylearn","learning","feedback_image_window","638526640404d47424e281ff","b3csoiYuvzcYk7dA3Q4k5T31y3Q2","","","","","","","","","","","","","","","","","","","","",""
"html-keyboard-response","100","189966","0.0-43.0","","null","<div style=""font-size:100px;"">+</div>","null","delaylearn","learning","ITI","638526640404d47424e281ff","b3csoiYuvzcYk7dA3Q4k5T31y3Q2","","","","","","","","","","","","","","","","","","","2261","",""
"html-keyboard-response","101","192970","0.0-44.0-0.0","","null","<div style=""display: flex; flex-direction: column; align-items: center; margin-top: -40px;""><img src=""images/pattern_7.png"" style=""width: 234px; height: 230px; margin-top: -50px;""><div style=""display: flex; justify-content: space-between; margin-top: 33px;""><img src=""images/choice_trial_6.png"" style=""width: 408px; height: 417px; margin-right: 200px;""><img src=""images/choice_trial_12.png"" style=""width: 408px; height: 417px;""></div></div>","null","delaylearn","learning","trial","638526640404d47424e281ff","b3csoiYuvzcYk7dA3Q4k5T31y3Q2","3","images/choice_trial_6.png","images/choice_trial_12.png","images/pattern_7.png","j","f","750","6","12","6","0","19","0","0","0","110","","","","",""
"html-keyboard-response","102","193987","0.0-44.0-1.0","","null","<div style='font-weight: bold; font-size: 75px; color: red;'>Missed Trial <br><br><br><br> Please respond faster</div>","null","delaylearn","learning","display_response","638526640404d47424e281ff","b3csoiYuvzcYk7dA3Q4k5T31y3Q2","","","","","","","","","","","","","","","","","Missed trial","","","",""
"html-keyboard-response","103","193994","0.0-44.0-2.0","","null","","null","delaylearn","learning","feedback_duration_window","638526640404d47424e281ff","b3csoiYuvzcYk7dA3Q4k5T31y3Q2","","","","","","","","","","","","","","","","","","0","","",""
"html-keyboard-response","104","194000","0.0-44.0-3.0","","null","","null","delaylearn","learning","feedback_image_window","638526640404d47424e281ff","b3csoiYuvzcYk7dA3Q4k5T31y3Q2","","","","","","","","","","","","","","","","","","","","",""
"html-keyboard-response","105","196373","0.0-45.0","","null","<div style=""font-size:100px;"">+</div>","null","delaylearn","learning","ITI","638526640404d47424e281ff","b3csoiYuvzcYk7dA3Q4k5T31y3Q2","","","","","","","","","","","","","","","","","","","2362","",""
"html-keyboard-response","106","197167","0.0-46.0-0.0","","790","<div style=""display: flex; flex-direction: column; align-items: center; margin-top: -40px;""><img src=""images/pattern_1.png"" style=""width: 234px; height: 230px; margin-top: -50px;""><div style=""display: flex; justify-content: space-between; margin-top: 33px;""><img src=""images/choice_trial_14.png"" style=""width: 408px; height: 417px; margin-right: 200px;""><img src=""images/choice_trial_8.png"" style=""width: 408px; height: 417px;""></div></div>","f","delaylearn","learning","trial","638526640404d47424e281ff","b3csoiYuvzcYk7dA3Q4k5T31y3Q2","3","images/choice_trial_14.png","images/choice_trial_8.png","images/pattern_1.png","f","f","7000","14","8","1","0","20","1","1","14","120","","","","",""
"html-keyboard-response","107","198180","0.0-46.0-1.0","","null","<div style=""display: flex; flex-direction: column; align-items: center; margin-top: -40px;""><img src=""images/pattern_1.png"" style=""width: 234px; height: 230px; margin-top: -50px;""><div style=""display: flex; justify-content: space-between; margin-top: 33px;""><img src=""images/choice_trial_14.png"" style=""width: 408px; height: 417px; margin-right: 608px;""></div></div>","null","delaylearn","learning","display_response","638526640404d47424e281ff","b3csoiYuvzcYk7dA3Q4k5T31y3Q2","","","","","","","","","","","","","","","","","chosen stimuli: images/choice_trial_14.png","","","",""
"html-keyboard-response","108","205183","0.0-46.0-2.0","","null","","null","delaylearn","learning","feedback_duration_window","638526640404d47424e281ff","b3csoiYuvzcYk7dA3Q4k5T31y3Q2","","","","","","","","","","","","","","","","","","7000","","",""
"html-keyboard-response","109","206699","0.0-46.0-3.0","","null","<div style='margin:auto;width: auto; font-size: 150%'><span style='font-weight: bold; font-size: 100px; color: green;'>+10 points!</span><br><br></div>","null","delaylearn","learning","feedback_image_window","638526640404d47424e281ff","b3csoiYuvzcYk7dA3Q4k5T31y3Q2","","","","","","","","","","","","","","","","","","","","",""
"html-keyboard-response","110","208719","0.0-47.0","","null","<div style=""font-size:100px;"">+</div>","null","delaylearn","learning","ITI","638526640404d47424e281ff","b3csoiYuvzcYk7dA3Q4k5T31y3Q2","","","","","","","","","","","","","","","","","","","2014","",""
"html-keyboard-response","111","209690","0.0-48.0-0.0","","966.6000000014901","<div style=""display: flex; flex-direction: column; align-items: center; margin-top: -40px;""><img src=""images/pattern_6.png"" style=""width: 234px; height: 230px; margin-top: -50px;""><div style=""display: flex; justify-content: space-between; margin-top: 33px;""><img src=""images/choice_trial_3.png"" style=""width: 408px; height: 417px; margin-right: 200px;""><img src=""images/choice_trial_16.png"" style=""width: 408px; height: 417px;""></div></div>","j","delaylearn","learning","trial","638526640404d47424e281ff","b3csoiYuvzcYk7dA3Q4k5T31y3Q2","3","images/choice_trial_3.png","images/choice_trial_16.png","images/pattern_6.png","j","j","750","3","16","5","1","21","1","1","16","130","","","","",""
"html-keyboard-response","112","210694","0.0-48.0-1.0","","null","<div style=""display: flex; flex-direction: column; align-items: center; margin-top: -40px;""><img src=""images/pattern_6.png"" style=""width: 234px; height: 230px; margin-top: -50px;""><div style=""display: flex; justify-content: space-between; margin-top: 33px;""><img src=""images/choice_trial_16.png"" style=""width: 408px; height: 417px; margin-left:608px;""></div></div>","null","delaylearn","learning","display_response","638526640404d47424e281ff","b3csoiYuvzcYk7dA3Q4k5T31y3Q2","","","","","","","","","","","","","","","","","chosen stimuli: images/choice_trial_16.png","","","",""
"html-keyboard-response","113","211453","0.0-48.0-2.0","","null","","null","delaylearn","learning","feedback_duration_window","638526640404d47424e281ff","b3csoiYuvzcYk7dA3Q4k5T31y3Q2","","","","","","","","","","","","","","","","","","750","","",""
"html-keyboard-response","114","212967","0.0-48.0-3.0","","null","<div style='margin:auto;width: auto; font-size: 150%'><span style='font-weight: bold; font-size: 100px; color: green;'>+10 points!</span><br><br></div>","null","delaylearn","learning","feedback_image_window","638526640404d47424e281ff","b3csoiYuvzcYk7dA3Q4k5T31y3Q2","","","","","","","","","","","","","","","","","","","","",""
"html-keyboard-response","115","215091","0.0-49.0","","null","<div style=""font-size:100px;"">+</div>","null","delaylearn","learning","ITI","638526640404d47424e281ff","b3csoiYuvzcYk7dA3Q4k5T31y3Q2","","","","","","","","","","","","","","","","","","","2112","",""
"html-keyboard-response","116","215674","0.0-50.0-0.0","","578","<div style=""display: flex; flex-direction: column; align-items: center; margin-top: -40px;""><img src=""images/pattern_4.png"" style=""width: 234px; height: 230px; margin-top: -50px;""><div style=""display: flex; justify-content: space-between; margin-top: 33px;""><img src=""images/choice_trial_15.png"" style=""width: 408px; height: 417px; margin-right: 200px;""><img src=""images/choice_trial_9.png"" style=""width: 408px; height: 417px;""></div></div>","f","delaylearn","learning","trial","638526640404d47424e281ff","b3csoiYuvzcYk7dA3Q4k5T31y3Q2","3","images/choice_trial_15.png","images/choice_trial_9.png","images/pattern_4.png","f","f","7000","15","9","3","0","22","1","1","15","140","","","","",""
"html-keyboard-response","117","216678","0.0-50.0-1.0","","null","<div style=""display: flex; flex-direction: column; align-items: center; margin-top: -40px;""><img src=""images/pattern_4.png"" style=""width: 234px; height: 230px; margin-top: -50px;""><div style=""display: flex; justify-content: space-between; margin-top: 33px;""><img src=""images/choice_trial_15.png"" style=""width: 408px; height: 417px; margin-right: 608px;""></div></div>","null","delaylearn","learning","display_response","638526640404d47424e281ff","b3csoiYuvzcYk7dA3Q4k5T31y3Q2","","","","","","","","","","","","","","","","","chosen stimuli: images/choice_trial_15.png","","","",""
"html-keyboard-response","118","223683","0.0-50.0-2.0","","null","","null","delaylearn","learning","feedback_duration_window","638526640404d47424e281ff","b3csoiYuvzcYk7dA3Q4k5T31y3Q2","","","","","","","","","","","","","","","","","","7000","","",""
"html-keyboard-response","119","225201","0.0-50.0-3.0","","null","<div style='margin:auto;width: auto; font-size: 150%'><span style='font-weight: bold; font-size: 100px; color: green;'>+10 points!</span><br><br></div>","null","delaylearn","learning","feedback_image_window","638526640404d47424e281ff","b3csoiYuvzcYk7dA3Q4k5T31y3Q2","","","","","","","","","","","","","","","","","","","","",""
"html-keyboard-response","120","225718","0.0-51.0-0.0","","null","","null","","","mood_trial_fixation","","","","","","","","","","","","","","","","","","","","","","",""
"lmdlab-html-vas-response","121","229705","0.0-51.0-1.0","","2981","How happy are you right now?","0.7824074074074074","delaylearn","learning","mood_trial","638526640404d47424e281ff","b3csoiYuvzcYk7dA3Q4k5T31y3Q2","","","","","","","","","","","","","","","","","","","","[""Very unhappy"",""Very happy""]",""
"html-keyboard-response","122","232124","0.0-52.0","","null","<div style=""font-size:100px;"">+</div>","null","delaylearn","learning","ITI","638526640404d47424e281ff","b3csoiYuvzcYk7dA3Q4k5T31y3Q2","","","","","","","","","","","","","","","","","","","2405","",""
"html-keyboard-response","123","232903","0.0-53.0-0.0","","773.5","<div style=""display: flex; flex-direction: column; align-items: center; margin-top: -40px;""><img src=""images/pattern_7.png"" style=""width: 234px; height: 230px; margin-top: -50px;""><div style=""display: flex; justify-content: space-between; margin-top: 33px;""><img src=""images/choice_trial_12.png"" style=""width: 408px; height: 417px; margin-right: 200px;""><img src=""images/choice_trial_6.png"" style=""width: 408px; height: 417px;""></div></div>","j","delaylearn","learning","trial","638526640404d47424e281ff","b3csoiYuvzcYk7dA3Q4k5T31y3Q2","3","images/choice_trial_12.png","images/choice_trial_6.png","images/pattern_7.png","j","j","750","12","6","6","1","23","1","1","6","150","","","","",""
"html-keyboard-response","124","233909","0.0-53.0-1.0","","null","<div style=""display: flex; flex-direction: column; align-items: center; margin-top: -40px;""><img src=""images/pattern_7.png"" style=""width: 234px; height: 230px; margin-top: -50px;""><div style=""display: flex; justify-content: space-between; margin-top: 33px;""><img src=""images/choice_trial_6.png"" style=""width: 408px; height: 417px; margin-left:608px;""></div></div>","null","delaylearn","learning","display_response","638526640404d47424e281ff","b3csoiYuvzcYk7dA3Q4k5T31y3Q2","","","","","","","","","","","","","","","","","chosen stimuli: images/choice_trial_6.png","","","",""
"html-keyboard-response","125","234662","0.0-53.0-2.0","","null","","null","delaylearn","learning","feedback_duration_window","638526640404d47424e281ff","b3csoiYuvzcYk7dA3Q4k5T31y3Q2","","","","","","","","","","","","","","","","","","750","","",""
"html-keyboard-response","126","236179","0.0-53.0-3.0","","null","<div style='margin:auto;width: auto; font-size: 150%'><span style='font-weight: bold; font-size: 100px; color: green;'>+10 points!</span><br><br></div>","null","delaylearn","learning","feedback_image_window","638526640404d47424e281ff","b3csoiYuvzcYk7dA3Q4k5T31y3Q2","","","","","","","","","","","","","","","","","","","","",""
"html-keyboard-response","127","238464","0.0-54.0","","null","<div style=""font-size:100px;"">+</div>","null","delaylearn","learning","ITI","638526640404d47424e281ff","b3csoiYuvzcYk7dA3Q4k5T31y3Q2","","","","","","","","","","","","","","","","","","","2282","",""
"html-keyboard-response","128","239410","0.0-55.0-0.0","","940.9000000022352","<div style=""display: flex; flex-direction: column; align-items: center; margin-top: -40px;""><img src=""images/pattern_1.png"" style=""width: 234px; height: 230px; margin-top: -50px;""><div style=""display: flex; justify-content: space-between; margin-top: 33px;""><img src=""images/choice_trial_8.png"" style=""width: 408px; height: 417px; margin-right: 200px;""><img src=""images/choice_trial_14.png"" style=""width: 408px; height: 417px;""></div></div>","j","delaylearn","learning","trial","638526640404d47424e281ff","b3csoiYuvzcYk7dA3Q4k5T31y3Q2","3","images/choice_trial_8.png","images/choice_trial_14.png","images/pattern_1.png","f","j","7000","8","14","1","1","24","1","0","14","150","","","","",""
"html-keyboard-response","129","240416","0.0-55.0-1.0","","null","<div style=""display: flex; flex-direction: column; align-items: center; margin-top: -40px;""><img src=""images/pattern_1.png"" style=""width: 234px; height: 230px; margin-top: -50px;""><div style=""display: flex; justify-content: space-between; margin-top: 33px;""><img src=""images/choice_trial_14.png"" style=""width: 408px; height: 417px; margin-left:608px;""></div></div>","null","delaylearn","learning","display_response","638526640404d47424e281ff","b3csoiYuvzcYk7dA3Q4k5T31y3Q2","","","","","","","","","","","","","","","","","chosen stimuli: images/choice_trial_14.png","","","",""
"html-keyboard-response","130","247423","0.0-55.0-2.0","","null","","null","delaylearn","learning","feedback_duration_window","638526640404d47424e281ff","b3csoiYuvzcYk7dA3Q4k5T31y3Q2","","","","","","","","","","","","","","","","","","7000","","",""
"html-keyboard-response","131","248940","0.0-55.0-3.0","","null","<div style='margin:auto;width: auto; font-size: 150%'><span style='font-weight: bold; font-size: 100px; color: red;'>0 points!</span><br><br></div>","null","delaylearn","learning","feedback_image_window","638526640404d47424e281ff","b3csoiYuvzcYk7dA3Q4k5T31y3Q2","","","","","","","","","","","","","","","","","","","","",""
"html-keyboard-response","132","250526","0.0-56.0","","null","<div style=""font-size:100px;"">+</div>","null","delaylearn","learning","ITI","638526640404d47424e281ff","b3csoiYuvzcYk7dA3Q4k5T31y3Q2","","","","","","","","","","","","","","","","","","","1571","",""
"html-keyboard-response","133","251889","0.0-57.0-0.0","","1357.9000000022352","<div style=""display: flex; flex-direction: column; align-items: center; margin-top: -40px;""><img src=""images/pattern_5.png"" style=""width: 234px; height: 230px; margin-top: -50px;""><div style=""display: flex; justify-content: space-between; margin-top: 33px;""><img src=""images/choice_trial_2.png"" style=""width: 408px; height: 417px; margin-right: 200px;""><img src=""images/choice_trial_11.png"" style=""width: 408px; height: 417px;""></div></div>","j","delaylearn","learning","trial","638526640404d47424e281ff","b3csoiYuvzcYk7dA3Q4k5T31y3Q2","3","images/choice_trial_2.png","images/choice_trial_11.png","images/pattern_5.png","j","j","750","2","11","4","1","25","1","1","11","160","","","","",""
"html-keyboard-response","134","252896","0.0-57.0-1.0","","null","<div style=""display: flex; flex-direction: column; align-items: center; margin-top: -40px;""><img src=""images/pattern_5.png"" style=""width: 234px; height: 230px; margin-top: -50px;""><div style=""display: flex; justify-content: space-between; margin-top: 33px;""><img src=""images/choice_trial_11.png"" style=""width: 408px; height: 417px; margin-left:608px;""></div></div>","null","delaylearn","learning","display_response","638526640404d47424e281ff","b3csoiYuvzcYk7dA3Q4k5T31y3Q2","","","","","","","","","","","","","","","","","chosen stimuli: images/choice_trial_11.png","","","",""
"html-keyboard-response","135","253650","0.0-57.0-2.0","","null","","null","delaylearn","learning","feedback_duration_window","638526640404d47424e281ff","b3csoiYuvzcYk7dA3Q4k5T31y3Q2","","","","","","","","","","","","","","","","","","750","","",""
"html-keyboard-response","136","255164","0.0-57.0-3.0","","null","<div style='margin:auto;width: auto; font-size: 150%'><span style='font-weight: bold; font-size: 100px; color: green;'>+10 points!</span><br><br></div>","null","delaylearn","learning","feedback_image_window","638526640404d47424e281ff","b3csoiYuvzcYk7dA3Q4k5T31y3Q2","","","","","","","","","","","","","","","","","","","","",""
"html-keyboard-response","137","256716","0.0-58.0","","null","<div style=""font-size:100px;"">+</div>","null","delaylearn","learning","ITI","638526640404d47424e281ff","b3csoiYuvzcYk7dA3Q4k5T31y3Q2","","","","","","","","","","","","","","","","","","","1545","",""
"html-keyboard-response","138","258441","0.0-59.0-0.0","","1721.0999999977648","<div style=""display: flex; flex-direction: column; align-items: center; margin-top: -40px;""><img src=""images/pattern_3.png"" style=""width: 234px; height: 230px; margin-top: -50px;""><div style=""display: flex; justify-content: space-between; margin-top: 33px;""><img src=""images/choice_trial_10.png"" style=""width: 408px; height: 417px; margin-right: 200px;""><img src=""images/choice_trial_13.png"" style=""width: 408px; height: 417px;""></div></div>","f","delaylearn","learning","trial","638526640404d47424e281ff","b3csoiYuvzcYk7dA3Q4k5T31y3Q2","3","images/choice_trial_10.png","images/choice_trial_13.png","images/pattern_3.png","j","j","7000","10","13","2","1","26","0","0","10","160","","","","",""
"html-keyboard-response","139","259452","0.0-59.0-1.0","","null","<div style=""display: flex; flex-direction: column; align-items: center; margin-top: -40px;""><img src=""images/pattern_3.png"" style=""width: 234px; height: 230px; margin-top: -50px;""><div style=""display: flex; justify-content: space-between; margin-top: 33px;""><img src=""images/choice_trial_10.png"" style=""width: 408px; height: 417px; margin-right: 608px;""></div></div>","null","delaylearn","learning","display_response","638526640404d47424e281ff","b3csoiYuvzcYk7dA3Q4k5T31y3Q2","","","","","","","","","","","","","","","","","chosen stimuli: images/choice_trial_10.png","","","",""
"html-keyboard-response","140","266460","0.0-59.0-2.0","","null","","null","delaylearn","learning","feedback_duration_window","638526640404d47424e281ff","b3csoiYuvzcYk7dA3Q4k5T31y3Q2","","","","","","","","","","","","","","","","","","7000","","",""
"html-keyboard-response","141","267977","0.0-59.0-3.0","","null","<div style='margin:auto;width: auto; font-size: 150%'><span style='font-weight: bold; font-size: 100px; color: red;'>0 points!</span><br><br></div>","null","delaylearn","learning","feedback_image_window","638526640404d47424e281ff","b3csoiYuvzcYk7dA3Q4k5T31y3Q2","","","","","","","","","","","","","","","","","","","","",""
"lmdlab-html-vas-response","142","273016","0.0-60.0-0.0","","3502","*How <b><u>confident</u></b> are you feeling about your answers at this moment?*","0.5509259259259259","rewlearn","rate_confidence","","638526640404d47424e281ff","b3csoiYuvzcYk7dA3Q4k5T31y3Q2","","","","","","","","","","","","","","","","","","","","[""No confidence"",""Complete confidence""]",""
"lmdlab-rest-trial-limit","143","285046","0.0-60.0-1.0","","10516.79999999702","<div style=""font-size:40px;""><b>Please take a break!</b><br><br><br><br><p>Great work: you earned 160 points.<br><br><br><p>You have completed part(s) 1 of 5.<br><br><br><br>When you are ready to continue<br><br><br>please click the button.</p><br><br>","0","delaylearn","learning","break","638526640404d47424e281ff","b3csoiYuvzcYk7dA3Q4k5T31y3Q2","","","","","","","","","","","","","","","","","","","","","0"
"html-keyboard-response","144","288063","0.0-60.0-2.0","","null","<div style=""font-size:100px;"">+</div>","null","delaylearn","learning","pre_fixation","638526640404d47424e281ff","","","","","","","","","","","","","","","","","","","","","",""
"lmdlab-html-vas-response","145","291008","0.0-60.0-3.0-0.0","","1939","How happy are you right now?","0.4166666666666667","delaylearn","learning","mood_baseline","638526640404d47424e281ff","b3csoiYuvzcYk7dA3Q4k5T31y3Q2","","","","","","","","","","","","","","","","","","","","[""Very unhappy"",""Very happy""]",""
"html-keyboard-response","146","292518","0.0-60.0-3.0-1.0","","null","","null","","","mood_baseline_fixation","","","","","","","","","","","","","","","","","","","","","","",""
"html-keyboard-response","147","294321","0.0-61.0","","null","<div style=""font-size:100px;"">+</div>","null","delaylearn","learning","ITI","638526640404d47424e281ff","b3csoiYuvzcYk7dA3Q4k5T31y3Q2","","","","","","","","","","","","","","","","","","","1799","",""
"html-keyboard-response","148","295022","0.0-62.0-0.0","","698.6000000014901","<div style=""display: flex; flex-direction: column; align-items: center; margin-top: -40px;""><img src=""images/pattern_7.png"" style=""width: 234px; height: 230px; margin-top: -50px;""><div style=""display: flex; justify-content: space-between; margin-top: 33px;""><img src=""images/choice_trial_12.png"" style=""width: 408px; height: 417px; margin-right: 200px;""><img src=""images/choice_trial_6.png"" style=""width: 408px; height: 417px;""></div></div>","j","delaylearn","learning","trial","638526640404d47424e281ff","b3csoiYuvzcYk7dA3Q4k5T31y3Q2","3","images/choice_trial_12.png","images/choice_trial_6.png","images/pattern_7.png","j","j","750","12","6","6","1","27","1","1","6","170","","","","",""
"html-keyboard-response","149","296039","0.0-62.0-1.0","","null","<div style=""display: flex; flex-direction: column; align-items: center; margin-top: -40px;""><img src=""images/pattern_7.png"" style=""width: 234px; height: 230px; margin-top: -50px;""><div style=""display: flex; justify-content: space-between; margin-top: 33px;""><img src=""images/choice_trial_6.png"" style=""width: 408px; height: 417px; margin-left:608px;""></div></div>","null","delaylearn","learning","display_response","638526640404d47424e281ff","b3csoiYuvzcYk7dA3Q4k5T31y3Q2","","","","","","","","","","","","","","","","","chosen stimuli: images/choice_trial_6.png","","","",""
"html-keyboard-response","150","296806","0.0-62.0-2.0","","null","","null","delaylearn","learning","feedback_duration_window","638526640404d47424e281ff","b3csoiYuvzcYk7dA3Q4k5T31y3Q2","","","","","","","","","","","","","","","","","","750","","",""
"html-keyboard-response","151","298309","0.0-62.0-3.0","","null","<div style='margin:auto;width: auto; font-size: 150%'><span style='font-weight: bold; font-size: 100px; color: green;'>+10 points!</span><br><br></div>","null","delaylearn","learning","feedback_image_window","638526640404d47424e281ff","b3csoiYuvzcYk7dA3Q4k5T31y3Q2","","","","","","","","","","","","","","","","","","","","",""
"html-keyboard-response","152","298825","0.0-63.0-0.0","","null","","null","","","mood_trial_fixation","","","","","","","","","","","","","","","","","","","","","","",""
"lmdlab-html-vas-response","153","302097","0.0-63.0-1.0","","2251","How happy are you right now?","0.3148148148148148","delaylearn","learning","mood_trial","638526640404d47424e281ff","b3csoiYuvzcYk7dA3Q4k5T31y3Q2","","","","","","","","","","","","","","","","","","","","[""Very unhappy"",""Very happy""]",""
"html-keyboard-response","154","303763","0.0-64.0","","null","<div style=""font-size:100px;"">+</div>","null","delaylearn","learning","ITI","638526640404d47424e281ff","b3csoiYuvzcYk7dA3Q4k5T31y3Q2","","","","","","","","","","","","","","","","","","","1661","",""
"html-keyboard-response","155","304771","0.0-65.0-0.0","","1002.6999999992549","<div style=""display: flex; flex-direction: column; align-items: center; margin-top: -40px;""><img src=""images/pattern_1.png"" style=""width: 234px; height: 230px; margin-top: -50px;""><div style=""display: flex; justify-content: space-between; margin-top: 33px;""><img src=""images/choice_trial_14.png"" style=""width: 408px; height: 417px; margin-right: 200px;""><img src=""images/choice_trial_8.png"" style=""width: 408px; height: 417px;""></div></div>","f","delaylearn","learning","trial","638526640404d47424e281ff","b3csoiYuvzcYk7dA3Q4k5T31y3Q2","3","images/choice_trial_14.png","images/choice_trial_8.png","images/pattern_1.png","f","f","7000","14","8","1","0","28","1","1","14","180","","","","",""
"html-keyboard-response","156","305783","0.0-65.0-1.0","","null","<div style=""display: flex; flex-direction: column; align-items: center; margin-top: -40px;""><img src=""images/pattern_1.png"" style=""width: 234px; height: 230px; margin-top: -50px;""><div style=""display: flex; justify-content: space-between; margin-top: 33px;""><img src=""images/choice_trial_14.png"" style=""width: 408px; height: 417px; margin-right: 608px;""></div></div>","null","delaylearn","learning","display_response","638526640404d47424e281ff","b3csoiYuvzcYk7dA3Q4k5T31y3Q2","","","","","","","","","","","","","","","","","chosen stimuli: images/choice_trial_14.png","","","",""
"html-keyboard-response","157","312789","0.0-65.0-2.0","","null","","null","delaylearn","learning","feedback_duration_window","638526640404d47424e281ff","b3csoiYuvzcYk7dA3Q4k5T31y3Q2","","","","","","","","","","","","","","","","","","7000","","",""
"html-keyboard-response","158","314307","0.0-65.0-3.0","","null","<div style='margin:auto;width: auto; font-size: 150%'><span style='font-weight: bold; font-size: 100px; color: green;'>+10 points!</span><br><br></div>","null","delaylearn","learning","feedback_image_window","638526640404d47424e281ff","b3csoiYuvzcYk7dA3Q4k5T31y3Q2","","","","","","","","","","","","","","","","","","","","",""
"html-keyboard-response","159","316257","0.0-66.0","","null","<div style=""font-size:100px;"">+</div>","null","delaylearn","learning","ITI","638526640404d47424e281ff","b3csoiYuvzcYk7dA3Q4k5T31y3Q2","","","","","","","","","","","","","","","","","","","1948","",""
"html-keyboard-response","160","317558","0.0-67.0-0.0","","1298","<div style=""display: flex; flex-direction: column; align-items: center; margin-top: -40px;""><img src=""images/pattern_5.png"" style=""width: 234px; height: 230px; margin-top: -50px;""><div style=""display: flex; justify-content: space-between; margin-top: 33px;""><img src=""images/choice_trial_11.png"" style=""width: 408px; height: 417px; margin-right: 200px;""><img src=""images/choice_trial_2.png"" style=""width: 408px; height: 417px;""></div></div>","f","delaylearn","learning","trial","638526640404d47424e281ff","b3csoiYuvzcYk7dA3Q4k5T31y3Q2","3","images/choice_trial_11.png","images/choice_trial_2.png","images/pattern_5.png","f","f","750","11","2","4","0","29","1","1","11","190","","","","",""
"html-keyboard-response","161","318562","0.0-67.0-1.0","","null","<div style=""display: flex; flex-direction: column; align-items: center; margin-top: -40px;""><img src=""images/pattern_5.png"" style=""width: 234px; height: 230px; margin-top: -50px;""><div style=""display: flex; justify-content: space-between; margin-top: 33px;""><img src=""images/choice_trial_11.png"" style=""width: 408px; height: 417px; margin-right: 608px;""></div></div>","null","delaylearn","learning","display_response","638526640404d47424e281ff","b3csoiYuvzcYk7dA3Q4k5T31y3Q2","","","","","","","","","","","","","","","","","chosen stimuli: images/choice_trial_11.png","","","",""
"html-keyboard-response","162","319329","0.0-67.0-2.0","","null","","null","delaylearn","learning","feedback_duration_window","638526640404d47424e281ff","b3csoiYuvzcYk7dA3Q4k5T31y3Q2","","","","","","","","","","","","","","","","","","750","","",""
"html-keyboard-response","163","320832","0.0-67.0-3.0","","null","<div style='margin:auto;width: auto; font-size: 150%'><span style='font-weight: bold; font-size: 100px; color: green;'>+10 points!</span><br><br></div>","null","delaylearn","learning","feedback_image_window","638526640404d47424e281ff","b3csoiYuvzcYk7dA3Q4k5T31y3Q2","","","","","","","","","","","","","","","","","","","","",""
"html-keyboard-response","164","322781","0.0-68.0","","null","<div style=""font-size:100px;"">+</div>","null","delaylearn","learning","ITI","638526640404d47424e281ff","b3csoiYuvzcYk7dA3Q4k5T31y3Q2","","","","","","","","","","","","","","","","","","","1945","",""
"html-keyboard-response","165","324388","0.0-69.0-0.0","","1602.300000000745","<div style=""display: flex; flex-direction: column; align-items: center; margin-top: -40px;""><img src=""images/pattern_6.png"" style=""width: 234px; height: 230px; margin-top: -50px;""><div style=""display: flex; justify-content: space-between; margin-top: 33px;""><img src=""images/choice_trial_3.png"" style=""width: 408px; height: 417px; margin-right: 200px;""><img src=""images/choice_trial_16.png"" style=""width: 408px; height: 417px;""></div></div>","f","delaylearn","learning","trial","638526640404d47424e281ff","b3csoiYuvzcYk7dA3Q4k5T31y3Q2","3","images/choice_trial_3.png","images/choice_trial_16.png","images/pattern_6.png","j","j","750","3","16","5","1","30","0","0","3","190","","","","",""
"html-keyboard-response","166","325401","0.0-69.0-1.0","","null","<div style=""display: flex; flex-direction: column; align-items: center; margin-top: -40px;""><img src=""images/pattern_6.png"" style=""width: 234px; height: 230px; margin-top: -50px;""><div style=""display: flex; justify-content: space-between; margin-top: 33px;""><img src=""images/choice_trial_3.png"" style=""width: 408px; height: 417px; margin-right: 608px;""></div></div>","null","delaylearn","learning","display_response","638526640404d47424e281ff","b3csoiYuvzcYk7dA3Q4k5T31y3Q2","","","","","","","","","","","","","","","","","chosen stimuli: images/choice_trial_3.png","","","",""
"html-keyboard-response","167","326154","0.0-69.0-2.0","","null","","null","delaylearn","learning","feedback_duration_window","638526640404d47424e281ff","b3csoiYuvzcYk7dA3Q4k5T31y3Q2","","","","","","","","","","","","","","","","","","750","","",""
"html-keyboard-response","168","327670","0.0-69.0-3.0","","null","<div style='margin:auto;width: auto; font-size: 150%'><span style='font-weight: bold; font-size: 100px; color: red;'>0 points!</span><br><br></div>","null","delaylearn","learning","feedback_image_window","638526640404d47424e281ff","b3csoiYuvzcYk7dA3Q4k5T31y3Q2","","","","","","","","","","","","","","","","","","","","",""
"html-keyboard-response","169","328172","0.0-70.0-0.0","","null","","null","","","mood_trial_fixation","","","","","","","","","","","","","","","","","","","","","","",""
"lmdlab-html-vas-response","170","331281","0.0-70.0-1.0","","2102","How happy are you right now?","0.21064814814814814","delaylearn","learning","mood_trial","638526640404d47424e281ff","b3csoiYuvzcYk7dA3Q4k5T31y3Q2","","","","","","","","","","","","","","","","","","","","[""Very unhappy"",""Very happy""]",""
"html-keyboard-response","171","332808","0.0-71.0","","null","<div style=""font-size:100px;"">+</div>","null","delaylearn","learning","ITI","638526640404d47424e281ff","b3csoiYuvzcYk7dA3Q4k5T31y3Q2","","","","","","","","","","","","","","","","","","","1513","",""
"html-keyboard-response","172","333387","0.0-72.0-0.0","","576.8999999985099","<div style=""display: flex; flex-direction: column; align-items: center; margin-top: -40px;""><img src=""images/pattern_4.png"" style=""width: 234px; height: 230px; margin-top: -50px;""><div style=""display: flex; justify-content: space-between; margin-top: 33px;""><img src=""images/choice_trial_9.png"" style=""width: 408px; height: 417px; margin-right: 200px;""><img src=""images/choice_trial_15.png"" style=""width: 408px; height: 417px;""></div></div>","j","delaylearn","learning","trial","638526640404d47424e281ff","b3csoiYuvzcYk7dA3Q4k5T31y3Q2","3","images/choice_trial_9.png","images/choice_trial_15.png","images/pattern_4.png","j","j","7000","9","15","3","1","31","1","1","15","200","","","","",""
"html-keyboard-response","173","334394","0.0-72.0-1.0","","null","<div style=""display: flex; flex-direction: column; align-items: center; margin-top: -40px;""><img src=""images/pattern_4.png"" style=""width: 234px; height: 230px; margin-top: -50px;""><div style=""display: flex; justify-content: space-between; margin-top: 33px;""><img src=""images/choice_trial_15.png"" style=""width: 408px; height: 417px; margin-left:608px;""></div></div>","null","delaylearn","learning","display_response","638526640404d47424e281ff","b3csoiYuvzcYk7dA3Q4k5T31y3Q2","","","","","","","","","","","","","","","","","chosen stimuli: images/choice_trial_15.png","","","",""
"html-keyboard-response","174","341401","0.0-72.0-2.0","","null","","null","delaylearn","learning","feedback_duration_window","638526640404d47424e281ff","b3csoiYuvzcYk7dA3Q4k5T31y3Q2","","","","","","","","","","","","","","","","","","7000","","",""
"html-keyboard-response","175","342906","0.0-72.0-3.0","","null","<div style='margin:auto;width: auto; font-size: 150%'><span style='font-weight: bold; font-size: 100px; color: green;'>+10 points!</span><br><br></div>","null","delaylearn","learning","feedback_image_window","638526640404d47424e281ff","b3csoiYuvzcYk7dA3Q4k5T31y3Q2","","","","","","","","","","","","","","","","","","","","",""
"html-keyboard-response","176","344620","0.0-73.0","","null","<div style=""font-size:100px;"">+</div>","null","delaylearn","learning","ITI","638526640404d47424e281ff","b3csoiYuvzcYk7dA3Q4k5T31y3Q2","","","","","","","","","","","","","","","","","","","1707","",""
"html-keyboard-response","177","345672","0.0-74.0-0.0","","1047.4000000022352","<div style=""display: flex; flex-direction: column; align-items: center; margin-top: -40px;""><img src=""images/pattern_3.png"" style=""width: 234px; height: 230px; margin-top: -50px;""><div style=""display: flex; justify-content: space-between; margin-top: 33px;""><img src=""images/choice_trial_10.png"" style=""width: 408px; height: 417px; margin-right: 200px;""><img src=""images/choice_trial_13.png"" style=""width: 408px; height: 417px;""></div></div>","f","delaylearn","learning","trial","638526640404d47424e281ff","b3csoiYuvzcYk7dA3Q4k5T31y3Q2","3","images/choice_trial_10.png","images/choice_trial_13.png","images/pattern_3.png","j","j","7000","10","13","2","1","32","0","0","10","200","","","","",""
"html-keyboard-response","178","346690","0.0-74.0-1.0","","null","<div style=""display: flex; flex-direction: column; align-items: center; margin-top: -40px;""><img src=""images/pattern_3.png"" style=""width: 234px; height: 230px; margin-top: -50px;""><div style=""display: flex; justify-content: space-between; margin-top: 33px;""><img src=""images/choice_trial_10.png"" style=""width: 408px; height: 417px; margin-right: 608px;""></div></div>","null","delaylearn","learning","display_response","638526640404d47424e281ff","b3csoiYuvzcYk7dA3Q4k5T31y3Q2","","","","","","","","","","","","","","","","","chosen stimuli: images/choice_trial_10.png","","","",""
"html-keyboard-response","179","353696","0.0-74.0-2.0","","null","","null","delaylearn","learning","feedback_duration_window","638526640404d47424e281ff","b3csoiYuvzcYk7dA3Q4k5T31y3Q2","","","","","","","","","","","","","","","","","","7000","","",""
"html-keyboard-response","180","355199","0.0-74.0-3.0","","null","<div style='margin:auto;width: auto; font-size: 150%'><span style='font-weight: bold; font-size: 100px; color: red;'>0 points!</span><br><br></div>","null","delaylearn","learning","feedback_image_window","638526640404d47424e281ff","b3csoiYuvzcYk7dA3Q4k5T31y3Q2","","","","","","","","","","","","","","","","","","","","",""
"html-keyboard-response","181","356999","0.0-75.0","","null","<div style=""font-size:100px;"">+</div>","null","delaylearn","learning","ITI","638526640404d47424e281ff","b3csoiYuvzcYk7dA3Q4k5T31y3Q2","","","","","","","","","","","","","","","","","","","1788","",""
"html-keyboard-response","182","358179","0.0-76.0-0.0","","1175","<div style=""display: flex; flex-direction: column; align-items: center; margin-top: -40px;""><img src=""images/pattern_5.png"" style=""width: 234px; height: 230px; margin-top: -50px;""><div style=""display: flex; justify-content: space-between; margin-top: 33px;""><img src=""images/choice_trial_11.png"" style=""width: 408px; height: 417px; margin-right: 200px;""><img src=""images/choice_trial_2.png"" style=""width: 408px; height: 417px;""></div></div>","j","delaylearn","learning","trial","638526640404d47424e281ff","b3csoiYuvzcYk7dA3Q4k5T31y3Q2","3","images/choice_trial_11.png","images/choice_trial_2.png","images/pattern_5.png","j","f","750","11","2","4","0","33","0","1","2","210","","","","",""
"html-keyboard-response","183","359185","0.0-76.0-1.0","","null","<div style=""display: flex; flex-direction: column; align-items: center; margin-top: -40px;""><img src=""images/pattern_5.png"" style=""width: 234px; height: 230px; margin-top: -50px;""><div style=""display: flex; justify-content: space-between; margin-top: 33px;""><img src=""images/choice_trial_2.png"" style=""width: 408px; height: 417px; margin-left:608px;""></div></div>","null","delaylearn","learning","display_response","638526640404d47424e281ff","b3csoiYuvzcYk7dA3Q4k5T31y3Q2","","","","","","","","","","","","","","","","","chosen stimuli: images/choice_trial_2.png","","","",""
"html-keyboard-response","184","359937","0.0-76.0-2.0","","null","","null","delaylearn","learning","feedback_duration_window","638526640404d47424e281ff","b3csoiYuvzcYk7dA3Q4k5T31y3Q2","","","","","","","","","","","","","","","","","","750","","",""
"html-keyboard-response","185","361453","0.0-76.0-3.0","","null","<div style='margin:auto;width: auto; font-size: 150%'><span style='font-weight: bold; font-size: 100px; color: green;'>+10 points!</span><br><br></div>","null","delaylearn","learning","feedback_image_window","638526640404d47424e281ff","b3csoiYuvzcYk7dA3Q4k5T31y3Q2","","","","","","","","","","","","","","","","","","","","",""
"html-keyboard-response","186","363424","0.0-77.0","","null","<div style=""font-size:100px;"">+</div>","null","delaylearn","learning","ITI","638526640404d47424e281ff","b3csoiYuvzcYk7dA3Q4k5T31y3Q2","","","","","","","","","","","","","","","","","","","1956","",""
"html-keyboard-response","187","364486","0.0-78.0-0.0","","1056.800000000745","<div style=""display: flex; flex-direction: column; align-items: center; margin-top: -40px;""><img src=""images/pattern_1.png"" style=""width: 234px; height: 230px; margin-top: -50px;""><div style=""display: flex; justify-content: space-between; margin-top: 33px;""><img src=""images/choice_trial_14.png"" style=""width: 408px; height: 417px; margin-right: 200px;""><img src=""images/choice_trial_8.png"" style=""width: 408px; height: 417px;""></div></div>","f","delaylearn","learning","trial","638526640404d47424e281ff","b3csoiYuvzcYk7dA3Q4k5T31y3Q2","3","images/choice_trial_14.png","images/choice_trial_8.png","images/pattern_1.png","f","f","7000","14","8","1","0","34","1","1","14","220","","","","",""
"html-keyboard-response","188","365492","0.0-78.0-1.0","","null","<div style=""display: flex; flex-direction: column; align-items: center; margin-top: -40px;""><img src=""images/pattern_1.png"" style=""width: 234px; height: 230px; margin-top: -50px;""><div style=""display: flex; justify-content: space-between; margin-top: 33px;""><img src=""images/choice_trial_14.png"" style=""width: 408px; height: 417px; margin-right: 608px;""></div></div>","null","delaylearn","learning","display_response","638526640404d47424e281ff","b3csoiYuvzcYk7dA3Q4k5T31y3Q2","","","","","","","","","","","","","","","","","chosen stimuli: images/choice_trial_14.png","","","",""
"html-keyboard-response","189","372499","0.0-78.0-2.0","","null","","null","delaylearn","learning","feedback_duration_window","638526640404d47424e281ff","b3csoiYuvzcYk7dA3Q4k5T31y3Q2","","","","","","","","","","","","","","","","","","7000","","",""
"html-keyboard-response","190","374002","0.0-78.0-3.0","","null","<div style='margin:auto;width: auto; font-size: 150%'><span style='font-weight: bold; font-size: 100px; color: green;'>+10 points!</span><br><br></div>","null","delaylearn","learning","feedback_image_window","638526640404d47424e281ff","b3csoiYuvzcYk7dA3Q4k5T31y3Q2","","","","","","","","","","","","","","","","","","","","",""
"html-keyboard-response","191","374518","0.0-79.0-0.0","","null","","null","","","mood_trial_fixation","","","","","","","","","","","","","","","","","","","","","","",""
"lmdlab-html-vas-response","192","378144","0.0-79.0-1.0","","2607","How happy are you right now?","0.034722222222222224","delaylearn","learning","mood_trial","638526640404d47424e281ff","b3csoiYuvzcYk7dA3Q4k5T31y3Q2","","","","","","","","","","","","","","","","","","","","[""Very unhappy"",""Very happy""]",""
"html-keyboard-response","193","380289","0.0-80.0","","null","<div style=""font-size:100px;"">+</div>","null","delaylearn","learning","ITI","638526640404d47424e281ff","b3csoiYuvzcYk7dA3Q4k5T31y3Q2","","","","","","","","","","","","","","","","","","","2129","",""
"html-keyboard-response","194","381890","0.0-81.0-0.0","","1595.8999999985099","<div style=""display: flex; flex-direction: column; align-items: center; margin-top: -40px;""><img src=""images/pattern_6.png"" style=""width: 234px; height: 230px; margin-top: -50px;""><div style=""display: flex; justify-content: space-between; margin-top: 33px;""><img src=""images/choice_trial_16.png"" style=""width: 408px; height: 417px; margin-right: 200px;""><img src=""images/choice_trial_3.png"" style=""width: 408px; height: 417px;""></div></div>","j","delaylearn","learning","trial","638526640404d47424e281ff","b3csoiYuvzcYk7dA3Q4k5T31y3Q2","3","images/choice_trial_16.png","images/choice_trial_3.png","images/pattern_6.png","j","f","750","16","3","5","0","35","0","1","3","230","","","","",""
"html-keyboard-response","195","382895","0.0-81.0-1.0","","null","<div style=""display: flex; flex-direction: column; align-items: center; margin-top: -40px;""><img src=""images/pattern_6.png"" style=""width: 234px; height: 230px; margin-top: -50px;""><div style=""display: flex; justify-content: space-between; margin-top: 33px;""><img src=""images/choice_trial_3.png"" style=""width: 408px; height: 417px; margin-left:608px;""></div></div>","null","delaylearn","learning","display_response","638526640404d47424e281ff","b3csoiYuvzcYk7dA3Q4k5T31y3Q2","","","","","","","","","","","","","","","","","chosen stimuli: images/choice_trial_3.png","","","",""
"html-keyboard-response","196","383657","0.0-81.0-2.0","","null","","null","delaylearn","learning","feedback_duration_window","638526640404d47424e281ff","b3csoiYuvzcYk7dA3Q4k5T31y3Q2","","","","","","","","","","","","","","","","","","750","","",""
"html-keyboard-response","197","385161","0.0-81.0-3.0","","null","<div style='margin:auto;width: auto; font-size: 150%'><span style='font-weight: bold; font-size: 100px; color: green;'>+10 points!</span><br><br></div>","null","delaylearn","learning","feedback_image_window","638526640404d47424e281ff","b3csoiYuvzcYk7dA3Q4k5T31y3Q2","","","","","","","","","","","","","","","","","","","","",""
"html-keyboard-response","198","387014","0.0-82.0","","null","<div style=""font-size:100px;"">+</div>","null","delaylearn","learning","ITI","638526640404d47424e281ff","b3csoiYuvzcYk7dA3Q4k5T31y3Q2","","","","","","","","","","","","","","","","","","","1851","",""
"html-keyboard-response","199","388085","0.0-83.0-0.0","","1065.5","<div style=""display: flex; flex-direction: column; align-items: center; margin-top: -40px;""><img src=""images/pattern_3.png"" style=""width: 234px; height: 230px; margin-top: -50px;""><div style=""display: flex; justify-content: space-between; margin-top: 33px;""><img src=""images/choice_trial_10.png"" style=""width: 408px; height: 417px; margin-right: 200px;""><img src=""images/choice_trial_13.png"" style=""width: 408px; height: 417px;""></div></div>","j","delaylearn","learning","trial","638526640404d47424e281ff","b3csoiYuvzcYk7dA3Q4k5T31y3Q2","3","images/choice_trial_10.png","images/choice_trial_13.png","images/pattern_3.png","j","j","7000","10","13","2","1","36","1","1","13","240","","","","",""
"html-keyboard-response","200","389098","0.0-83.0-1.0","","null","<div style=""display: flex; flex-direction: column; align-items: center; margin-top: -40px;""><img src=""images/pattern_3.png"" style=""width: 234px; height: 230px; margin-top: -50px;""><div style=""display: flex; justify-content: space-between; margin-top: 33px;""><img src=""images/choice_trial_13.png"" style=""width: 408px; height: 417px; margin-left:608px;""></div></div>","null","delaylearn","learning","display_response","638526640404d47424e281ff","b3csoiYuvzcYk7dA3Q4k5T31y3Q2","","","","","","","","","","","","","","","","","chosen stimuli: images/choice_trial_13.png","","","",""
"html-keyboard-response","201","396107","0.0-83.0-2.0","","null","","null","delaylearn","learning","feedback_duration_window","638526640404d47424e281ff","b3csoiYuvzcYk7dA3Q4k5T31y3Q2","","","","","","","","","","","","","","","","","","7000","","",""
"html-keyboard-response","202","397609","0.0-83.0-3.0","","null","<div style='margin:auto;width: auto; font-size: 150%'><span style='font-weight: bold; font-size: 100px; color: green;'>+10 points!</span><br><br></div>","null","delaylearn","learning","feedback_image_window","638526640404d47424e281ff","b3csoiYuvzcYk7dA3Q4k5T31y3Q2","","","","","","","","","","","","","","","","","","","","",""
"html-keyboard-response","203","399975","0.0-84.0","","null","<div style=""font-size:100px;"">+</div>","null","delaylearn","learning","ITI","638526640404d47424e281ff","b3csoiYuvzcYk7dA3Q4k5T31y3Q2","","","","","","","","","","","","","","","","","","","2363","",""
"html-keyboard-response","204","400711","0.0-85.0-0.0","","731.1999999992549","<div style=""display: flex; flex-direction: column; align-items: center; margin-top: -40px;""><img src=""images/pattern_4.png"" style=""width: 234px; height: 230px; margin-top: -50px;""><div style=""display: flex; justify-content: space-between; margin-top: 33px;""><img src=""images/choice_trial_9.png"" style=""width: 408px; height: 417px; margin-right: 200px;""><img src=""images/choice_trial_15.png"" style=""width: 408px; height: 417px;""></div></div>","j","delaylearn","learning","trial","638526640404d47424e281ff","b3csoiYuvzcYk7dA3Q4k5T31y3Q2","3","images/choice_trial_9.png","images/choice_trial_15.png","images/pattern_4.png","f","j","7000","9","15","3","1","37","1","0","15","240","","","","",""
"html-keyboard-response","205","401729","0.0-85.0-1.0","","null","<div style=""display: flex; flex-direction: column; align-items: center; margin-top: -40px;""><img src=""images/pattern_4.png"" style=""width: 234px; height: 230px; margin-top: -50px;""><div style=""display: flex; justify-content: space-between; margin-top: 33px;""><img src=""images/choice_trial_15.png"" style=""width: 408px; height: 417px; margin-left:608px;""></div></div>","null","delaylearn","learning","display_response","638526640404d47424e281ff","b3csoiYuvzcYk7dA3Q4k5T31y3Q2","","","","","","","","","","","","","","","","","chosen stimuli: images/choice_trial_15.png","","","",""
"html-keyboard-response","206","408734","0.0-85.0-2.0","","null","","null","delaylearn","learning","feedback_duration_window","638526640404d47424e281ff","b3csoiYuvzcYk7dA3Q4k5T31y3Q2","","","","","","","","","","","","","","","","","","7000","","",""
"html-keyboard-response","207","410237","0.0-85.0-3.0","","null","<div style='margin:auto;width: auto; font-size: 150%'><span style='font-weight: bold; font-size: 100px; color: red;'>0 points!</span><br><br></div>","null","delaylearn","learning","feedback_image_window","638526640404d47424e281ff","b3csoiYuvzcYk7dA3Q4k5T31y3Q2","","","","","","","","","","","","","","","","","","","","",""
"html-keyboard-response","208","412222","0.0-86.0","","null","<div style=""font-size:100px;"">+</div>","null","delaylearn","learning","ITI","638526640404d47424e281ff","b3csoiYuvzcYk7dA3Q4k5T31y3Q2","","","","","","","","","","","","","","","","","","","1970","",""
"html-keyboard-response","209","413535","0.0-87.0-0.0","","1308.199999999255","<div style=""display: flex; flex-direction: column; align-items: center; margin-top: -40px;""><img src=""images/pattern_7.png"" style=""width: 234px; height: 230px; margin-top: -50px;""><div style=""display: flex; justify-content: space-between; margin-top: 33px;""><img src=""images/choice_trial_6.png"" style=""width: 408px; height: 417px; margin-right: 200px;""><img src=""images/choice_trial_12.png"" style=""width: 408px; height: 417px;""></div></div>","f","delaylearn","learning","trial","638526640404d47424e281ff","b3csoiYuvzcYk7dA3Q4k5T31y3Q2","3","images/choice_trial_6.png","images/choice_trial_12.png","images/pattern_7.png","f","f","750","6","12","6","0","38","1","1","6","250","","","","",""
"html-keyboard-response","210","414540","0.0-87.0-1.0","","null","<div style=""display: flex; flex-direction: column; align-items: center; margin-top: -40px;""><img src=""images/pattern_7.png"" style=""width: 234px; height: 230px; margin-top: -50px;""><div style=""display: flex; justify-content: space-between; margin-top: 33px;""><img src=""images/choice_trial_6.png"" style=""width: 408px; height: 417px; margin-right: 608px;""></div></div>","null","delaylearn","learning","display_response","638526640404d47424e281ff","b3csoiYuvzcYk7dA3Q4k5T31y3Q2","","","","","","","","","","","","","","","","","chosen stimuli: images/choice_trial_6.png","","","",""
"html-keyboard-response","211","415293","0.0-87.0-2.0","","null","","null","delaylearn","learning","feedback_duration_window","638526640404d47424e281ff","b3csoiYuvzcYk7dA3Q4k5T31y3Q2","","","","","","","","","","","","","","","","","","750","","",""
"html-keyboard-response","212","416810","0.0-87.0-3.0","","null","<div style='margin:auto;width: auto; font-size: 150%'><span style='font-weight: bold; font-size: 100px; color: green;'>+10 points!</span><br><br></div>","null","delaylearn","learning","feedback_image_window","638526640404d47424e281ff","b3csoiYuvzcYk7dA3Q4k5T31y3Q2","","","","","","","","","","","","","","","","","","","","",""
"html-keyboard-response","213","418512","0.0-88.0","","null","<div style=""font-size:100px;"">+</div>","null","delaylearn","learning","ITI","638526640404d47424e281ff","b3csoiYuvzcYk7dA3Q4k5T31y3Q2","","","","","","","","","","","","","","","","","","","1696","",""
"html-keyboard-response","214","419747","0.0-89.0-0.0","","1229.699999999255","<div style=""display: flex; flex-direction: column; align-items: center; margin-top: -40px;""><img src=""images/pattern_1.png"" style=""width: 234px; height: 230px; margin-top: -50px;""><div style=""display: flex; justify-content: space-between; margin-top: 33px;""><img src=""images/choice_trial_14.png"" style=""width: 408px; height: 417px; margin-right: 200px;""><img src=""images/choice_trial_8.png"" style=""width: 408px; height: 417px;""></div></div>","f","delaylearn","learning","trial","638526640404d47424e281ff","b3csoiYuvzcYk7dA3Q4k5T31y3Q2","3","images/choice_trial_14.png","images/choice_trial_8.png","images/pattern_1.png","f","f","7000","14","8","1","0","39","1","1","14","260","","","","",""
"html-keyboard-response","215","420764","0.0-89.0-1.0","","null","<div style=""display: flex; flex-direction: column; align-items: center; margin-top: -40px;""><img src=""images/pattern_1.png"" style=""width: 234px; height: 230px; margin-top: -50px;""><div style=""display: flex; justify-content: space-between; margin-top: 33px;""><img src=""images/choice_trial_14.png"" style=""width: 408px; height: 417px; margin-right: 608px;""></div></div>","null","delaylearn","learning","display_response","638526640404d47424e281ff","b3csoiYuvzcYk7dA3Q4k5T31y3Q2","","","","","","","","","","","","","","","","","chosen stimuli: images/choice_trial_14.png","","","",""
"html-keyboard-response","216","427771","0.0-89.0-2.0","","null","","null","delaylearn","learning","feedback_duration_window","638526640404d47424e281ff","b3csoiYuvzcYk7dA3Q4k5T31y3Q2","","","","","","","","","","","","","","","","","","7000","","",""
"html-keyboard-response","217","429288","0.0-89.0-3.0","","null","<div style='margin:auto;width: auto; font-size: 150%'><span style='font-weight: bold; font-size: 100px; color: green;'>+10 points!</span><br><br></div>","null","delaylearn","learning","feedback_image_window","638526640404d47424e281ff","b3csoiYuvzcYk7dA3Q4k5T31y3Q2","","","","","","","","","","","","","","","","","","","","",""
"html-keyboard-response","218","429790","0.0-90.0-0.0","","null","","null","","","mood_trial_fixation","","","","","","","","","","","","","","","","","","","","","","",""
"lmdlab-html-vas-response","219","432560","0.0-90.0-1.0","","1751","How happy are you right now?","0.5231481481481481","delaylearn","learning","mood_trial","638526640404d47424e281ff","b3csoiYuvzcYk7dA3Q4k5T31y3Q2","","","","","","","","","","","","","","","","","","","","[""Very unhappy"",""Very happy""]",""
"html-keyboard-response","220","434410","0.0-91.0","","null","<div style=""font-size:100px;"">+</div>","null","delaylearn","learning","ITI","638526640404d47424e281ff","b3csoiYuvzcYk7dA3Q4k5T31y3Q2","","","","","","","","","","","","","","","","","","","1846","",""
