"trial_type","trial_index","time_elapsed","internal_node_id","participant","rt","stimulus","response","exp_name","exp_stage","test_part","subjectID","databaseID","counterbal","choice_stimuli_1","choice_stimuli_2","pattern_stimuli","rewarded_answer","correct_answer","feedback_duration_times","stim_left","stim_right","pair","leftright_counter","trial","response_correct","response_rewarded","chosen_stim","counter","displayed_choice","feedback_durations","ITI_duration","labels","rest_warning"
"pavlovia","0","3353","0.0-0.0","","","","","","","","","","","","","","","","","","","","","","","","","","","","","",""
"html-keyboard-response","1","6381","0.0-1.0","","null","<div style=""font-size:100px;"">+</div>","null","delaylearn","learning","pre_fixation","5e7c55274f63942a04b08c29","not found","","","","","","","","","","","","","","","","","","","","",""
"html-keyboard-response","2","9387","0.0-2.0-0.0","","null","<div style=""display: flex; flex-direction: column; align-items: center; margin-top: -40px;""><img src=""images/demo_images/pattern_1.png"" style=""width: 234px; height: 230px; margin-top: -50px;""><div style=""display: flex; justify-content: space-between; margin-top: 33px;""><img src=""images/demo_images/choice_trial_2.png"" style=""width: 408px; height: 417px; margin-right: 200px;""><img src=""images/demo_images/choice_trial_1.png"" style=""width: 408px; height: 417px;""></div></div>","null","delaylearn","learning","trial","5e7c55274f63942a04b08c29","muJ8ZgPLXSW0ladHZrfyk6RX81j2","3","images/demo_images/choice_trial_2.png","images/demo_images/choice_trial_1.png","images/demo_images/pattern_1.png","j","j","3000","2","1","20","1","1","0","0","0","0","","","","",""
"html-keyboard-response","3","10403","0.0-2.0-1.0","","null","<div style='font-weight: bold; font-size: 75px; color: red;'>Missed Trial <br><br><br><br> Please respond faster</div>","null","delaylearn","learning","display_response","5e7c55274f63942a04b08c29","muJ8ZgPLXSW0ladHZrfyk6RX81j2","","","","","","","","","","","","","","","","","Missed trial","","","",""
"html-keyboard-response","4","10405","0.0-2.0-2.0","","null","","null","delaylearn","learning","feedback_duration_window","5e7c55274f63942a04b08c29","muJ8ZgPLXSW0ladHZrfyk6RX81j2","","","","","","","","","","","","","","","","","","0","","",""
"html-keyboard-response","5","10411","0.0-2.0-3.0","","null","","null","delaylearn","learning","feedback_image_window","5e7c55274f63942a04b08c29","muJ8ZgPLXSW0ladHZrfyk6RX81j2","","","","","","","","","","","","","","","","","","","","",""
"html-keyboard-response","6","12503","0.0-3.0","","null","<div style=""font-size:100px;"">+</div>","null","delaylearn","learning","ITI","5e7c55274f63942a04b08c29","muJ8ZgPLXSW0ladHZrfyk6RX81j2","","","","","","","","","","","","","","","","","","","2077","",""
"html-keyboard-response","7","13024","0.0-4.0-0.0","","519.5","<div style=""display: flex; flex-direction: column; align-items: center; margin-top: -40px;""><img src=""images/demo_images/pattern_1.png"" style=""width: 234px; height: 230px; margin-top: -50px;""><div style=""display: flex; justify-content: space-between; margin-top: 33px;""><img src=""images/demo_images/choice_trial_2.png"" style=""width: 408px; height: 417px; margin-right: 200px;""><img src=""images/demo_images/choice_trial_1.png"" style=""width: 408px; height: 417px;""></div></div>","f","delaylearn","learning","trial","5e7c55274f63942a04b08c29","muJ8ZgPLXSW0ladHZrfyk6RX81j2","3","images/demo_images/choice_trial_2.png","images/demo_images/choice_trial_1.png","images/demo_images/pattern_1.png","j","j","3000","2","1","20","1","2","0","0","2","0","","","","",""
"html-keyboard-response","8","14039","0.0-4.0-1.0","","null","<div style=""display: flex; flex-direction: column; align-items: center; margin-top: -40px;""><img src=""images/demo_images/pattern_1.png"" style=""width: 234px; height: 230px; margin-top: -50px;""><div style=""display: flex; justify-content: space-between; margin-top: 33px;""><img src=""images/demo_images/choice_trial_2.png"" style=""width: 408px; height: 417px; margin-right: 608px;""></div></div>","null","delaylearn","learning","display_response","5e7c55274f63942a04b08c29","muJ8ZgPLXSW0ladHZrfyk6RX81j2","","","","","","","","","","","","","","","","","chosen stimuli: images/demo_images/choice_trial_2.png","","","",""
"html-keyboard-response","9","17056","0.0-4.0-2.0","","null","","null","delaylearn","learning","feedback_duration_window","5e7c55274f63942a04b08c29","muJ8ZgPLXSW0ladHZrfyk6RX81j2","","","","","","","","","","","","","","","","","","3000","","",""
"html-keyboard-response","10","18570","0.0-4.0-3.0","","null","<div style='margin:auto;width: auto; font-size: 150%'><span style='font-weight: bold; font-size: 100px; color: red;'>0 points!</span><br><br></div>","null","delaylearn","learning","feedback_image_window","5e7c55274f63942a04b08c29","muJ8ZgPLXSW0ladHZrfyk6RX81j2","","","","","","","","","","","","","","","","","","","","",""
"html-keyboard-response","11","20135","0.0-5.0","","null","<div style=""font-size:100px;"">+</div>","null","delaylearn","learning","ITI","5e7c55274f63942a04b08c29","muJ8ZgPLXSW0ladHZrfyk6RX81j2","","","","","","","","","","","","","","","","","","","1554","",""
"html-keyboard-response","12","21659","0.0-6.0-0.0","","1523.2000000476837","<div style=""display: flex; flex-direction: column; align-items: center; margin-top: -40px;""><img src=""images/demo_images/pattern_1.png"" style=""width: 234px; height: 230px; margin-top: -50px;""><div style=""display: flex; justify-content: space-between; margin-top: 33px;""><img src=""images/demo_images/choice_trial_1.png"" style=""width: 408px; height: 417px; margin-right: 200px;""><img src=""images/demo_images/choice_trial_2.png"" style=""width: 408px; height: 417px;""></div></div>","f","delaylearn","learning","trial","5e7c55274f63942a04b08c29","muJ8ZgPLXSW0ladHZrfyk6RX81j2","3","images/demo_images/choice_trial_1.png","images/demo_images/choice_trial_2.png","images/demo_images/pattern_1.png","j","f","3000","1","2","20","0","3","1","0","1","0","","","","",""
"html-keyboard-response","13","22672","0.0-6.0-1.0","","null","<div style=""display: flex; flex-direction: column; align-items: center; margin-top: -40px;""><img src=""images/demo_images/pattern_1.png"" style=""width: 234px; height: 230px; margin-top: -50px;""><div style=""display: flex; justify-content: space-between; margin-top: 33px;""><img src=""images/demo_images/choice_trial_1.png"" style=""width: 408px; height: 417px; margin-right: 608px;""></div></div>","null","delaylearn","learning","display_response","5e7c55274f63942a04b08c29","muJ8ZgPLXSW0ladHZrfyk6RX81j2","","","","","","","","","","","","","","","","","chosen stimuli: images/demo_images/choice_trial_1.png","","","",""
"html-keyboard-response","14","25686","0.0-6.0-2.0","","null","","null","delaylearn","learning","feedback_duration_window","5e7c55274f63942a04b08c29","muJ8ZgPLXSW0ladHZrfyk6RX81j2","","","","","","","","","","","","","","","","","","3000","","",""
"html-keyboard-response","15","27203","0.0-6.0-3.0","","null","<div style='margin:auto;width: auto; font-size: 150%'><span style='font-weight: bold; font-size: 100px; color: red;'>0 points!</span><br><br></div>","null","delaylearn","learning","feedback_image_window","5e7c55274f63942a04b08c29","muJ8ZgPLXSW0ladHZrfyk6RX81j2","","","","","","","","","","","","","","","","","","","","",""
"html-keyboard-response","16","28838","0.0-7.0","","null","<div style=""font-size:100px;"">+</div>","null","delaylearn","learning","ITI","5e7c55274f63942a04b08c29","muJ8ZgPLXSW0ladHZrfyk6RX81j2","","","","","","","","","","","","","","","","","","","1627","",""
"html-keyboard-response","17","29770","0.0-8.0-0.0","","930.5","<div style=""display: flex; flex-direction: column; align-items: center; margin-top: -40px;""><img src=""images/demo_images/pattern_1.png"" style=""width: 234px; height: 230px; margin-top: -50px;""><div style=""display: flex; justify-content: space-between; margin-top: 33px;""><img src=""images/demo_images/choice_trial_1.png"" style=""width: 408px; height: 417px; margin-right: 200px;""><img src=""images/demo_images/choice_trial_2.png"" style=""width: 408px; height: 417px;""></div></div>","j","delaylearn","learning","trial","5e7c55274f63942a04b08c29","muJ8ZgPLXSW0ladHZrfyk6RX81j2","3","images/demo_images/choice_trial_1.png","images/demo_images/choice_trial_2.png","images/demo_images/pattern_1.png","f","f","3000","1","2","20","0","4","0","0","2","0","","","","",""
"html-keyboard-response","18","30789","0.0-8.0-1.0","","null","<div style=""display: flex; flex-direction: column; align-items: center; margin-top: -40px;""><img src=""images/demo_images/pattern_1.png"" style=""width: 234px; height: 230px; margin-top: -50px;""><div style=""display: flex; justify-content: space-between; margin-top: 33px;""><img src=""images/demo_images/choice_trial_2.png"" style=""width: 408px; height: 417px; margin-left:608px;""></div></div>","null","delaylearn","learning","display_response","5e7c55274f63942a04b08c29","muJ8ZgPLXSW0ladHZrfyk6RX81j2","","","","","","","","","","","","","","","","","chosen stimuli: images/demo_images/choice_trial_2.png","","","",""
"html-keyboard-response","19","33802","0.0-8.0-2.0","","null","","null","delaylearn","learning","feedback_duration_window","5e7c55274f63942a04b08c29","muJ8ZgPLXSW0ladHZrfyk6RX81j2","","","","","","","","","","","","","","","","","","3000","","",""
"html-keyboard-response","20","35319","0.0-8.0-3.0","","null","<div style='margin:auto;width: auto; font-size: 150%'><span style='font-weight: bold; font-size: 100px; color: red;'>0 points!</span><br><br></div>","null","delaylearn","learning","feedback_image_window","5e7c55274f63942a04b08c29","muJ8ZgPLXSW0ladHZrfyk6RX81j2","","","","","","","","","","","","","","","","","","","","",""
"html-keyboard-response","21","35822","0.0-9.0-0.0","","null","","null","","","mood_trial_fixation","","","","","","","","","","","","","","","","","","","","","","",""
"lmdlab-html-vas-response","22","42049","0.0-9.0-1.0","","5208","How happy are you right now?","0.24732347194890755","delaylearn","learning","mood_trial","5e7c55274f63942a04b08c29","muJ8ZgPLXSW0ladHZrfyk6RX81j2","","","","","","","","","","","","","","","","","","","","[""Very unhappy"",""Very happy""]",""
"html-keyboard-response","23","44183","0.0-10.0","","null","<div style=""font-size:100px;"">+</div>","null","delaylearn","learning","ITI","5e7c55274f63942a04b08c29","muJ8ZgPLXSW0ladHZrfyk6RX81j2","","","","","","","","","","","","","","","","","","","2123","",""
"html-keyboard-response","24","46076","0.0-11.0-0.0","","1889.6999999284744","<div style=""display: flex; flex-direction: column; align-items: center; margin-top: -40px;""><img src=""images/demo_images/pattern_1.png"" style=""width: 234px; height: 230px; margin-top: -50px;""><div style=""display: flex; justify-content: space-between; margin-top: 33px;""><img src=""images/demo_images/choice_trial_2.png"" style=""width: 408px; height: 417px; margin-right: 200px;""><img src=""images/demo_images/choice_trial_1.png"" style=""width: 408px; height: 417px;""></div></div>","f","delaylearn","learning","trial","5e7c55274f63942a04b08c29","muJ8ZgPLXSW0ladHZrfyk6RX81j2","3","images/demo_images/choice_trial_2.png","images/demo_images/choice_trial_1.png","images/demo_images/pattern_1.png","j","j","3000","2","1","20","1","5","0","0","2","0","","","","",""
"html-keyboard-response","25","47087","0.0-11.0-1.0","","null","<div style=""display: flex; flex-direction: column; align-items: center; margin-top: -40px;""><img src=""images/demo_images/pattern_1.png"" style=""width: 234px; height: 230px; margin-top: -50px;""><div style=""display: flex; justify-content: space-between; margin-top: 33px;""><img src=""images/demo_images/choice_trial_2.png"" style=""width: 408px; height: 417px; margin-right: 608px;""></div></div>","null","delaylearn","learning","display_response","5e7c55274f63942a04b08c29","muJ8ZgPLXSW0ladHZrfyk6RX81j2","","","","","","","","","","","","","","","","","chosen stimuli: images/demo_images/choice_trial_2.png","","","",""
"html-keyboard-response","26","50101","0.0-11.0-2.0","","null","","null","delaylearn","learning","feedback_duration_window","5e7c55274f63942a04b08c29","muJ8ZgPLXSW0ladHZrfyk6RX81j2","","","","","","","","","","","","","","","","","","3000","","",""
"html-keyboard-response","27","51622","0.0-11.0-3.0","","null","<div style='margin:auto;width: auto; font-size: 150%'><span style='font-weight: bold; font-size: 100px; color: red;'>0 points!</span><br><br></div>","null","delaylearn","learning","feedback_image_window","5e7c55274f63942a04b08c29","muJ8ZgPLXSW0ladHZrfyk6RX81j2","","","","","","","","","","","","","","","","","","","","",""
"html-keyboard-response","28","53671","0.0-12.0","","null","<div style=""font-size:100px;"">+</div>","null","delaylearn","learning","ITI","5e7c55274f63942a04b08c29","muJ8ZgPLXSW0ladHZrfyk6RX81j2","","","","","","","","","","","","","","","","","","","2042","",""
"html-keyboard-response","29","54757","0.0-13.0-0.0","","1083.6000000238419","<div style=""display: flex; flex-direction: column; align-items: center; margin-top: -40px;""><img src=""images/demo_images/pattern_1.png"" style=""width: 234px; height: 230px; margin-top: -50px;""><div style=""display: flex; justify-content: space-between; margin-top: 33px;""><img src=""images/demo_images/choice_trial_1.png"" style=""width: 408px; height: 417px; margin-right: 200px;""><img src=""images/demo_images/choice_trial_2.png"" style=""width: 408px; height: 417px;""></div></div>","f","delaylearn","learning","trial","5e7c55274f63942a04b08c29","muJ8ZgPLXSW0ladHZrfyk6RX81j2","3","images/demo_images/choice_trial_1.png","images/demo_images/choice_trial_2.png","images/demo_images/pattern_1.png","f","f","3000","1","2","20","0","6","1","1","1","10","","","","",""
"html-keyboard-response","30","55771","0.0-13.0-1.0","","null","<div style=""display: flex; flex-direction: column; align-items: center; margin-top: -40px;""><img src=""images/demo_images/pattern_1.png"" style=""width: 234px; height: 230px; margin-top: -50px;""><div style=""display: flex; justify-content: space-between; margin-top: 33px;""><img src=""images/demo_images/choice_trial_1.png"" style=""width: 408px; height: 417px; margin-right: 608px;""></div></div>","null","delaylearn","learning","display_response","5e7c55274f63942a04b08c29","muJ8ZgPLXSW0ladHZrfyk6RX81j2","","","","","","","","","","","","","","","","","chosen stimuli: images/demo_images/choice_trial_1.png","","","",""
"html-keyboard-response","31","58786","0.0-13.0-2.0","","null","","null","delaylearn","learning","feedback_duration_window","5e7c55274f63942a04b08c29","muJ8ZgPLXSW0ladHZrfyk6RX81j2","","","","","","","","","","","","","","","","","","3000","","",""
"html-keyboard-response","32","60302","0.0-13.0-3.0","","null","<div style='margin:auto;width: auto; font-size: 150%'><span style='font-weight: bold; font-size: 100px; color: green;'>+10 points!</span><br><br></div>","null","delaylearn","learning","feedback_image_window","5e7c55274f63942a04b08c29","muJ8ZgPLXSW0ladHZrfyk6RX81j2","","","","","","","","","","","","","","","","","","","","",""
"html-keyboard-response","33","62137","0.0-14.0","","null","<div style=""font-size:100px;"">+</div>","null","delaylearn","learning","ITI","5e7c55274f63942a04b08c29","muJ8ZgPLXSW0ladHZrfyk6RX81j2","","","","","","","","","","","","","","","","","","","1822","",""
"html-keyboard-response","34","62952","0.0-15.0-0.0","","812.8999999761581","<div style=""display: flex; flex-direction: column; align-items: center; margin-top: -40px;""><img src=""images/demo_images/pattern_1.png"" style=""width: 234px; height: 230px; margin-top: -50px;""><div style=""display: flex; justify-content: space-between; margin-top: 33px;""><img src=""images/demo_images/choice_trial_2.png"" style=""width: 408px; height: 417px; margin-right: 200px;""><img src=""images/demo_images/choice_trial_1.png"" style=""width: 408px; height: 417px;""></div></div>","j","delaylearn","learning","trial","5e7c55274f63942a04b08c29","muJ8ZgPLXSW0ladHZrfyk6RX81j2","3","images/demo_images/choice_trial_2.png","images/demo_images/choice_trial_1.png","images/demo_images/pattern_1.png","j","j","3000","2","1","20","1","7","1","1","1","20","","","","",""
"html-keyboard-response","35","63969","0.0-15.0-1.0","","null","<div style=""display: flex; flex-direction: column; align-items: center; margin-top: -40px;""><img src=""images/demo_images/pattern_1.png"" style=""width: 234px; height: 230px; margin-top: -50px;""><div style=""display: flex; justify-content: space-between; margin-top: 33px;""><img src=""images/demo_images/choice_trial_1.png"" style=""width: 408px; height: 417px; margin-left:608px;""></div></div>","null","delaylearn","learning","display_response","5e7c55274f63942a04b08c29","muJ8ZgPLXSW0ladHZrfyk6RX81j2","","","","","","","","","","","","","","","","","chosen stimuli: images/demo_images/choice_trial_1.png","","","",""
"html-keyboard-response","36","66971","0.0-15.0-2.0","","null","","null","delaylearn","learning","feedback_duration_window","5e7c55274f63942a04b08c29","muJ8ZgPLXSW0ladHZrfyk6RX81j2","","","","","","","","","","","","","","","","","","3000","","",""
"html-keyboard-response","37","68487","0.0-15.0-3.0","","null","<div style='margin:auto;width: auto; font-size: 150%'><span style='font-weight: bold; font-size: 100px; color: green;'>+10 points!</span><br><br></div>","null","delaylearn","learning","feedback_image_window","5e7c55274f63942a04b08c29","muJ8ZgPLXSW0ladHZrfyk6RX81j2","","","","","","","","","","","","","","","","","","","","",""
"html-keyboard-response","38","70989","0.0-16.0","","null","<div style=""font-size:100px;"">+</div>","null","delaylearn","learning","ITI","5e7c55274f63942a04b08c29","muJ8ZgPLXSW0ladHZrfyk6RX81j2","","","","","","","","","","","","","","","","","","","2483","",""
"html-keyboard-response","39","71643","0.0-17.0-0.0","","652","<div style=""display: flex; flex-direction: column; align-items: center; margin-top: -40px;""><img src=""images/demo_images/pattern_1.png"" style=""width: 234px; height: 230px; margin-top: -50px;""><div style=""display: flex; justify-content: space-between; margin-top: 33px;""><img src=""images/demo_images/choice_trial_1.png"" style=""width: 408px; height: 417px; margin-right: 200px;""><img src=""images/demo_images/choice_trial_2.png"" style=""width: 408px; height: 417px;""></div></div>","f","delaylearn","learning","trial","5e7c55274f63942a04b08c29","muJ8ZgPLXSW0ladHZrfyk6RX81j2","3","images/demo_images/choice_trial_1.png","images/demo_images/choice_trial_2.png","images/demo_images/pattern_1.png","f","f","3000","1","2","20","0","8","1","1","1","30","","","","",""
"html-keyboard-response","40","72653","0.0-17.0-1.0","","null","<div style=""display: flex; flex-direction: column; align-items: center; margin-top: -40px;""><img src=""images/demo_images/pattern_1.png"" style=""width: 234px; height: 230px; margin-top: -50px;""><div style=""display: flex; justify-content: space-between; margin-top: 33px;""><img src=""images/demo_images/choice_trial_1.png"" style=""width: 408px; height: 417px; margin-right: 608px;""></div></div>","null","delaylearn","learning","display_response","5e7c55274f63942a04b08c29","muJ8ZgPLXSW0ladHZrfyk6RX81j2","","","","","","","","","","","","","","","","","chosen stimuli: images/demo_images/choice_trial_1.png","","","",""
"html-keyboard-response","41","75668","0.0-17.0-2.0","","null","","null","delaylearn","learning","feedback_duration_window","5e7c55274f63942a04b08c29","muJ8ZgPLXSW0ladHZrfyk6RX81j2","","","","","","","","","","","","","","","","","","3000","","",""
"html-keyboard-response","42","77189","0.0-17.0-3.0","","null","<div style='margin:auto;width: auto; font-size: 150%'><span style='font-weight: bold; font-size: 100px; color: green;'>+10 points!</span><br><br></div>","null","delaylearn","learning","feedback_image_window","5e7c55274f63942a04b08c29","muJ8ZgPLXSW0ladHZrfyk6RX81j2","","","","","","","","","","","","","","","","","","","","",""
"html-button-response","43","80604","0.0-18.0","","3413.2000000476837","
  <div style=""display: flex; align-items: center; justify-content: center; height: 80vh;"">
  <div>
          <img src=""images/inst_demo_finish.png"" style=""width: 80vw; height:auto;"">
          <br><br>
      </div>
      <br><br>
  </div>","0","","","","","","","","","","","","","","","","","","","","","","","","","",""
"html-keyboard-response","44","92405","0.0-19.0","","11800.300000071526","
  <div style=""display: flex; align-items: center; justify-content: center; height: 80vh;"">
  <div>
          <img src=""images/inst_6.png"" style=""width: 80vw; height:auto;"">
          <br><br>
      </div>
      <br><br>
  </div>","j","","","","","","","","","","","","","","","","","","","","","","","","","",""
"html-keyboard-response","45","95419","0.0-20.0","","null","<div style=""font-size:100px;"">+</div>","null","delaylearn","learning","pre_fixation","5e7c55274f63942a04b08c29","not found","","","","","","","","","","","","","","","","","","","","",""
"html-keyboard-response","46","97422","0.0-21.0","","null","<div style=""font-size:100px;"">+</div>","null","delaylearn","learning","ITI","5e7c55274f63942a04b08c29","muJ8ZgPLXSW0ladHZrfyk6RX81j2","","","","","","","","","","","","","","","","","","","1998","",""
"html-keyboard-response","47","98553","0.0-22.0-0.0","","1128.8999999761581","<div style=""display: flex; flex-direction: column; align-items: center; margin-top: -40px;""><img src=""images/pattern_3.png"" style=""width: 234px; height: 230px; margin-top: -50px;""><div style=""display: flex; justify-content: space-between; margin-top: 33px;""><img src=""images/choice_trial_13.png"" style=""width: 408px; height: 417px; margin-right: 200px;""><img src=""images/choice_trial_10.png"" style=""width: 408px; height: 417px;""></div></div>","f","delaylearn","learning","trial","5e7c55274f63942a04b08c29","muJ8ZgPLXSW0ladHZrfyk6RX81j2","3","images/choice_trial_13.png","images/choice_trial_10.png","images/pattern_3.png","f","f","7000","13","10","2","0","9","1","1","13","40","","","","",""
"html-keyboard-response","48","99570","0.0-22.0-1.0","","null","<div style=""display: flex; flex-direction: column; align-items: center; margin-top: -40px;""><img src=""images/pattern_3.png"" style=""width: 234px; height: 230px; margin-top: -50px;""><div style=""display: flex; justify-content: space-between; margin-top: 33px;""><img src=""images/choice_trial_13.png"" style=""width: 408px; height: 417px; margin-right: 608px;""></div></div>","null","delaylearn","learning","display_response","5e7c55274f63942a04b08c29","muJ8ZgPLXSW0ladHZrfyk6RX81j2","","","","","","","","","","","","","","","","","chosen stimuli: images/choice_trial_13.png","","","",""
"html-keyboard-response","49","106586","0.0-22.0-2.0","","null","","null","delaylearn","learning","feedback_duration_window","5e7c55274f63942a04b08c29","muJ8ZgPLXSW0ladHZrfyk6RX81j2","","","","","","","","","","","","","","","","","","7000","","",""
"html-keyboard-response","50","108101","0.0-22.0-3.0","","null","<div style='margin:auto;width: auto; font-size: 150%'><span style='font-weight: bold; font-size: 100px; color: green;'>+10 points!</span><br><br></div>","null","delaylearn","learning","feedback_image_window","5e7c55274f63942a04b08c29","muJ8ZgPLXSW0ladHZrfyk6RX81j2","","","","","","","","","","","","","","","","","","","","",""
"html-keyboard-response","51","109936","0.0-23.0","","null","<div style=""font-size:100px;"">+</div>","null","delaylearn","learning","ITI","5e7c55274f63942a04b08c29","muJ8ZgPLXSW0ladHZrfyk6RX81j2","","","","","","","","","","","","","","","","","","","1821","",""
"html-keyboard-response","52","111311","0.0-24.0-0.0","","1372.7999999523163","<div style=""display: flex; flex-direction: column; align-items: center; margin-top: -40px;""><img src=""images/pattern_7.png"" style=""width: 234px; height: 230px; margin-top: -50px;""><div style=""display: flex; justify-content: space-between; margin-top: 33px;""><img src=""images/choice_trial_12.png"" style=""width: 408px; height: 417px; margin-right: 200px;""><img src=""images/choice_trial_6.png"" style=""width: 408px; height: 417px;""></div></div>","j","delaylearn","learning","trial","5e7c55274f63942a04b08c29","muJ8ZgPLXSW0ladHZrfyk6RX81j2","3","images/choice_trial_12.png","images/choice_trial_6.png","images/pattern_7.png","j","j","750","12","6","6","1","10","1","1","6","50","","","","",""
"html-keyboard-response","53","112322","0.0-24.0-1.0","","null","<div style=""display: flex; flex-direction: column; align-items: center; margin-top: -40px;""><img src=""images/pattern_7.png"" style=""width: 234px; height: 230px; margin-top: -50px;""><div style=""display: flex; justify-content: space-between; margin-top: 33px;""><img src=""images/choice_trial_6.png"" style=""width: 408px; height: 417px; margin-left:608px;""></div></div>","null","delaylearn","learning","display_response","5e7c55274f63942a04b08c29","muJ8ZgPLXSW0ladHZrfyk6RX81j2","","","","","","","","","","","","","","","","","chosen stimuli: images/choice_trial_6.png","","","",""
"html-keyboard-response","54","113089","0.0-24.0-2.0","","null","","null","delaylearn","learning","feedback_duration_window","5e7c55274f63942a04b08c29","muJ8ZgPLXSW0ladHZrfyk6RX81j2","","","","","","","","","","","","","","","","","","750","","",""
"html-keyboard-response","55","114603","0.0-24.0-3.0","","null","<div style='margin:auto;width: auto; font-size: 150%'><span style='font-weight: bold; font-size: 100px; color: green;'>+10 points!</span><br><br></div>","null","delaylearn","learning","feedback_image_window","5e7c55274f63942a04b08c29","muJ8ZgPLXSW0ladHZrfyk6RX81j2","","","","","","","","","","","","","","","","","","","","",""
"html-keyboard-response","56","116654","0.0-25.0","","null","<div style=""font-size:100px;"">+</div>","null","delaylearn","learning","ITI","5e7c55274f63942a04b08c29","muJ8ZgPLXSW0ladHZrfyk6RX81j2","","","","","","","","","","","","","","","","","","","2039","",""
"html-keyboard-response","57","118440","0.0-26.0-0.0","","1783.2999999523163","<div style=""display: flex; flex-direction: column; align-items: center; margin-top: -40px;""><img src=""images/pattern_4.png"" style=""width: 234px; height: 230px; margin-top: -50px;""><div style=""display: flex; justify-content: space-between; margin-top: 33px;""><img src=""images/choice_trial_15.png"" style=""width: 408px; height: 417px; margin-right: 200px;""><img src=""images/choice_trial_9.png"" style=""width: 408px; height: 417px;""></div></div>","j","delaylearn","learning","trial","5e7c55274f63942a04b08c29","muJ8ZgPLXSW0ladHZrfyk6RX81j2","3","images/choice_trial_15.png","images/choice_trial_9.png","images/pattern_4.png","f","f","7000","15","9","3","0","11","0","0","9","50","","","","",""
"html-keyboard-response","58","119454","0.0-26.0-1.0","","null","<div style=""display: flex; flex-direction: column; align-items: center; margin-top: -40px;""><img src=""images/pattern_4.png"" style=""width: 234px; height: 230px; margin-top: -50px;""><div style=""display: flex; justify-content: space-between; margin-top: 33px;""><img src=""images/choice_trial_9.png"" style=""width: 408px; height: 417px; margin-left:608px;""></div></div>","null","delaylearn","learning","display_response","5e7c55274f63942a04b08c29","muJ8ZgPLXSW0ladHZrfyk6RX81j2","","","","","","","","","","","","","","","","","chosen stimuli: images/choice_trial_9.png","","","",""
"html-keyboard-response","59","126470","0.0-26.0-2.0","","null","","null","delaylearn","learning","feedback_duration_window","5e7c55274f63942a04b08c29","muJ8ZgPLXSW0ladHZrfyk6RX81j2","","","","","","","","","","","","","","","","","","7000","","",""
"html-keyboard-response","60","127985","0.0-26.0-3.0","","null","<div style='margin:auto;width: auto; font-size: 150%'><span style='font-weight: bold; font-size: 100px; color: red;'>0 points!</span><br><br></div>","null","delaylearn","learning","feedback_image_window","5e7c55274f63942a04b08c29","muJ8ZgPLXSW0ladHZrfyk6RX81j2","","","","","","","","","","","","","","","","","","","","",""
"html-keyboard-response","61","130021","0.0-27.0","","null","<div style=""font-size:100px;"">+</div>","null","delaylearn","learning","ITI","5e7c55274f63942a04b08c29","muJ8ZgPLXSW0ladHZrfyk6RX81j2","","","","","","","","","","","","","","","","","","","2021","",""
"html-keyboard-response","62","131480","0.0-28.0-0.0","","1456.1000000238419","<div style=""display: flex; flex-direction: column; align-items: center; margin-top: -40px;""><img src=""images/pattern_5.png"" style=""width: 234px; height: 230px; margin-top: -50px;""><div style=""display: flex; justify-content: space-between; margin-top: 33px;""><img src=""images/choice_trial_2.png"" style=""width: 408px; height: 417px; margin-right: 200px;""><img src=""images/choice_trial_11.png"" style=""width: 408px; height: 417px;""></div></div>","f","delaylearn","learning","trial","5e7c55274f63942a04b08c29","muJ8ZgPLXSW0ladHZrfyk6RX81j2","3","images/choice_trial_2.png","images/choice_trial_11.png","images/pattern_5.png","j","j","750","2","11","4","1","12","0","0","2","50","","","","",""
"html-keyboard-response","63","132486","0.0-28.0-1.0","","null","<div style=""display: flex; flex-direction: column; align-items: center; margin-top: -40px;""><img src=""images/pattern_5.png"" style=""width: 234px; height: 230px; margin-top: -50px;""><div style=""display: flex; justify-content: space-between; margin-top: 33px;""><img src=""images/choice_trial_2.png"" style=""width: 408px; height: 417px; margin-right: 608px;""></div></div>","null","delaylearn","learning","display_response","5e7c55274f63942a04b08c29","muJ8ZgPLXSW0ladHZrfyk6RX81j2","","","","","","","","","","","","","","","","","chosen stimuli: images/choice_trial_2.png","","","",""
"html-keyboard-response","64","133254","0.0-28.0-2.0","","null","","null","delaylearn","learning","feedback_duration_window","5e7c55274f63942a04b08c29","muJ8ZgPLXSW0ladHZrfyk6RX81j2","","","","","","","","","","","","","","","","","","750","","",""
"html-keyboard-response","65","134766","0.0-28.0-3.0","","null","<div style='margin:auto;width: auto; font-size: 150%'><span style='font-weight: bold; font-size: 100px; color: red;'>0 points!</span><br><br></div>","null","delaylearn","learning","feedback_image_window","5e7c55274f63942a04b08c29","muJ8ZgPLXSW0ladHZrfyk6RX81j2","","","","","","","","","","","","","","","","","","","","",""
"html-keyboard-response","66","136570","0.0-29.0","","null","<div style=""font-size:100px;"">+</div>","null","delaylearn","learning","ITI","5e7c55274f63942a04b08c29","muJ8ZgPLXSW0ladHZrfyk6RX81j2","","","","","","","","","","","","","","","","","","","1802","",""
"html-keyboard-response","67","137813","0.0-30.0-0.0","","1240.2000000476837","<div style=""display: flex; flex-direction: column; align-items: center; margin-top: -40px;""><img src=""images/pattern_6.png"" style=""width: 234px; height: 230px; margin-top: -50px;""><div style=""display: flex; justify-content: space-between; margin-top: 33px;""><img src=""images/choice_trial_16.png"" style=""width: 408px; height: 417px; margin-right: 200px;""><img src=""images/choice_trial_3.png"" style=""width: 408px; height: 417px;""></div></div>","j","delaylearn","learning","trial","5e7c55274f63942a04b08c29","muJ8ZgPLXSW0ladHZrfyk6RX81j2","3","images/choice_trial_16.png","images/choice_trial_3.png","images/pattern_6.png","j","f","750","16","3","5","0","13","0","1","3","60","","","","",""
"html-keyboard-response","68","138820","0.0-30.0-1.0","","null","<div style=""display: flex; flex-direction: column; align-items: center; margin-top: -40px;""><img src=""images/pattern_6.png"" style=""width: 234px; height: 230px; margin-top: -50px;""><div style=""display: flex; justify-content: space-between; margin-top: 33px;""><img src=""images/choice_trial_3.png"" style=""width: 408px; height: 417px; margin-left:608px;""></div></div>","null","delaylearn","learning","display_response","5e7c55274f63942a04b08c29","muJ8ZgPLXSW0ladHZrfyk6RX81j2","","","","","","","","","","","","","","","","","chosen stimuli: images/choice_trial_3.png","","","",""
"html-keyboard-response","69","139588","0.0-30.0-2.0","","null","","null","delaylearn","learning","feedback_duration_window","5e7c55274f63942a04b08c29","muJ8ZgPLXSW0ladHZrfyk6RX81j2","","","","","","","","","","","","","","","","","","750","","",""
"html-keyboard-response","70","141101","0.0-30.0-3.0","","null","<div style='margin:auto;width: auto; font-size: 150%'><span style='font-weight: bold; font-size: 100px; color: green;'>+10 points!</span><br><br></div>","null","delaylearn","learning","feedback_image_window","5e7c55274f63942a04b08c29","muJ8ZgPLXSW0ladHZrfyk6RX81j2","","","","","","","","","","","","","","","","","","","","",""
"html-keyboard-response","71","141603","0.0-31.0-0.0","","null","","null","","","mood_trial_fixation","","","","","","","","","","","","","","","","","","","","","","",""
"lmdlab-html-vas-response","72","147800","0.0-31.0-1.0","","5177","How happy are you right now?","0.4845919792932591","delaylearn","learning","mood_trial","5e7c55274f63942a04b08c29","muJ8ZgPLXSW0ladHZrfyk6RX81j2","","","","","","","","","","","","","","","","","","","","[""Very unhappy"",""Very happy""]",""
"html-keyboard-response","73","149434","0.0-32.0","","null","<div style=""font-size:100px;"">+</div>","null","delaylearn","learning","ITI","5e7c55274f63942a04b08c29","muJ8ZgPLXSW0ladHZrfyk6RX81j2","","","","","","","","","","","","","","","","","","","1624","",""
"html-keyboard-response","74","150929","0.0-33.0-0.0","","1493.1000000238419","<div style=""display: flex; flex-direction: column; align-items: center; margin-top: -40px;""><img src=""images/pattern_1.png"" style=""width: 234px; height: 230px; margin-top: -50px;""><div style=""display: flex; justify-content: space-between; margin-top: 33px;""><img src=""images/choice_trial_8.png"" style=""width: 408px; height: 417px; margin-right: 200px;""><img src=""images/choice_trial_14.png"" style=""width: 408px; height: 417px;""></div></div>","j","delaylearn","learning","trial","5e7c55274f63942a04b08c29","muJ8ZgPLXSW0ladHZrfyk6RX81j2","3","images/choice_trial_8.png","images/choice_trial_14.png","images/pattern_1.png","j","j","7000","8","14","1","1","14","1","1","14","70","","","","",""
"html-keyboard-response","75","151937","0.0-33.0-1.0","","null","<div style=""display: flex; flex-direction: column; align-items: center; margin-top: -40px;""><img src=""images/pattern_1.png"" style=""width: 234px; height: 230px; margin-top: -50px;""><div style=""display: flex; justify-content: space-between; margin-top: 33px;""><img src=""images/choice_trial_14.png"" style=""width: 408px; height: 417px; margin-left:608px;""></div></div>","null","delaylearn","learning","display_response","5e7c55274f63942a04b08c29","muJ8ZgPLXSW0ladHZrfyk6RX81j2","","","","","","","","","","","","","","","","","chosen stimuli: images/choice_trial_14.png","","","",""
"html-keyboard-response","76","158954","0.0-33.0-2.0","","null","","null","delaylearn","learning","feedback_duration_window","5e7c55274f63942a04b08c29","muJ8ZgPLXSW0ladHZrfyk6RX81j2","","","","","","","","","","","","","","","","","","7000","","",""
"html-keyboard-response","77","160468","0.0-33.0-3.0","","null","<div style='margin:auto;width: auto; font-size: 150%'><span style='font-weight: bold; font-size: 100px; color: green;'>+10 points!</span><br><br></div>","null","delaylearn","learning","feedback_image_window","5e7c55274f63942a04b08c29","muJ8ZgPLXSW0ladHZrfyk6RX81j2","","","","","","","","","","","","","","","","","","","","",""
"html-keyboard-response","78","162602","0.0-34.0","","null","<div style=""font-size:100px;"">+</div>","null","delaylearn","learning","ITI","5e7c55274f63942a04b08c29","muJ8ZgPLXSW0ladHZrfyk6RX81j2","","","","","","","","","","","","","","","","","","","2128","",""
"html-keyboard-response","79","164461","0.0-35.0-0.0","","1857","<div style=""display: flex; flex-direction: column; align-items: center; margin-top: -40px;""><img src=""images/pattern_3.png"" style=""width: 234px; height: 230px; margin-top: -50px;""><div style=""display: flex; justify-content: space-between; margin-top: 33px;""><img src=""images/choice_trial_10.png"" style=""width: 408px; height: 417px; margin-right: 200px;""><img src=""images/choice_trial_13.png"" style=""width: 408px; height: 417px;""></div></div>","j","delaylearn","learning","trial","5e7c55274f63942a04b08c29","muJ8ZgPLXSW0ladHZrfyk6RX81j2","3","images/choice_trial_10.png","images/choice_trial_13.png","images/pattern_3.png","f","j","7000","10","13","2","1","15","1","0","13","70","","","","",""
"html-keyboard-response","80","165470","0.0-35.0-1.0","","null","<div style=""display: flex; flex-direction: column; align-items: center; margin-top: -40px;""><img src=""images/pattern_3.png"" style=""width: 234px; height: 230px; margin-top: -50px;""><div style=""display: flex; justify-content: space-between; margin-top: 33px;""><img src=""images/choice_trial_13.png"" style=""width: 408px; height: 417px; margin-left:608px;""></div></div>","null","delaylearn","learning","display_response","5e7c55274f63942a04b08c29","muJ8ZgPLXSW0ladHZrfyk6RX81j2","","","","","","","","","","","","","","","","","chosen stimuli: images/choice_trial_13.png","","","",""
"html-keyboard-response","81","172486","0.0-35.0-2.0","","null","","null","delaylearn","learning","feedback_duration_window","5e7c55274f63942a04b08c29","muJ8ZgPLXSW0ladHZrfyk6RX81j2","","","","","","","","","","","","","","","","","","7000","","",""
"html-keyboard-response","82","174000","0.0-35.0-3.0","","null","<div style='margin:auto;width: auto; font-size: 150%'><span style='font-weight: bold; font-size: 100px; color: red;'>0 points!</span><br><br></div>","null","delaylearn","learning","feedback_image_window","5e7c55274f63942a04b08c29","muJ8ZgPLXSW0ladHZrfyk6RX81j2","","","","","","","","","","","","","","","","","","","","",""
"html-keyboard-response","83","175852","0.0-36.0","","null","<div style=""font-size:100px;"">+</div>","null","delaylearn","learning","ITI","5e7c55274f63942a04b08c29","muJ8ZgPLXSW0ladHZrfyk6RX81j2","","","","","","","","","","","","","","","","","","","1840","",""
"html-keyboard-response","84","178645","0.0-37.0-0.0","","2791.2999999523163","<div style=""display: flex; flex-direction: column; align-items: center; margin-top: -40px;""><img src=""images/pattern_5.png"" style=""width: 234px; height: 230px; margin-top: -50px;""><div style=""display: flex; justify-content: space-between; margin-top: 33px;""><img src=""images/choice_trial_11.png"" style=""width: 408px; height: 417px; margin-right: 200px;""><img src=""images/choice_trial_2.png"" style=""width: 408px; height: 417px;""></div></div>","f","delaylearn","learning","trial","5e7c55274f63942a04b08c29","muJ8ZgPLXSW0ladHZrfyk6RX81j2","3","images/choice_trial_11.png","images/choice_trial_2.png","images/pattern_5.png","f","f","750","11","2","4","0","16","1","1","11","80","","","","",""
"html-keyboard-response","85","179654","0.0-37.0-1.0","","null","<div style=""display: flex; flex-direction: column; align-items: center; margin-top: -40px;""><img src=""images/pattern_5.png"" style=""width: 234px; height: 230px; margin-top: -50px;""><div style=""display: flex; justify-content: space-between; margin-top: 33px;""><img src=""images/choice_trial_11.png"" style=""width: 408px; height: 417px; margin-right: 608px;""></div></div>","null","delaylearn","learning","display_response","5e7c55274f63942a04b08c29","muJ8ZgPLXSW0ladHZrfyk6RX81j2","","","","","","","","","","","","","","","","","chosen stimuli: images/choice_trial_11.png","","","",""
"html-keyboard-response","86","180421","0.0-37.0-2.0","","null","","null","delaylearn","learning","feedback_duration_window","5e7c55274f63942a04b08c29","muJ8ZgPLXSW0ladHZrfyk6RX81j2","","","","","","","","","","","","","","","","","","750","","",""
"html-keyboard-response","87","181936","0.0-37.0-3.0","","null","<div style='margin:auto;width: auto; font-size: 150%'><span style='font-weight: bold; font-size: 100px; color: green;'>+10 points!</span><br><br></div>","null","delaylearn","learning","feedback_image_window","5e7c55274f63942a04b08c29","muJ8ZgPLXSW0ladHZrfyk6RX81j2","","","","","","","","","","","","","","","","","","","","",""
"html-keyboard-response","88","182453","0.0-38.0-0.0","","null","","null","","","mood_trial_fixation","","","","","","","","","","","","","","","","","","","","","","",""
"lmdlab-html-vas-response","89","190091","0.0-38.0-1.0","","6620","How happy are you right now?","0.47301790576426633","delaylearn","learning","mood_trial","5e7c55274f63942a04b08c29","muJ8ZgPLXSW0ladHZrfyk6RX81j2","","","","","","","","","","","","","","","","","","","","[""Very unhappy"",""Very happy""]",""
"html-keyboard-response","90","192336","0.0-39.0","","null","<div style=""font-size:100px;"">+</div>","null","delaylearn","learning","ITI","5e7c55274f63942a04b08c29","muJ8ZgPLXSW0ladHZrfyk6RX81j2","","","","","","","","","","","","","","","","","","","2231","",""
"html-keyboard-response","91","193739","0.0-40.0-0.0","","1400.2999999523163","<div style=""display: flex; flex-direction: column; align-items: center; margin-top: -40px;""><img src=""images/pattern_6.png"" style=""width: 234px; height: 230px; margin-top: -50px;""><div style=""display: flex; justify-content: space-between; margin-top: 33px;""><img src=""images/choice_trial_16.png"" style=""width: 408px; height: 417px; margin-right: 200px;""><img src=""images/choice_trial_3.png"" style=""width: 408px; height: 417px;""></div></div>","f","delaylearn","learning","trial","5e7c55274f63942a04b08c29","muJ8ZgPLXSW0ladHZrfyk6RX81j2","3","images/choice_trial_16.png","images/choice_trial_3.png","images/pattern_6.png","f","f","750","16","3","5","0","17","1","1","16","90","","","","",""
"html-keyboard-response","92","194753","0.0-40.0-1.0","","null","<div style=""display: flex; flex-direction: column; align-items: center; margin-top: -40px;""><img src=""images/pattern_6.png"" style=""width: 234px; height: 230px; margin-top: -50px;""><div style=""display: flex; justify-content: space-between; margin-top: 33px;""><img src=""images/choice_trial_16.png"" style=""width: 408px; height: 417px; margin-right: 608px;""></div></div>","null","delaylearn","learning","display_response","5e7c55274f63942a04b08c29","muJ8ZgPLXSW0ladHZrfyk6RX81j2","","","","","","","","","","","","","","","","","chosen stimuli: images/choice_trial_16.png","","","",""
"html-keyboard-response","93","195520","0.0-40.0-2.0","","null","","null","delaylearn","learning","feedback_duration_window","5e7c55274f63942a04b08c29","muJ8ZgPLXSW0ladHZrfyk6RX81j2","","","","","","","","","","","","","","","","","","750","","",""
"html-keyboard-response","94","197035","0.0-40.0-3.0","","null","<div style='margin:auto;width: auto; font-size: 150%'><span style='font-weight: bold; font-size: 100px; color: green;'>+10 points!</span><br><br></div>","null","delaylearn","learning","feedback_image_window","5e7c55274f63942a04b08c29","muJ8ZgPLXSW0ladHZrfyk6RX81j2","","","","","","","","","","","","","","","","","","","","",""
"html-keyboard-response","95","198986","0.0-41.0","","null","<div style=""font-size:100px;"">+</div>","null","delaylearn","learning","ITI","5e7c55274f63942a04b08c29","muJ8ZgPLXSW0ladHZrfyk6RX81j2","","","","","","","","","","","","","","","","","","","1941","",""
"html-keyboard-response","96","200427","0.0-42.0-0.0","","1439","<div style=""display: flex; flex-direction: column; align-items: center; margin-top: -40px;""><img src=""images/pattern_4.png"" style=""width: 234px; height: 230px; margin-top: -50px;""><div style=""display: flex; justify-content: space-between; margin-top: 33px;""><img src=""images/choice_trial_9.png"" style=""width: 408px; height: 417px; margin-right: 200px;""><img src=""images/choice_trial_15.png"" style=""width: 408px; height: 417px;""></div></div>","j","delaylearn","learning","trial","5e7c55274f63942a04b08c29","muJ8ZgPLXSW0ladHZrfyk6RX81j2","3","images/choice_trial_9.png","images/choice_trial_15.png","images/pattern_4.png","j","j","7000","9","15","3","1","18","1","1","15","100","","","","",""
"html-keyboard-response","97","201437","0.0-42.0-1.0","","null","<div style=""display: flex; flex-direction: column; align-items: center; margin-top: -40px;""><img src=""images/pattern_4.png"" style=""width: 234px; height: 230px; margin-top: -50px;""><div style=""display: flex; justify-content: space-between; margin-top: 33px;""><img src=""images/choice_trial_15.png"" style=""width: 408px; height: 417px; margin-left:608px;""></div></div>","null","delaylearn","learning","display_response","5e7c55274f63942a04b08c29","muJ8ZgPLXSW0ladHZrfyk6RX81j2","","","","","","","","","","","","","","","","","chosen stimuli: images/choice_trial_15.png","","","",""
"html-keyboard-response","98","208454","0.0-42.0-2.0","","null","","null","delaylearn","learning","feedback_duration_window","5e7c55274f63942a04b08c29","muJ8ZgPLXSW0ladHZrfyk6RX81j2","","","","","","","","","","","","","","","","","","7000","","",""
"html-keyboard-response","99","209968","0.0-42.0-3.0","","null","<div style='margin:auto;width: auto; font-size: 150%'><span style='font-weight: bold; font-size: 100px; color: green;'>+10 points!</span><br><br></div>","null","delaylearn","learning","feedback_image_window","5e7c55274f63942a04b08c29","muJ8ZgPLXSW0ladHZrfyk6RX81j2","","","","","","","","","","","","","","","","","","","","",""
"html-keyboard-response","100","211921","0.0-43.0","","null","<div style=""font-size:100px;"">+</div>","null","delaylearn","learning","ITI","5e7c55274f63942a04b08c29","muJ8ZgPLXSW0ladHZrfyk6RX81j2","","","","","","","","","","","","","","","","","","","1943","",""
"html-keyboard-response","101","214015","0.0-44.0-0.0","","2091.5","<div style=""display: flex; flex-direction: column; align-items: center; margin-top: -40px;""><img src=""images/pattern_7.png"" style=""width: 234px; height: 230px; margin-top: -50px;""><div style=""display: flex; justify-content: space-between; margin-top: 33px;""><img src=""images/choice_trial_6.png"" style=""width: 408px; height: 417px; margin-right: 200px;""><img src=""images/choice_trial_12.png"" style=""width: 408px; height: 417px;""></div></div>","j","delaylearn","learning","trial","5e7c55274f63942a04b08c29","muJ8ZgPLXSW0ladHZrfyk6RX81j2","3","images/choice_trial_6.png","images/choice_trial_12.png","images/pattern_7.png","j","f","750","6","12","6","0","19","0","1","12","110","","","","",""
"html-keyboard-response","102","215020","0.0-44.0-1.0","","null","<div style=""display: flex; flex-direction: column; align-items: center; margin-top: -40px;""><img src=""images/pattern_7.png"" style=""width: 234px; height: 230px; margin-top: -50px;""><div style=""display: flex; justify-content: space-between; margin-top: 33px;""><img src=""images/choice_trial_12.png"" style=""width: 408px; height: 417px; margin-left:608px;""></div></div>","null","delaylearn","learning","display_response","5e7c55274f63942a04b08c29","muJ8ZgPLXSW0ladHZrfyk6RX81j2","","","","","","","","","","","","","","","","","chosen stimuli: images/choice_trial_12.png","","","",""
"html-keyboard-response","103","215785","0.0-44.0-2.0","","null","","null","delaylearn","learning","feedback_duration_window","5e7c55274f63942a04b08c29","muJ8ZgPLXSW0ladHZrfyk6RX81j2","","","","","","","","","","","","","","","","","","750","","",""
"html-keyboard-response","104","217300","0.0-44.0-3.0","","null","<div style='margin:auto;width: auto; font-size: 150%'><span style='font-weight: bold; font-size: 100px; color: green;'>+10 points!</span><br><br></div>","null","delaylearn","learning","feedback_image_window","5e7c55274f63942a04b08c29","muJ8ZgPLXSW0ladHZrfyk6RX81j2","","","","","","","","","","","","","","","","","","","","",""
"html-keyboard-response","105","219570","0.0-45.0","","null","<div style=""font-size:100px;"">+</div>","null","delaylearn","learning","ITI","5e7c55274f63942a04b08c29","muJ8ZgPLXSW0ladHZrfyk6RX81j2","","","","","","","","","","","","","","","","","","","2258","",""
"html-keyboard-response","106","221313","0.0-46.0-0.0","","1741.1000000238419","<div style=""display: flex; flex-direction: column; align-items: center; margin-top: -40px;""><img src=""images/pattern_1.png"" style=""width: 234px; height: 230px; margin-top: -50px;""><div style=""display: flex; justify-content: space-between; margin-top: 33px;""><img src=""images/choice_trial_14.png"" style=""width: 408px; height: 417px; margin-right: 200px;""><img src=""images/choice_trial_8.png"" style=""width: 408px; height: 417px;""></div></div>","f","delaylearn","learning","trial","5e7c55274f63942a04b08c29","muJ8ZgPLXSW0ladHZrfyk6RX81j2","3","images/choice_trial_14.png","images/choice_trial_8.png","images/pattern_1.png","f","f","7000","14","8","1","0","20","1","1","14","120","","","","",""
"html-keyboard-response","107","222319","0.0-46.0-1.0","","null","<div style=""display: flex; flex-direction: column; align-items: center; margin-top: -40px;""><img src=""images/pattern_1.png"" style=""width: 234px; height: 230px; margin-top: -50px;""><div style=""display: flex; justify-content: space-between; margin-top: 33px;""><img src=""images/choice_trial_14.png"" style=""width: 408px; height: 417px; margin-right: 608px;""></div></div>","null","delaylearn","learning","display_response","5e7c55274f63942a04b08c29","muJ8ZgPLXSW0ladHZrfyk6RX81j2","","","","","","","","","","","","","","","","","chosen stimuli: images/choice_trial_14.png","","","",""
"html-keyboard-response","108","229334","0.0-46.0-2.0","","null","","null","delaylearn","learning","feedback_duration_window","5e7c55274f63942a04b08c29","muJ8ZgPLXSW0ladHZrfyk6RX81j2","","","","","","","","","","","","","","","","","","7000","","",""
"html-keyboard-response","109","230852","0.0-46.0-3.0","","null","<div style='margin:auto;width: auto; font-size: 150%'><span style='font-weight: bold; font-size: 100px; color: green;'>+10 points!</span><br><br></div>","null","delaylearn","learning","feedback_image_window","5e7c55274f63942a04b08c29","muJ8ZgPLXSW0ladHZrfyk6RX81j2","","","","","","","","","","","","","","","","","","","","",""
"html-keyboard-response","110","233236","0.0-47.0","","null","<div style=""font-size:100px;"">+</div>","null","delaylearn","learning","ITI","5e7c55274f63942a04b08c29","muJ8ZgPLXSW0ladHZrfyk6RX81j2","","","","","","","","","","","","","","","","","","","2374","",""
"html-keyboard-response","111","234710","0.0-48.0-0.0","","1470.8999999761581","<div style=""display: flex; flex-direction: column; align-items: center; margin-top: -40px;""><img src=""images/pattern_6.png"" style=""width: 234px; height: 230px; margin-top: -50px;""><div style=""display: flex; justify-content: space-between; margin-top: 33px;""><img src=""images/choice_trial_3.png"" style=""width: 408px; height: 417px; margin-right: 200px;""><img src=""images/choice_trial_16.png"" style=""width: 408px; height: 417px;""></div></div>","j","delaylearn","learning","trial","5e7c55274f63942a04b08c29","muJ8ZgPLXSW0ladHZrfyk6RX81j2","3","images/choice_trial_3.png","images/choice_trial_16.png","images/pattern_6.png","j","j","750","3","16","5","1","21","1","1","16","130","","","","",""
"html-keyboard-response","112","235718","0.0-48.0-1.0","","null","<div style=""display: flex; flex-direction: column; align-items: center; margin-top: -40px;""><img src=""images/pattern_6.png"" style=""width: 234px; height: 230px; margin-top: -50px;""><div style=""display: flex; justify-content: space-between; margin-top: 33px;""><img src=""images/choice_trial_16.png"" style=""width: 408px; height: 417px; margin-left:608px;""></div></div>","null","delaylearn","learning","display_response","5e7c55274f63942a04b08c29","muJ8ZgPLXSW0ladHZrfyk6RX81j2","","","","","","","","","","","","","","","","","chosen stimuli: images/choice_trial_16.png","","","",""
"html-keyboard-response","113","236469","0.0-48.0-2.0","","null","","null","delaylearn","learning","feedback_duration_window","5e7c55274f63942a04b08c29","muJ8ZgPLXSW0ladHZrfyk6RX81j2","","","","","","","","","","","","","","","","","","750","","",""
"html-keyboard-response","114","237986","0.0-48.0-3.0","","null","<div style='margin:auto;width: auto; font-size: 150%'><span style='font-weight: bold; font-size: 100px; color: green;'>+10 points!</span><br><br></div>","null","delaylearn","learning","feedback_image_window","5e7c55274f63942a04b08c29","muJ8ZgPLXSW0ladHZrfyk6RX81j2","","","","","","","","","","","","","","","","","","","","",""
"html-keyboard-response","115","240036","0.0-49.0","","null","<div style=""font-size:100px;"">+</div>","null","delaylearn","learning","ITI","5e7c55274f63942a04b08c29","muJ8ZgPLXSW0ladHZrfyk6RX81j2","","","","","","","","","","","","","","","","","","","2037","",""
"html-keyboard-response","116","241466","0.0-50.0-0.0","","1427.8999999761581","<div style=""display: flex; flex-direction: column; align-items: center; margin-top: -40px;""><img src=""images/pattern_4.png"" style=""width: 234px; height: 230px; margin-top: -50px;""><div style=""display: flex; justify-content: space-between; margin-top: 33px;""><img src=""images/choice_trial_15.png"" style=""width: 408px; height: 417px; margin-right: 200px;""><img src=""images/choice_trial_9.png"" style=""width: 408px; height: 417px;""></div></div>","f","delaylearn","learning","trial","5e7c55274f63942a04b08c29","muJ8ZgPLXSW0ladHZrfyk6RX81j2","3","images/choice_trial_15.png","images/choice_trial_9.png","images/pattern_4.png","f","f","7000","15","9","3","0","22","1","1","15","140","","","","",""
"html-keyboard-response","117","242469","0.0-50.0-1.0","","null","<div style=""display: flex; flex-direction: column; align-items: center; margin-top: -40px;""><img src=""images/pattern_4.png"" style=""width: 234px; height: 230px; margin-top: -50px;""><div style=""display: flex; justify-content: space-between; margin-top: 33px;""><img src=""images/choice_trial_15.png"" style=""width: 408px; height: 417px; margin-right: 608px;""></div></div>","null","delaylearn","learning","display_response","5e7c55274f63942a04b08c29","muJ8ZgPLXSW0ladHZrfyk6RX81j2","","","","","","","","","","","","","","","","","chosen stimuli: images/choice_trial_15.png","","","",""
"html-keyboard-response","118","249486","0.0-50.0-2.0","","null","","null","delaylearn","learning","feedback_duration_window","5e7c55274f63942a04b08c29","muJ8ZgPLXSW0ladHZrfyk6RX81j2","","","","","","","","","","","","","","","","","","7000","","",""
"html-keyboard-response","119","251000","0.0-50.0-3.0","","null","<div style='margin:auto;width: auto; font-size: 150%'><span style='font-weight: bold; font-size: 100px; color: green;'>+10 points!</span><br><br></div>","null","delaylearn","learning","feedback_image_window","5e7c55274f63942a04b08c29","muJ8ZgPLXSW0ladHZrfyk6RX81j2","","","","","","","","","","","","","","","","","","","","",""
"html-keyboard-response","120","251521","0.0-51.0-0.0","","null","","null","","","mood_trial_fixation","","","","","","","","","","","","","","","","","","","","","","",""
"lmdlab-html-vas-response","121","259855","0.0-51.0-1.0","","7316","How happy are you right now?","0.4942370405674197","delaylearn","learning","mood_trial","5e7c55274f63942a04b08c29","muJ8ZgPLXSW0ladHZrfyk6RX81j2","","","","","","","","","","","","","","","","","","","","[""Very unhappy"",""Very happy""]",""
"html-keyboard-response","122","262167","0.0-52.0","","null","<div style=""font-size:100px;"">+</div>","null","delaylearn","learning","ITI","5e7c55274f63942a04b08c29","muJ8ZgPLXSW0ladHZrfyk6RX81j2","","","","","","","","","","","","","","","","","","","2299","",""
"html-keyboard-response","123","263704","0.0-53.0-0.0","","1534.8999999761581","<div style=""display: flex; flex-direction: column; align-items: center; margin-top: -40px;""><img src=""images/pattern_7.png"" style=""width: 234px; height: 230px; margin-top: -50px;""><div style=""display: flex; justify-content: space-between; margin-top: 33px;""><img src=""images/choice_trial_12.png"" style=""width: 408px; height: 417px; margin-right: 200px;""><img src=""images/choice_trial_6.png"" style=""width: 408px; height: 417px;""></div></div>","j","delaylearn","learning","trial","5e7c55274f63942a04b08c29","muJ8ZgPLXSW0ladHZrfyk6RX81j2","3","images/choice_trial_12.png","images/choice_trial_6.png","images/pattern_7.png","j","j","750","12","6","6","1","23","1","1","6","150","","","","",""
"html-keyboard-response","124","264718","0.0-53.0-1.0","","null","<div style=""display: flex; flex-direction: column; align-items: center; margin-top: -40px;""><img src=""images/pattern_7.png"" style=""width: 234px; height: 230px; margin-top: -50px;""><div style=""display: flex; justify-content: space-between; margin-top: 33px;""><img src=""images/choice_trial_6.png"" style=""width: 408px; height: 417px; margin-left:608px;""></div></div>","null","delaylearn","learning","display_response","5e7c55274f63942a04b08c29","muJ8ZgPLXSW0ladHZrfyk6RX81j2","","","","","","","","","","","","","","","","","chosen stimuli: images/choice_trial_6.png","","","",""
"html-keyboard-response","125","265484","0.0-53.0-2.0","","null","","null","delaylearn","learning","feedback_duration_window","5e7c55274f63942a04b08c29","muJ8ZgPLXSW0ladHZrfyk6RX81j2","","","","","","","","","","","","","","","","","","750","","",""
"html-keyboard-response","126","267002","0.0-53.0-3.0","","null","<div style='margin:auto;width: auto; font-size: 150%'><span style='font-weight: bold; font-size: 100px; color: green;'>+10 points!</span><br><br></div>","null","delaylearn","learning","feedback_image_window","5e7c55274f63942a04b08c29","muJ8ZgPLXSW0ladHZrfyk6RX81j2","","","","","","","","","","","","","","","","","","","","",""
"html-keyboard-response","127","268935","0.0-54.0","","null","<div style=""font-size:100px;"">+</div>","null","delaylearn","learning","ITI","5e7c55274f63942a04b08c29","muJ8ZgPLXSW0ladHZrfyk6RX81j2","","","","","","","","","","","","","","","","","","","1928","",""
"html-keyboard-response","128","270089","0.0-55.0-0.0","","1152.3000000715256","<div style=""display: flex; flex-direction: column; align-items: center; margin-top: -40px;""><img src=""images/pattern_1.png"" style=""width: 234px; height: 230px; margin-top: -50px;""><div style=""display: flex; justify-content: space-between; margin-top: 33px;""><img src=""images/choice_trial_8.png"" style=""width: 408px; height: 417px; margin-right: 200px;""><img src=""images/choice_trial_14.png"" style=""width: 408px; height: 417px;""></div></div>","j","delaylearn","learning","trial","5e7c55274f63942a04b08c29","muJ8ZgPLXSW0ladHZrfyk6RX81j2","3","images/choice_trial_8.png","images/choice_trial_14.png","images/pattern_1.png","f","j","7000","8","14","1","1","24","1","0","14","150","","","","",""
"html-keyboard-response","129","271102","0.0-55.0-1.0","","null","<div style=""display: flex; flex-direction: column; align-items: center; margin-top: -40px;""><img src=""images/pattern_1.png"" style=""width: 234px; height: 230px; margin-top: -50px;""><div style=""display: flex; justify-content: space-between; margin-top: 33px;""><img src=""images/choice_trial_14.png"" style=""width: 408px; height: 417px; margin-left:608px;""></div></div>","null","delaylearn","learning","display_response","5e7c55274f63942a04b08c29","muJ8ZgPLXSW0ladHZrfyk6RX81j2","","","","","","","","","","","","","","","","","chosen stimuli: images/choice_trial_14.png","","","",""
"html-keyboard-response","130","278119","0.0-55.0-2.0","","null","","null","delaylearn","learning","feedback_duration_window","5e7c55274f63942a04b08c29","muJ8ZgPLXSW0ladHZrfyk6RX81j2","","","","","","","","","","","","","","","","","","7000","","",""
"html-keyboard-response","131","279633","0.0-55.0-3.0","","null","<div style='margin:auto;width: auto; font-size: 150%'><span style='font-weight: bold; font-size: 100px; color: red;'>0 points!</span><br><br></div>","null","delaylearn","learning","feedback_image_window","5e7c55274f63942a04b08c29","muJ8ZgPLXSW0ladHZrfyk6RX81j2","","","","","","","","","","","","","","","","","","","","",""
"html-keyboard-response","132","281300","0.0-56.0","","null","<div style=""font-size:100px;"">+</div>","null","delaylearn","learning","ITI","5e7c55274f63942a04b08c29","muJ8ZgPLXSW0ladHZrfyk6RX81j2","","","","","","","","","","","","","","","","","","","1652","",""
"html-keyboard-response","133","282753","0.0-57.0-0.0","","1450.1000000238419","<div style=""display: flex; flex-direction: column; align-items: center; margin-top: -40px;""><img src=""images/pattern_5.png"" style=""width: 234px; height: 230px; margin-top: -50px;""><div style=""display: flex; justify-content: space-between; margin-top: 33px;""><img src=""images/choice_trial_2.png"" style=""width: 408px; height: 417px; margin-right: 200px;""><img src=""images/choice_trial_11.png"" style=""width: 408px; height: 417px;""></div></div>","j","delaylearn","learning","trial","5e7c55274f63942a04b08c29","muJ8ZgPLXSW0ladHZrfyk6RX81j2","3","images/choice_trial_2.png","images/choice_trial_11.png","images/pattern_5.png","j","j","750","2","11","4","1","25","1","1","11","160","","","","",""
"html-keyboard-response","134","283768","0.0-57.0-1.0","","null","<div style=""display: flex; flex-direction: column; align-items: center; margin-top: -40px;""><img src=""images/pattern_5.png"" style=""width: 234px; height: 230px; margin-top: -50px;""><div style=""display: flex; justify-content: space-between; margin-top: 33px;""><img src=""images/choice_trial_11.png"" style=""width: 408px; height: 417px; margin-left:608px;""></div></div>","null","delaylearn","learning","display_response","5e7c55274f63942a04b08c29","muJ8ZgPLXSW0ladHZrfyk6RX81j2","","","","","","","","","","","","","","","","","chosen stimuli: images/choice_trial_11.png","","","",""
"html-keyboard-response","135","284533","0.0-57.0-2.0","","null","","null","delaylearn","learning","feedback_duration_window","5e7c55274f63942a04b08c29","muJ8ZgPLXSW0ladHZrfyk6RX81j2","","","","","","","","","","","","","","","","","","750","","",""
"html-keyboard-response","136","286052","0.0-57.0-3.0","","null","<div style='margin:auto;width: auto; font-size: 150%'><span style='font-weight: bold; font-size: 100px; color: green;'>+10 points!</span><br><br></div>","null","delaylearn","learning","feedback_image_window","5e7c55274f63942a04b08c29","muJ8ZgPLXSW0ladHZrfyk6RX81j2","","","","","","","","","","","","","","","","","","","","",""
"html-keyboard-response","137","288317","0.0-58.0","","null","<div style=""font-size:100px;"">+</div>","null","delaylearn","learning","ITI","5e7c55274f63942a04b08c29","muJ8ZgPLXSW0ladHZrfyk6RX81j2","","","","","","","","","","","","","","","","","","","2248","",""
"html-keyboard-response","138","290775","0.0-59.0-0.0","","2455.0999999046326","<div style=""display: flex; flex-direction: column; align-items: center; margin-top: -40px;""><img src=""images/pattern_3.png"" style=""width: 234px; height: 230px; margin-top: -50px;""><div style=""display: flex; justify-content: space-between; margin-top: 33px;""><img src=""images/choice_trial_10.png"" style=""width: 408px; height: 417px; margin-right: 200px;""><img src=""images/choice_trial_13.png"" style=""width: 408px; height: 417px;""></div></div>","j","delaylearn","learning","trial","5e7c55274f63942a04b08c29","muJ8ZgPLXSW0ladHZrfyk6RX81j2","3","images/choice_trial_10.png","images/choice_trial_13.png","images/pattern_3.png","j","j","7000","10","13","2","1","26","1","1","13","170","","","","",""
"html-keyboard-response","139","291786","0.0-59.0-1.0","","null","<div style=""display: flex; flex-direction: column; align-items: center; margin-top: -40px;""><img src=""images/pattern_3.png"" style=""width: 234px; height: 230px; margin-top: -50px;""><div style=""display: flex; justify-content: space-between; margin-top: 33px;""><img src=""images/choice_trial_13.png"" style=""width: 408px; height: 417px; margin-left:608px;""></div></div>","null","delaylearn","learning","display_response","5e7c55274f63942a04b08c29","muJ8ZgPLXSW0ladHZrfyk6RX81j2","","","","","","","","","","","","","","","","","chosen stimuli: images/choice_trial_13.png","","","",""
"html-keyboard-response","140","298802","0.0-59.0-2.0","","null","","null","delaylearn","learning","feedback_duration_window","5e7c55274f63942a04b08c29","muJ8ZgPLXSW0ladHZrfyk6RX81j2","","","","","","","","","","","","","","","","","","7000","","",""
"html-keyboard-response","141","300316","0.0-59.0-3.0","","null","<div style='margin:auto;width: auto; font-size: 150%'><span style='font-weight: bold; font-size: 100px; color: green;'>+10 points!</span><br><br></div>","null","delaylearn","learning","feedback_image_window","5e7c55274f63942a04b08c29","muJ8ZgPLXSW0ladHZrfyk6RX81j2","","","","","","","","","","","","","","","","","","","","",""
"lmdlab-html-vas-response","142","309700","0.0-60.0-0.0","","7858","*How <b><u>confident</u></b> are you feeling about your answers at this moment?*","0.5520832720116852","rewlearn","rate_confidence","","5e7c55274f63942a04b08c29","muJ8ZgPLXSW0ladHZrfyk6RX81j2","","","","","","","","","","","","","","","","","","","","[""No confidence"",""Complete confidence""]",""
"lmdlab-rest-trial-limit","143","425050","0.0-60.0-1.0","","113847.10000002384","<div style=""font-size:40px;""><b>Please take a break!</b><br><br><br><br><p>Great work: you earned 170 points.<br><br><br><p>You have completed part(s) 1 of 5.<br><br><br><br>When you are ready to continue<br><br><br>please click the button.</p><br><br>","0","delaylearn","learning","break","5e7c55274f63942a04b08c29","muJ8ZgPLXSW0ladHZrfyk6RX81j2","","","","","","","","","","","","","","","","","","","","","0"
"html-keyboard-response","144","428067","0.0-60.0-2.0","","null","<div style=""font-size:100px;"">+</div>","null","delaylearn","learning","pre_fixation","5e7c55274f63942a04b08c29","not found","","","","","","","","","","","","","","","","","","","","",""
"lmdlab-html-vas-response","145","433637","0.0-60.0-3.0-0.0","","4551","How happy are you right now?","0.5424623469382228","delaylearn","learning","mood_baseline","5e7c55274f63942a04b08c29","muJ8ZgPLXSW0ladHZrfyk6RX81j2","","","","","","","","","","","","","","","","","","","","[""Very unhappy"",""Very happy""]",""
"html-keyboard-response","146","435150","0.0-60.0-3.0-1.0","","null","","null","","","mood_baseline_fixation","","","","","","","","","","","","","","","","","","","","","","",""
"html-keyboard-response","147","437485","0.0-61.0","","null","<div style=""font-size:100px;"">+</div>","null","delaylearn","learning","ITI","5e7c55274f63942a04b08c29","muJ8ZgPLXSW0ladHZrfyk6RX81j2","","","","","","","","","","","","","","","","","","","2332","",""
"html-keyboard-response","148","439025","0.0-62.0-0.0","","1536.7000000476837","<div style=""display: flex; flex-direction: column; align-items: center; margin-top: -40px;""><img src=""images/pattern_7.png"" style=""width: 234px; height: 230px; margin-top: -50px;""><div style=""display: flex; justify-content: space-between; margin-top: 33px;""><img src=""images/choice_trial_12.png"" style=""width: 408px; height: 417px; margin-right: 200px;""><img src=""images/choice_trial_6.png"" style=""width: 408px; height: 417px;""></div></div>","j","delaylearn","learning","trial","5e7c55274f63942a04b08c29","muJ8ZgPLXSW0ladHZrfyk6RX81j2","3","images/choice_trial_12.png","images/choice_trial_6.png","images/pattern_7.png","j","j","750","12","6","6","1","27","1","1","6","180","","","","",""
"html-keyboard-response","149","440032","0.0-62.0-1.0","","null","<div style=""display: flex; flex-direction: column; align-items: center; margin-top: -40px;""><img src=""images/pattern_7.png"" style=""width: 234px; height: 230px; margin-top: -50px;""><div style=""display: flex; justify-content: space-between; margin-top: 33px;""><img src=""images/choice_trial_6.png"" style=""width: 408px; height: 417px; margin-left:608px;""></div></div>","null","delaylearn","learning","display_response","5e7c55274f63942a04b08c29","muJ8ZgPLXSW0ladHZrfyk6RX81j2","","","","","","","","","","","","","","","","","chosen stimuli: images/choice_trial_6.png","","","",""
"html-keyboard-response","150","440798","0.0-62.0-2.0","","null","","null","delaylearn","learning","feedback_duration_window","5e7c55274f63942a04b08c29","muJ8ZgPLXSW0ladHZrfyk6RX81j2","","","","","","","","","","","","","","","","","","750","","",""
"html-keyboard-response","151","442301","0.0-62.0-3.0","","null","<div style='margin:auto;width: auto; font-size: 150%'><span style='font-weight: bold; font-size: 100px; color: green;'>+10 points!</span><br><br></div>","null","delaylearn","learning","feedback_image_window","5e7c55274f63942a04b08c29","muJ8ZgPLXSW0ladHZrfyk6RX81j2","","","","","","","","","","","","","","","","","","","","",""
"html-keyboard-response","152","442816","0.0-63.0-0.0","","null","","null","","","mood_trial_fixation","","","","","","","","","","","","","","","","","","","","","","",""
"lmdlab-html-vas-response","153","449955","0.0-63.0-1.0","","6120","How happy are you right now?","0.5463203714478871","delaylearn","learning","mood_trial","5e7c55274f63942a04b08c29","muJ8ZgPLXSW0ladHZrfyk6RX81j2","","","","","","","","","","","","","","","","","","","","[""Very unhappy"",""Very happy""]",""
"html-keyboard-response","154","452232","0.0-64.0","","null","<div style=""font-size:100px;"">+</div>","null","delaylearn","learning","ITI","5e7c55274f63942a04b08c29","muJ8ZgPLXSW0ladHZrfyk6RX81j2","","","","","","","","","","","","","","","","","","","2270","",""
"html-keyboard-response","155","453600","0.0-65.0-0.0","","1365.1999999284744","<div style=""display: flex; flex-direction: column; align-items: center; margin-top: -40px;""><img src=""images/pattern_1.png"" style=""width: 234px; height: 230px; margin-top: -50px;""><div style=""display: flex; justify-content: space-between; margin-top: 33px;""><img src=""images/choice_trial_14.png"" style=""width: 408px; height: 417px; margin-right: 200px;""><img src=""images/choice_trial_8.png"" style=""width: 408px; height: 417px;""></div></div>","f","delaylearn","learning","trial","5e7c55274f63942a04b08c29","muJ8ZgPLXSW0ladHZrfyk6RX81j2","3","images/choice_trial_14.png","images/choice_trial_8.png","images/pattern_1.png","f","f","7000","14","8","1","0","28","1","1","14","190","","","","",""
"html-keyboard-response","156","454617","0.0-65.0-1.0","","null","<div style=""display: flex; flex-direction: column; align-items: center; margin-top: -40px;""><img src=""images/pattern_1.png"" style=""width: 234px; height: 230px; margin-top: -50px;""><div style=""display: flex; justify-content: space-between; margin-top: 33px;""><img src=""images/choice_trial_14.png"" style=""width: 408px; height: 417px; margin-right: 608px;""></div></div>","null","delaylearn","learning","display_response","5e7c55274f63942a04b08c29","muJ8ZgPLXSW0ladHZrfyk6RX81j2","","","","","","","","","","","","","","","","","chosen stimuli: images/choice_trial_14.png","","","",""
"html-keyboard-response","157","461634","0.0-65.0-2.0","","null","","null","delaylearn","learning","feedback_duration_window","5e7c55274f63942a04b08c29","muJ8ZgPLXSW0ladHZrfyk6RX81j2","","","","","","","","","","","","","","","","","","7000","","",""
"html-keyboard-response","158","463149","0.0-65.0-3.0","","null","<div style='margin:auto;width: auto; font-size: 150%'><span style='font-weight: bold; font-size: 100px; color: green;'>+10 points!</span><br><br></div>","null","delaylearn","learning","feedback_image_window","5e7c55274f63942a04b08c29","muJ8ZgPLXSW0ladHZrfyk6RX81j2","","","","","","","","","","","","","","","","","","","","",""
"html-keyboard-response","159","465083","0.0-66.0","","null","<div style=""font-size:100px;"">+</div>","null","delaylearn","learning","ITI","5e7c55274f63942a04b08c29","muJ8ZgPLXSW0ladHZrfyk6RX81j2","","","","","","","","","","","","","","","","","","","1928","",""
"html-keyboard-response","160","467705","0.0-67.0-0.0","","2619.100000023842","<div style=""display: flex; flex-direction: column; align-items: center; margin-top: -40px;""><img src=""images/pattern_5.png"" style=""width: 234px; height: 230px; margin-top: -50px;""><div style=""display: flex; justify-content: space-between; margin-top: 33px;""><img src=""images/choice_trial_11.png"" style=""width: 408px; height: 417px; margin-right: 200px;""><img src=""images/choice_trial_2.png"" style=""width: 408px; height: 417px;""></div></div>","f","delaylearn","learning","trial","5e7c55274f63942a04b08c29","muJ8ZgPLXSW0ladHZrfyk6RX81j2","3","images/choice_trial_11.png","images/choice_trial_2.png","images/pattern_5.png","f","f","750","11","2","4","0","29","1","1","11","200","","","","",""
"html-keyboard-response","161","468719","0.0-67.0-1.0","","null","<div style=""display: flex; flex-direction: column; align-items: center; margin-top: -40px;""><img src=""images/pattern_5.png"" style=""width: 234px; height: 230px; margin-top: -50px;""><div style=""display: flex; justify-content: space-between; margin-top: 33px;""><img src=""images/choice_trial_11.png"" style=""width: 408px; height: 417px; margin-right: 608px;""></div></div>","null","delaylearn","learning","display_response","5e7c55274f63942a04b08c29","muJ8ZgPLXSW0ladHZrfyk6RX81j2","","","","","","","","","","","","","","","","","chosen stimuli: images/choice_trial_11.png","","","",""
"html-keyboard-response","162","469483","0.0-67.0-2.0","","null","","null","delaylearn","learning","feedback_duration_window","5e7c55274f63942a04b08c29","muJ8ZgPLXSW0ladHZrfyk6RX81j2","","","","","","","","","","","","","","","","","","750","","",""
"html-keyboard-response","163","471000","0.0-67.0-3.0","","null","<div style='margin:auto;width: auto; font-size: 150%'><span style='font-weight: bold; font-size: 100px; color: green;'>+10 points!</span><br><br></div>","null","delaylearn","learning","feedback_image_window","5e7c55274f63942a04b08c29","muJ8ZgPLXSW0ladHZrfyk6RX81j2","","","","","","","","","","","","","","","","","","","","",""
"html-keyboard-response","164","472901","0.0-68.0","","null","<div style=""font-size:100px;"">+</div>","null","delaylearn","learning","ITI","5e7c55274f63942a04b08c29","muJ8ZgPLXSW0ladHZrfyk6RX81j2","","","","","","","","","","","","","","","","","","","1896","",""
"html-keyboard-response","165","475541","0.0-69.0-0.0","","2637.7999999523163","<div style=""display: flex; flex-direction: column; align-items: center; margin-top: -40px;""><img src=""images/pattern_6.png"" style=""width: 234px; height: 230px; margin-top: -50px;""><div style=""display: flex; justify-content: space-between; margin-top: 33px;""><img src=""images/choice_trial_3.png"" style=""width: 408px; height: 417px; margin-right: 200px;""><img src=""images/choice_trial_16.png"" style=""width: 408px; height: 417px;""></div></div>","j","delaylearn","learning","trial","5e7c55274f63942a04b08c29","muJ8ZgPLXSW0ladHZrfyk6RX81j2","3","images/choice_trial_3.png","images/choice_trial_16.png","images/pattern_6.png","j","j","750","3","16","5","1","30","1","1","16","210","","","","",""
"html-keyboard-response","166","476551","0.0-69.0-1.0","","null","<div style=""display: flex; flex-direction: column; align-items: center; margin-top: -40px;""><img src=""images/pattern_6.png"" style=""width: 234px; height: 230px; margin-top: -50px;""><div style=""display: flex; justify-content: space-between; margin-top: 33px;""><img src=""images/choice_trial_16.png"" style=""width: 408px; height: 417px; margin-left:608px;""></div></div>","null","delaylearn","learning","display_response","5e7c55274f63942a04b08c29","muJ8ZgPLXSW0ladHZrfyk6RX81j2","","","","","","","","","","","","","","","","","chosen stimuli: images/choice_trial_16.png","","","",""
"html-keyboard-response","167","477319","0.0-69.0-2.0","","null","","null","delaylearn","learning","feedback_duration_window","5e7c55274f63942a04b08c29","muJ8ZgPLXSW0ladHZrfyk6RX81j2","","","","","","","","","","","","","","","","","","750","","",""
"html-keyboard-response","168","478832","0.0-69.0-3.0","","null","<div style='margin:auto;width: auto; font-size: 150%'><span style='font-weight: bold; font-size: 100px; color: green;'>+10 points!</span><br><br></div>","null","delaylearn","learning","feedback_image_window","5e7c55274f63942a04b08c29","muJ8ZgPLXSW0ladHZrfyk6RX81j2","","","","","","","","","","","","","","","","","","","","",""
"html-keyboard-response","169","479333","0.0-70.0-0.0","","null","","null","","","mood_trial_fixation","","","","","","","","","","","","","","","","","","","","","","",""
"lmdlab-html-vas-response","170","485769","0.0-70.0-1.0","","5417","How happy are you right now?","0.5270302488995658","delaylearn","learning","mood_trial","5e7c55274f63942a04b08c29","muJ8ZgPLXSW0ladHZrfyk6RX81j2","","","","","","","","","","","","","","","","","","","","[""Very unhappy"",""Very happy""]",""
"html-keyboard-response","171","487449","0.0-71.0","","null","<div style=""font-size:100px;"">+</div>","null","delaylearn","learning","ITI","5e7c55274f63942a04b08c29","muJ8ZgPLXSW0ladHZrfyk6RX81j2","","","","","","","","","","","","","","","","","","","1673","",""
"html-keyboard-response","172","490065","0.0-72.0-0.0","","2614.100000023842","<div style=""display: flex; flex-direction: column; align-items: center; margin-top: -40px;""><img src=""images/pattern_4.png"" style=""width: 234px; height: 230px; margin-top: -50px;""><div style=""display: flex; justify-content: space-between; margin-top: 33px;""><img src=""images/choice_trial_9.png"" style=""width: 408px; height: 417px; margin-right: 200px;""><img src=""images/choice_trial_15.png"" style=""width: 408px; height: 417px;""></div></div>","j","delaylearn","learning","trial","5e7c55274f63942a04b08c29","muJ8ZgPLXSW0ladHZrfyk6RX81j2","3","images/choice_trial_9.png","images/choice_trial_15.png","images/pattern_4.png","j","j","7000","9","15","3","1","31","1","1","15","220","","","","",""
"html-keyboard-response","173","491085","0.0-72.0-1.0","","null","<div style=""display: flex; flex-direction: column; align-items: center; margin-top: -40px;""><img src=""images/pattern_4.png"" style=""width: 234px; height: 230px; margin-top: -50px;""><div style=""display: flex; justify-content: space-between; margin-top: 33px;""><img src=""images/choice_trial_15.png"" style=""width: 408px; height: 417px; margin-left:608px;""></div></div>","null","delaylearn","learning","display_response","5e7c55274f63942a04b08c29","muJ8ZgPLXSW0ladHZrfyk6RX81j2","","","","","","","","","","","","","","","","","chosen stimuli: images/choice_trial_15.png","","","",""
"html-keyboard-response","174","498095","0.0-72.0-2.0","","null","","null","delaylearn","learning","feedback_duration_window","5e7c55274f63942a04b08c29","muJ8ZgPLXSW0ladHZrfyk6RX81j2","","","","","","","","","","","","","","","","","","7000","","",""
"html-keyboard-response","175","499600","0.0-72.0-3.0","","null","<div style='margin:auto;width: auto; font-size: 150%'><span style='font-weight: bold; font-size: 100px; color: green;'>+10 points!</span><br><br></div>","null","delaylearn","learning","feedback_image_window","5e7c55274f63942a04b08c29","muJ8ZgPLXSW0ladHZrfyk6RX81j2","","","","","","","","","","","","","","","","","","","","",""
"html-keyboard-response","176","502032","0.0-73.0","","null","<div style=""font-size:100px;"">+</div>","null","delaylearn","learning","ITI","5e7c55274f63942a04b08c29","muJ8ZgPLXSW0ladHZrfyk6RX81j2","","","","","","","","","","","","","","","","","","","2417","",""
"html-keyboard-response","177","503384","0.0-74.0-0.0","","1349","<div style=""display: flex; flex-direction: column; align-items: center; margin-top: -40px;""><img src=""images/pattern_3.png"" style=""width: 234px; height: 230px; margin-top: -50px;""><div style=""display: flex; justify-content: space-between; margin-top: 33px;""><img src=""images/choice_trial_10.png"" style=""width: 408px; height: 417px; margin-right: 200px;""><img src=""images/choice_trial_13.png"" style=""width: 408px; height: 417px;""></div></div>","j","delaylearn","learning","trial","5e7c55274f63942a04b08c29","muJ8ZgPLXSW0ladHZrfyk6RX81j2","3","images/choice_trial_10.png","images/choice_trial_13.png","images/pattern_3.png","j","j","7000","10","13","2","1","32","1","1","13","230","","","","",""
"html-keyboard-response","178","504398","0.0-74.0-1.0","","null","<div style=""display: flex; flex-direction: column; align-items: center; margin-top: -40px;""><img src=""images/pattern_3.png"" style=""width: 234px; height: 230px; margin-top: -50px;""><div style=""display: flex; justify-content: space-between; margin-top: 33px;""><img src=""images/choice_trial_13.png"" style=""width: 408px; height: 417px; margin-left:608px;""></div></div>","null","delaylearn","learning","display_response","5e7c55274f63942a04b08c29","muJ8ZgPLXSW0ladHZrfyk6RX81j2","","","","","","","","","","","","","","","","","chosen stimuli: images/choice_trial_13.png","","","",""
"html-keyboard-response","179","511417","0.0-74.0-2.0","","null","","null","delaylearn","learning","feedback_duration_window","5e7c55274f63942a04b08c29","muJ8ZgPLXSW0ladHZrfyk6RX81j2","","","","","","","","","","","","","","","","","","7000","","",""
"html-keyboard-response","180","512931","0.0-74.0-3.0","","null","<div style='margin:auto;width: auto; font-size: 150%'><span style='font-weight: bold; font-size: 100px; color: green;'>+10 points!</span><br><br></div>","null","delaylearn","learning","feedback_image_window","5e7c55274f63942a04b08c29","muJ8ZgPLXSW0ladHZrfyk6RX81j2","","","","","","","","","","","","","","","","","","","","",""
"html-keyboard-response","181","515182","0.0-75.0","","null","<div style=""font-size:100px;"">+</div>","null","delaylearn","learning","ITI","5e7c55274f63942a04b08c29","muJ8ZgPLXSW0ladHZrfyk6RX81j2","","","","","","","","","","","","","","","","","","","2239","",""
"html-keyboard-response","182","516809","0.0-76.0-0.0","","1624.1000000238419","<div style=""display: flex; flex-direction: column; align-items: center; margin-top: -40px;""><img src=""images/pattern_5.png"" style=""width: 234px; height: 230px; margin-top: -50px;""><div style=""display: flex; justify-content: space-between; margin-top: 33px;""><img src=""images/choice_trial_11.png"" style=""width: 408px; height: 417px; margin-right: 200px;""><img src=""images/choice_trial_2.png"" style=""width: 408px; height: 417px;""></div></div>","f","delaylearn","learning","trial","5e7c55274f63942a04b08c29","muJ8ZgPLXSW0ladHZrfyk6RX81j2","3","images/choice_trial_11.png","images/choice_trial_2.png","images/pattern_5.png","j","f","750","11","2","4","0","33","1","0","11","230","","","","",""
"html-keyboard-response","183","517818","0.0-76.0-1.0","","null","<div style=""display: flex; flex-direction: column; align-items: center; margin-top: -40px;""><img src=""images/pattern_5.png"" style=""width: 234px; height: 230px; margin-top: -50px;""><div style=""display: flex; justify-content: space-between; margin-top: 33px;""><img src=""images/choice_trial_11.png"" style=""width: 408px; height: 417px; margin-right: 608px;""></div></div>","null","delaylearn","learning","display_response","5e7c55274f63942a04b08c29","muJ8ZgPLXSW0ladHZrfyk6RX81j2","","","","","","","","","","","","","","","","","chosen stimuli: images/choice_trial_11.png","","","",""
"html-keyboard-response","184","518582","0.0-76.0-2.0","","null","","null","delaylearn","learning","feedback_duration_window","5e7c55274f63942a04b08c29","muJ8ZgPLXSW0ladHZrfyk6RX81j2","","","","","","","","","","","","","","","","","","750","","",""
"html-keyboard-response","185","520084","0.0-76.0-3.0","","null","<div style='margin:auto;width: auto; font-size: 150%'><span style='font-weight: bold; font-size: 100px; color: red;'>0 points!</span><br><br></div>","null","delaylearn","learning","feedback_image_window","5e7c55274f63942a04b08c29","muJ8ZgPLXSW0ladHZrfyk6RX81j2","","","","","","","","","","","","","","","","","","","","",""
"html-keyboard-response","186","522483","0.0-77.0","","null","<div style=""font-size:100px;"">+</div>","null","delaylearn","learning","ITI","5e7c55274f63942a04b08c29","muJ8ZgPLXSW0ladHZrfyk6RX81j2","","","","","","","","","","","","","","","","","","","2395","",""
"html-keyboard-response","187","523570","0.0-78.0-0.0","","1084.8999999761581","<div style=""display: flex; flex-direction: column; align-items: center; margin-top: -40px;""><img src=""images/pattern_1.png"" style=""width: 234px; height: 230px; margin-top: -50px;""><div style=""display: flex; justify-content: space-between; margin-top: 33px;""><img src=""images/choice_trial_14.png"" style=""width: 408px; height: 417px; margin-right: 200px;""><img src=""images/choice_trial_8.png"" style=""width: 408px; height: 417px;""></div></div>","f","delaylearn","learning","trial","5e7c55274f63942a04b08c29","muJ8ZgPLXSW0ladHZrfyk6RX81j2","3","images/choice_trial_14.png","images/choice_trial_8.png","images/pattern_1.png","f","f","7000","14","8","1","0","34","1","1","14","240","","","","",""
"html-keyboard-response","188","524581","0.0-78.0-1.0","","null","<div style=""display: flex; flex-direction: column; align-items: center; margin-top: -40px;""><img src=""images/pattern_1.png"" style=""width: 234px; height: 230px; margin-top: -50px;""><div style=""display: flex; justify-content: space-between; margin-top: 33px;""><img src=""images/choice_trial_14.png"" style=""width: 408px; height: 417px; margin-right: 608px;""></div></div>","null","delaylearn","learning","display_response","5e7c55274f63942a04b08c29","muJ8ZgPLXSW0ladHZrfyk6RX81j2","","","","","","","","","","","","","","","","","chosen stimuli: images/choice_trial_14.png","","","",""
"html-keyboard-response","189","531585","0.0-78.0-2.0","","null","","null","delaylearn","learning","feedback_duration_window","5e7c55274f63942a04b08c29","muJ8ZgPLXSW0ladHZrfyk6RX81j2","","","","","","","","","","","","","","","","","","7000","","",""
"html-keyboard-response","190","533098","0.0-78.0-3.0","","null","<div style='margin:auto;width: auto; font-size: 150%'><span style='font-weight: bold; font-size: 100px; color: green;'>+10 points!</span><br><br></div>","null","delaylearn","learning","feedback_image_window","5e7c55274f63942a04b08c29","muJ8ZgPLXSW0ladHZrfyk6RX81j2","","","","","","","","","","","","","","","","","","","","",""
"html-keyboard-response","191","533617","0.0-79.0-0.0","","null","","null","","","mood_trial_fixation","","","","","","","","","","","","","","","","","","","","","","",""
"lmdlab-html-vas-response","192","539086","0.0-79.0-1.0","","4449","How happy are you right now?","0.4595148199804414","delaylearn","learning","mood_trial","5e7c55274f63942a04b08c29","muJ8ZgPLXSW0ladHZrfyk6RX81j2","","","","","","","","","","","","","","","","","","","","[""Very unhappy"",""Very happy""]",""
"html-keyboard-response","193","540747","0.0-80.0","","null","<div style=""font-size:100px;"">+</div>","null","delaylearn","learning","ITI","5e7c55274f63942a04b08c29","muJ8ZgPLXSW0ladHZrfyk6RX81j2","","","","","","","","","","","","","","","","","","","1657","",""
"html-keyboard-response","194","541952","0.0-81.0-0.0","","1202.7000000476837","<div style=""display: flex; flex-direction: column; align-items: center; margin-top: -40px;""><img src=""images/pattern_6.png"" style=""width: 234px; height: 230px; margin-top: -50px;""><div style=""display: flex; justify-content: space-between; margin-top: 33px;""><img src=""images/choice_trial_16.png"" style=""width: 408px; height: 417px; margin-right: 200px;""><img src=""images/choice_trial_3.png"" style=""width: 408px; height: 417px;""></div></div>","f","delaylearn","learning","trial","5e7c55274f63942a04b08c29","muJ8ZgPLXSW0ladHZrfyk6RX81j2","3","images/choice_trial_16.png","images/choice_trial_3.png","images/pattern_6.png","j","f","750","16","3","5","0","35","1","0","16","240","","","","",""
"html-keyboard-response","195","542964","0.0-81.0-1.0","","null","<div style=""display: flex; flex-direction: column; align-items: center; margin-top: -40px;""><img src=""images/pattern_6.png"" style=""width: 234px; height: 230px; margin-top: -50px;""><div style=""display: flex; justify-content: space-between; margin-top: 33px;""><img src=""images/choice_trial_16.png"" style=""width: 408px; height: 417px; margin-right: 608px;""></div></div>","null","delaylearn","learning","display_response","5e7c55274f63942a04b08c29","muJ8ZgPLXSW0ladHZrfyk6RX81j2","","","","","","","","","","","","","","","","","chosen stimuli: images/choice_trial_16.png","","","",""
"html-keyboard-response","196","543718","0.0-81.0-2.0","","null","","null","delaylearn","learning","feedback_duration_window","5e7c55274f63942a04b08c29","muJ8ZgPLXSW0ladHZrfyk6RX81j2","","","","","","","","","","","","","","","","","","750","","",""
"html-keyboard-response","197","545231","0.0-81.0-3.0","","null","<div style='margin:auto;width: auto; font-size: 150%'><span style='font-weight: bold; font-size: 100px; color: red;'>0 points!</span><br><br></div>","null","delaylearn","learning","feedback_image_window","5e7c55274f63942a04b08c29","muJ8ZgPLXSW0ladHZrfyk6RX81j2","","","","","","","","","","","","","","","","","","","","",""
"html-keyboard-response","198","547583","0.0-82.0","","null","<div style=""font-size:100px;"">+</div>","null","delaylearn","learning","ITI","5e7c55274f63942a04b08c29","muJ8ZgPLXSW0ladHZrfyk6RX81j2","","","","","","","","","","","","","","","","","","","2347","",""
"html-keyboard-response","199","548544","0.0-83.0-0.0","","958.6000000238419","<div style=""display: flex; flex-direction: column; align-items: center; margin-top: -40px;""><img src=""images/pattern_3.png"" style=""width: 234px; height: 230px; margin-top: -50px;""><div style=""display: flex; justify-content: space-between; margin-top: 33px;""><img src=""images/choice_trial_10.png"" style=""width: 408px; height: 417px; margin-right: 200px;""><img src=""images/choice_trial_13.png"" style=""width: 408px; height: 417px;""></div></div>","j","delaylearn","learning","trial","5e7c55274f63942a04b08c29","muJ8ZgPLXSW0ladHZrfyk6RX81j2","3","images/choice_trial_10.png","images/choice_trial_13.png","images/pattern_3.png","j","j","7000","10","13","2","1","36","1","1","13","250","","","","",""
"html-keyboard-response","200","549554","0.0-83.0-1.0","","null","<div style=""display: flex; flex-direction: column; align-items: center; margin-top: -40px;""><img src=""images/pattern_3.png"" style=""width: 234px; height: 230px; margin-top: -50px;""><div style=""display: flex; justify-content: space-between; margin-top: 33px;""><img src=""images/choice_trial_13.png"" style=""width: 408px; height: 417px; margin-left:608px;""></div></div>","null","delaylearn","learning","display_response","5e7c55274f63942a04b08c29","muJ8ZgPLXSW0ladHZrfyk6RX81j2","","","","","","","","","","","","","","","","","chosen stimuli: images/choice_trial_13.png","","","",""
"html-keyboard-response","201","556565","0.0-83.0-2.0","","null","","null","delaylearn","learning","feedback_duration_window","5e7c55274f63942a04b08c29","muJ8ZgPLXSW0ladHZrfyk6RX81j2","","","","","","","","","","","","","","","","","","7000","","",""
"html-keyboard-response","202","558083","0.0-83.0-3.0","","null","<div style='margin:auto;width: auto; font-size: 150%'><span style='font-weight: bold; font-size: 100px; color: green;'>+10 points!</span><br><br></div>","null","delaylearn","learning","feedback_image_window","5e7c55274f63942a04b08c29","muJ8ZgPLXSW0ladHZrfyk6RX81j2","","","","","","","","","","","","","","","","","","","","",""
"html-keyboard-response","203","560499","0.0-84.0","","null","<div style=""font-size:100px;"">+</div>","null","delaylearn","learning","ITI","5e7c55274f63942a04b08c29","muJ8ZgPLXSW0ladHZrfyk6RX81j2","","","","","","","","","","","","","","","","","","","2406","",""
"html-keyboard-response","204","561840","0.0-85.0-0.0","","1339.1000000238419","<div style=""display: flex; flex-direction: column; align-items: center; margin-top: -40px;""><img src=""images/pattern_4.png"" style=""width: 234px; height: 230px; margin-top: -50px;""><div style=""display: flex; justify-content: space-between; margin-top: 33px;""><img src=""images/choice_trial_9.png"" style=""width: 408px; height: 417px; margin-right: 200px;""><img src=""images/choice_trial_15.png"" style=""width: 408px; height: 417px;""></div></div>","j","delaylearn","learning","trial","5e7c55274f63942a04b08c29","muJ8ZgPLXSW0ladHZrfyk6RX81j2","3","images/choice_trial_9.png","images/choice_trial_15.png","images/pattern_4.png","f","j","7000","9","15","3","1","37","1","0","15","250","","","","",""
"html-keyboard-response","205","562850","0.0-85.0-1.0","","null","<div style=""display: flex; flex-direction: column; align-items: center; margin-top: -40px;""><img src=""images/pattern_4.png"" style=""width: 234px; height: 230px; margin-top: -50px;""><div style=""display: flex; justify-content: space-between; margin-top: 33px;""><img src=""images/choice_trial_15.png"" style=""width: 408px; height: 417px; margin-left:608px;""></div></div>","null","delaylearn","learning","display_response","5e7c55274f63942a04b08c29","muJ8ZgPLXSW0ladHZrfyk6RX81j2","","","","","","","","","","","","","","","","","chosen stimuli: images/choice_trial_15.png","","","",""
"html-keyboard-response","206","569864","0.0-85.0-2.0","","null","","null","delaylearn","learning","feedback_duration_window","5e7c55274f63942a04b08c29","muJ8ZgPLXSW0ladHZrfyk6RX81j2","","","","","","","","","","","","","","","","","","7000","","",""
"html-keyboard-response","207","571382","0.0-85.0-3.0","","null","<div style='margin:auto;width: auto; font-size: 150%'><span style='font-weight: bold; font-size: 100px; color: red;'>0 points!</span><br><br></div>","null","delaylearn","learning","feedback_image_window","5e7c55274f63942a04b08c29","muJ8ZgPLXSW0ladHZrfyk6RX81j2","","","","","","","","","","","","","","","","","","","","",""
"html-keyboard-response","208","573865","0.0-86.0","","null","<div style=""font-size:100px;"">+</div>","null","delaylearn","learning","ITI","5e7c55274f63942a04b08c29","muJ8ZgPLXSW0ladHZrfyk6RX81j2","","","","","","","","","","","","","","","","","","","2473","",""
"html-keyboard-response","209","574986","0.0-87.0-0.0","","1117.2999999523163","<div style=""display: flex; flex-direction: column; align-items: center; margin-top: -40px;""><img src=""images/pattern_7.png"" style=""width: 234px; height: 230px; margin-top: -50px;""><div style=""display: flex; justify-content: space-between; margin-top: 33px;""><img src=""images/choice_trial_6.png"" style=""width: 408px; height: 417px; margin-right: 200px;""><img src=""images/choice_trial_12.png"" style=""width: 408px; height: 417px;""></div></div>","f","delaylearn","learning","trial","5e7c55274f63942a04b08c29","muJ8ZgPLXSW0ladHZrfyk6RX81j2","3","images/choice_trial_6.png","images/choice_trial_12.png","images/pattern_7.png","f","f","750","6","12","6","0","38","1","1","6","260","","","","",""
"html-keyboard-response","210","575993","0.0-87.0-1.0","","null","<div style=""display: flex; flex-direction: column; align-items: center; margin-top: -40px;""><img src=""images/pattern_7.png"" style=""width: 234px; height: 230px; margin-top: -50px;""><div style=""display: flex; justify-content: space-between; margin-top: 33px;""><img src=""images/choice_trial_6.png"" style=""width: 408px; height: 417px; margin-right: 608px;""></div></div>","null","delaylearn","learning","display_response","5e7c55274f63942a04b08c29","muJ8ZgPLXSW0ladHZrfyk6RX81j2","","","","","","","","","","","","","","","","","chosen stimuli: images/choice_trial_6.png","","","",""
"html-keyboard-response","211","576747","0.0-87.0-2.0","","null","","null","delaylearn","learning","feedback_duration_window","5e7c55274f63942a04b08c29","muJ8ZgPLXSW0ladHZrfyk6RX81j2","","","","","","","","","","","","","","","","","","750","","",""
"html-keyboard-response","212","578250","0.0-87.0-3.0","","null","<div style='margin:auto;width: auto; font-size: 150%'><span style='font-weight: bold; font-size: 100px; color: green;'>+10 points!</span><br><br></div>","null","delaylearn","learning","feedback_image_window","5e7c55274f63942a04b08c29","muJ8ZgPLXSW0ladHZrfyk6RX81j2","","","","","","","","","","","","","","","","","","","","",""
"html-keyboard-response","213","580330","0.0-88.0","","null","<div style=""font-size:100px;"">+</div>","null","delaylearn","learning","ITI","5e7c55274f63942a04b08c29","muJ8ZgPLXSW0ladHZrfyk6RX81j2","","","","","","","","","","","","","","","","","","","2067","",""
"html-keyboard-response","214","581436","0.0-89.0-0.0","","1102.8000000715256","<div style=""display: flex; flex-direction: column; align-items: center; margin-top: -40px;""><img src=""images/pattern_1.png"" style=""width: 234px; height: 230px; margin-top: -50px;""><div style=""display: flex; justify-content: space-between; margin-top: 33px;""><img src=""images/choice_trial_14.png"" style=""width: 408px; height: 417px; margin-right: 200px;""><img src=""images/choice_trial_8.png"" style=""width: 408px; height: 417px;""></div></div>","f","delaylearn","learning","trial","5e7c55274f63942a04b08c29","muJ8ZgPLXSW0ladHZrfyk6RX81j2","3","images/choice_trial_14.png","images/choice_trial_8.png","images/pattern_1.png","f","f","7000","14","8","1","0","39","1","1","14","270","","","","",""
"html-keyboard-response","215","582448","0.0-89.0-1.0","","null","<div style=""display: flex; flex-direction: column; align-items: center; margin-top: -40px;""><img src=""images/pattern_1.png"" style=""width: 234px; height: 230px; margin-top: -50px;""><div style=""display: flex; justify-content: space-between; margin-top: 33px;""><img src=""images/choice_trial_14.png"" style=""width: 408px; height: 417px; margin-right: 608px;""></div></div>","null","delaylearn","learning","display_response","5e7c55274f63942a04b08c29","muJ8ZgPLXSW0ladHZrfyk6RX81j2","","","","","","","","","","","","","","","","","chosen stimuli: images/choice_trial_14.png","","","",""
"html-keyboard-response","216","589450","0.0-89.0-2.0","","null","","null","delaylearn","learning","feedback_duration_window","5e7c55274f63942a04b08c29","muJ8ZgPLXSW0ladHZrfyk6RX81j2","","","","","","","","","","","","","","","","","","7000","","",""
"html-keyboard-response","217","590966","0.0-89.0-3.0","","null","<div style='margin:auto;width: auto; font-size: 150%'><span style='font-weight: bold; font-size: 100px; color: green;'>+10 points!</span><br><br></div>","null","delaylearn","learning","feedback_image_window","5e7c55274f63942a04b08c29","muJ8ZgPLXSW0ladHZrfyk6RX81j2","","","","","","","","","","","","","","","","","","","","",""
"html-keyboard-response","218","591482","0.0-90.0-0.0","","null","","null","","","mood_trial_fixation","","","","","","","","","","","","","","","","","","","","","","",""
"lmdlab-html-vas-response","219","596384","0.0-90.0-1.0","","3884","How happy are you right now?","0.46915988125460206","delaylearn","learning","mood_trial","5e7c55274f63942a04b08c29","muJ8ZgPLXSW0ladHZrfyk6RX81j2","","","","","","","","","","","","","","","","","","","","[""Very unhappy"",""Very happy""]",""
"html-keyboard-response","220","598883","0.0-91.0","","null","<div style=""font-size:100px;"">+</div>","null","delaylearn","learning","ITI","5e7c55274f63942a04b08c29","muJ8ZgPLXSW0ladHZrfyk6RX81j2","","","","","","","","","","","","","","","","","","","2486","",""
