"trial_type","trial_index","time_elapsed","internal_node_id","participant","rt","stimulus","response","exp_name","exp_stage","test_part","subjectID","databaseID","counterbal","choice_stimuli_1","choice_stimuli_2","pattern_stimuli","rewarded_answer","correct_answer","feedback_duration_times","stim_left","stim_right","pair","leftright_counter","trial","response_correct","response_rewarded","chosen_stim","counter","displayed_choice","feedback_durations","ITI_duration","labels","rest_warning"
"pavlovia","0","525","0.0-0.0","","","","","","","","","","","","","","","","","","","","","","","","","","","","","",""
"html-keyboard-response","1","3594","0.0-1.0","","null","<div style=""font-size:100px;"">+</div>","null","delaylearn","learning","pre_fixation","63ed0a8a65ddbf9edae99a16","","","","","","","","","","","","","","","","","","","","","",""
"html-keyboard-response","2","4599","0.0-2.0-0.0","","1004","<div style=""display: flex; flex-direction: column; align-items: center; margin-top: -40px;""><img src=""images/demo_images/pattern_1.png"" style=""width: 234px; height: 230px; margin-top: -50px;""><div style=""display: flex; justify-content: space-between; margin-top: 33px;""><img src=""images/demo_images/choice_trial_2.png"" style=""width: 408px; height: 417px; margin-right: 200px;""><img src=""images/demo_images/choice_trial_1.png"" style=""width: 408px; height: 417px;""></div></div>","f","delaylearn","learning","trial","63ed0a8a65ddbf9edae99a16","QvOLaMPUoOOt8WAwTW3maZEstqH3","5","images/demo_images/choice_trial_2.png","images/demo_images/choice_trial_1.png","images/demo_images/pattern_1.png","j","j","3000","2","1","20","1","1","0","0","2","0","","","","",""
"html-keyboard-response","3","5614","0.0-2.0-1.0","","null","<div style=""display: flex; flex-direction: column; align-items: center; margin-top: -40px;""><img src=""images/demo_images/pattern_1.png"" style=""width: 234px; height: 230px; margin-top: -50px;""><div style=""display: flex; justify-content: space-between; margin-top: 33px;""><img src=""images/demo_images/choice_trial_2.png"" style=""width: 408px; height: 417px; margin-right: 608px;""></div></div>","null","delaylearn","learning","display_response","63ed0a8a65ddbf9edae99a16","QvOLaMPUoOOt8WAwTW3maZEstqH3","","","","","","","","","","","","","","","","","chosen stimuli: images/demo_images/choice_trial_2.png","","","",""
"html-keyboard-response","4","8619","0.0-2.0-2.0","","null","","null","delaylearn","learning","feedback_duration_window","63ed0a8a65ddbf9edae99a16","QvOLaMPUoOOt8WAwTW3maZEstqH3","","","","","","","","","","","","","","","","","","3000","","",""
"html-keyboard-response","5","10125","0.0-2.0-3.0","","null","<div style='margin:auto;width: auto; font-size: 150%'><span style='font-weight: bold; font-size: 100px; color: red;'>0 points!</span><br><br></div>","null","delaylearn","learning","feedback_image_window","63ed0a8a65ddbf9edae99a16","QvOLaMPUoOOt8WAwTW3maZEstqH3","","","","","","","","","","","","","","","","","","","","",""
"html-keyboard-response","6","12445","0.0-3.0","","null","<div style=""font-size:100px;"">+</div>","null","delaylearn","learning","ITI","63ed0a8a65ddbf9edae99a16","QvOLaMPUoOOt8WAwTW3maZEstqH3","","","","","","","","","","","","","","","","","","","2315","",""
"html-keyboard-response","7","13870","0.0-4.0-0.0","","1424","<div style=""display: flex; flex-direction: column; align-items: center; margin-top: -40px;""><img src=""images/demo_images/pattern_1.png"" style=""width: 234px; height: 230px; margin-top: -50px;""><div style=""display: flex; justify-content: space-between; margin-top: 33px;""><img src=""images/demo_images/choice_trial_2.png"" style=""width: 408px; height: 417px; margin-right: 200px;""><img src=""images/demo_images/choice_trial_1.png"" style=""width: 408px; height: 417px;""></div></div>","j","delaylearn","learning","trial","63ed0a8a65ddbf9edae99a16","QvOLaMPUoOOt8WAwTW3maZEstqH3","5","images/demo_images/choice_trial_2.png","images/demo_images/choice_trial_1.png","images/demo_images/pattern_1.png","j","j","3000","2","1","20","1","2","1","1","1","10","","","","",""
"html-keyboard-response","8","14883","0.0-4.0-1.0","","null","<div style=""display: flex; flex-direction: column; align-items: center; margin-top: -40px;""><img src=""images/demo_images/pattern_1.png"" style=""width: 234px; height: 230px; margin-top: -50px;""><div style=""display: flex; justify-content: space-between; margin-top: 33px;""><img src=""images/demo_images/choice_trial_1.png"" style=""width: 408px; height: 417px; margin-left:608px;""></div></div>","null","delaylearn","learning","display_response","63ed0a8a65ddbf9edae99a16","QvOLaMPUoOOt8WAwTW3maZEstqH3","","","","","","","","","","","","","","","","","chosen stimuli: images/demo_images/choice_trial_1.png","","","",""
"html-keyboard-response","9","17885","0.0-4.0-2.0","","null","","null","delaylearn","learning","feedback_duration_window","63ed0a8a65ddbf9edae99a16","QvOLaMPUoOOt8WAwTW3maZEstqH3","","","","","","","","","","","","","","","","","","3000","","",""
"html-keyboard-response","10","19386","0.0-4.0-3.0","","null","<div style='margin:auto;width: auto; font-size: 150%'><span style='font-weight: bold; font-size: 100px; color: green;'>+10 points!</span><br><br></div>","null","delaylearn","learning","feedback_image_window","63ed0a8a65ddbf9edae99a16","QvOLaMPUoOOt8WAwTW3maZEstqH3","","","","","","","","","","","","","","","","","","","","",""
"html-keyboard-response","11","21125","0.0-5.0","","null","<div style=""font-size:100px;"">+</div>","null","delaylearn","learning","ITI","63ed0a8a65ddbf9edae99a16","QvOLaMPUoOOt8WAwTW3maZEstqH3","","","","","","","","","","","","","","","","","","","1728","",""
"html-keyboard-response","12","21834","0.0-6.0-0.0","","708","<div style=""display: flex; flex-direction: column; align-items: center; margin-top: -40px;""><img src=""images/demo_images/pattern_1.png"" style=""width: 234px; height: 230px; margin-top: -50px;""><div style=""display: flex; justify-content: space-between; margin-top: 33px;""><img src=""images/demo_images/choice_trial_1.png"" style=""width: 408px; height: 417px; margin-right: 200px;""><img src=""images/demo_images/choice_trial_2.png"" style=""width: 408px; height: 417px;""></div></div>","f","delaylearn","learning","trial","63ed0a8a65ddbf9edae99a16","QvOLaMPUoOOt8WAwTW3maZEstqH3","5","images/demo_images/choice_trial_1.png","images/demo_images/choice_trial_2.png","images/demo_images/pattern_1.png","j","f","3000","1","2","20","0","3","1","0","1","10","","","","",""
"html-keyboard-response","13","22845","0.0-6.0-1.0","","null","<div style=""display: flex; flex-direction: column; align-items: center; margin-top: -40px;""><img src=""images/demo_images/pattern_1.png"" style=""width: 234px; height: 230px; margin-top: -50px;""><div style=""display: flex; justify-content: space-between; margin-top: 33px;""><img src=""images/demo_images/choice_trial_1.png"" style=""width: 408px; height: 417px; margin-right: 608px;""></div></div>","null","delaylearn","learning","display_response","63ed0a8a65ddbf9edae99a16","QvOLaMPUoOOt8WAwTW3maZEstqH3","","","","","","","","","","","","","","","","","chosen stimuli: images/demo_images/choice_trial_1.png","","","",""
"html-keyboard-response","14","25860","0.0-6.0-2.0","","null","","null","delaylearn","learning","feedback_duration_window","63ed0a8a65ddbf9edae99a16","QvOLaMPUoOOt8WAwTW3maZEstqH3","","","","","","","","","","","","","","","","","","3000","","",""
"html-keyboard-response","15","27366","0.0-6.0-3.0","","null","<div style='margin:auto;width: auto; font-size: 150%'><span style='font-weight: bold; font-size: 100px; color: red;'>0 points!</span><br><br></div>","null","delaylearn","learning","feedback_image_window","63ed0a8a65ddbf9edae99a16","QvOLaMPUoOOt8WAwTW3maZEstqH3","","","","","","","","","","","","","","","","","","","","",""
"html-keyboard-response","16","29586","0.0-7.0","","null","<div style=""font-size:100px;"">+</div>","null","delaylearn","learning","ITI","63ed0a8a65ddbf9edae99a16","QvOLaMPUoOOt8WAwTW3maZEstqH3","","","","","","","","","","","","","","","","","","","2204","",""
"html-keyboard-response","17","30381","0.0-8.0-0.0","","793","<div style=""display: flex; flex-direction: column; align-items: center; margin-top: -40px;""><img src=""images/demo_images/pattern_1.png"" style=""width: 234px; height: 230px; margin-top: -50px;""><div style=""display: flex; justify-content: space-between; margin-top: 33px;""><img src=""images/demo_images/choice_trial_1.png"" style=""width: 408px; height: 417px; margin-right: 200px;""><img src=""images/demo_images/choice_trial_2.png"" style=""width: 408px; height: 417px;""></div></div>","f","delaylearn","learning","trial","63ed0a8a65ddbf9edae99a16","QvOLaMPUoOOt8WAwTW3maZEstqH3","5","images/demo_images/choice_trial_1.png","images/demo_images/choice_trial_2.png","images/demo_images/pattern_1.png","f","f","3000","1","2","20","0","4","1","1","1","20","","","","",""
"html-keyboard-response","18","31386","0.0-8.0-1.0","","null","<div style=""display: flex; flex-direction: column; align-items: center; margin-top: -40px;""><img src=""images/demo_images/pattern_1.png"" style=""width: 234px; height: 230px; margin-top: -50px;""><div style=""display: flex; justify-content: space-between; margin-top: 33px;""><img src=""images/demo_images/choice_trial_1.png"" style=""width: 408px; height: 417px; margin-right: 608px;""></div></div>","null","delaylearn","learning","display_response","63ed0a8a65ddbf9edae99a16","QvOLaMPUoOOt8WAwTW3maZEstqH3","","","","","","","","","","","","","","","","","chosen stimuli: images/demo_images/choice_trial_1.png","","","",""
"html-keyboard-response","19","34401","0.0-8.0-2.0","","null","","null","delaylearn","learning","feedback_duration_window","63ed0a8a65ddbf9edae99a16","QvOLaMPUoOOt8WAwTW3maZEstqH3","","","","","","","","","","","","","","","","","","3000","","",""
"html-keyboard-response","20","35912","0.0-8.0-3.0","","null","<div style='margin:auto;width: auto; font-size: 150%'><span style='font-weight: bold; font-size: 100px; color: green;'>+10 points!</span><br><br></div>","null","delaylearn","learning","feedback_image_window","63ed0a8a65ddbf9edae99a16","QvOLaMPUoOOt8WAwTW3maZEstqH3","","","","","","","","","","","","","","","","","","","","",""
"html-keyboard-response","21","36416","0.0-9.0-0.0","","null","","null","","","mood_trial_fixation","","","","","","","","","","","","","","","","","","","","","","",""
"lmdlab-html-vas-response","22","43712","0.0-9.0-1.0","","6280","How happy are you right now?","0.6373456790123457","delaylearn","learning","mood_trial","63ed0a8a65ddbf9edae99a16","QvOLaMPUoOOt8WAwTW3maZEstqH3","","","","","","","","","","","","","","","","","","","","[""Very unhappy"",""Very happy""]",""
"html-keyboard-response","23","45498","0.0-10.0","","null","<div style=""font-size:100px;"">+</div>","null","delaylearn","learning","ITI","63ed0a8a65ddbf9edae99a16","QvOLaMPUoOOt8WAwTW3maZEstqH3","","","","","","","","","","","","","","","","","","","1773","",""
"html-keyboard-response","24","46296","0.0-11.0-0.0","","797","<div style=""display: flex; flex-direction: column; align-items: center; margin-top: -40px;""><img src=""images/demo_images/pattern_1.png"" style=""width: 234px; height: 230px; margin-top: -50px;""><div style=""display: flex; justify-content: space-between; margin-top: 33px;""><img src=""images/demo_images/choice_trial_2.png"" style=""width: 408px; height: 417px; margin-right: 200px;""><img src=""images/demo_images/choice_trial_1.png"" style=""width: 408px; height: 417px;""></div></div>","j","delaylearn","learning","trial","63ed0a8a65ddbf9edae99a16","QvOLaMPUoOOt8WAwTW3maZEstqH3","5","images/demo_images/choice_trial_2.png","images/demo_images/choice_trial_1.png","images/demo_images/pattern_1.png","j","j","3000","2","1","20","1","5","1","1","1","30","","","","",""
"html-keyboard-response","25","47306","0.0-11.0-1.0","","null","<div style=""display: flex; flex-direction: column; align-items: center; margin-top: -40px;""><img src=""images/demo_images/pattern_1.png"" style=""width: 234px; height: 230px; margin-top: -50px;""><div style=""display: flex; justify-content: space-between; margin-top: 33px;""><img src=""images/demo_images/choice_trial_1.png"" style=""width: 408px; height: 417px; margin-left:608px;""></div></div>","null","delaylearn","learning","display_response","63ed0a8a65ddbf9edae99a16","QvOLaMPUoOOt8WAwTW3maZEstqH3","","","","","","","","","","","","","","","","","chosen stimuli: images/demo_images/choice_trial_1.png","","","",""
"html-keyboard-response","26","50314","0.0-11.0-2.0","","null","","null","delaylearn","learning","feedback_duration_window","63ed0a8a65ddbf9edae99a16","QvOLaMPUoOOt8WAwTW3maZEstqH3","","","","","","","","","","","","","","","","","","3000","","",""
"html-keyboard-response","27","51825","0.0-11.0-3.0","","null","<div style='margin:auto;width: auto; font-size: 150%'><span style='font-weight: bold; font-size: 100px; color: green;'>+10 points!</span><br><br></div>","null","delaylearn","learning","feedback_image_window","63ed0a8a65ddbf9edae99a16","QvOLaMPUoOOt8WAwTW3maZEstqH3","","","","","","","","","","","","","","","","","","","","",""
"html-keyboard-response","28","53631","0.0-12.0","","null","<div style=""font-size:100px;"">+</div>","null","delaylearn","learning","ITI","63ed0a8a65ddbf9edae99a16","QvOLaMPUoOOt8WAwTW3maZEstqH3","","","","","","","","","","","","","","","","","","","1805","",""
"html-keyboard-response","29","54180","0.0-13.0-0.0","","546","<div style=""display: flex; flex-direction: column; align-items: center; margin-top: -40px;""><img src=""images/demo_images/pattern_1.png"" style=""width: 234px; height: 230px; margin-top: -50px;""><div style=""display: flex; justify-content: space-between; margin-top: 33px;""><img src=""images/demo_images/choice_trial_1.png"" style=""width: 408px; height: 417px; margin-right: 200px;""><img src=""images/demo_images/choice_trial_2.png"" style=""width: 408px; height: 417px;""></div></div>","f","delaylearn","learning","trial","63ed0a8a65ddbf9edae99a16","QvOLaMPUoOOt8WAwTW3maZEstqH3","5","images/demo_images/choice_trial_1.png","images/demo_images/choice_trial_2.png","images/demo_images/pattern_1.png","f","f","3000","1","2","20","0","6","1","1","1","40","","","","",""
"html-keyboard-response","30","55195","0.0-13.0-1.0","","null","<div style=""display: flex; flex-direction: column; align-items: center; margin-top: -40px;""><img src=""images/demo_images/pattern_1.png"" style=""width: 234px; height: 230px; margin-top: -50px;""><div style=""display: flex; justify-content: space-between; margin-top: 33px;""><img src=""images/demo_images/choice_trial_1.png"" style=""width: 408px; height: 417px; margin-right: 608px;""></div></div>","null","delaylearn","learning","display_response","63ed0a8a65ddbf9edae99a16","QvOLaMPUoOOt8WAwTW3maZEstqH3","","","","","","","","","","","","","","","","","chosen stimuli: images/demo_images/choice_trial_1.png","","","",""
"html-keyboard-response","31","58204","0.0-13.0-2.0","","null","","null","delaylearn","learning","feedback_duration_window","63ed0a8a65ddbf9edae99a16","QvOLaMPUoOOt8WAwTW3maZEstqH3","","","","","","","","","","","","","","","","","","3000","","",""
"html-keyboard-response","32","59714","0.0-13.0-3.0","","null","<div style='margin:auto;width: auto; font-size: 150%'><span style='font-weight: bold; font-size: 100px; color: green;'>+10 points!</span><br><br></div>","null","delaylearn","learning","feedback_image_window","63ed0a8a65ddbf9edae99a16","QvOLaMPUoOOt8WAwTW3maZEstqH3","","","","","","","","","","","","","","","","","","","","",""
"html-keyboard-response","33","61623","0.0-14.0","","null","<div style=""font-size:100px;"">+</div>","null","delaylearn","learning","ITI","63ed0a8a65ddbf9edae99a16","QvOLaMPUoOOt8WAwTW3maZEstqH3","","","","","","","","","","","","","","","","","","","1900","",""
"html-keyboard-response","34","62244","0.0-15.0-0.0","","619","<div style=""display: flex; flex-direction: column; align-items: center; margin-top: -40px;""><img src=""images/demo_images/pattern_1.png"" style=""width: 234px; height: 230px; margin-top: -50px;""><div style=""display: flex; justify-content: space-between; margin-top: 33px;""><img src=""images/demo_images/choice_trial_2.png"" style=""width: 408px; height: 417px; margin-right: 200px;""><img src=""images/demo_images/choice_trial_1.png"" style=""width: 408px; height: 417px;""></div></div>","j","delaylearn","learning","trial","63ed0a8a65ddbf9edae99a16","QvOLaMPUoOOt8WAwTW3maZEstqH3","5","images/demo_images/choice_trial_2.png","images/demo_images/choice_trial_1.png","images/demo_images/pattern_1.png","j","j","3000","2","1","20","1","7","1","1","1","50","","","","",""
"html-keyboard-response","35","63254","0.0-15.0-1.0","","null","<div style=""display: flex; flex-direction: column; align-items: center; margin-top: -40px;""><img src=""images/demo_images/pattern_1.png"" style=""width: 234px; height: 230px; margin-top: -50px;""><div style=""display: flex; justify-content: space-between; margin-top: 33px;""><img src=""images/demo_images/choice_trial_1.png"" style=""width: 408px; height: 417px; margin-left:608px;""></div></div>","null","delaylearn","learning","display_response","63ed0a8a65ddbf9edae99a16","QvOLaMPUoOOt8WAwTW3maZEstqH3","","","","","","","","","","","","","","","","","chosen stimuli: images/demo_images/choice_trial_1.png","","","",""
"html-keyboard-response","36","66286","0.0-15.0-2.0","","null","","null","delaylearn","learning","feedback_duration_window","63ed0a8a65ddbf9edae99a16","QvOLaMPUoOOt8WAwTW3maZEstqH3","","","","","","","","","","","","","","","","","","3000","","",""
"html-keyboard-response","37","67797","0.0-15.0-3.0","","null","<div style='margin:auto;width: auto; font-size: 150%'><span style='font-weight: bold; font-size: 100px; color: green;'>+10 points!</span><br><br></div>","null","delaylearn","learning","feedback_image_window","63ed0a8a65ddbf9edae99a16","QvOLaMPUoOOt8WAwTW3maZEstqH3","","","","","","","","","","","","","","","","","","","","",""
"html-keyboard-response","38","69804","0.0-16.0","","null","<div style=""font-size:100px;"">+</div>","null","delaylearn","learning","ITI","63ed0a8a65ddbf9edae99a16","QvOLaMPUoOOt8WAwTW3maZEstqH3","","","","","","","","","","","","","","","","","","","2007","",""
"html-keyboard-response","39","70851","0.0-17.0-0.0","","1045","<div style=""display: flex; flex-direction: column; align-items: center; margin-top: -40px;""><img src=""images/demo_images/pattern_1.png"" style=""width: 234px; height: 230px; margin-top: -50px;""><div style=""display: flex; justify-content: space-between; margin-top: 33px;""><img src=""images/demo_images/choice_trial_1.png"" style=""width: 408px; height: 417px; margin-right: 200px;""><img src=""images/demo_images/choice_trial_2.png"" style=""width: 408px; height: 417px;""></div></div>","f","delaylearn","learning","trial","63ed0a8a65ddbf9edae99a16","QvOLaMPUoOOt8WAwTW3maZEstqH3","5","images/demo_images/choice_trial_1.png","images/demo_images/choice_trial_2.png","images/demo_images/pattern_1.png","f","f","3000","1","2","20","0","8","1","1","1","60","","","","",""
"html-keyboard-response","40","71852","0.0-17.0-1.0","","null","<div style=""display: flex; flex-direction: column; align-items: center; margin-top: -40px;""><img src=""images/demo_images/pattern_1.png"" style=""width: 234px; height: 230px; margin-top: -50px;""><div style=""display: flex; justify-content: space-between; margin-top: 33px;""><img src=""images/demo_images/choice_trial_1.png"" style=""width: 408px; height: 417px; margin-right: 608px;""></div></div>","null","delaylearn","learning","display_response","63ed0a8a65ddbf9edae99a16","QvOLaMPUoOOt8WAwTW3maZEstqH3","","","","","","","","","","","","","","","","","chosen stimuli: images/demo_images/choice_trial_1.png","","","",""
"html-keyboard-response","41","74865","0.0-17.0-2.0","","null","","null","delaylearn","learning","feedback_duration_window","63ed0a8a65ddbf9edae99a16","QvOLaMPUoOOt8WAwTW3maZEstqH3","","","","","","","","","","","","","","","","","","3000","","",""
"html-keyboard-response","42","76379","0.0-17.0-3.0","","null","<div style='margin:auto;width: auto; font-size: 150%'><span style='font-weight: bold; font-size: 100px; color: green;'>+10 points!</span><br><br></div>","null","delaylearn","learning","feedback_image_window","63ed0a8a65ddbf9edae99a16","QvOLaMPUoOOt8WAwTW3maZEstqH3","","","","","","","","","","","","","","","","","","","","",""
"html-button-response","43","79764","0.0-18.0","","3383","
  <div style=""display: flex; align-items: center; justify-content: center; height: 80vh;"">
  <div>
          <img src=""images/inst_demo_finish.png"" style=""width: 80vw; height:auto;"">
          <br><br>
      </div>
      <br><br>
  </div>","0","","","","","","","","","","","","","","","","","","","","","","","","","",""
"html-keyboard-response","44","86631","0.0-19.0","","6865","
  <div style=""display: flex; align-items: center; justify-content: center; height: 80vh;"">
  <div>
          <img src=""images/inst_6.png"" style=""width: 80vw; height:auto;"">
          <br><br>
      </div>
      <br><br>
  </div>","f","","","","","","","","","","","","","","","","","","","","","","","","","",""
"html-keyboard-response","45","89640","0.0-20.0","","null","<div style=""font-size:100px;"">+</div>","null","delaylearn","learning","pre_fixation","63ed0a8a65ddbf9edae99a16","","","","","","","","","","","","","","","","","","","","","",""
"html-keyboard-response","46","91615","0.0-21.0","","null","<div style=""font-size:100px;"">+</div>","null","delaylearn","learning","ITI","63ed0a8a65ddbf9edae99a16","QvOLaMPUoOOt8WAwTW3maZEstqH3","","","","","","","","","","","","","","","","","","","1958","",""
"html-keyboard-response","47","92697","0.0-22.0-0.0","","1082","<div style=""display: flex; flex-direction: column; align-items: center; margin-top: -40px;""><img src=""images/pattern_3.png"" style=""width: 234px; height: 230px; margin-top: -50px;""><div style=""display: flex; justify-content: space-between; margin-top: 33px;""><img src=""images/choice_trial_16.png"" style=""width: 408px; height: 417px; margin-right: 200px;""><img src=""images/choice_trial_2.png"" style=""width: 408px; height: 417px;""></div></div>","f","delaylearn","learning","trial","63ed0a8a65ddbf9edae99a16","QvOLaMPUoOOt8WAwTW3maZEstqH3","5","images/choice_trial_16.png","images/choice_trial_2.png","images/pattern_3.png","f","f","7000","16","2","2","0","9","1","1","16","70","","","","",""
"html-keyboard-response","48","93709","0.0-22.0-1.0","","null","<div style=""display: flex; flex-direction: column; align-items: center; margin-top: -40px;""><img src=""images/pattern_3.png"" style=""width: 234px; height: 230px; margin-top: -50px;""><div style=""display: flex; justify-content: space-between; margin-top: 33px;""><img src=""images/choice_trial_16.png"" style=""width: 408px; height: 417px; margin-right: 608px;""></div></div>","null","delaylearn","learning","display_response","63ed0a8a65ddbf9edae99a16","QvOLaMPUoOOt8WAwTW3maZEstqH3","","","","","","","","","","","","","","","","","chosen stimuli: images/choice_trial_16.png","","","",""
"html-keyboard-response","49","100717","0.0-22.0-2.0","","null","","null","delaylearn","learning","feedback_duration_window","63ed0a8a65ddbf9edae99a16","QvOLaMPUoOOt8WAwTW3maZEstqH3","","","","","","","","","","","","","","","","","","7000","","",""
"html-keyboard-response","50","102228","0.0-22.0-3.0","","null","<div style='margin:auto;width: auto; font-size: 150%'><span style='font-weight: bold; font-size: 100px; color: green;'>+10 points!</span><br><br></div>","null","delaylearn","learning","feedback_image_window","63ed0a8a65ddbf9edae99a16","QvOLaMPUoOOt8WAwTW3maZEstqH3","","","","","","","","","","","","","","","","","","","","",""
"html-keyboard-response","51","104470","0.0-23.0","","null","<div style=""font-size:100px;"">+</div>","null","delaylearn","learning","ITI","63ed0a8a65ddbf9edae99a16","QvOLaMPUoOOt8WAwTW3maZEstqH3","","","","","","","","","","","","","","","","","","","2232","",""
"html-keyboard-response","52","106062","0.0-24.0-0.0","","1590","<div style=""display: flex; flex-direction: column; align-items: center; margin-top: -40px;""><img src=""images/pattern_7.png"" style=""width: 234px; height: 230px; margin-top: -50px;""><div style=""display: flex; justify-content: space-between; margin-top: 33px;""><img src=""images/choice_trial_10.png"" style=""width: 408px; height: 417px; margin-right: 200px;""><img src=""images/choice_trial_8.png"" style=""width: 408px; height: 417px;""></div></div>","f","delaylearn","learning","trial","63ed0a8a65ddbf9edae99a16","QvOLaMPUoOOt8WAwTW3maZEstqH3","5","images/choice_trial_10.png","images/choice_trial_8.png","images/pattern_7.png","j","j","750","10","8","6","1","10","0","0","10","70","","","","",""
"html-keyboard-response","53","107063","0.0-24.0-1.0","","null","<div style=""display: flex; flex-direction: column; align-items: center; margin-top: -40px;""><img src=""images/pattern_7.png"" style=""width: 234px; height: 230px; margin-top: -50px;""><div style=""display: flex; justify-content: space-between; margin-top: 33px;""><img src=""images/choice_trial_10.png"" style=""width: 408px; height: 417px; margin-right: 608px;""></div></div>","null","delaylearn","learning","display_response","63ed0a8a65ddbf9edae99a16","QvOLaMPUoOOt8WAwTW3maZEstqH3","","","","","","","","","","","","","","","","","chosen stimuli: images/choice_trial_10.png","","","",""
"html-keyboard-response","54","107821","0.0-24.0-2.0","","null","","null","delaylearn","learning","feedback_duration_window","63ed0a8a65ddbf9edae99a16","QvOLaMPUoOOt8WAwTW3maZEstqH3","","","","","","","","","","","","","","","","","","750","","",""
"html-keyboard-response","55","109336","0.0-24.0-3.0","","null","<div style='margin:auto;width: auto; font-size: 150%'><span style='font-weight: bold; font-size: 100px; color: red;'>0 points!</span><br><br></div>","null","delaylearn","learning","feedback_image_window","63ed0a8a65ddbf9edae99a16","QvOLaMPUoOOt8WAwTW3maZEstqH3","","","","","","","","","","","","","","","","","","","","",""
"html-keyboard-response","56","111200","0.0-25.0","","null","<div style=""font-size:100px;"">+</div>","null","delaylearn","learning","ITI","63ed0a8a65ddbf9edae99a16","QvOLaMPUoOOt8WAwTW3maZEstqH3","","","","","","","","","","","","","","","","","","","1857","",""
"html-keyboard-response","57","112480","0.0-26.0-0.0","","1279","<div style=""display: flex; flex-direction: column; align-items: center; margin-top: -40px;""><img src=""images/pattern_4.png"" style=""width: 234px; height: 230px; margin-top: -50px;""><div style=""display: flex; justify-content: space-between; margin-top: 33px;""><img src=""images/choice_trial_11.png"" style=""width: 408px; height: 417px; margin-right: 200px;""><img src=""images/choice_trial_4.png"" style=""width: 408px; height: 417px;""></div></div>","f","delaylearn","learning","trial","63ed0a8a65ddbf9edae99a16","QvOLaMPUoOOt8WAwTW3maZEstqH3","5","images/choice_trial_11.png","images/choice_trial_4.png","images/pattern_4.png","f","f","7000","11","4","3","0","11","1","1","11","80","","","","",""
"html-keyboard-response","58","113493","0.0-26.0-1.0","","null","<div style=""display: flex; flex-direction: column; align-items: center; margin-top: -40px;""><img src=""images/pattern_4.png"" style=""width: 234px; height: 230px; margin-top: -50px;""><div style=""display: flex; justify-content: space-between; margin-top: 33px;""><img src=""images/choice_trial_11.png"" style=""width: 408px; height: 417px; margin-right: 608px;""></div></div>","null","delaylearn","learning","display_response","63ed0a8a65ddbf9edae99a16","QvOLaMPUoOOt8WAwTW3maZEstqH3","","","","","","","","","","","","","","","","","chosen stimuli: images/choice_trial_11.png","","","",""
"html-keyboard-response","59","120506","0.0-26.0-2.0","","null","","null","delaylearn","learning","feedback_duration_window","63ed0a8a65ddbf9edae99a16","QvOLaMPUoOOt8WAwTW3maZEstqH3","","","","","","","","","","","","","","","","","","7000","","",""
"html-keyboard-response","60","122018","0.0-26.0-3.0","","null","<div style='margin:auto;width: auto; font-size: 150%'><span style='font-weight: bold; font-size: 100px; color: green;'>+10 points!</span><br><br></div>","null","delaylearn","learning","feedback_image_window","63ed0a8a65ddbf9edae99a16","QvOLaMPUoOOt8WAwTW3maZEstqH3","","","","","","","","","","","","","","","","","","","","",""
"html-keyboard-response","61","124272","0.0-27.0","","null","<div style=""font-size:100px;"">+</div>","null","delaylearn","learning","ITI","63ed0a8a65ddbf9edae99a16","QvOLaMPUoOOt8WAwTW3maZEstqH3","","","","","","","","","","","","","","","","","","","2249","",""
"html-keyboard-response","62","125340","0.0-28.0-0.0","","1065","<div style=""display: flex; flex-direction: column; align-items: center; margin-top: -40px;""><img src=""images/pattern_5.png"" style=""width: 234px; height: 230px; margin-top: -50px;""><div style=""display: flex; justify-content: space-between; margin-top: 33px;""><img src=""images/choice_trial_13.png"" style=""width: 408px; height: 417px; margin-right: 200px;""><img src=""images/choice_trial_7.png"" style=""width: 408px; height: 417px;""></div></div>","f","delaylearn","learning","trial","63ed0a8a65ddbf9edae99a16","QvOLaMPUoOOt8WAwTW3maZEstqH3","5","images/choice_trial_13.png","images/choice_trial_7.png","images/pattern_5.png","j","j","750","13","7","4","1","12","0","0","13","80","","","","",""
"html-keyboard-response","63","126351","0.0-28.0-1.0","","null","<div style=""display: flex; flex-direction: column; align-items: center; margin-top: -40px;""><img src=""images/pattern_5.png"" style=""width: 234px; height: 230px; margin-top: -50px;""><div style=""display: flex; justify-content: space-between; margin-top: 33px;""><img src=""images/choice_trial_13.png"" style=""width: 408px; height: 417px; margin-right: 608px;""></div></div>","null","delaylearn","learning","display_response","63ed0a8a65ddbf9edae99a16","QvOLaMPUoOOt8WAwTW3maZEstqH3","","","","","","","","","","","","","","","","","chosen stimuli: images/choice_trial_13.png","","","",""
"html-keyboard-response","64","127114","0.0-28.0-2.0","","null","","null","delaylearn","learning","feedback_duration_window","63ed0a8a65ddbf9edae99a16","QvOLaMPUoOOt8WAwTW3maZEstqH3","","","","","","","","","","","","","","","","","","750","","",""
"html-keyboard-response","65","128632","0.0-28.0-3.0","","null","<div style='margin:auto;width: auto; font-size: 150%'><span style='font-weight: bold; font-size: 100px; color: red;'>0 points!</span><br><br></div>","null","delaylearn","learning","feedback_image_window","63ed0a8a65ddbf9edae99a16","QvOLaMPUoOOt8WAwTW3maZEstqH3","","","","","","","","","","","","","","","","","","","","",""
"html-keyboard-response","66","130621","0.0-29.0","","null","<div style=""font-size:100px;"">+</div>","null","delaylearn","learning","ITI","63ed0a8a65ddbf9edae99a16","QvOLaMPUoOOt8WAwTW3maZEstqH3","","","","","","","","","","","","","","","","","","","1982","",""
"html-keyboard-response","67","131976","0.0-30.0-0.0","","1352","<div style=""display: flex; flex-direction: column; align-items: center; margin-top: -40px;""><img src=""images/pattern_6.png"" style=""width: 234px; height: 230px; margin-top: -50px;""><div style=""display: flex; justify-content: space-between; margin-top: 33px;""><img src=""images/choice_trial_14.png"" style=""width: 408px; height: 417px; margin-right: 200px;""><img src=""images/choice_trial_9.png"" style=""width: 408px; height: 417px;""></div></div>","f","delaylearn","learning","trial","63ed0a8a65ddbf9edae99a16","QvOLaMPUoOOt8WAwTW3maZEstqH3","5","images/choice_trial_14.png","images/choice_trial_9.png","images/pattern_6.png","j","f","750","14","9","5","0","13","1","0","14","80","","","","",""
"html-keyboard-response","68","132979","0.0-30.0-1.0","","null","<div style=""display: flex; flex-direction: column; align-items: center; margin-top: -40px;""><img src=""images/pattern_6.png"" style=""width: 234px; height: 230px; margin-top: -50px;""><div style=""display: flex; justify-content: space-between; margin-top: 33px;""><img src=""images/choice_trial_14.png"" style=""width: 408px; height: 417px; margin-right: 608px;""></div></div>","null","delaylearn","learning","display_response","63ed0a8a65ddbf9edae99a16","QvOLaMPUoOOt8WAwTW3maZEstqH3","","","","","","","","","","","","","","","","","chosen stimuli: images/choice_trial_14.png","","","",""
"html-keyboard-response","69","133735","0.0-30.0-2.0","","null","","null","delaylearn","learning","feedback_duration_window","63ed0a8a65ddbf9edae99a16","QvOLaMPUoOOt8WAwTW3maZEstqH3","","","","","","","","","","","","","","","","","","750","","",""
"html-keyboard-response","70","135237","0.0-30.0-3.0","","null","<div style='margin:auto;width: auto; font-size: 150%'><span style='font-weight: bold; font-size: 100px; color: red;'>0 points!</span><br><br></div>","null","delaylearn","learning","feedback_image_window","63ed0a8a65ddbf9edae99a16","QvOLaMPUoOOt8WAwTW3maZEstqH3","","","","","","","","","","","","","","","","","","","","",""
"html-keyboard-response","71","135742","0.0-31.0-0.0","","null","","null","","","mood_trial_fixation","","","","","","","","","","","","","","","","","","","","","","",""
"lmdlab-html-vas-response","72","139973","0.0-31.0-1.0","","3220","How happy are you right now?","0.654320987654321","delaylearn","learning","mood_trial","63ed0a8a65ddbf9edae99a16","QvOLaMPUoOOt8WAwTW3maZEstqH3","","","","","","","","","","","","","","","","","","","","[""Very unhappy"",""Very happy""]",""
"html-keyboard-response","73","142376","0.0-32.0","","null","<div style=""font-size:100px;"">+</div>","null","delaylearn","learning","ITI","63ed0a8a65ddbf9edae99a16","QvOLaMPUoOOt8WAwTW3maZEstqH3","","","","","","","","","","","","","","","","","","","2391","",""
"html-keyboard-response","74","143887","0.0-33.0-0.0","","1510","<div style=""display: flex; flex-direction: column; align-items: center; margin-top: -40px;""><img src=""images/pattern_1.png"" style=""width: 234px; height: 230px; margin-top: -50px;""><div style=""display: flex; justify-content: space-between; margin-top: 33px;""><img src=""images/choice_trial_15.png"" style=""width: 408px; height: 417px; margin-right: 200px;""><img src=""images/choice_trial_6.png"" style=""width: 408px; height: 417px;""></div></div>","f","delaylearn","learning","trial","63ed0a8a65ddbf9edae99a16","QvOLaMPUoOOt8WAwTW3maZEstqH3","5","images/choice_trial_15.png","images/choice_trial_6.png","images/pattern_1.png","j","j","7000","15","6","1","1","14","0","0","15","80","","","","",""
"html-keyboard-response","75","144891","0.0-33.0-1.0","","null","<div style=""display: flex; flex-direction: column; align-items: center; margin-top: -40px;""><img src=""images/pattern_1.png"" style=""width: 234px; height: 230px; margin-top: -50px;""><div style=""display: flex; justify-content: space-between; margin-top: 33px;""><img src=""images/choice_trial_15.png"" style=""width: 408px; height: 417px; margin-right: 608px;""></div></div>","null","delaylearn","learning","display_response","63ed0a8a65ddbf9edae99a16","QvOLaMPUoOOt8WAwTW3maZEstqH3","","","","","","","","","","","","","","","","","chosen stimuli: images/choice_trial_15.png","","","",""
"html-keyboard-response","76","151921","0.0-33.0-2.0","","null","","null","delaylearn","learning","feedback_duration_window","63ed0a8a65ddbf9edae99a16","QvOLaMPUoOOt8WAwTW3maZEstqH3","","","","","","","","","","","","","","","","","","7000","","",""
"html-keyboard-response","77","153425","0.0-33.0-3.0","","null","<div style='margin:auto;width: auto; font-size: 150%'><span style='font-weight: bold; font-size: 100px; color: red;'>0 points!</span><br><br></div>","null","delaylearn","learning","feedback_image_window","63ed0a8a65ddbf9edae99a16","QvOLaMPUoOOt8WAwTW3maZEstqH3","","","","","","","","","","","","","","","","","","","","",""
"html-keyboard-response","78","155766","0.0-34.0","","null","<div style=""font-size:100px;"">+</div>","null","delaylearn","learning","ITI","63ed0a8a65ddbf9edae99a16","QvOLaMPUoOOt8WAwTW3maZEstqH3","","","","","","","","","","","","","","","","","","","2338","",""
"html-keyboard-response","79","156882","0.0-35.0-0.0","","1114","<div style=""display: flex; flex-direction: column; align-items: center; margin-top: -40px;""><img src=""images/pattern_3.png"" style=""width: 234px; height: 230px; margin-top: -50px;""><div style=""display: flex; justify-content: space-between; margin-top: 33px;""><img src=""images/choice_trial_2.png"" style=""width: 408px; height: 417px; margin-right: 200px;""><img src=""images/choice_trial_16.png"" style=""width: 408px; height: 417px;""></div></div>","j","delaylearn","learning","trial","63ed0a8a65ddbf9edae99a16","QvOLaMPUoOOt8WAwTW3maZEstqH3","5","images/choice_trial_2.png","images/choice_trial_16.png","images/pattern_3.png","f","j","7000","2","16","2","1","15","1","0","16","80","","","","",""
"html-keyboard-response","80","157886","0.0-35.0-1.0","","null","<div style=""display: flex; flex-direction: column; align-items: center; margin-top: -40px;""><img src=""images/pattern_3.png"" style=""width: 234px; height: 230px; margin-top: -50px;""><div style=""display: flex; justify-content: space-between; margin-top: 33px;""><img src=""images/choice_trial_16.png"" style=""width: 408px; height: 417px; margin-left:608px;""></div></div>","null","delaylearn","learning","display_response","63ed0a8a65ddbf9edae99a16","QvOLaMPUoOOt8WAwTW3maZEstqH3","","","","","","","","","","","","","","","","","chosen stimuli: images/choice_trial_16.png","","","",""
"html-keyboard-response","81","164897","0.0-35.0-2.0","","null","","null","delaylearn","learning","feedback_duration_window","63ed0a8a65ddbf9edae99a16","QvOLaMPUoOOt8WAwTW3maZEstqH3","","","","","","","","","","","","","","","","","","7000","","",""
"html-keyboard-response","82","166399","0.0-35.0-3.0","","null","<div style='margin:auto;width: auto; font-size: 150%'><span style='font-weight: bold; font-size: 100px; color: red;'>0 points!</span><br><br></div>","null","delaylearn","learning","feedback_image_window","63ed0a8a65ddbf9edae99a16","QvOLaMPUoOOt8WAwTW3maZEstqH3","","","","","","","","","","","","","","","","","","","","",""
"html-keyboard-response","83","168070","0.0-36.0","","null","<div style=""font-size:100px;"">+</div>","null","delaylearn","learning","ITI","63ed0a8a65ddbf9edae99a16","QvOLaMPUoOOt8WAwTW3maZEstqH3","","","","","","","","","","","","","","","","","","","1661","",""
"html-keyboard-response","84","169861","0.0-37.0-0.0","","1790","<div style=""display: flex; flex-direction: column; align-items: center; margin-top: -40px;""><img src=""images/pattern_5.png"" style=""width: 234px; height: 230px; margin-top: -50px;""><div style=""display: flex; justify-content: space-between; margin-top: 33px;""><img src=""images/choice_trial_7.png"" style=""width: 408px; height: 417px; margin-right: 200px;""><img src=""images/choice_trial_13.png"" style=""width: 408px; height: 417px;""></div></div>","f","delaylearn","learning","trial","63ed0a8a65ddbf9edae99a16","QvOLaMPUoOOt8WAwTW3maZEstqH3","5","images/choice_trial_7.png","images/choice_trial_13.png","images/pattern_5.png","f","f","750","7","13","4","0","16","1","1","7","90","","","","",""
"html-keyboard-response","85","170876","0.0-37.0-1.0","","null","<div style=""display: flex; flex-direction: column; align-items: center; margin-top: -40px;""><img src=""images/pattern_5.png"" style=""width: 234px; height: 230px; margin-top: -50px;""><div style=""display: flex; justify-content: space-between; margin-top: 33px;""><img src=""images/choice_trial_7.png"" style=""width: 408px; height: 417px; margin-right: 608px;""></div></div>","null","delaylearn","learning","display_response","63ed0a8a65ddbf9edae99a16","QvOLaMPUoOOt8WAwTW3maZEstqH3","","","","","","","","","","","","","","","","","chosen stimuli: images/choice_trial_7.png","","","",""
"html-keyboard-response","86","171630","0.0-37.0-2.0","","null","","null","delaylearn","learning","feedback_duration_window","63ed0a8a65ddbf9edae99a16","QvOLaMPUoOOt8WAwTW3maZEstqH3","","","","","","","","","","","","","","","","","","750","","",""
"html-keyboard-response","87","173142","0.0-37.0-3.0","","null","<div style='margin:auto;width: auto; font-size: 150%'><span style='font-weight: bold; font-size: 100px; color: green;'>+10 points!</span><br><br></div>","null","delaylearn","learning","feedback_image_window","63ed0a8a65ddbf9edae99a16","QvOLaMPUoOOt8WAwTW3maZEstqH3","","","","","","","","","","","","","","","","","","","","",""
"html-keyboard-response","88","173648","0.0-38.0-0.0","","null","","null","","","mood_trial_fixation","","","","","","","","","","","","","","","","","","","","","","",""
"lmdlab-html-vas-response","89","179101","0.0-38.0-1.0","","4438","How happy are you right now?","0.7114197530864198","delaylearn","learning","mood_trial","63ed0a8a65ddbf9edae99a16","QvOLaMPUoOOt8WAwTW3maZEstqH3","","","","","","","","","","","","","","","","","","","","[""Very unhappy"",""Very happy""]",""
"html-keyboard-response","90","181042","0.0-39.0","","null","<div style=""font-size:100px;"">+</div>","null","delaylearn","learning","ITI","63ed0a8a65ddbf9edae99a16","QvOLaMPUoOOt8WAwTW3maZEstqH3","","","","","","","","","","","","","","","","","","","1935","",""
"html-keyboard-response","91","182633","0.0-40.0-0.0","","1589","<div style=""display: flex; flex-direction: column; align-items: center; margin-top: -40px;""><img src=""images/pattern_6.png"" style=""width: 234px; height: 230px; margin-top: -50px;""><div style=""display: flex; justify-content: space-between; margin-top: 33px;""><img src=""images/choice_trial_14.png"" style=""width: 408px; height: 417px; margin-right: 200px;""><img src=""images/choice_trial_9.png"" style=""width: 408px; height: 417px;""></div></div>","j","delaylearn","learning","trial","63ed0a8a65ddbf9edae99a16","QvOLaMPUoOOt8WAwTW3maZEstqH3","5","images/choice_trial_14.png","images/choice_trial_9.png","images/pattern_6.png","f","f","750","14","9","5","0","17","0","0","9","90","","","","",""
"html-keyboard-response","92","183641","0.0-40.0-1.0","","null","<div style=""display: flex; flex-direction: column; align-items: center; margin-top: -40px;""><img src=""images/pattern_6.png"" style=""width: 234px; height: 230px; margin-top: -50px;""><div style=""display: flex; justify-content: space-between; margin-top: 33px;""><img src=""images/choice_trial_9.png"" style=""width: 408px; height: 417px; margin-left:608px;""></div></div>","null","delaylearn","learning","display_response","63ed0a8a65ddbf9edae99a16","QvOLaMPUoOOt8WAwTW3maZEstqH3","","","","","","","","","","","","","","","","","chosen stimuli: images/choice_trial_9.png","","","",""
"html-keyboard-response","93","184399","0.0-40.0-2.0","","null","","null","delaylearn","learning","feedback_duration_window","63ed0a8a65ddbf9edae99a16","QvOLaMPUoOOt8WAwTW3maZEstqH3","","","","","","","","","","","","","","","","","","750","","",""
"html-keyboard-response","94","185912","0.0-40.0-3.0","","null","<div style='margin:auto;width: auto; font-size: 150%'><span style='font-weight: bold; font-size: 100px; color: red;'>0 points!</span><br><br></div>","null","delaylearn","learning","feedback_image_window","63ed0a8a65ddbf9edae99a16","QvOLaMPUoOOt8WAwTW3maZEstqH3","","","","","","","","","","","","","","","","","","","","",""
"html-keyboard-response","95","187991","0.0-41.0","","null","<div style=""font-size:100px;"">+</div>","null","delaylearn","learning","ITI","63ed0a8a65ddbf9edae99a16","QvOLaMPUoOOt8WAwTW3maZEstqH3","","","","","","","","","","","","","","","","","","","2072","",""
"html-keyboard-response","96","189552","0.0-42.0-0.0","","1559","<div style=""display: flex; flex-direction: column; align-items: center; margin-top: -40px;""><img src=""images/pattern_4.png"" style=""width: 234px; height: 230px; margin-top: -50px;""><div style=""display: flex; justify-content: space-between; margin-top: 33px;""><img src=""images/choice_trial_4.png"" style=""width: 408px; height: 417px; margin-right: 200px;""><img src=""images/choice_trial_11.png"" style=""width: 408px; height: 417px;""></div></div>","j","delaylearn","learning","trial","63ed0a8a65ddbf9edae99a16","QvOLaMPUoOOt8WAwTW3maZEstqH3","5","images/choice_trial_4.png","images/choice_trial_11.png","images/pattern_4.png","j","j","7000","4","11","3","1","18","1","1","11","100","","","","",""
"html-keyboard-response","97","190568","0.0-42.0-1.0","","null","<div style=""display: flex; flex-direction: column; align-items: center; margin-top: -40px;""><img src=""images/pattern_4.png"" style=""width: 234px; height: 230px; margin-top: -50px;""><div style=""display: flex; justify-content: space-between; margin-top: 33px;""><img src=""images/choice_trial_11.png"" style=""width: 408px; height: 417px; margin-left:608px;""></div></div>","null","delaylearn","learning","display_response","63ed0a8a65ddbf9edae99a16","QvOLaMPUoOOt8WAwTW3maZEstqH3","","","","","","","","","","","","","","","","","chosen stimuli: images/choice_trial_11.png","","","",""
"html-keyboard-response","98","197584","0.0-42.0-2.0","","null","","null","delaylearn","learning","feedback_duration_window","63ed0a8a65ddbf9edae99a16","QvOLaMPUoOOt8WAwTW3maZEstqH3","","","","","","","","","","","","","","","","","","7000","","",""
"html-keyboard-response","99","199095","0.0-42.0-3.0","","null","<div style='margin:auto;width: auto; font-size: 150%'><span style='font-weight: bold; font-size: 100px; color: green;'>+10 points!</span><br><br></div>","null","delaylearn","learning","feedback_image_window","63ed0a8a65ddbf9edae99a16","QvOLaMPUoOOt8WAwTW3maZEstqH3","","","","","","","","","","","","","","","","","","","","",""
"html-keyboard-response","100","201115","0.0-43.0","","null","<div style=""font-size:100px;"">+</div>","null","delaylearn","learning","ITI","63ed0a8a65ddbf9edae99a16","QvOLaMPUoOOt8WAwTW3maZEstqH3","","","","","","","","","","","","","","","","","","","2013","",""
"html-keyboard-response","101","202364","0.0-44.0-0.0","","1246","<div style=""display: flex; flex-direction: column; align-items: center; margin-top: -40px;""><img src=""images/pattern_7.png"" style=""width: 234px; height: 230px; margin-top: -50px;""><div style=""display: flex; justify-content: space-between; margin-top: 33px;""><img src=""images/choice_trial_8.png"" style=""width: 408px; height: 417px; margin-right: 200px;""><img src=""images/choice_trial_10.png"" style=""width: 408px; height: 417px;""></div></div>","f","delaylearn","learning","trial","63ed0a8a65ddbf9edae99a16","QvOLaMPUoOOt8WAwTW3maZEstqH3","5","images/choice_trial_8.png","images/choice_trial_10.png","images/pattern_7.png","j","f","750","8","10","6","0","19","1","0","8","100","","","","",""
"html-keyboard-response","102","203369","0.0-44.0-1.0","","null","<div style=""display: flex; flex-direction: column; align-items: center; margin-top: -40px;""><img src=""images/pattern_7.png"" style=""width: 234px; height: 230px; margin-top: -50px;""><div style=""display: flex; justify-content: space-between; margin-top: 33px;""><img src=""images/choice_trial_8.png"" style=""width: 408px; height: 417px; margin-right: 608px;""></div></div>","null","delaylearn","learning","display_response","63ed0a8a65ddbf9edae99a16","QvOLaMPUoOOt8WAwTW3maZEstqH3","","","","","","","","","","","","","","","","","chosen stimuli: images/choice_trial_8.png","","","",""
"html-keyboard-response","103","204123","0.0-44.0-2.0","","null","","null","delaylearn","learning","feedback_duration_window","63ed0a8a65ddbf9edae99a16","QvOLaMPUoOOt8WAwTW3maZEstqH3","","","","","","","","","","","","","","","","","","750","","",""
"html-keyboard-response","104","205635","0.0-44.0-3.0","","null","<div style='margin:auto;width: auto; font-size: 150%'><span style='font-weight: bold; font-size: 100px; color: red;'>0 points!</span><br><br></div>","null","delaylearn","learning","feedback_image_window","63ed0a8a65ddbf9edae99a16","QvOLaMPUoOOt8WAwTW3maZEstqH3","","","","","","","","","","","","","","","","","","","","",""
"html-keyboard-response","105","207689","0.0-45.0","","null","<div style=""font-size:100px;"">+</div>","null","delaylearn","learning","ITI","63ed0a8a65ddbf9edae99a16","QvOLaMPUoOOt8WAwTW3maZEstqH3","","","","","","","","","","","","","","","","","","","2043","",""
"html-keyboard-response","106","209211","0.0-46.0-0.0","","1521","<div style=""display: flex; flex-direction: column; align-items: center; margin-top: -40px;""><img src=""images/pattern_1.png"" style=""width: 234px; height: 230px; margin-top: -50px;""><div style=""display: flex; justify-content: space-between; margin-top: 33px;""><img src=""images/choice_trial_6.png"" style=""width: 408px; height: 417px; margin-right: 200px;""><img src=""images/choice_trial_15.png"" style=""width: 408px; height: 417px;""></div></div>","f","delaylearn","learning","trial","63ed0a8a65ddbf9edae99a16","QvOLaMPUoOOt8WAwTW3maZEstqH3","5","images/choice_trial_6.png","images/choice_trial_15.png","images/pattern_1.png","f","f","7000","6","15","1","0","20","1","1","6","110","","","","",""
"html-keyboard-response","107","210227","0.0-46.0-1.0","","null","<div style=""display: flex; flex-direction: column; align-items: center; margin-top: -40px;""><img src=""images/pattern_1.png"" style=""width: 234px; height: 230px; margin-top: -50px;""><div style=""display: flex; justify-content: space-between; margin-top: 33px;""><img src=""images/choice_trial_6.png"" style=""width: 408px; height: 417px; margin-right: 608px;""></div></div>","null","delaylearn","learning","display_response","63ed0a8a65ddbf9edae99a16","QvOLaMPUoOOt8WAwTW3maZEstqH3","","","","","","","","","","","","","","","","","chosen stimuli: images/choice_trial_6.png","","","",""
"html-keyboard-response","108","217228","0.0-46.0-2.0","","null","","null","delaylearn","learning","feedback_duration_window","63ed0a8a65ddbf9edae99a16","QvOLaMPUoOOt8WAwTW3maZEstqH3","","","","","","","","","","","","","","","","","","7000","","",""
"html-keyboard-response","109","218742","0.0-46.0-3.0","","null","<div style='margin:auto;width: auto; font-size: 150%'><span style='font-weight: bold; font-size: 100px; color: green;'>+10 points!</span><br><br></div>","null","delaylearn","learning","feedback_image_window","63ed0a8a65ddbf9edae99a16","QvOLaMPUoOOt8WAwTW3maZEstqH3","","","","","","","","","","","","","","","","","","","","",""
"html-keyboard-response","110","221179","0.0-47.0","","null","<div style=""font-size:100px;"">+</div>","null","delaylearn","learning","ITI","63ed0a8a65ddbf9edae99a16","QvOLaMPUoOOt8WAwTW3maZEstqH3","","","","","","","","","","","","","","","","","","","2428","",""
"html-keyboard-response","111","222691","0.0-48.0-0.0","","1510","<div style=""display: flex; flex-direction: column; align-items: center; margin-top: -40px;""><img src=""images/pattern_6.png"" style=""width: 234px; height: 230px; margin-top: -50px;""><div style=""display: flex; justify-content: space-between; margin-top: 33px;""><img src=""images/choice_trial_9.png"" style=""width: 408px; height: 417px; margin-right: 200px;""><img src=""images/choice_trial_14.png"" style=""width: 408px; height: 417px;""></div></div>","f","delaylearn","learning","trial","63ed0a8a65ddbf9edae99a16","QvOLaMPUoOOt8WAwTW3maZEstqH3","5","images/choice_trial_9.png","images/choice_trial_14.png","images/pattern_6.png","j","j","750","9","14","5","1","21","0","0","9","110","","","","",""
"html-keyboard-response","112","223703","0.0-48.0-1.0","","null","<div style=""display: flex; flex-direction: column; align-items: center; margin-top: -40px;""><img src=""images/pattern_6.png"" style=""width: 234px; height: 230px; margin-top: -50px;""><div style=""display: flex; justify-content: space-between; margin-top: 33px;""><img src=""images/choice_trial_9.png"" style=""width: 408px; height: 417px; margin-right: 608px;""></div></div>","null","delaylearn","learning","display_response","63ed0a8a65ddbf9edae99a16","QvOLaMPUoOOt8WAwTW3maZEstqH3","","","","","","","","","","","","","","","","","chosen stimuli: images/choice_trial_9.png","","","",""
"html-keyboard-response","113","224457","0.0-48.0-2.0","","null","","null","delaylearn","learning","feedback_duration_window","63ed0a8a65ddbf9edae99a16","QvOLaMPUoOOt8WAwTW3maZEstqH3","","","","","","","","","","","","","","","","","","750","","",""
"html-keyboard-response","114","225971","0.0-48.0-3.0","","null","<div style='margin:auto;width: auto; font-size: 150%'><span style='font-weight: bold; font-size: 100px; color: red;'>0 points!</span><br><br></div>","null","delaylearn","learning","feedback_image_window","63ed0a8a65ddbf9edae99a16","QvOLaMPUoOOt8WAwTW3maZEstqH3","","","","","","","","","","","","","","","","","","","","",""
"html-keyboard-response","115","228058","0.0-49.0","","null","<div style=""font-size:100px;"">+</div>","null","delaylearn","learning","ITI","63ed0a8a65ddbf9edae99a16","QvOLaMPUoOOt8WAwTW3maZEstqH3","","","","","","","","","","","","","","","","","","","2084","",""
"html-keyboard-response","116","229633","0.0-50.0-0.0","","1573","<div style=""display: flex; flex-direction: column; align-items: center; margin-top: -40px;""><img src=""images/pattern_4.png"" style=""width: 234px; height: 230px; margin-top: -50px;""><div style=""display: flex; justify-content: space-between; margin-top: 33px;""><img src=""images/choice_trial_11.png"" style=""width: 408px; height: 417px; margin-right: 200px;""><img src=""images/choice_trial_4.png"" style=""width: 408px; height: 417px;""></div></div>","f","delaylearn","learning","trial","63ed0a8a65ddbf9edae99a16","QvOLaMPUoOOt8WAwTW3maZEstqH3","5","images/choice_trial_11.png","images/choice_trial_4.png","images/pattern_4.png","f","f","7000","11","4","3","0","22","1","1","11","120","","","","",""
"html-keyboard-response","117","230647","0.0-50.0-1.0","","null","<div style=""display: flex; flex-direction: column; align-items: center; margin-top: -40px;""><img src=""images/pattern_4.png"" style=""width: 234px; height: 230px; margin-top: -50px;""><div style=""display: flex; justify-content: space-between; margin-top: 33px;""><img src=""images/choice_trial_11.png"" style=""width: 408px; height: 417px; margin-right: 608px;""></div></div>","null","delaylearn","learning","display_response","63ed0a8a65ddbf9edae99a16","QvOLaMPUoOOt8WAwTW3maZEstqH3","","","","","","","","","","","","","","","","","chosen stimuli: images/choice_trial_11.png","","","",""
"html-keyboard-response","118","237662","0.0-50.0-2.0","","null","","null","delaylearn","learning","feedback_duration_window","63ed0a8a65ddbf9edae99a16","QvOLaMPUoOOt8WAwTW3maZEstqH3","","","","","","","","","","","","","","","","","","7000","","",""
"html-keyboard-response","119","239178","0.0-50.0-3.0","","null","<div style='margin:auto;width: auto; font-size: 150%'><span style='font-weight: bold; font-size: 100px; color: green;'>+10 points!</span><br><br></div>","null","delaylearn","learning","feedback_image_window","63ed0a8a65ddbf9edae99a16","QvOLaMPUoOOt8WAwTW3maZEstqH3","","","","","","","","","","","","","","","","","","","","",""
"html-keyboard-response","120","239680","0.0-51.0-0.0","","null","","null","","","mood_trial_fixation","","","","","","","","","","","","","","","","","","","","","","",""
"lmdlab-html-vas-response","121","249047","0.0-51.0-1.0","","8355","How happy are you right now?","0.720679012345679","delaylearn","learning","mood_trial","63ed0a8a65ddbf9edae99a16","QvOLaMPUoOOt8WAwTW3maZEstqH3","","","","","","","","","","","","","","","","","","","","[""Very unhappy"",""Very happy""]",""
"html-keyboard-response","122","251548","0.0-52.0","","null","<div style=""font-size:100px;"">+</div>","null","delaylearn","learning","ITI","63ed0a8a65ddbf9edae99a16","QvOLaMPUoOOt8WAwTW3maZEstqH3","","","","","","","","","","","","","","","","","","","2497","",""
"html-keyboard-response","123","252625","0.0-53.0-0.0","","1073","<div style=""display: flex; flex-direction: column; align-items: center; margin-top: -40px;""><img src=""images/pattern_7.png"" style=""width: 234px; height: 230px; margin-top: -50px;""><div style=""display: flex; justify-content: space-between; margin-top: 33px;""><img src=""images/choice_trial_10.png"" style=""width: 408px; height: 417px; margin-right: 200px;""><img src=""images/choice_trial_8.png"" style=""width: 408px; height: 417px;""></div></div>","j","delaylearn","learning","trial","63ed0a8a65ddbf9edae99a16","QvOLaMPUoOOt8WAwTW3maZEstqH3","5","images/choice_trial_10.png","images/choice_trial_8.png","images/pattern_7.png","j","j","750","10","8","6","1","23","1","1","8","130","","","","",""
"html-keyboard-response","124","253630","0.0-53.0-1.0","","null","<div style=""display: flex; flex-direction: column; align-items: center; margin-top: -40px;""><img src=""images/pattern_7.png"" style=""width: 234px; height: 230px; margin-top: -50px;""><div style=""display: flex; justify-content: space-between; margin-top: 33px;""><img src=""images/choice_trial_8.png"" style=""width: 408px; height: 417px; margin-left:608px;""></div></div>","null","delaylearn","learning","display_response","63ed0a8a65ddbf9edae99a16","QvOLaMPUoOOt8WAwTW3maZEstqH3","","","","","","","","","","","","","","","","","chosen stimuli: images/choice_trial_8.png","","","",""
"html-keyboard-response","125","254383","0.0-53.0-2.0","","null","","null","delaylearn","learning","feedback_duration_window","63ed0a8a65ddbf9edae99a16","QvOLaMPUoOOt8WAwTW3maZEstqH3","","","","","","","","","","","","","","","","","","750","","",""
"html-keyboard-response","126","255885","0.0-53.0-3.0","","null","<div style='margin:auto;width: auto; font-size: 150%'><span style='font-weight: bold; font-size: 100px; color: green;'>+10 points!</span><br><br></div>","null","delaylearn","learning","feedback_image_window","63ed0a8a65ddbf9edae99a16","QvOLaMPUoOOt8WAwTW3maZEstqH3","","","","","","","","","","","","","","","","","","","","",""
"html-keyboard-response","127","257430","0.0-54.0","","null","<div style=""font-size:100px;"">+</div>","null","delaylearn","learning","ITI","63ed0a8a65ddbf9edae99a16","QvOLaMPUoOOt8WAwTW3maZEstqH3","","","","","","","","","","","","","","","","","","","1529","",""
"html-keyboard-response","128","258936","0.0-55.0-0.0","","1505","<div style=""display: flex; flex-direction: column; align-items: center; margin-top: -40px;""><img src=""images/pattern_1.png"" style=""width: 234px; height: 230px; margin-top: -50px;""><div style=""display: flex; justify-content: space-between; margin-top: 33px;""><img src=""images/choice_trial_15.png"" style=""width: 408px; height: 417px; margin-right: 200px;""><img src=""images/choice_trial_6.png"" style=""width: 408px; height: 417px;""></div></div>","j","delaylearn","learning","trial","63ed0a8a65ddbf9edae99a16","QvOLaMPUoOOt8WAwTW3maZEstqH3","5","images/choice_trial_15.png","images/choice_trial_6.png","images/pattern_1.png","f","j","7000","15","6","1","1","24","1","0","6","130","","","","",""
"html-keyboard-response","129","259946","0.0-55.0-1.0","","null","<div style=""display: flex; flex-direction: column; align-items: center; margin-top: -40px;""><img src=""images/pattern_1.png"" style=""width: 234px; height: 230px; margin-top: -50px;""><div style=""display: flex; justify-content: space-between; margin-top: 33px;""><img src=""images/choice_trial_6.png"" style=""width: 408px; height: 417px; margin-left:608px;""></div></div>","null","delaylearn","learning","display_response","63ed0a8a65ddbf9edae99a16","QvOLaMPUoOOt8WAwTW3maZEstqH3","","","","","","","","","","","","","","","","","chosen stimuli: images/choice_trial_6.png","","","",""
"html-keyboard-response","130","266951","0.0-55.0-2.0","","null","","null","delaylearn","learning","feedback_duration_window","63ed0a8a65ddbf9edae99a16","QvOLaMPUoOOt8WAwTW3maZEstqH3","","","","","","","","","","","","","","","","","","7000","","",""
"html-keyboard-response","131","268468","0.0-55.0-3.0","","null","<div style='margin:auto;width: auto; font-size: 150%'><span style='font-weight: bold; font-size: 100px; color: red;'>0 points!</span><br><br></div>","null","delaylearn","learning","feedback_image_window","63ed0a8a65ddbf9edae99a16","QvOLaMPUoOOt8WAwTW3maZEstqH3","","","","","","","","","","","","","","","","","","","","",""
"html-keyboard-response","132","270433","0.0-56.0","","null","<div style=""font-size:100px;"">+</div>","null","delaylearn","learning","ITI","63ed0a8a65ddbf9edae99a16","QvOLaMPUoOOt8WAwTW3maZEstqH3","","","","","","","","","","","","","","","","","","","1960","",""
"html-keyboard-response","133","272248","0.0-57.0-0.0","","1812","<div style=""display: flex; flex-direction: column; align-items: center; margin-top: -40px;""><img src=""images/pattern_5.png"" style=""width: 234px; height: 230px; margin-top: -50px;""><div style=""display: flex; justify-content: space-between; margin-top: 33px;""><img src=""images/choice_trial_13.png"" style=""width: 408px; height: 417px; margin-right: 200px;""><img src=""images/choice_trial_7.png"" style=""width: 408px; height: 417px;""></div></div>","j","delaylearn","learning","trial","63ed0a8a65ddbf9edae99a16","QvOLaMPUoOOt8WAwTW3maZEstqH3","5","images/choice_trial_13.png","images/choice_trial_7.png","images/pattern_5.png","j","j","750","13","7","4","1","25","1","1","7","140","","","","",""
"html-keyboard-response","134","273262","0.0-57.0-1.0","","null","<div style=""display: flex; flex-direction: column; align-items: center; margin-top: -40px;""><img src=""images/pattern_5.png"" style=""width: 234px; height: 230px; margin-top: -50px;""><div style=""display: flex; justify-content: space-between; margin-top: 33px;""><img src=""images/choice_trial_7.png"" style=""width: 408px; height: 417px; margin-left:608px;""></div></div>","null","delaylearn","learning","display_response","63ed0a8a65ddbf9edae99a16","QvOLaMPUoOOt8WAwTW3maZEstqH3","","","","","","","","","","","","","","","","","chosen stimuli: images/choice_trial_7.png","","","",""
"html-keyboard-response","135","274016","0.0-57.0-2.0","","null","","null","delaylearn","learning","feedback_duration_window","63ed0a8a65ddbf9edae99a16","QvOLaMPUoOOt8WAwTW3maZEstqH3","","","","","","","","","","","","","","","","","","750","","",""
"html-keyboard-response","136","275525","0.0-57.0-3.0","","null","<div style='margin:auto;width: auto; font-size: 150%'><span style='font-weight: bold; font-size: 100px; color: green;'>+10 points!</span><br><br></div>","null","delaylearn","learning","feedback_image_window","63ed0a8a65ddbf9edae99a16","QvOLaMPUoOOt8WAwTW3maZEstqH3","","","","","","","","","","","","","","","","","","","","",""
"html-keyboard-response","137","277249","0.0-58.0","","null","<div style=""font-size:100px;"">+</div>","null","delaylearn","learning","ITI","63ed0a8a65ddbf9edae99a16","QvOLaMPUoOOt8WAwTW3maZEstqH3","","","","","","","","","","","","","","","","","","","1665","",""
"html-keyboard-response","138","278759","0.0-59.0-0.0","","1508","<div style=""display: flex; flex-direction: column; align-items: center; margin-top: -40px;""><img src=""images/pattern_3.png"" style=""width: 234px; height: 230px; margin-top: -50px;""><div style=""display: flex; justify-content: space-between; margin-top: 33px;""><img src=""images/choice_trial_2.png"" style=""width: 408px; height: 417px; margin-right: 200px;""><img src=""images/choice_trial_16.png"" style=""width: 408px; height: 417px;""></div></div>","j","delaylearn","learning","trial","63ed0a8a65ddbf9edae99a16","QvOLaMPUoOOt8WAwTW3maZEstqH3","5","images/choice_trial_2.png","images/choice_trial_16.png","images/pattern_3.png","j","j","7000","2","16","2","1","26","1","1","16","150","","","","",""
"html-keyboard-response","139","279770","0.0-59.0-1.0","","null","<div style=""display: flex; flex-direction: column; align-items: center; margin-top: -40px;""><img src=""images/pattern_3.png"" style=""width: 234px; height: 230px; margin-top: -50px;""><div style=""display: flex; justify-content: space-between; margin-top: 33px;""><img src=""images/choice_trial_16.png"" style=""width: 408px; height: 417px; margin-left:608px;""></div></div>","null","delaylearn","learning","display_response","63ed0a8a65ddbf9edae99a16","QvOLaMPUoOOt8WAwTW3maZEstqH3","","","","","","","","","","","","","","","","","chosen stimuli: images/choice_trial_16.png","","","",""
"html-keyboard-response","140","286784","0.0-59.0-2.0","","null","","null","delaylearn","learning","feedback_duration_window","63ed0a8a65ddbf9edae99a16","QvOLaMPUoOOt8WAwTW3maZEstqH3","","","","","","","","","","","","","","","","","","7000","","",""
"html-keyboard-response","141","288287","0.0-59.0-3.0","","null","<div style='margin:auto;width: auto; font-size: 150%'><span style='font-weight: bold; font-size: 100px; color: green;'>+10 points!</span><br><br></div>","null","delaylearn","learning","feedback_image_window","63ed0a8a65ddbf9edae99a16","QvOLaMPUoOOt8WAwTW3maZEstqH3","","","","","","","","","","","","","","","","","","","","",""
"lmdlab-html-vas-response","142","301662","0.0-60.0-0.0","","11862","*How <b><u>confident</u></b> are you feeling about your answers at this moment?*","0.3595679012345679","rewlearn","rate_confidence","","63ed0a8a65ddbf9edae99a16","QvOLaMPUoOOt8WAwTW3maZEstqH3","","","","","","","","","","","","","","","","","","","","[""No confidence"",""Complete confidence""]",""
"lmdlab-rest-trial-limit","143","317315","0.0-60.0-1.0","","14144","<div style=""font-size:40px;""><b>Please take a break!</b><br><br><br><br><p>Great work: you earned 150 points.<br><br><br><p>You have completed part(s) 1 of 5.<br><br><br><br>When you are ready to continue<br><br><br>please click the button.</p><br><br>","0","delaylearn","learning","break","63ed0a8a65ddbf9edae99a16","QvOLaMPUoOOt8WAwTW3maZEstqH3","","","","","","","","","","","","","","","","","","","","","0"
"html-keyboard-response","144","320317","0.0-60.0-2.0","","null","<div style=""font-size:100px;"">+</div>","null","delaylearn","learning","pre_fixation","63ed0a8a65ddbf9edae99a16","","","","","","","","","","","","","","","","","","","","","",""
"lmdlab-html-vas-response","145","326526","0.0-60.0-3.0-0.0","","5198","How happy are you right now?","0.6512345679012346","delaylearn","learning","mood_baseline","63ed0a8a65ddbf9edae99a16","QvOLaMPUoOOt8WAwTW3maZEstqH3","","","","","","","","","","","","","","","","","","","","[""Very unhappy"",""Very happy""]",""
"html-keyboard-response","146","328028","0.0-60.0-3.0-1.0","","null","","null","","","mood_baseline_fixation","","","","","","","","","","","","","","","","","","","","","","",""
"html-keyboard-response","147","330167","0.0-61.0","","null","<div style=""font-size:100px;"">+</div>","null","delaylearn","learning","ITI","63ed0a8a65ddbf9edae99a16","QvOLaMPUoOOt8WAwTW3maZEstqH3","","","","","","","","","","","","","","","","","","","2135","",""
"html-keyboard-response","148","331268","0.0-62.0-0.0","","1099","<div style=""display: flex; flex-direction: column; align-items: center; margin-top: -40px;""><img src=""images/pattern_7.png"" style=""width: 234px; height: 230px; margin-top: -50px;""><div style=""display: flex; justify-content: space-between; margin-top: 33px;""><img src=""images/choice_trial_10.png"" style=""width: 408px; height: 417px; margin-right: 200px;""><img src=""images/choice_trial_8.png"" style=""width: 408px; height: 417px;""></div></div>","j","delaylearn","learning","trial","63ed0a8a65ddbf9edae99a16","QvOLaMPUoOOt8WAwTW3maZEstqH3","5","images/choice_trial_10.png","images/choice_trial_8.png","images/pattern_7.png","j","j","750","10","8","6","1","27","1","1","8","160","","","","",""
"html-keyboard-response","149","332272","0.0-62.0-1.0","","null","<div style=""display: flex; flex-direction: column; align-items: center; margin-top: -40px;""><img src=""images/pattern_7.png"" style=""width: 234px; height: 230px; margin-top: -50px;""><div style=""display: flex; justify-content: space-between; margin-top: 33px;""><img src=""images/choice_trial_8.png"" style=""width: 408px; height: 417px; margin-left:608px;""></div></div>","null","delaylearn","learning","display_response","63ed0a8a65ddbf9edae99a16","QvOLaMPUoOOt8WAwTW3maZEstqH3","","","","","","","","","","","","","","","","","chosen stimuli: images/choice_trial_8.png","","","",""
"html-keyboard-response","150","333026","0.0-62.0-2.0","","null","","null","delaylearn","learning","feedback_duration_window","63ed0a8a65ddbf9edae99a16","QvOLaMPUoOOt8WAwTW3maZEstqH3","","","","","","","","","","","","","","","","","","750","","",""
"html-keyboard-response","151","334541","0.0-62.0-3.0","","null","<div style='margin:auto;width: auto; font-size: 150%'><span style='font-weight: bold; font-size: 100px; color: green;'>+10 points!</span><br><br></div>","null","delaylearn","learning","feedback_image_window","63ed0a8a65ddbf9edae99a16","QvOLaMPUoOOt8WAwTW3maZEstqH3","","","","","","","","","","","","","","","","","","","","",""
"html-keyboard-response","152","335047","0.0-63.0-0.0","","null","","null","","","mood_trial_fixation","","","","","","","","","","","","","","","","","","","","","","",""
"lmdlab-html-vas-response","153","339185","0.0-63.0-1.0","","3126","How happy are you right now?","0.7098765432098766","delaylearn","learning","mood_trial","63ed0a8a65ddbf9edae99a16","QvOLaMPUoOOt8WAwTW3maZEstqH3","","","","","","","","","","","","","","","","","","","","[""Very unhappy"",""Very happy""]",""
"html-keyboard-response","154","341256","0.0-64.0","","null","<div style=""font-size:100px;"">+</div>","null","delaylearn","learning","ITI","63ed0a8a65ddbf9edae99a16","QvOLaMPUoOOt8WAwTW3maZEstqH3","","","","","","","","","","","","","","","","","","","2063","",""
"html-keyboard-response","155","342532","0.0-65.0-0.0","","1274","<div style=""display: flex; flex-direction: column; align-items: center; margin-top: -40px;""><img src=""images/pattern_1.png"" style=""width: 234px; height: 230px; margin-top: -50px;""><div style=""display: flex; justify-content: space-between; margin-top: 33px;""><img src=""images/choice_trial_6.png"" style=""width: 408px; height: 417px; margin-right: 200px;""><img src=""images/choice_trial_15.png"" style=""width: 408px; height: 417px;""></div></div>","f","delaylearn","learning","trial","63ed0a8a65ddbf9edae99a16","QvOLaMPUoOOt8WAwTW3maZEstqH3","5","images/choice_trial_6.png","images/choice_trial_15.png","images/pattern_1.png","f","f","7000","6","15","1","0","28","1","1","6","170","","","","",""
"html-keyboard-response","156","343539","0.0-65.0-1.0","","null","<div style=""display: flex; flex-direction: column; align-items: center; margin-top: -40px;""><img src=""images/pattern_1.png"" style=""width: 234px; height: 230px; margin-top: -50px;""><div style=""display: flex; justify-content: space-between; margin-top: 33px;""><img src=""images/choice_trial_6.png"" style=""width: 408px; height: 417px; margin-right: 608px;""></div></div>","null","delaylearn","learning","display_response","63ed0a8a65ddbf9edae99a16","QvOLaMPUoOOt8WAwTW3maZEstqH3","","","","","","","","","","","","","","","","","chosen stimuli: images/choice_trial_6.png","","","",""
"html-keyboard-response","157","350543","0.0-65.0-2.0","","null","","null","delaylearn","learning","feedback_duration_window","63ed0a8a65ddbf9edae99a16","QvOLaMPUoOOt8WAwTW3maZEstqH3","","","","","","","","","","","","","","","","","","7000","","",""
"html-keyboard-response","158","352059","0.0-65.0-3.0","","null","<div style='margin:auto;width: auto; font-size: 150%'><span style='font-weight: bold; font-size: 100px; color: green;'>+10 points!</span><br><br></div>","null","delaylearn","learning","feedback_image_window","63ed0a8a65ddbf9edae99a16","QvOLaMPUoOOt8WAwTW3maZEstqH3","","","","","","","","","","","","","","","","","","","","",""
"html-keyboard-response","159","353735","0.0-66.0","","null","<div style=""font-size:100px;"">+</div>","null","delaylearn","learning","ITI","63ed0a8a65ddbf9edae99a16","QvOLaMPUoOOt8WAwTW3maZEstqH3","","","","","","","","","","","","","","","","","","","1666","",""
"html-keyboard-response","160","354727","0.0-67.0-0.0","","989","<div style=""display: flex; flex-direction: column; align-items: center; margin-top: -40px;""><img src=""images/pattern_5.png"" style=""width: 234px; height: 230px; margin-top: -50px;""><div style=""display: flex; justify-content: space-between; margin-top: 33px;""><img src=""images/choice_trial_7.png"" style=""width: 408px; height: 417px; margin-right: 200px;""><img src=""images/choice_trial_13.png"" style=""width: 408px; height: 417px;""></div></div>","f","delaylearn","learning","trial","63ed0a8a65ddbf9edae99a16","QvOLaMPUoOOt8WAwTW3maZEstqH3","5","images/choice_trial_7.png","images/choice_trial_13.png","images/pattern_5.png","f","f","750","7","13","4","0","29","1","1","7","180","","","","",""
"html-keyboard-response","161","355738","0.0-67.0-1.0","","null","<div style=""display: flex; flex-direction: column; align-items: center; margin-top: -40px;""><img src=""images/pattern_5.png"" style=""width: 234px; height: 230px; margin-top: -50px;""><div style=""display: flex; justify-content: space-between; margin-top: 33px;""><img src=""images/choice_trial_7.png"" style=""width: 408px; height: 417px; margin-right: 608px;""></div></div>","null","delaylearn","learning","display_response","63ed0a8a65ddbf9edae99a16","QvOLaMPUoOOt8WAwTW3maZEstqH3","","","","","","","","","","","","","","","","","chosen stimuli: images/choice_trial_7.png","","","",""
"html-keyboard-response","162","356496","0.0-67.0-2.0","","null","","null","delaylearn","learning","feedback_duration_window","63ed0a8a65ddbf9edae99a16","QvOLaMPUoOOt8WAwTW3maZEstqH3","","","","","","","","","","","","","","","","","","750","","",""
"html-keyboard-response","163","358013","0.0-67.0-3.0","","null","<div style='margin:auto;width: auto; font-size: 150%'><span style='font-weight: bold; font-size: 100px; color: green;'>+10 points!</span><br><br></div>","null","delaylearn","learning","feedback_image_window","63ed0a8a65ddbf9edae99a16","QvOLaMPUoOOt8WAwTW3maZEstqH3","","","","","","","","","","","","","","","","","","","","",""
"html-keyboard-response","164","360496","0.0-68.0","","null","<div style=""font-size:100px;"">+</div>","null","delaylearn","learning","ITI","63ed0a8a65ddbf9edae99a16","QvOLaMPUoOOt8WAwTW3maZEstqH3","","","","","","","","","","","","","","","","","","","2469","",""
"html-keyboard-response","165","362016","0.0-69.0-0.0","","1518","<div style=""display: flex; flex-direction: column; align-items: center; margin-top: -40px;""><img src=""images/pattern_6.png"" style=""width: 234px; height: 230px; margin-top: -50px;""><div style=""display: flex; justify-content: space-between; margin-top: 33px;""><img src=""images/choice_trial_9.png"" style=""width: 408px; height: 417px; margin-right: 200px;""><img src=""images/choice_trial_14.png"" style=""width: 408px; height: 417px;""></div></div>","j","delaylearn","learning","trial","63ed0a8a65ddbf9edae99a16","QvOLaMPUoOOt8WAwTW3maZEstqH3","5","images/choice_trial_9.png","images/choice_trial_14.png","images/pattern_6.png","j","j","750","9","14","5","1","30","1","1","14","190","","","","",""
"html-keyboard-response","166","363021","0.0-69.0-1.0","","null","<div style=""display: flex; flex-direction: column; align-items: center; margin-top: -40px;""><img src=""images/pattern_6.png"" style=""width: 234px; height: 230px; margin-top: -50px;""><div style=""display: flex; justify-content: space-between; margin-top: 33px;""><img src=""images/choice_trial_14.png"" style=""width: 408px; height: 417px; margin-left:608px;""></div></div>","null","delaylearn","learning","display_response","63ed0a8a65ddbf9edae99a16","QvOLaMPUoOOt8WAwTW3maZEstqH3","","","","","","","","","","","","","","","","","chosen stimuli: images/choice_trial_14.png","","","",""
"html-keyboard-response","167","363778","0.0-69.0-2.0","","null","","null","delaylearn","learning","feedback_duration_window","63ed0a8a65ddbf9edae99a16","QvOLaMPUoOOt8WAwTW3maZEstqH3","","","","","","","","","","","","","","","","","","750","","",""
"html-keyboard-response","168","365283","0.0-69.0-3.0","","null","<div style='margin:auto;width: auto; font-size: 150%'><span style='font-weight: bold; font-size: 100px; color: green;'>+10 points!</span><br><br></div>","null","delaylearn","learning","feedback_image_window","63ed0a8a65ddbf9edae99a16","QvOLaMPUoOOt8WAwTW3maZEstqH3","","","","","","","","","","","","","","","","","","","","",""
"html-keyboard-response","169","365789","0.0-70.0-0.0","","null","","null","","","mood_trial_fixation","","","","","","","","","","","","","","","","","","","","","","",""
"lmdlab-html-vas-response","170","369897","0.0-70.0-1.0","","3100","How happy are you right now?","0.7731481481481481","delaylearn","learning","mood_trial","63ed0a8a65ddbf9edae99a16","QvOLaMPUoOOt8WAwTW3maZEstqH3","","","","","","","","","","","","","","","","","","","","[""Very unhappy"",""Very happy""]",""
"html-keyboard-response","171","371879","0.0-71.0","","null","<div style=""font-size:100px;"">+</div>","null","delaylearn","learning","ITI","63ed0a8a65ddbf9edae99a16","QvOLaMPUoOOt8WAwTW3maZEstqH3","","","","","","","","","","","","","","","","","","","1978","",""
"html-keyboard-response","172","372998","0.0-72.0-0.0","","1116","<div style=""display: flex; flex-direction: column; align-items: center; margin-top: -40px;""><img src=""images/pattern_4.png"" style=""width: 234px; height: 230px; margin-top: -50px;""><div style=""display: flex; justify-content: space-between; margin-top: 33px;""><img src=""images/choice_trial_4.png"" style=""width: 408px; height: 417px; margin-right: 200px;""><img src=""images/choice_trial_11.png"" style=""width: 408px; height: 417px;""></div></div>","j","delaylearn","learning","trial","63ed0a8a65ddbf9edae99a16","QvOLaMPUoOOt8WAwTW3maZEstqH3","5","images/choice_trial_4.png","images/choice_trial_11.png","images/pattern_4.png","j","j","7000","4","11","3","1","31","1","1","11","200","","","","",""
"html-keyboard-response","173","374003","0.0-72.0-1.0","","null","<div style=""display: flex; flex-direction: column; align-items: center; margin-top: -40px;""><img src=""images/pattern_4.png"" style=""width: 234px; height: 230px; margin-top: -50px;""><div style=""display: flex; justify-content: space-between; margin-top: 33px;""><img src=""images/choice_trial_11.png"" style=""width: 408px; height: 417px; margin-left:608px;""></div></div>","null","delaylearn","learning","display_response","63ed0a8a65ddbf9edae99a16","QvOLaMPUoOOt8WAwTW3maZEstqH3","","","","","","","","","","","","","","","","","chosen stimuli: images/choice_trial_11.png","","","",""
"html-keyboard-response","174","381010","0.0-72.0-2.0","","null","","null","delaylearn","learning","feedback_duration_window","63ed0a8a65ddbf9edae99a16","QvOLaMPUoOOt8WAwTW3maZEstqH3","","","","","","","","","","","","","","","","","","7000","","",""
"html-keyboard-response","175","382517","0.0-72.0-3.0","","null","<div style='margin:auto;width: auto; font-size: 150%'><span style='font-weight: bold; font-size: 100px; color: green;'>+10 points!</span><br><br></div>","null","delaylearn","learning","feedback_image_window","63ed0a8a65ddbf9edae99a16","QvOLaMPUoOOt8WAwTW3maZEstqH3","","","","","","","","","","","","","","","","","","","","",""
"html-keyboard-response","176","384569","0.0-73.0","","null","<div style=""font-size:100px;"">+</div>","null","delaylearn","learning","ITI","63ed0a8a65ddbf9edae99a16","QvOLaMPUoOOt8WAwTW3maZEstqH3","","","","","","","","","","","","","","","","","","","2042","",""
"html-keyboard-response","177","385286","0.0-74.0-0.0","","714","<div style=""display: flex; flex-direction: column; align-items: center; margin-top: -40px;""><img src=""images/pattern_3.png"" style=""width: 234px; height: 230px; margin-top: -50px;""><div style=""display: flex; justify-content: space-between; margin-top: 33px;""><img src=""images/choice_trial_2.png"" style=""width: 408px; height: 417px; margin-right: 200px;""><img src=""images/choice_trial_16.png"" style=""width: 408px; height: 417px;""></div></div>","j","delaylearn","learning","trial","63ed0a8a65ddbf9edae99a16","QvOLaMPUoOOt8WAwTW3maZEstqH3","5","images/choice_trial_2.png","images/choice_trial_16.png","images/pattern_3.png","j","j","7000","2","16","2","1","32","1","1","16","210","","","","",""
"html-keyboard-response","178","386298","0.0-74.0-1.0","","null","<div style=""display: flex; flex-direction: column; align-items: center; margin-top: -40px;""><img src=""images/pattern_3.png"" style=""width: 234px; height: 230px; margin-top: -50px;""><div style=""display: flex; justify-content: space-between; margin-top: 33px;""><img src=""images/choice_trial_16.png"" style=""width: 408px; height: 417px; margin-left:608px;""></div></div>","null","delaylearn","learning","display_response","63ed0a8a65ddbf9edae99a16","QvOLaMPUoOOt8WAwTW3maZEstqH3","","","","","","","","","","","","","","","","","chosen stimuli: images/choice_trial_16.png","","","",""
"html-keyboard-response","179","393303","0.0-74.0-2.0","","null","","null","delaylearn","learning","feedback_duration_window","63ed0a8a65ddbf9edae99a16","QvOLaMPUoOOt8WAwTW3maZEstqH3","","","","","","","","","","","","","","","","","","7000","","",""
"html-keyboard-response","180","394819","0.0-74.0-3.0","","null","<div style='margin:auto;width: auto; font-size: 150%'><span style='font-weight: bold; font-size: 100px; color: green;'>+10 points!</span><br><br></div>","null","delaylearn","learning","feedback_image_window","63ed0a8a65ddbf9edae99a16","QvOLaMPUoOOt8WAwTW3maZEstqH3","","","","","","","","","","","","","","","","","","","","",""
"html-keyboard-response","181","396627","0.0-75.0","","null","<div style=""font-size:100px;"">+</div>","null","delaylearn","learning","ITI","63ed0a8a65ddbf9edae99a16","QvOLaMPUoOOt8WAwTW3maZEstqH3","","","","","","","","","","","","","","","","","","","1800","",""
"html-keyboard-response","182","397489","0.0-76.0-0.0","","859","<div style=""display: flex; flex-direction: column; align-items: center; margin-top: -40px;""><img src=""images/pattern_5.png"" style=""width: 234px; height: 230px; margin-top: -50px;""><div style=""display: flex; justify-content: space-between; margin-top: 33px;""><img src=""images/choice_trial_7.png"" style=""width: 408px; height: 417px; margin-right: 200px;""><img src=""images/choice_trial_13.png"" style=""width: 408px; height: 417px;""></div></div>","f","delaylearn","learning","trial","63ed0a8a65ddbf9edae99a16","QvOLaMPUoOOt8WAwTW3maZEstqH3","5","images/choice_trial_7.png","images/choice_trial_13.png","images/pattern_5.png","j","f","750","7","13","4","0","33","1","0","7","210","","","","",""
"html-keyboard-response","183","398492","0.0-76.0-1.0","","null","<div style=""display: flex; flex-direction: column; align-items: center; margin-top: -40px;""><img src=""images/pattern_5.png"" style=""width: 234px; height: 230px; margin-top: -50px;""><div style=""display: flex; justify-content: space-between; margin-top: 33px;""><img src=""images/choice_trial_7.png"" style=""width: 408px; height: 417px; margin-right: 608px;""></div></div>","null","delaylearn","learning","display_response","63ed0a8a65ddbf9edae99a16","QvOLaMPUoOOt8WAwTW3maZEstqH3","","","","","","","","","","","","","","","","","chosen stimuli: images/choice_trial_7.png","","","",""
"html-keyboard-response","184","399268","0.0-76.0-2.0","","null","","null","delaylearn","learning","feedback_duration_window","63ed0a8a65ddbf9edae99a16","QvOLaMPUoOOt8WAwTW3maZEstqH3","","","","","","","","","","","","","","","","","","750","","",""
"html-keyboard-response","185","400780","0.0-76.0-3.0","","null","<div style='margin:auto;width: auto; font-size: 150%'><span style='font-weight: bold; font-size: 100px; color: red;'>0 points!</span><br><br></div>","null","delaylearn","learning","feedback_image_window","63ed0a8a65ddbf9edae99a16","QvOLaMPUoOOt8WAwTW3maZEstqH3","","","","","","","","","","","","","","","","","","","","",""
"html-keyboard-response","186","402554","0.0-77.0","","null","<div style=""font-size:100px;"">+</div>","null","delaylearn","learning","ITI","63ed0a8a65ddbf9edae99a16","QvOLaMPUoOOt8WAwTW3maZEstqH3","","","","","","","","","","","","","","","","","","","1764","",""
"html-keyboard-response","187","403413","0.0-78.0-0.0","","856","<div style=""display: flex; flex-direction: column; align-items: center; margin-top: -40px;""><img src=""images/pattern_1.png"" style=""width: 234px; height: 230px; margin-top: -50px;""><div style=""display: flex; justify-content: space-between; margin-top: 33px;""><img src=""images/choice_trial_6.png"" style=""width: 408px; height: 417px; margin-right: 200px;""><img src=""images/choice_trial_15.png"" style=""width: 408px; height: 417px;""></div></div>","f","delaylearn","learning","trial","63ed0a8a65ddbf9edae99a16","QvOLaMPUoOOt8WAwTW3maZEstqH3","5","images/choice_trial_6.png","images/choice_trial_15.png","images/pattern_1.png","f","f","7000","6","15","1","0","34","1","1","6","220","","","","",""
"html-keyboard-response","188","404421","0.0-78.0-1.0","","null","<div style=""display: flex; flex-direction: column; align-items: center; margin-top: -40px;""><img src=""images/pattern_1.png"" style=""width: 234px; height: 230px; margin-top: -50px;""><div style=""display: flex; justify-content: space-between; margin-top: 33px;""><img src=""images/choice_trial_6.png"" style=""width: 408px; height: 417px; margin-right: 608px;""></div></div>","null","delaylearn","learning","display_response","63ed0a8a65ddbf9edae99a16","QvOLaMPUoOOt8WAwTW3maZEstqH3","","","","","","","","","","","","","","","","","chosen stimuli: images/choice_trial_6.png","","","",""
"html-keyboard-response","189","411436","0.0-78.0-2.0","","null","","null","delaylearn","learning","feedback_duration_window","63ed0a8a65ddbf9edae99a16","QvOLaMPUoOOt8WAwTW3maZEstqH3","","","","","","","","","","","","","","","","","","7000","","",""
"html-keyboard-response","190","412946","0.0-78.0-3.0","","null","<div style='margin:auto;width: auto; font-size: 150%'><span style='font-weight: bold; font-size: 100px; color: green;'>+10 points!</span><br><br></div>","null","delaylearn","learning","feedback_image_window","63ed0a8a65ddbf9edae99a16","QvOLaMPUoOOt8WAwTW3maZEstqH3","","","","","","","","","","","","","","","","","","","","",""
"html-keyboard-response","191","413448","0.0-79.0-0.0","","null","","null","","","mood_trial_fixation","","","","","","","","","","","","","","","","","","","","","","",""
"lmdlab-html-vas-response","192","418691","0.0-79.0-1.0","","4227","How happy are you right now?","0.7314814814814815","delaylearn","learning","mood_trial","63ed0a8a65ddbf9edae99a16","QvOLaMPUoOOt8WAwTW3maZEstqH3","","","","","","","","","","","","","","","","","","","","[""Very unhappy"",""Very happy""]",""
"html-keyboard-response","193","421093","0.0-80.0","","null","<div style=""font-size:100px;"">+</div>","null","delaylearn","learning","ITI","63ed0a8a65ddbf9edae99a16","QvOLaMPUoOOt8WAwTW3maZEstqH3","","","","","","","","","","","","","","","","","","","2401","",""
"html-keyboard-response","194","422204","0.0-81.0-0.0","","1108","<div style=""display: flex; flex-direction: column; align-items: center; margin-top: -40px;""><img src=""images/pattern_6.png"" style=""width: 234px; height: 230px; margin-top: -50px;""><div style=""display: flex; justify-content: space-between; margin-top: 33px;""><img src=""images/choice_trial_14.png"" style=""width: 408px; height: 417px; margin-right: 200px;""><img src=""images/choice_trial_9.png"" style=""width: 408px; height: 417px;""></div></div>","f","delaylearn","learning","trial","63ed0a8a65ddbf9edae99a16","QvOLaMPUoOOt8WAwTW3maZEstqH3","5","images/choice_trial_14.png","images/choice_trial_9.png","images/pattern_6.png","j","f","750","14","9","5","0","35","1","0","14","220","","","","",""
"html-keyboard-response","195","423219","0.0-81.0-1.0","","null","<div style=""display: flex; flex-direction: column; align-items: center; margin-top: -40px;""><img src=""images/pattern_6.png"" style=""width: 234px; height: 230px; margin-top: -50px;""><div style=""display: flex; justify-content: space-between; margin-top: 33px;""><img src=""images/choice_trial_14.png"" style=""width: 408px; height: 417px; margin-right: 608px;""></div></div>","null","delaylearn","learning","display_response","63ed0a8a65ddbf9edae99a16","QvOLaMPUoOOt8WAwTW3maZEstqH3","","","","","","","","","","","","","","","","","chosen stimuli: images/choice_trial_14.png","","","",""
"html-keyboard-response","196","423979","0.0-81.0-2.0","","null","","null","delaylearn","learning","feedback_duration_window","63ed0a8a65ddbf9edae99a16","QvOLaMPUoOOt8WAwTW3maZEstqH3","","","","","","","","","","","","","","","","","","750","","",""
"html-keyboard-response","197","425491","0.0-81.0-3.0","","null","<div style='margin:auto;width: auto; font-size: 150%'><span style='font-weight: bold; font-size: 100px; color: red;'>0 points!</span><br><br></div>","null","delaylearn","learning","feedback_image_window","63ed0a8a65ddbf9edae99a16","QvOLaMPUoOOt8WAwTW3maZEstqH3","","","","","","","","","","","","","","","","","","","","",""
"html-keyboard-response","198","427665","0.0-82.0","","null","<div style=""font-size:100px;"">+</div>","null","delaylearn","learning","ITI","63ed0a8a65ddbf9edae99a16","QvOLaMPUoOOt8WAwTW3maZEstqH3","","","","","","","","","","","","","","","","","","","2168","",""
"html-keyboard-response","199","428368","0.0-83.0-0.0","","701","<div style=""display: flex; flex-direction: column; align-items: center; margin-top: -40px;""><img src=""images/pattern_3.png"" style=""width: 234px; height: 230px; margin-top: -50px;""><div style=""display: flex; justify-content: space-between; margin-top: 33px;""><img src=""images/choice_trial_2.png"" style=""width: 408px; height: 417px; margin-right: 200px;""><img src=""images/choice_trial_16.png"" style=""width: 408px; height: 417px;""></div></div>","j","delaylearn","learning","trial","63ed0a8a65ddbf9edae99a16","QvOLaMPUoOOt8WAwTW3maZEstqH3","5","images/choice_trial_2.png","images/choice_trial_16.png","images/pattern_3.png","j","j","7000","2","16","2","1","36","1","1","16","230","","","","",""
"html-keyboard-response","200","429383","0.0-83.0-1.0","","null","<div style=""display: flex; flex-direction: column; align-items: center; margin-top: -40px;""><img src=""images/pattern_3.png"" style=""width: 234px; height: 230px; margin-top: -50px;""><div style=""display: flex; justify-content: space-between; margin-top: 33px;""><img src=""images/choice_trial_16.png"" style=""width: 408px; height: 417px; margin-left:608px;""></div></div>","null","delaylearn","learning","display_response","63ed0a8a65ddbf9edae99a16","QvOLaMPUoOOt8WAwTW3maZEstqH3","","","","","","","","","","","","","","","","","chosen stimuli: images/choice_trial_16.png","","","",""
"html-keyboard-response","201","436389","0.0-83.0-2.0","","null","","null","delaylearn","learning","feedback_duration_window","63ed0a8a65ddbf9edae99a16","QvOLaMPUoOOt8WAwTW3maZEstqH3","","","","","","","","","","","","","","","","","","7000","","",""
"html-keyboard-response","202","437914","0.0-83.0-3.0","","null","<div style='margin:auto;width: auto; font-size: 150%'><span style='font-weight: bold; font-size: 100px; color: green;'>+10 points!</span><br><br></div>","null","delaylearn","learning","feedback_image_window","63ed0a8a65ddbf9edae99a16","QvOLaMPUoOOt8WAwTW3maZEstqH3","","","","","","","","","","","","","","","","","","","","",""
"html-keyboard-response","203","440260","0.0-84.0","","null","<div style=""font-size:100px;"">+</div>","null","delaylearn","learning","ITI","63ed0a8a65ddbf9edae99a16","QvOLaMPUoOOt8WAwTW3maZEstqH3","","","","","","","","","","","","","","","","","","","2331","",""
"html-keyboard-response","204","440979","0.0-85.0-0.0","","716","<div style=""display: flex; flex-direction: column; align-items: center; margin-top: -40px;""><img src=""images/pattern_4.png"" style=""width: 234px; height: 230px; margin-top: -50px;""><div style=""display: flex; justify-content: space-between; margin-top: 33px;""><img src=""images/choice_trial_4.png"" style=""width: 408px; height: 417px; margin-right: 200px;""><img src=""images/choice_trial_11.png"" style=""width: 408px; height: 417px;""></div></div>","j","delaylearn","learning","trial","63ed0a8a65ddbf9edae99a16","QvOLaMPUoOOt8WAwTW3maZEstqH3","5","images/choice_trial_4.png","images/choice_trial_11.png","images/pattern_4.png","f","j","7000","4","11","3","1","37","1","0","11","230","","","","",""
"html-keyboard-response","205","441991","0.0-85.0-1.0","","null","<div style=""display: flex; flex-direction: column; align-items: center; margin-top: -40px;""><img src=""images/pattern_4.png"" style=""width: 234px; height: 230px; margin-top: -50px;""><div style=""display: flex; justify-content: space-between; margin-top: 33px;""><img src=""images/choice_trial_11.png"" style=""width: 408px; height: 417px; margin-left:608px;""></div></div>","null","delaylearn","learning","display_response","63ed0a8a65ddbf9edae99a16","QvOLaMPUoOOt8WAwTW3maZEstqH3","","","","","","","","","","","","","","","","","chosen stimuli: images/choice_trial_11.png","","","",""
"html-keyboard-response","206","448999","0.0-85.0-2.0","","null","","null","delaylearn","learning","feedback_duration_window","63ed0a8a65ddbf9edae99a16","QvOLaMPUoOOt8WAwTW3maZEstqH3","","","","","","","","","","","","","","","","","","7000","","",""
"html-keyboard-response","207","450505","0.0-85.0-3.0","","null","<div style='margin:auto;width: auto; font-size: 150%'><span style='font-weight: bold; font-size: 100px; color: red;'>0 points!</span><br><br></div>","null","delaylearn","learning","feedback_image_window","63ed0a8a65ddbf9edae99a16","QvOLaMPUoOOt8WAwTW3maZEstqH3","","","","","","","","","","","","","","","","","","","","",""
"html-keyboard-response","208","452875","0.0-86.0","","null","<div style=""font-size:100px;"">+</div>","null","delaylearn","learning","ITI","63ed0a8a65ddbf9edae99a16","QvOLaMPUoOOt8WAwTW3maZEstqH3","","","","","","","","","","","","","","","","","","","2357","",""
"html-keyboard-response","209","454378","0.0-87.0-0.0","","1501","<div style=""display: flex; flex-direction: column; align-items: center; margin-top: -40px;""><img src=""images/pattern_7.png"" style=""width: 234px; height: 230px; margin-top: -50px;""><div style=""display: flex; justify-content: space-between; margin-top: 33px;""><img src=""images/choice_trial_8.png"" style=""width: 408px; height: 417px; margin-right: 200px;""><img src=""images/choice_trial_10.png"" style=""width: 408px; height: 417px;""></div></div>","f","delaylearn","learning","trial","63ed0a8a65ddbf9edae99a16","QvOLaMPUoOOt8WAwTW3maZEstqH3","5","images/choice_trial_8.png","images/choice_trial_10.png","images/pattern_7.png","f","f","750","8","10","6","0","38","1","1","8","240","","","","",""
"html-keyboard-response","210","455387","0.0-87.0-1.0","","null","<div style=""display: flex; flex-direction: column; align-items: center; margin-top: -40px;""><img src=""images/pattern_7.png"" style=""width: 234px; height: 230px; margin-top: -50px;""><div style=""display: flex; justify-content: space-between; margin-top: 33px;""><img src=""images/choice_trial_8.png"" style=""width: 408px; height: 417px; margin-right: 608px;""></div></div>","null","delaylearn","learning","display_response","63ed0a8a65ddbf9edae99a16","QvOLaMPUoOOt8WAwTW3maZEstqH3","","","","","","","","","","","","","","","","","chosen stimuli: images/choice_trial_8.png","","","",""
"html-keyboard-response","211","456143","0.0-87.0-2.0","","null","","null","delaylearn","learning","feedback_duration_window","63ed0a8a65ddbf9edae99a16","QvOLaMPUoOOt8WAwTW3maZEstqH3","","","","","","","","","","","","","","","","","","750","","",""
"html-keyboard-response","212","457648","0.0-87.0-3.0","","null","<div style='margin:auto;width: auto; font-size: 150%'><span style='font-weight: bold; font-size: 100px; color: green;'>+10 points!</span><br><br></div>","null","delaylearn","learning","feedback_image_window","63ed0a8a65ddbf9edae99a16","QvOLaMPUoOOt8WAwTW3maZEstqH3","","","","","","","","","","","","","","","","","","","","",""
"html-keyboard-response","213","459967","0.0-88.0","","null","<div style=""font-size:100px;"">+</div>","null","delaylearn","learning","ITI","63ed0a8a65ddbf9edae99a16","QvOLaMPUoOOt8WAwTW3maZEstqH3","","","","","","","","","","","","","","","","","","","2310","",""
"html-keyboard-response","214","461046","0.0-89.0-0.0","","1075","<div style=""display: flex; flex-direction: column; align-items: center; margin-top: -40px;""><img src=""images/pattern_1.png"" style=""width: 234px; height: 230px; margin-top: -50px;""><div style=""display: flex; justify-content: space-between; margin-top: 33px;""><img src=""images/choice_trial_6.png"" style=""width: 408px; height: 417px; margin-right: 200px;""><img src=""images/choice_trial_15.png"" style=""width: 408px; height: 417px;""></div></div>","f","delaylearn","learning","trial","63ed0a8a65ddbf9edae99a16","QvOLaMPUoOOt8WAwTW3maZEstqH3","5","images/choice_trial_6.png","images/choice_trial_15.png","images/pattern_1.png","f","f","7000","6","15","1","0","39","1","1","6","250","","","","",""
"html-keyboard-response","215","462059","0.0-89.0-1.0","","null","<div style=""display: flex; flex-direction: column; align-items: center; margin-top: -40px;""><img src=""images/pattern_1.png"" style=""width: 234px; height: 230px; margin-top: -50px;""><div style=""display: flex; justify-content: space-between; margin-top: 33px;""><img src=""images/choice_trial_6.png"" style=""width: 408px; height: 417px; margin-right: 608px;""></div></div>","null","delaylearn","learning","display_response","63ed0a8a65ddbf9edae99a16","QvOLaMPUoOOt8WAwTW3maZEstqH3","","","","","","","","","","","","","","","","","chosen stimuli: images/choice_trial_6.png","","","",""
"html-keyboard-response","216","469143","0.0-89.0-2.0","","null","","null","delaylearn","learning","feedback_duration_window","63ed0a8a65ddbf9edae99a16","QvOLaMPUoOOt8WAwTW3maZEstqH3","","","","","","","","","","","","","","","","","","7000","","",""
"html-keyboard-response","217","470644","0.0-89.0-3.0","","null","<div style='margin:auto;width: auto; font-size: 150%'><span style='font-weight: bold; font-size: 100px; color: green;'>+10 points!</span><br><br></div>","null","delaylearn","learning","feedback_image_window","63ed0a8a65ddbf9edae99a16","QvOLaMPUoOOt8WAwTW3maZEstqH3","","","","","","","","","","","","","","","","","","","","",""
"html-keyboard-response","218","471151","0.0-90.0-0.0","","null","","null","","","mood_trial_fixation","","","","","","","","","","","","","","","","","","","","","","",""
"lmdlab-html-vas-response","219","479270","0.0-90.0-1.0","","7105","How happy are you right now?","0.6851851851851852","delaylearn","learning","mood_trial","63ed0a8a65ddbf9edae99a16","QvOLaMPUoOOt8WAwTW3maZEstqH3","","","","","","","","","","","","","","","","","","","","[""Very unhappy"",""Very happy""]",""
"html-keyboard-response","220","481447","0.0-91.0","","null","<div style=""font-size:100px;"">+</div>","null","delaylearn","learning","ITI","63ed0a8a65ddbf9edae99a16","QvOLaMPUoOOt8WAwTW3maZEstqH3","","","","","","","","","","","","","","","","","","","2091","",""
