"trial_type","trial_index","time_elapsed","internal_node_id","participant","rt","stimulus","response","exp_name","exp_stage","test_part","subjectID","databaseID","counterbal","choice_stimuli_1","choice_stimuli_2","pattern_stimuli","rewarded_answer","correct_answer","feedback_duration_times","stim_left","stim_right","pair","leftright_counter","trial","response_correct","response_rewarded","chosen_stim","counter","displayed_choice","feedback_durations","ITI_duration","labels","rest_warning"
"pavlovia","0","624","0.0-0.0","","","","","","","","","","","","","","","","","","","","","","","","","","","","","",""
"html-keyboard-response","1","3628","0.0-1.0","","null","<div style=""font-size:100px;"">+</div>","null","delaylearn","learning","pre_fixation","5f0cfeef098f1e53ff201909","","","","","","","","","","","","","","","","","","","","","",""
"html-keyboard-response","2","4878","0.0-2.0-0.0","","1247.3999999910593","<div style=""display: flex; flex-direction: column; align-items: center; margin-top: -40px;""><img src=""images/demo_images/pattern_1.png"" style=""width: 234px; height: 230px; margin-top: -50px;""><div style=""display: flex; justify-content: space-between; margin-top: 33px;""><img src=""images/demo_images/choice_trial_2.png"" style=""width: 408px; height: 417px; margin-right: 200px;""><img src=""images/demo_images/choice_trial_1.png"" style=""width: 408px; height: 417px;""></div></div>","f","delaylearn","learning","trial","5f0cfeef098f1e53ff201909","FjNaKAYjjDNuzXwE7oPjxNAsE133","3","images/demo_images/choice_trial_2.png","images/demo_images/choice_trial_1.png","images/demo_images/pattern_1.png","j","j","3000","2","1","20","1","1","0","0","2","0","","","","",""
"html-keyboard-response","3","5883","0.0-2.0-1.0","","null","<div style=""display: flex; flex-direction: column; align-items: center; margin-top: -40px;""><img src=""images/demo_images/pattern_1.png"" style=""width: 234px; height: 230px; margin-top: -50px;""><div style=""display: flex; justify-content: space-between; margin-top: 33px;""><img src=""images/demo_images/choice_trial_2.png"" style=""width: 408px; height: 417px; margin-right: 608px;""></div></div>","null","delaylearn","learning","display_response","5f0cfeef098f1e53ff201909","FjNaKAYjjDNuzXwE7oPjxNAsE133","","","","","","","","","","","","","","","","","chosen stimuli: images/demo_images/choice_trial_2.png","","","",""
"html-keyboard-response","4","8890","0.0-2.0-2.0","","null","","null","delaylearn","learning","feedback_duration_window","5f0cfeef098f1e53ff201909","FjNaKAYjjDNuzXwE7oPjxNAsE133","","","","","","","","","","","","","","","","","","3000","","",""
"html-keyboard-response","5","10399","0.0-2.0-3.0","","null","<div style='margin:auto;width: auto; font-size: 150%'><span style='font-weight: bold; font-size: 100px; color: red;'>0 points!</span><br><br></div>","null","delaylearn","learning","feedback_image_window","5f0cfeef098f1e53ff201909","FjNaKAYjjDNuzXwE7oPjxNAsE133","","","","","","","","","","","","","","","","","","","","",""
"html-keyboard-response","6","12887","0.0-3.0","","null","<div style=""font-size:100px;"">+</div>","null","delaylearn","learning","ITI","5f0cfeef098f1e53ff201909","FjNaKAYjjDNuzXwE7oPjxNAsE133","","","","","","","","","","","","","","","","","","","2480","",""
"html-keyboard-response","7","13721","0.0-4.0-0.0","","830.7000000029802","<div style=""display: flex; flex-direction: column; align-items: center; margin-top: -40px;""><img src=""images/demo_images/pattern_1.png"" style=""width: 234px; height: 230px; margin-top: -50px;""><div style=""display: flex; justify-content: space-between; margin-top: 33px;""><img src=""images/demo_images/choice_trial_2.png"" style=""width: 408px; height: 417px; margin-right: 200px;""><img src=""images/demo_images/choice_trial_1.png"" style=""width: 408px; height: 417px;""></div></div>","j","delaylearn","learning","trial","5f0cfeef098f1e53ff201909","FjNaKAYjjDNuzXwE7oPjxNAsE133","3","images/demo_images/choice_trial_2.png","images/demo_images/choice_trial_1.png","images/demo_images/pattern_1.png","j","j","3000","2","1","20","1","2","1","1","1","10","","","","",""
"html-keyboard-response","8","14735","0.0-4.0-1.0","","null","<div style=""display: flex; flex-direction: column; align-items: center; margin-top: -40px;""><img src=""images/demo_images/pattern_1.png"" style=""width: 234px; height: 230px; margin-top: -50px;""><div style=""display: flex; justify-content: space-between; margin-top: 33px;""><img src=""images/demo_images/choice_trial_1.png"" style=""width: 408px; height: 417px; margin-left:608px;""></div></div>","null","delaylearn","learning","display_response","5f0cfeef098f1e53ff201909","FjNaKAYjjDNuzXwE7oPjxNAsE133","","","","","","","","","","","","","","","","","chosen stimuli: images/demo_images/choice_trial_1.png","","","",""
"html-keyboard-response","9","17742","0.0-4.0-2.0","","null","","null","delaylearn","learning","feedback_duration_window","5f0cfeef098f1e53ff201909","FjNaKAYjjDNuzXwE7oPjxNAsE133","","","","","","","","","","","","","","","","","","3000","","",""
"html-keyboard-response","10","19251","0.0-4.0-3.0","","null","<div style='margin:auto;width: auto; font-size: 150%'><span style='font-weight: bold; font-size: 100px; color: green;'>+10 points!</span><br><br></div>","null","delaylearn","learning","feedback_image_window","5f0cfeef098f1e53ff201909","FjNaKAYjjDNuzXwE7oPjxNAsE133","","","","","","","","","","","","","","","","","","","","",""
"html-keyboard-response","11","21299","0.0-5.0","","null","<div style=""font-size:100px;"">+</div>","null","delaylearn","learning","ITI","5f0cfeef098f1e53ff201909","FjNaKAYjjDNuzXwE7oPjxNAsE133","","","","","","","","","","","","","","","","","","","2039","",""
"html-keyboard-response","12","22525","0.0-6.0-0.0","","1223.5999999940395","<div style=""display: flex; flex-direction: column; align-items: center; margin-top: -40px;""><img src=""images/demo_images/pattern_1.png"" style=""width: 234px; height: 230px; margin-top: -50px;""><div style=""display: flex; justify-content: space-between; margin-top: 33px;""><img src=""images/demo_images/choice_trial_1.png"" style=""width: 408px; height: 417px; margin-right: 200px;""><img src=""images/demo_images/choice_trial_2.png"" style=""width: 408px; height: 417px;""></div></div>","f","delaylearn","learning","trial","5f0cfeef098f1e53ff201909","FjNaKAYjjDNuzXwE7oPjxNAsE133","3","images/demo_images/choice_trial_1.png","images/demo_images/choice_trial_2.png","images/demo_images/pattern_1.png","j","f","3000","1","2","20","0","3","1","0","1","10","","","","",""
"html-keyboard-response","13","23531","0.0-6.0-1.0","","null","<div style=""display: flex; flex-direction: column; align-items: center; margin-top: -40px;""><img src=""images/demo_images/pattern_1.png"" style=""width: 234px; height: 230px; margin-top: -50px;""><div style=""display: flex; justify-content: space-between; margin-top: 33px;""><img src=""images/demo_images/choice_trial_1.png"" style=""width: 408px; height: 417px; margin-right: 608px;""></div></div>","null","delaylearn","learning","display_response","5f0cfeef098f1e53ff201909","FjNaKAYjjDNuzXwE7oPjxNAsE133","","","","","","","","","","","","","","","","","chosen stimuli: images/demo_images/choice_trial_1.png","","","",""
"html-keyboard-response","14","26540","0.0-6.0-2.0","","null","","null","delaylearn","learning","feedback_duration_window","5f0cfeef098f1e53ff201909","FjNaKAYjjDNuzXwE7oPjxNAsE133","","","","","","","","","","","","","","","","","","3000","","",""
"html-keyboard-response","15","28044","0.0-6.0-3.0","","null","<div style='margin:auto;width: auto; font-size: 150%'><span style='font-weight: bold; font-size: 100px; color: red;'>0 points!</span><br><br></div>","null","delaylearn","learning","feedback_image_window","5f0cfeef098f1e53ff201909","FjNaKAYjjDNuzXwE7oPjxNAsE133","","","","","","","","","","","","","","","","","","","","",""
"html-keyboard-response","16","30208","0.0-7.0","","null","<div style=""font-size:100px;"">+</div>","null","delaylearn","learning","ITI","5f0cfeef098f1e53ff201909","FjNaKAYjjDNuzXwE7oPjxNAsE133","","","","","","","","","","","","","","","","","","","2155","",""
"html-keyboard-response","17","31666","0.0-8.0-0.0","","1456.7000000029802","<div style=""display: flex; flex-direction: column; align-items: center; margin-top: -40px;""><img src=""images/demo_images/pattern_1.png"" style=""width: 234px; height: 230px; margin-top: -50px;""><div style=""display: flex; justify-content: space-between; margin-top: 33px;""><img src=""images/demo_images/choice_trial_1.png"" style=""width: 408px; height: 417px; margin-right: 200px;""><img src=""images/demo_images/choice_trial_2.png"" style=""width: 408px; height: 417px;""></div></div>","f","delaylearn","learning","trial","5f0cfeef098f1e53ff201909","FjNaKAYjjDNuzXwE7oPjxNAsE133","3","images/demo_images/choice_trial_1.png","images/demo_images/choice_trial_2.png","images/demo_images/pattern_1.png","f","f","3000","1","2","20","0","4","1","1","1","20","","","","",""
"html-keyboard-response","18","32677","0.0-8.0-1.0","","null","<div style=""display: flex; flex-direction: column; align-items: center; margin-top: -40px;""><img src=""images/demo_images/pattern_1.png"" style=""width: 234px; height: 230px; margin-top: -50px;""><div style=""display: flex; justify-content: space-between; margin-top: 33px;""><img src=""images/demo_images/choice_trial_1.png"" style=""width: 408px; height: 417px; margin-right: 608px;""></div></div>","null","delaylearn","learning","display_response","5f0cfeef098f1e53ff201909","FjNaKAYjjDNuzXwE7oPjxNAsE133","","","","","","","","","","","","","","","","","chosen stimuli: images/demo_images/choice_trial_1.png","","","",""
"html-keyboard-response","19","35687","0.0-8.0-2.0","","null","","null","delaylearn","learning","feedback_duration_window","5f0cfeef098f1e53ff201909","FjNaKAYjjDNuzXwE7oPjxNAsE133","","","","","","","","","","","","","","","","","","3000","","",""
"html-keyboard-response","20","37199","0.0-8.0-3.0","","null","<div style='margin:auto;width: auto; font-size: 150%'><span style='font-weight: bold; font-size: 100px; color: green;'>+10 points!</span><br><br></div>","null","delaylearn","learning","feedback_image_window","5f0cfeef098f1e53ff201909","FjNaKAYjjDNuzXwE7oPjxNAsE133","","","","","","","","","","","","","","","","","","","","",""
"html-keyboard-response","21","37702","0.0-9.0-0.0","","null","","null","","","mood_trial_fixation","","","","","","","","","","","","","","","","","","","","","","",""
"lmdlab-html-vas-response","22","41856","0.0-9.0-1.0","","3141","How happy are you right now?","0.7537326388888889","delaylearn","learning","mood_trial","5f0cfeef098f1e53ff201909","FjNaKAYjjDNuzXwE7oPjxNAsE133","","","","","","","","","","","","","","","","","","","","[""Very unhappy"",""Very happy""]",""
"html-keyboard-response","23","44008","0.0-10.0","","null","<div style=""font-size:100px;"">+</div>","null","delaylearn","learning","ITI","5f0cfeef098f1e53ff201909","FjNaKAYjjDNuzXwE7oPjxNAsE133","","","","","","","","","","","","","","","","","","","2144","",""
"html-keyboard-response","24","45535","0.0-11.0-0.0","","1524.5","<div style=""display: flex; flex-direction: column; align-items: center; margin-top: -40px;""><img src=""images/demo_images/pattern_1.png"" style=""width: 234px; height: 230px; margin-top: -50px;""><div style=""display: flex; justify-content: space-between; margin-top: 33px;""><img src=""images/demo_images/choice_trial_2.png"" style=""width: 408px; height: 417px; margin-right: 200px;""><img src=""images/demo_images/choice_trial_1.png"" style=""width: 408px; height: 417px;""></div></div>","f","delaylearn","learning","trial","5f0cfeef098f1e53ff201909","FjNaKAYjjDNuzXwE7oPjxNAsE133","3","images/demo_images/choice_trial_2.png","images/demo_images/choice_trial_1.png","images/demo_images/pattern_1.png","j","j","3000","2","1","20","1","5","0","0","2","20","","","","",""
"html-keyboard-response","25","46541","0.0-11.0-1.0","","null","<div style=""display: flex; flex-direction: column; align-items: center; margin-top: -40px;""><img src=""images/demo_images/pattern_1.png"" style=""width: 234px; height: 230px; margin-top: -50px;""><div style=""display: flex; justify-content: space-between; margin-top: 33px;""><img src=""images/demo_images/choice_trial_2.png"" style=""width: 408px; height: 417px; margin-right: 608px;""></div></div>","null","delaylearn","learning","display_response","5f0cfeef098f1e53ff201909","FjNaKAYjjDNuzXwE7oPjxNAsE133","","","","","","","","","","","","","","","","","chosen stimuli: images/demo_images/choice_trial_2.png","","","",""
"html-keyboard-response","26","49552","0.0-11.0-2.0","","null","","null","delaylearn","learning","feedback_duration_window","5f0cfeef098f1e53ff201909","FjNaKAYjjDNuzXwE7oPjxNAsE133","","","","","","","","","","","","","","","","","","3000","","",""
"html-keyboard-response","27","51060","0.0-11.0-3.0","","null","<div style='margin:auto;width: auto; font-size: 150%'><span style='font-weight: bold; font-size: 100px; color: red;'>0 points!</span><br><br></div>","null","delaylearn","learning","feedback_image_window","5f0cfeef098f1e53ff201909","FjNaKAYjjDNuzXwE7oPjxNAsE133","","","","","","","","","","","","","","","","","","","","",""
"html-keyboard-response","28","53020","0.0-12.0","","null","<div style=""font-size:100px;"">+</div>","null","delaylearn","learning","ITI","5f0cfeef098f1e53ff201909","FjNaKAYjjDNuzXwE7oPjxNAsE133","","","","","","","","","","","","","","","","","","","1953","",""
"html-keyboard-response","29","54694","0.0-13.0-0.0","","1672.0999999940395","<div style=""display: flex; flex-direction: column; align-items: center; margin-top: -40px;""><img src=""images/demo_images/pattern_1.png"" style=""width: 234px; height: 230px; margin-top: -50px;""><div style=""display: flex; justify-content: space-between; margin-top: 33px;""><img src=""images/demo_images/choice_trial_1.png"" style=""width: 408px; height: 417px; margin-right: 200px;""><img src=""images/demo_images/choice_trial_2.png"" style=""width: 408px; height: 417px;""></div></div>","f","delaylearn","learning","trial","5f0cfeef098f1e53ff201909","FjNaKAYjjDNuzXwE7oPjxNAsE133","3","images/demo_images/choice_trial_1.png","images/demo_images/choice_trial_2.png","images/demo_images/pattern_1.png","f","f","3000","1","2","20","0","6","1","1","1","30","","","","",""
"html-keyboard-response","30","55705","0.0-13.0-1.0","","null","<div style=""display: flex; flex-direction: column; align-items: center; margin-top: -40px;""><img src=""images/demo_images/pattern_1.png"" style=""width: 234px; height: 230px; margin-top: -50px;""><div style=""display: flex; justify-content: space-between; margin-top: 33px;""><img src=""images/demo_images/choice_trial_1.png"" style=""width: 408px; height: 417px; margin-right: 608px;""></div></div>","null","delaylearn","learning","display_response","5f0cfeef098f1e53ff201909","FjNaKAYjjDNuzXwE7oPjxNAsE133","","","","","","","","","","","","","","","","","chosen stimuli: images/demo_images/choice_trial_1.png","","","",""
"html-keyboard-response","31","58710","0.0-13.0-2.0","","null","","null","delaylearn","learning","feedback_duration_window","5f0cfeef098f1e53ff201909","FjNaKAYjjDNuzXwE7oPjxNAsE133","","","","","","","","","","","","","","","","","","3000","","",""
"html-keyboard-response","32","60216","0.0-13.0-3.0","","null","<div style='margin:auto;width: auto; font-size: 150%'><span style='font-weight: bold; font-size: 100px; color: green;'>+10 points!</span><br><br></div>","null","delaylearn","learning","feedback_image_window","5f0cfeef098f1e53ff201909","FjNaKAYjjDNuzXwE7oPjxNAsE133","","","","","","","","","","","","","","","","","","","","",""
"html-keyboard-response","33","62192","0.0-14.0","","null","<div style=""font-size:100px;"">+</div>","null","delaylearn","learning","ITI","5f0cfeef098f1e53ff201909","FjNaKAYjjDNuzXwE7oPjxNAsE133","","","","","","","","","","","","","","","","","","","1969","",""
"html-keyboard-response","34","64083","0.0-15.0-0.0","","1888.0999999940395","<div style=""display: flex; flex-direction: column; align-items: center; margin-top: -40px;""><img src=""images/demo_images/pattern_1.png"" style=""width: 234px; height: 230px; margin-top: -50px;""><div style=""display: flex; justify-content: space-between; margin-top: 33px;""><img src=""images/demo_images/choice_trial_2.png"" style=""width: 408px; height: 417px; margin-right: 200px;""><img src=""images/demo_images/choice_trial_1.png"" style=""width: 408px; height: 417px;""></div></div>","j","delaylearn","learning","trial","5f0cfeef098f1e53ff201909","FjNaKAYjjDNuzXwE7oPjxNAsE133","3","images/demo_images/choice_trial_2.png","images/demo_images/choice_trial_1.png","images/demo_images/pattern_1.png","j","j","3000","2","1","20","1","7","1","1","1","40","","","","",""
"html-keyboard-response","35","65096","0.0-15.0-1.0","","null","<div style=""display: flex; flex-direction: column; align-items: center; margin-top: -40px;""><img src=""images/demo_images/pattern_1.png"" style=""width: 234px; height: 230px; margin-top: -50px;""><div style=""display: flex; justify-content: space-between; margin-top: 33px;""><img src=""images/demo_images/choice_trial_1.png"" style=""width: 408px; height: 417px; margin-left:608px;""></div></div>","null","delaylearn","learning","display_response","5f0cfeef098f1e53ff201909","FjNaKAYjjDNuzXwE7oPjxNAsE133","","","","","","","","","","","","","","","","","chosen stimuli: images/demo_images/choice_trial_1.png","","","",""
"html-keyboard-response","36","68100","0.0-15.0-2.0","","null","","null","delaylearn","learning","feedback_duration_window","5f0cfeef098f1e53ff201909","FjNaKAYjjDNuzXwE7oPjxNAsE133","","","","","","","","","","","","","","","","","","3000","","",""
"html-keyboard-response","37","69605","0.0-15.0-3.0","","null","<div style='margin:auto;width: auto; font-size: 150%'><span style='font-weight: bold; font-size: 100px; color: green;'>+10 points!</span><br><br></div>","null","delaylearn","learning","feedback_image_window","5f0cfeef098f1e53ff201909","FjNaKAYjjDNuzXwE7oPjxNAsE133","","","","","","","","","","","","","","","","","","","","",""
"html-keyboard-response","38","71319","0.0-16.0","","null","<div style=""font-size:100px;"">+</div>","null","delaylearn","learning","ITI","5f0cfeef098f1e53ff201909","FjNaKAYjjDNuzXwE7oPjxNAsE133","","","","","","","","","","","","","","","","","","","1703","",""
"html-keyboard-response","39","72887","0.0-17.0-0.0","","1565.5","<div style=""display: flex; flex-direction: column; align-items: center; margin-top: -40px;""><img src=""images/demo_images/pattern_1.png"" style=""width: 234px; height: 230px; margin-top: -50px;""><div style=""display: flex; justify-content: space-between; margin-top: 33px;""><img src=""images/demo_images/choice_trial_1.png"" style=""width: 408px; height: 417px; margin-right: 200px;""><img src=""images/demo_images/choice_trial_2.png"" style=""width: 408px; height: 417px;""></div></div>","f","delaylearn","learning","trial","5f0cfeef098f1e53ff201909","FjNaKAYjjDNuzXwE7oPjxNAsE133","3","images/demo_images/choice_trial_1.png","images/demo_images/choice_trial_2.png","images/demo_images/pattern_1.png","f","f","3000","1","2","20","0","8","1","1","1","50","","","","",""
"html-keyboard-response","40","73897","0.0-17.0-1.0","","null","<div style=""display: flex; flex-direction: column; align-items: center; margin-top: -40px;""><img src=""images/demo_images/pattern_1.png"" style=""width: 234px; height: 230px; margin-top: -50px;""><div style=""display: flex; justify-content: space-between; margin-top: 33px;""><img src=""images/demo_images/choice_trial_1.png"" style=""width: 408px; height: 417px; margin-right: 608px;""></div></div>","null","delaylearn","learning","display_response","5f0cfeef098f1e53ff201909","FjNaKAYjjDNuzXwE7oPjxNAsE133","","","","","","","","","","","","","","","","","chosen stimuli: images/demo_images/choice_trial_1.png","","","",""
"html-keyboard-response","41","76905","0.0-17.0-2.0","","null","","null","delaylearn","learning","feedback_duration_window","5f0cfeef098f1e53ff201909","FjNaKAYjjDNuzXwE7oPjxNAsE133","","","","","","","","","","","","","","","","","","3000","","",""
"html-keyboard-response","42","78413","0.0-17.0-3.0","","null","<div style='margin:auto;width: auto; font-size: 150%'><span style='font-weight: bold; font-size: 100px; color: green;'>+10 points!</span><br><br></div>","null","delaylearn","learning","feedback_image_window","5f0cfeef098f1e53ff201909","FjNaKAYjjDNuzXwE7oPjxNAsE133","","","","","","","","","","","","","","","","","","","","",""
"html-button-response","43","82120","0.0-18.0","","3705.0999999940395","
  <div style=""display: flex; align-items: center; justify-content: center; height: 80vh;"">
  <div>
          <img src=""images/inst_demo_finish.png"" style=""width: 80vw; height:auto;"">
          <br><br>
      </div>
      <br><br>
  </div>","0","","","","","","","","","","","","","","","","","","","","","","","","","",""
"html-keyboard-response","44","85042","0.0-19.0","","2920.0999999940395","
  <div style=""display: flex; align-items: center; justify-content: center; height: 80vh;"">
  <div>
          <img src=""images/inst_6.png"" style=""width: 80vw; height:auto;"">
          <br><br>
      </div>
      <br><br>
  </div>","j","","","","","","","","","","","","","","","","","","","","","","","","","",""
"html-keyboard-response","45","88048","0.0-20.0","","null","<div style=""font-size:100px;"">+</div>","null","delaylearn","learning","pre_fixation","5f0cfeef098f1e53ff201909","","","","","","","","","","","","","","","","","","","","","",""
"html-keyboard-response","46","89864","0.0-21.0","","null","<div style=""font-size:100px;"">+</div>","null","delaylearn","learning","ITI","5f0cfeef098f1e53ff201909","FjNaKAYjjDNuzXwE7oPjxNAsE133","","","","","","","","","","","","","","","","","","","1803","",""
"html-keyboard-response","47","91463","0.0-22.0-0.0","","1596.5999999940395","<div style=""display: flex; flex-direction: column; align-items: center; margin-top: -40px;""><img src=""images/pattern_3.png"" style=""width: 234px; height: 230px; margin-top: -50px;""><div style=""display: flex; justify-content: space-between; margin-top: 33px;""><img src=""images/choice_trial_13.png"" style=""width: 408px; height: 417px; margin-right: 200px;""><img src=""images/choice_trial_10.png"" style=""width: 408px; height: 417px;""></div></div>","j","delaylearn","learning","trial","5f0cfeef098f1e53ff201909","FjNaKAYjjDNuzXwE7oPjxNAsE133","3","images/choice_trial_13.png","images/choice_trial_10.png","images/pattern_3.png","f","f","7000","13","10","2","0","9","0","0","10","50","","","","",""
"html-keyboard-response","48","92471","0.0-22.0-1.0","","null","<div style=""display: flex; flex-direction: column; align-items: center; margin-top: -40px;""><img src=""images/pattern_3.png"" style=""width: 234px; height: 230px; margin-top: -50px;""><div style=""display: flex; justify-content: space-between; margin-top: 33px;""><img src=""images/choice_trial_10.png"" style=""width: 408px; height: 417px; margin-left:608px;""></div></div>","null","delaylearn","learning","display_response","5f0cfeef098f1e53ff201909","FjNaKAYjjDNuzXwE7oPjxNAsE133","","","","","","","","","","","","","","","","","chosen stimuli: images/choice_trial_10.png","","","",""
"html-keyboard-response","49","99482","0.0-22.0-2.0","","null","","null","delaylearn","learning","feedback_duration_window","5f0cfeef098f1e53ff201909","FjNaKAYjjDNuzXwE7oPjxNAsE133","","","","","","","","","","","","","","","","","","7000","","",""
"html-keyboard-response","50","100991","0.0-22.0-3.0","","null","<div style='margin:auto;width: auto; font-size: 150%'><span style='font-weight: bold; font-size: 100px; color: red;'>0 points!</span><br><br></div>","null","delaylearn","learning","feedback_image_window","5f0cfeef098f1e53ff201909","FjNaKAYjjDNuzXwE7oPjxNAsE133","","","","","","","","","","","","","","","","","","","","",""
"html-keyboard-response","51","103310","0.0-23.0","","null","<div style=""font-size:100px;"">+</div>","null","delaylearn","learning","ITI","5f0cfeef098f1e53ff201909","FjNaKAYjjDNuzXwE7oPjxNAsE133","","","","","","","","","","","","","","","","","","","2314","",""
"html-keyboard-response","52","105298","0.0-24.0-0.0","","1985.7000000029802","<div style=""display: flex; flex-direction: column; align-items: center; margin-top: -40px;""><img src=""images/pattern_7.png"" style=""width: 234px; height: 230px; margin-top: -50px;""><div style=""display: flex; justify-content: space-between; margin-top: 33px;""><img src=""images/choice_trial_12.png"" style=""width: 408px; height: 417px; margin-right: 200px;""><img src=""images/choice_trial_6.png"" style=""width: 408px; height: 417px;""></div></div>","j","delaylearn","learning","trial","5f0cfeef098f1e53ff201909","FjNaKAYjjDNuzXwE7oPjxNAsE133","3","images/choice_trial_12.png","images/choice_trial_6.png","images/pattern_7.png","j","j","750","12","6","6","1","10","1","1","6","60","","","","",""
"html-keyboard-response","53","106302","0.0-24.0-1.0","","null","<div style=""display: flex; flex-direction: column; align-items: center; margin-top: -40px;""><img src=""images/pattern_7.png"" style=""width: 234px; height: 230px; margin-top: -50px;""><div style=""display: flex; justify-content: space-between; margin-top: 33px;""><img src=""images/choice_trial_6.png"" style=""width: 408px; height: 417px; margin-left:608px;""></div></div>","null","delaylearn","learning","display_response","5f0cfeef098f1e53ff201909","FjNaKAYjjDNuzXwE7oPjxNAsE133","","","","","","","","","","","","","","","","","chosen stimuli: images/choice_trial_6.png","","","",""
"html-keyboard-response","54","107061","0.0-24.0-2.0","","null","","null","delaylearn","learning","feedback_duration_window","5f0cfeef098f1e53ff201909","FjNaKAYjjDNuzXwE7oPjxNAsE133","","","","","","","","","","","","","","","","","","750","","",""
"html-keyboard-response","55","108567","0.0-24.0-3.0","","null","<div style='margin:auto;width: auto; font-size: 150%'><span style='font-weight: bold; font-size: 100px; color: green;'>+10 points!</span><br><br></div>","null","delaylearn","learning","feedback_image_window","5f0cfeef098f1e53ff201909","FjNaKAYjjDNuzXwE7oPjxNAsE133","","","","","","","","","","","","","","","","","","","","",""
"html-keyboard-response","56","111053","0.0-25.0","","null","<div style=""font-size:100px;"">+</div>","null","delaylearn","learning","ITI","5f0cfeef098f1e53ff201909","FjNaKAYjjDNuzXwE7oPjxNAsE133","","","","","","","","","","","","","","","","","","","2480","",""
"html-keyboard-response","57","112880","0.0-26.0-0.0","","1824.7000000029802","<div style=""display: flex; flex-direction: column; align-items: center; margin-top: -40px;""><img src=""images/pattern_4.png"" style=""width: 234px; height: 230px; margin-top: -50px;""><div style=""display: flex; justify-content: space-between; margin-top: 33px;""><img src=""images/choice_trial_15.png"" style=""width: 408px; height: 417px; margin-right: 200px;""><img src=""images/choice_trial_9.png"" style=""width: 408px; height: 417px;""></div></div>","f","delaylearn","learning","trial","5f0cfeef098f1e53ff201909","FjNaKAYjjDNuzXwE7oPjxNAsE133","3","images/choice_trial_15.png","images/choice_trial_9.png","images/pattern_4.png","f","f","7000","15","9","3","0","11","1","1","15","70","","","","",""
"html-keyboard-response","58","113885","0.0-26.0-1.0","","null","<div style=""display: flex; flex-direction: column; align-items: center; margin-top: -40px;""><img src=""images/pattern_4.png"" style=""width: 234px; height: 230px; margin-top: -50px;""><div style=""display: flex; justify-content: space-between; margin-top: 33px;""><img src=""images/choice_trial_15.png"" style=""width: 408px; height: 417px; margin-right: 608px;""></div></div>","null","delaylearn","learning","display_response","5f0cfeef098f1e53ff201909","FjNaKAYjjDNuzXwE7oPjxNAsE133","","","","","","","","","","","","","","","","","chosen stimuli: images/choice_trial_15.png","","","",""
"html-keyboard-response","59","120897","0.0-26.0-2.0","","null","","null","delaylearn","learning","feedback_duration_window","5f0cfeef098f1e53ff201909","FjNaKAYjjDNuzXwE7oPjxNAsE133","","","","","","","","","","","","","","","","","","7000","","",""
"html-keyboard-response","60","122411","0.0-26.0-3.0","","null","<div style='margin:auto;width: auto; font-size: 150%'><span style='font-weight: bold; font-size: 100px; color: green;'>+10 points!</span><br><br></div>","null","delaylearn","learning","feedback_image_window","5f0cfeef098f1e53ff201909","FjNaKAYjjDNuzXwE7oPjxNAsE133","","","","","","","","","","","","","","","","","","","","",""
"html-keyboard-response","61","124249","0.0-27.0","","null","<div style=""font-size:100px;"">+</div>","null","delaylearn","learning","ITI","5f0cfeef098f1e53ff201909","FjNaKAYjjDNuzXwE7oPjxNAsE133","","","","","","","","","","","","","","","","","","","1828","",""
"html-keyboard-response","62","127002","0.0-28.0-0.0","","2750.300000011921","<div style=""display: flex; flex-direction: column; align-items: center; margin-top: -40px;""><img src=""images/pattern_5.png"" style=""width: 234px; height: 230px; margin-top: -50px;""><div style=""display: flex; justify-content: space-between; margin-top: 33px;""><img src=""images/choice_trial_2.png"" style=""width: 408px; height: 417px; margin-right: 200px;""><img src=""images/choice_trial_11.png"" style=""width: 408px; height: 417px;""></div></div>","f","delaylearn","learning","trial","5f0cfeef098f1e53ff201909","FjNaKAYjjDNuzXwE7oPjxNAsE133","3","images/choice_trial_2.png","images/choice_trial_11.png","images/pattern_5.png","j","j","750","2","11","4","1","12","0","0","2","70","","","","",""
"html-keyboard-response","63","128007","0.0-28.0-1.0","","null","<div style=""display: flex; flex-direction: column; align-items: center; margin-top: -40px;""><img src=""images/pattern_5.png"" style=""width: 234px; height: 230px; margin-top: -50px;""><div style=""display: flex; justify-content: space-between; margin-top: 33px;""><img src=""images/choice_trial_2.png"" style=""width: 408px; height: 417px; margin-right: 608px;""></div></div>","null","delaylearn","learning","display_response","5f0cfeef098f1e53ff201909","FjNaKAYjjDNuzXwE7oPjxNAsE133","","","","","","","","","","","","","","","","","chosen stimuli: images/choice_trial_2.png","","","",""
"html-keyboard-response","64","128769","0.0-28.0-2.0","","null","","null","delaylearn","learning","feedback_duration_window","5f0cfeef098f1e53ff201909","FjNaKAYjjDNuzXwE7oPjxNAsE133","","","","","","","","","","","","","","","","","","750","","",""
"html-keyboard-response","65","130280","0.0-28.0-3.0","","null","<div style='margin:auto;width: auto; font-size: 150%'><span style='font-weight: bold; font-size: 100px; color: red;'>0 points!</span><br><br></div>","null","delaylearn","learning","feedback_image_window","5f0cfeef098f1e53ff201909","FjNaKAYjjDNuzXwE7oPjxNAsE133","","","","","","","","","","","","","","","","","","","","",""
"html-keyboard-response","66","131790","0.0-29.0","","null","<div style=""font-size:100px;"">+</div>","null","delaylearn","learning","ITI","5f0cfeef098f1e53ff201909","FjNaKAYjjDNuzXwE7oPjxNAsE133","","","","","","","","","","","","","","","","","","","1507","",""
"html-keyboard-response","67","134418","0.0-30.0-0.0","","2625.3999999910593","<div style=""display: flex; flex-direction: column; align-items: center; margin-top: -40px;""><img src=""images/pattern_6.png"" style=""width: 234px; height: 230px; margin-top: -50px;""><div style=""display: flex; justify-content: space-between; margin-top: 33px;""><img src=""images/choice_trial_16.png"" style=""width: 408px; height: 417px; margin-right: 200px;""><img src=""images/choice_trial_3.png"" style=""width: 408px; height: 417px;""></div></div>","f","delaylearn","learning","trial","5f0cfeef098f1e53ff201909","FjNaKAYjjDNuzXwE7oPjxNAsE133","3","images/choice_trial_16.png","images/choice_trial_3.png","images/pattern_6.png","j","f","750","16","3","5","0","13","1","0","16","70","","","","",""
"html-keyboard-response","68","135424","0.0-30.0-1.0","","null","<div style=""display: flex; flex-direction: column; align-items: center; margin-top: -40px;""><img src=""images/pattern_6.png"" style=""width: 234px; height: 230px; margin-top: -50px;""><div style=""display: flex; justify-content: space-between; margin-top: 33px;""><img src=""images/choice_trial_16.png"" style=""width: 408px; height: 417px; margin-right: 608px;""></div></div>","null","delaylearn","learning","display_response","5f0cfeef098f1e53ff201909","FjNaKAYjjDNuzXwE7oPjxNAsE133","","","","","","","","","","","","","","","","","chosen stimuli: images/choice_trial_16.png","","","",""
"html-keyboard-response","69","136186","0.0-30.0-2.0","","null","","null","delaylearn","learning","feedback_duration_window","5f0cfeef098f1e53ff201909","FjNaKAYjjDNuzXwE7oPjxNAsE133","","","","","","","","","","","","","","","","","","750","","",""
"html-keyboard-response","70","137698","0.0-30.0-3.0","","null","<div style='margin:auto;width: auto; font-size: 150%'><span style='font-weight: bold; font-size: 100px; color: red;'>0 points!</span><br><br></div>","null","delaylearn","learning","feedback_image_window","5f0cfeef098f1e53ff201909","FjNaKAYjjDNuzXwE7oPjxNAsE133","","","","","","","","","","","","","","","","","","","","",""
"html-keyboard-response","71","138206","0.0-31.0-0.0","","null","","null","","","mood_trial_fixation","","","","","","","","","","","","","","","","","","","","","","",""
"lmdlab-html-vas-response","72","142512","0.0-31.0-1.0","","3291","How happy are you right now?","0.7555844907407407","delaylearn","learning","mood_trial","5f0cfeef098f1e53ff201909","FjNaKAYjjDNuzXwE7oPjxNAsE133","","","","","","","","","","","","","","","","","","","","[""Very unhappy"",""Very happy""]",""
"html-keyboard-response","73","144599","0.0-32.0","","null","<div style=""font-size:100px;"">+</div>","null","delaylearn","learning","ITI","5f0cfeef098f1e53ff201909","FjNaKAYjjDNuzXwE7oPjxNAsE133","","","","","","","","","","","","","","","","","","","2079","",""
"html-keyboard-response","74","146503","0.0-33.0-0.0","","1901.3999999910593","<div style=""display: flex; flex-direction: column; align-items: center; margin-top: -40px;""><img src=""images/pattern_1.png"" style=""width: 234px; height: 230px; margin-top: -50px;""><div style=""display: flex; justify-content: space-between; margin-top: 33px;""><img src=""images/choice_trial_8.png"" style=""width: 408px; height: 417px; margin-right: 200px;""><img src=""images/choice_trial_14.png"" style=""width: 408px; height: 417px;""></div></div>","j","delaylearn","learning","trial","5f0cfeef098f1e53ff201909","FjNaKAYjjDNuzXwE7oPjxNAsE133","3","images/choice_trial_8.png","images/choice_trial_14.png","images/pattern_1.png","j","j","7000","8","14","1","1","14","1","1","14","80","","","","",""
"html-keyboard-response","75","147508","0.0-33.0-1.0","","null","<div style=""display: flex; flex-direction: column; align-items: center; margin-top: -40px;""><img src=""images/pattern_1.png"" style=""width: 234px; height: 230px; margin-top: -50px;""><div style=""display: flex; justify-content: space-between; margin-top: 33px;""><img src=""images/choice_trial_14.png"" style=""width: 408px; height: 417px; margin-left:608px;""></div></div>","null","delaylearn","learning","display_response","5f0cfeef098f1e53ff201909","FjNaKAYjjDNuzXwE7oPjxNAsE133","","","","","","","","","","","","","","","","","chosen stimuli: images/choice_trial_14.png","","","",""
"html-keyboard-response","76","154516","0.0-33.0-2.0","","null","","null","delaylearn","learning","feedback_duration_window","5f0cfeef098f1e53ff201909","FjNaKAYjjDNuzXwE7oPjxNAsE133","","","","","","","","","","","","","","","","","","7000","","",""
"html-keyboard-response","77","156022","0.0-33.0-3.0","","null","<div style='margin:auto;width: auto; font-size: 150%'><span style='font-weight: bold; font-size: 100px; color: green;'>+10 points!</span><br><br></div>","null","delaylearn","learning","feedback_image_window","5f0cfeef098f1e53ff201909","FjNaKAYjjDNuzXwE7oPjxNAsE133","","","","","","","","","","","","","","","","","","","","",""
"html-keyboard-response","78","158363","0.0-34.0","","null","<div style=""font-size:100px;"">+</div>","null","delaylearn","learning","ITI","5f0cfeef098f1e53ff201909","FjNaKAYjjDNuzXwE7oPjxNAsE133","","","","","","","","","","","","","","","","","","","2333","",""
"html-keyboard-response","79","160251","0.0-35.0-0.0","","1886.4000000059605","<div style=""display: flex; flex-direction: column; align-items: center; margin-top: -40px;""><img src=""images/pattern_3.png"" style=""width: 234px; height: 230px; margin-top: -50px;""><div style=""display: flex; justify-content: space-between; margin-top: 33px;""><img src=""images/choice_trial_10.png"" style=""width: 408px; height: 417px; margin-right: 200px;""><img src=""images/choice_trial_13.png"" style=""width: 408px; height: 417px;""></div></div>","j","delaylearn","learning","trial","5f0cfeef098f1e53ff201909","FjNaKAYjjDNuzXwE7oPjxNAsE133","3","images/choice_trial_10.png","images/choice_trial_13.png","images/pattern_3.png","f","j","7000","10","13","2","1","15","1","0","13","80","","","","",""
"html-keyboard-response","80","161255","0.0-35.0-1.0","","null","<div style=""display: flex; flex-direction: column; align-items: center; margin-top: -40px;""><img src=""images/pattern_3.png"" style=""width: 234px; height: 230px; margin-top: -50px;""><div style=""display: flex; justify-content: space-between; margin-top: 33px;""><img src=""images/choice_trial_13.png"" style=""width: 408px; height: 417px; margin-left:608px;""></div></div>","null","delaylearn","learning","display_response","5f0cfeef098f1e53ff201909","FjNaKAYjjDNuzXwE7oPjxNAsE133","","","","","","","","","","","","","","","","","chosen stimuli: images/choice_trial_13.png","","","",""
"html-keyboard-response","81","168264","0.0-35.0-2.0","","null","","null","delaylearn","learning","feedback_duration_window","5f0cfeef098f1e53ff201909","FjNaKAYjjDNuzXwE7oPjxNAsE133","","","","","","","","","","","","","","","","","","7000","","",""
"html-keyboard-response","82","169771","0.0-35.0-3.0","","null","<div style='margin:auto;width: auto; font-size: 150%'><span style='font-weight: bold; font-size: 100px; color: red;'>0 points!</span><br><br></div>","null","delaylearn","learning","feedback_image_window","5f0cfeef098f1e53ff201909","FjNaKAYjjDNuzXwE7oPjxNAsE133","","","","","","","","","","","","","","","","","","","","",""
"html-keyboard-response","83","171340","0.0-36.0","","null","<div style=""font-size:100px;"">+</div>","null","delaylearn","learning","ITI","5f0cfeef098f1e53ff201909","FjNaKAYjjDNuzXwE7oPjxNAsE133","","","","","","","","","","","","","","","","","","","1561","",""
"html-keyboard-response","84","173627","0.0-37.0-0.0","","2285","<div style=""display: flex; flex-direction: column; align-items: center; margin-top: -40px;""><img src=""images/pattern_5.png"" style=""width: 234px; height: 230px; margin-top: -50px;""><div style=""display: flex; justify-content: space-between; margin-top: 33px;""><img src=""images/choice_trial_11.png"" style=""width: 408px; height: 417px; margin-right: 200px;""><img src=""images/choice_trial_2.png"" style=""width: 408px; height: 417px;""></div></div>","f","delaylearn","learning","trial","5f0cfeef098f1e53ff201909","FjNaKAYjjDNuzXwE7oPjxNAsE133","3","images/choice_trial_11.png","images/choice_trial_2.png","images/pattern_5.png","f","f","750","11","2","4","0","16","1","1","11","90","","","","",""
"html-keyboard-response","85","174634","0.0-37.0-1.0","","null","<div style=""display: flex; flex-direction: column; align-items: center; margin-top: -40px;""><img src=""images/pattern_5.png"" style=""width: 234px; height: 230px; margin-top: -50px;""><div style=""display: flex; justify-content: space-between; margin-top: 33px;""><img src=""images/choice_trial_11.png"" style=""width: 408px; height: 417px; margin-right: 608px;""></div></div>","null","delaylearn","learning","display_response","5f0cfeef098f1e53ff201909","FjNaKAYjjDNuzXwE7oPjxNAsE133","","","","","","","","","","","","","","","","","chosen stimuli: images/choice_trial_11.png","","","",""
"html-keyboard-response","86","175392","0.0-37.0-2.0","","null","","null","delaylearn","learning","feedback_duration_window","5f0cfeef098f1e53ff201909","FjNaKAYjjDNuzXwE7oPjxNAsE133","","","","","","","","","","","","","","","","","","750","","",""
"html-keyboard-response","87","176897","0.0-37.0-3.0","","null","<div style='margin:auto;width: auto; font-size: 150%'><span style='font-weight: bold; font-size: 100px; color: green;'>+10 points!</span><br><br></div>","null","delaylearn","learning","feedback_image_window","5f0cfeef098f1e53ff201909","FjNaKAYjjDNuzXwE7oPjxNAsE133","","","","","","","","","","","","","","","","","","","","",""
"html-keyboard-response","88","177403","0.0-38.0-0.0","","null","","null","","","mood_trial_fixation","","","","","","","","","","","","","","","","","","","","","","",""
"lmdlab-html-vas-response","89","181549","0.0-38.0-1.0","","3138","How happy are you right now?","0.7463252314814814","delaylearn","learning","mood_trial","5f0cfeef098f1e53ff201909","FjNaKAYjjDNuzXwE7oPjxNAsE133","","","","","","","","","","","","","","","","","","","","[""Very unhappy"",""Very happy""]",""
"html-keyboard-response","90","183866","0.0-39.0","","null","<div style=""font-size:100px;"">+</div>","null","delaylearn","learning","ITI","5f0cfeef098f1e53ff201909","FjNaKAYjjDNuzXwE7oPjxNAsE133","","","","","","","","","","","","","","","","","","","2306","",""
"html-keyboard-response","91","185318","0.0-40.0-0.0","","1449.2000000029802","<div style=""display: flex; flex-direction: column; align-items: center; margin-top: -40px;""><img src=""images/pattern_6.png"" style=""width: 234px; height: 230px; margin-top: -50px;""><div style=""display: flex; justify-content: space-between; margin-top: 33px;""><img src=""images/choice_trial_16.png"" style=""width: 408px; height: 417px; margin-right: 200px;""><img src=""images/choice_trial_3.png"" style=""width: 408px; height: 417px;""></div></div>","j","delaylearn","learning","trial","5f0cfeef098f1e53ff201909","FjNaKAYjjDNuzXwE7oPjxNAsE133","3","images/choice_trial_16.png","images/choice_trial_3.png","images/pattern_6.png","f","f","750","16","3","5","0","17","0","0","3","90","","","","",""
"html-keyboard-response","92","186328","0.0-40.0-1.0","","null","<div style=""display: flex; flex-direction: column; align-items: center; margin-top: -40px;""><img src=""images/pattern_6.png"" style=""width: 234px; height: 230px; margin-top: -50px;""><div style=""display: flex; justify-content: space-between; margin-top: 33px;""><img src=""images/choice_trial_3.png"" style=""width: 408px; height: 417px; margin-left:608px;""></div></div>","null","delaylearn","learning","display_response","5f0cfeef098f1e53ff201909","FjNaKAYjjDNuzXwE7oPjxNAsE133","","","","","","","","","","","","","","","","","chosen stimuli: images/choice_trial_3.png","","","",""
"html-keyboard-response","93","187090","0.0-40.0-2.0","","null","","null","delaylearn","learning","feedback_duration_window","5f0cfeef098f1e53ff201909","FjNaKAYjjDNuzXwE7oPjxNAsE133","","","","","","","","","","","","","","","","","","750","","",""
"html-keyboard-response","94","188604","0.0-40.0-3.0","","null","<div style='margin:auto;width: auto; font-size: 150%'><span style='font-weight: bold; font-size: 100px; color: red;'>0 points!</span><br><br></div>","null","delaylearn","learning","feedback_image_window","5f0cfeef098f1e53ff201909","FjNaKAYjjDNuzXwE7oPjxNAsE133","","","","","","","","","","","","","","","","","","","","",""
"html-keyboard-response","95","190764","0.0-41.0","","null","<div style=""font-size:100px;"">+</div>","null","delaylearn","learning","ITI","5f0cfeef098f1e53ff201909","FjNaKAYjjDNuzXwE7oPjxNAsE133","","","","","","","","","","","","","","","","","","","2152","",""
"html-keyboard-response","96","193116","0.0-42.0-0.0","","2350.1000000089407","<div style=""display: flex; flex-direction: column; align-items: center; margin-top: -40px;""><img src=""images/pattern_4.png"" style=""width: 234px; height: 230px; margin-top: -50px;""><div style=""display: flex; justify-content: space-between; margin-top: 33px;""><img src=""images/choice_trial_9.png"" style=""width: 408px; height: 417px; margin-right: 200px;""><img src=""images/choice_trial_15.png"" style=""width: 408px; height: 417px;""></div></div>","j","delaylearn","learning","trial","5f0cfeef098f1e53ff201909","FjNaKAYjjDNuzXwE7oPjxNAsE133","3","images/choice_trial_9.png","images/choice_trial_15.png","images/pattern_4.png","j","j","7000","9","15","3","1","18","1","1","15","100","","","","",""
"html-keyboard-response","97","194123","0.0-42.0-1.0","","null","<div style=""display: flex; flex-direction: column; align-items: center; margin-top: -40px;""><img src=""images/pattern_4.png"" style=""width: 234px; height: 230px; margin-top: -50px;""><div style=""display: flex; justify-content: space-between; margin-top: 33px;""><img src=""images/choice_trial_15.png"" style=""width: 408px; height: 417px; margin-left:608px;""></div></div>","null","delaylearn","learning","display_response","5f0cfeef098f1e53ff201909","FjNaKAYjjDNuzXwE7oPjxNAsE133","","","","","","","","","","","","","","","","","chosen stimuli: images/choice_trial_15.png","","","",""
"html-keyboard-response","98","201133","0.0-42.0-2.0","","null","","null","delaylearn","learning","feedback_duration_window","5f0cfeef098f1e53ff201909","FjNaKAYjjDNuzXwE7oPjxNAsE133","","","","","","","","","","","","","","","","","","7000","","",""
"html-keyboard-response","99","202643","0.0-42.0-3.0","","null","<div style='margin:auto;width: auto; font-size: 150%'><span style='font-weight: bold; font-size: 100px; color: green;'>+10 points!</span><br><br></div>","null","delaylearn","learning","feedback_image_window","5f0cfeef098f1e53ff201909","FjNaKAYjjDNuzXwE7oPjxNAsE133","","","","","","","","","","","","","","","","","","","","",""
"html-keyboard-response","100","204724","0.0-43.0","","null","<div style=""font-size:100px;"">+</div>","null","delaylearn","learning","ITI","5f0cfeef098f1e53ff201909","FjNaKAYjjDNuzXwE7oPjxNAsE133","","","","","","","","","","","","","","","","","","","2069","",""
"html-keyboard-response","101","206853","0.0-44.0-0.0","","2126.2999999970198","<div style=""display: flex; flex-direction: column; align-items: center; margin-top: -40px;""><img src=""images/pattern_7.png"" style=""width: 234px; height: 230px; margin-top: -50px;""><div style=""display: flex; justify-content: space-between; margin-top: 33px;""><img src=""images/choice_trial_6.png"" style=""width: 408px; height: 417px; margin-right: 200px;""><img src=""images/choice_trial_12.png"" style=""width: 408px; height: 417px;""></div></div>","j","delaylearn","learning","trial","5f0cfeef098f1e53ff201909","FjNaKAYjjDNuzXwE7oPjxNAsE133","3","images/choice_trial_6.png","images/choice_trial_12.png","images/pattern_7.png","j","f","750","6","12","6","0","19","0","1","12","110","","","","",""
"html-keyboard-response","102","207858","0.0-44.0-1.0","","null","<div style=""display: flex; flex-direction: column; align-items: center; margin-top: -40px;""><img src=""images/pattern_7.png"" style=""width: 234px; height: 230px; margin-top: -50px;""><div style=""display: flex; justify-content: space-between; margin-top: 33px;""><img src=""images/choice_trial_12.png"" style=""width: 408px; height: 417px; margin-left:608px;""></div></div>","null","delaylearn","learning","display_response","5f0cfeef098f1e53ff201909","FjNaKAYjjDNuzXwE7oPjxNAsE133","","","","","","","","","","","","","","","","","chosen stimuli: images/choice_trial_12.png","","","",""
"html-keyboard-response","103","208621","0.0-44.0-2.0","","null","","null","delaylearn","learning","feedback_duration_window","5f0cfeef098f1e53ff201909","FjNaKAYjjDNuzXwE7oPjxNAsE133","","","","","","","","","","","","","","","","","","750","","",""
"html-keyboard-response","104","210133","0.0-44.0-3.0","","null","<div style='margin:auto;width: auto; font-size: 150%'><span style='font-weight: bold; font-size: 100px; color: green;'>+10 points!</span><br><br></div>","null","delaylearn","learning","feedback_image_window","5f0cfeef098f1e53ff201909","FjNaKAYjjDNuzXwE7oPjxNAsE133","","","","","","","","","","","","","","","","","","","","",""
"html-keyboard-response","105","211868","0.0-45.0","","null","<div style=""font-size:100px;"">+</div>","null","delaylearn","learning","ITI","5f0cfeef098f1e53ff201909","FjNaKAYjjDNuzXwE7oPjxNAsE133","","","","","","","","","","","","","","","","","","","1723","",""
"html-keyboard-response","106","213445","0.0-46.0-0.0","","1574.5","<div style=""display: flex; flex-direction: column; align-items: center; margin-top: -40px;""><img src=""images/pattern_1.png"" style=""width: 234px; height: 230px; margin-top: -50px;""><div style=""display: flex; justify-content: space-between; margin-top: 33px;""><img src=""images/choice_trial_14.png"" style=""width: 408px; height: 417px; margin-right: 200px;""><img src=""images/choice_trial_8.png"" style=""width: 408px; height: 417px;""></div></div>","j","delaylearn","learning","trial","5f0cfeef098f1e53ff201909","FjNaKAYjjDNuzXwE7oPjxNAsE133","3","images/choice_trial_14.png","images/choice_trial_8.png","images/pattern_1.png","f","f","7000","14","8","1","0","20","0","0","8","110","","","","",""
"html-keyboard-response","107","214453","0.0-46.0-1.0","","null","<div style=""display: flex; flex-direction: column; align-items: center; margin-top: -40px;""><img src=""images/pattern_1.png"" style=""width: 234px; height: 230px; margin-top: -50px;""><div style=""display: flex; justify-content: space-between; margin-top: 33px;""><img src=""images/choice_trial_8.png"" style=""width: 408px; height: 417px; margin-left:608px;""></div></div>","null","delaylearn","learning","display_response","5f0cfeef098f1e53ff201909","FjNaKAYjjDNuzXwE7oPjxNAsE133","","","","","","","","","","","","","","","","","chosen stimuli: images/choice_trial_8.png","","","",""
"html-keyboard-response","108","221461","0.0-46.0-2.0","","null","","null","delaylearn","learning","feedback_duration_window","5f0cfeef098f1e53ff201909","FjNaKAYjjDNuzXwE7oPjxNAsE133","","","","","","","","","","","","","","","","","","7000","","",""
"html-keyboard-response","109","222972","0.0-46.0-3.0","","null","<div style='margin:auto;width: auto; font-size: 150%'><span style='font-weight: bold; font-size: 100px; color: red;'>0 points!</span><br><br></div>","null","delaylearn","learning","feedback_image_window","5f0cfeef098f1e53ff201909","FjNaKAYjjDNuzXwE7oPjxNAsE133","","","","","","","","","","","","","","","","","","","","",""
"html-keyboard-response","110","225260","0.0-47.0","","null","<div style=""font-size:100px;"">+</div>","null","delaylearn","learning","ITI","5f0cfeef098f1e53ff201909","FjNaKAYjjDNuzXwE7oPjxNAsE133","","","","","","","","","","","","","","","","","","","2283","",""
"html-keyboard-response","111","227452","0.0-48.0-0.0","","2189.7000000029802","<div style=""display: flex; flex-direction: column; align-items: center; margin-top: -40px;""><img src=""images/pattern_6.png"" style=""width: 234px; height: 230px; margin-top: -50px;""><div style=""display: flex; justify-content: space-between; margin-top: 33px;""><img src=""images/choice_trial_3.png"" style=""width: 408px; height: 417px; margin-right: 200px;""><img src=""images/choice_trial_16.png"" style=""width: 408px; height: 417px;""></div></div>","j","delaylearn","learning","trial","5f0cfeef098f1e53ff201909","FjNaKAYjjDNuzXwE7oPjxNAsE133","3","images/choice_trial_3.png","images/choice_trial_16.png","images/pattern_6.png","j","j","750","3","16","5","1","21","1","1","16","120","","","","",""
"html-keyboard-response","112","228462","0.0-48.0-1.0","","null","<div style=""display: flex; flex-direction: column; align-items: center; margin-top: -40px;""><img src=""images/pattern_6.png"" style=""width: 234px; height: 230px; margin-top: -50px;""><div style=""display: flex; justify-content: space-between; margin-top: 33px;""><img src=""images/choice_trial_16.png"" style=""width: 408px; height: 417px; margin-left:608px;""></div></div>","null","delaylearn","learning","display_response","5f0cfeef098f1e53ff201909","FjNaKAYjjDNuzXwE7oPjxNAsE133","","","","","","","","","","","","","","","","","chosen stimuli: images/choice_trial_16.png","","","",""
"html-keyboard-response","113","229222","0.0-48.0-2.0","","null","","null","delaylearn","learning","feedback_duration_window","5f0cfeef098f1e53ff201909","FjNaKAYjjDNuzXwE7oPjxNAsE133","","","","","","","","","","","","","","","","","","750","","",""
"html-keyboard-response","114","230730","0.0-48.0-3.0","","null","<div style='margin:auto;width: auto; font-size: 150%'><span style='font-weight: bold; font-size: 100px; color: green;'>+10 points!</span><br><br></div>","null","delaylearn","learning","feedback_image_window","5f0cfeef098f1e53ff201909","FjNaKAYjjDNuzXwE7oPjxNAsE133","","","","","","","","","","","","","","","","","","","","",""
"html-keyboard-response","115","232902","0.0-49.0","","null","<div style=""font-size:100px;"">+</div>","null","delaylearn","learning","ITI","5f0cfeef098f1e53ff201909","FjNaKAYjjDNuzXwE7oPjxNAsE133","","","","","","","","","","","","","","","","","","","2162","",""
"html-keyboard-response","116","233927","0.0-50.0-0.0","","1022.5","<div style=""display: flex; flex-direction: column; align-items: center; margin-top: -40px;""><img src=""images/pattern_4.png"" style=""width: 234px; height: 230px; margin-top: -50px;""><div style=""display: flex; justify-content: space-between; margin-top: 33px;""><img src=""images/choice_trial_15.png"" style=""width: 408px; height: 417px; margin-right: 200px;""><img src=""images/choice_trial_9.png"" style=""width: 408px; height: 417px;""></div></div>","f","delaylearn","learning","trial","5f0cfeef098f1e53ff201909","FjNaKAYjjDNuzXwE7oPjxNAsE133","3","images/choice_trial_15.png","images/choice_trial_9.png","images/pattern_4.png","f","f","7000","15","9","3","0","22","1","1","15","130","","","","",""
"html-keyboard-response","117","234929","0.0-50.0-1.0","","null","<div style=""display: flex; flex-direction: column; align-items: center; margin-top: -40px;""><img src=""images/pattern_4.png"" style=""width: 234px; height: 230px; margin-top: -50px;""><div style=""display: flex; justify-content: space-between; margin-top: 33px;""><img src=""images/choice_trial_15.png"" style=""width: 408px; height: 417px; margin-right: 608px;""></div></div>","null","delaylearn","learning","display_response","5f0cfeef098f1e53ff201909","FjNaKAYjjDNuzXwE7oPjxNAsE133","","","","","","","","","","","","","","","","","chosen stimuli: images/choice_trial_15.png","","","",""
"html-keyboard-response","118","241943","0.0-50.0-2.0","","null","","null","delaylearn","learning","feedback_duration_window","5f0cfeef098f1e53ff201909","FjNaKAYjjDNuzXwE7oPjxNAsE133","","","","","","","","","","","","","","","","","","7000","","",""
"html-keyboard-response","119","243451","0.0-50.0-3.0","","null","<div style='margin:auto;width: auto; font-size: 150%'><span style='font-weight: bold; font-size: 100px; color: green;'>+10 points!</span><br><br></div>","null","delaylearn","learning","feedback_image_window","5f0cfeef098f1e53ff201909","FjNaKAYjjDNuzXwE7oPjxNAsE133","","","","","","","","","","","","","","","","","","","","",""
"html-keyboard-response","120","243958","0.0-51.0-0.0","","null","","null","","","mood_trial_fixation","","","","","","","","","","","","","","","","","","","","","","",""
"lmdlab-html-vas-response","121","248574","0.0-51.0-1.0","","3606","How happy are you right now?","0.7370659722222223","delaylearn","learning","mood_trial","5f0cfeef098f1e53ff201909","FjNaKAYjjDNuzXwE7oPjxNAsE133","","","","","","","","","","","","","","","","","","","","[""Very unhappy"",""Very happy""]",""
"html-keyboard-response","122","250252","0.0-52.0","","null","<div style=""font-size:100px;"">+</div>","null","delaylearn","learning","ITI","5f0cfeef098f1e53ff201909","FjNaKAYjjDNuzXwE7oPjxNAsE133","","","","","","","","","","","","","","","","","","","1669","",""
"html-keyboard-response","123","251361","0.0-53.0-0.0","","1106.5","<div style=""display: flex; flex-direction: column; align-items: center; margin-top: -40px;""><img src=""images/pattern_7.png"" style=""width: 234px; height: 230px; margin-top: -50px;""><div style=""display: flex; justify-content: space-between; margin-top: 33px;""><img src=""images/choice_trial_12.png"" style=""width: 408px; height: 417px; margin-right: 200px;""><img src=""images/choice_trial_6.png"" style=""width: 408px; height: 417px;""></div></div>","f","delaylearn","learning","trial","5f0cfeef098f1e53ff201909","FjNaKAYjjDNuzXwE7oPjxNAsE133","3","images/choice_trial_12.png","images/choice_trial_6.png","images/pattern_7.png","j","j","750","12","6","6","1","23","0","0","12","130","","","","",""
"html-keyboard-response","124","252375","0.0-53.0-1.0","","null","<div style=""display: flex; flex-direction: column; align-items: center; margin-top: -40px;""><img src=""images/pattern_7.png"" style=""width: 234px; height: 230px; margin-top: -50px;""><div style=""display: flex; justify-content: space-between; margin-top: 33px;""><img src=""images/choice_trial_12.png"" style=""width: 408px; height: 417px; margin-right: 608px;""></div></div>","null","delaylearn","learning","display_response","5f0cfeef098f1e53ff201909","FjNaKAYjjDNuzXwE7oPjxNAsE133","","","","","","","","","","","","","","","","","chosen stimuli: images/choice_trial_12.png","","","",""
"html-keyboard-response","125","253132","0.0-53.0-2.0","","null","","null","delaylearn","learning","feedback_duration_window","5f0cfeef098f1e53ff201909","FjNaKAYjjDNuzXwE7oPjxNAsE133","","","","","","","","","","","","","","","","","","750","","",""
"html-keyboard-response","126","254639","0.0-53.0-3.0","","null","<div style='margin:auto;width: auto; font-size: 150%'><span style='font-weight: bold; font-size: 100px; color: red;'>0 points!</span><br><br></div>","null","delaylearn","learning","feedback_image_window","5f0cfeef098f1e53ff201909","FjNaKAYjjDNuzXwE7oPjxNAsE133","","","","","","","","","","","","","","","","","","","","",""
"html-keyboard-response","127","257059","0.0-54.0","","null","<div style=""font-size:100px;"">+</div>","null","delaylearn","learning","ITI","5f0cfeef098f1e53ff201909","FjNaKAYjjDNuzXwE7oPjxNAsE133","","","","","","","","","","","","","","","","","","","2411","",""
"html-keyboard-response","128","259061","0.0-55.0-0.0","","1999.7000000029802","<div style=""display: flex; flex-direction: column; align-items: center; margin-top: -40px;""><img src=""images/pattern_1.png"" style=""width: 234px; height: 230px; margin-top: -50px;""><div style=""display: flex; justify-content: space-between; margin-top: 33px;""><img src=""images/choice_trial_8.png"" style=""width: 408px; height: 417px; margin-right: 200px;""><img src=""images/choice_trial_14.png"" style=""width: 408px; height: 417px;""></div></div>","f","delaylearn","learning","trial","5f0cfeef098f1e53ff201909","FjNaKAYjjDNuzXwE7oPjxNAsE133","3","images/choice_trial_8.png","images/choice_trial_14.png","images/pattern_1.png","f","j","7000","8","14","1","1","24","0","1","8","140","","","","",""
"html-keyboard-response","129","260067","0.0-55.0-1.0","","null","<div style=""display: flex; flex-direction: column; align-items: center; margin-top: -40px;""><img src=""images/pattern_1.png"" style=""width: 234px; height: 230px; margin-top: -50px;""><div style=""display: flex; justify-content: space-between; margin-top: 33px;""><img src=""images/choice_trial_8.png"" style=""width: 408px; height: 417px; margin-right: 608px;""></div></div>","null","delaylearn","learning","display_response","5f0cfeef098f1e53ff201909","FjNaKAYjjDNuzXwE7oPjxNAsE133","","","","","","","","","","","","","","","","","chosen stimuli: images/choice_trial_8.png","","","",""
"html-keyboard-response","130","267077","0.0-55.0-2.0","","null","","null","delaylearn","learning","feedback_duration_window","5f0cfeef098f1e53ff201909","FjNaKAYjjDNuzXwE7oPjxNAsE133","","","","","","","","","","","","","","","","","","7000","","",""
"html-keyboard-response","131","268583","0.0-55.0-3.0","","null","<div style='margin:auto;width: auto; font-size: 150%'><span style='font-weight: bold; font-size: 100px; color: green;'>+10 points!</span><br><br></div>","null","delaylearn","learning","feedback_image_window","5f0cfeef098f1e53ff201909","FjNaKAYjjDNuzXwE7oPjxNAsE133","","","","","","","","","","","","","","","","","","","","",""
"html-keyboard-response","132","271068","0.0-56.0","","null","<div style=""font-size:100px;"">+</div>","null","delaylearn","learning","ITI","5f0cfeef098f1e53ff201909","FjNaKAYjjDNuzXwE7oPjxNAsE133","","","","","","","","","","","","","","","","","","","2479","",""
"html-keyboard-response","133","272585","0.0-57.0-0.0","","1514.5999999940395","<div style=""display: flex; flex-direction: column; align-items: center; margin-top: -40px;""><img src=""images/pattern_5.png"" style=""width: 234px; height: 230px; margin-top: -50px;""><div style=""display: flex; justify-content: space-between; margin-top: 33px;""><img src=""images/choice_trial_2.png"" style=""width: 408px; height: 417px; margin-right: 200px;""><img src=""images/choice_trial_11.png"" style=""width: 408px; height: 417px;""></div></div>","j","delaylearn","learning","trial","5f0cfeef098f1e53ff201909","FjNaKAYjjDNuzXwE7oPjxNAsE133","3","images/choice_trial_2.png","images/choice_trial_11.png","images/pattern_5.png","j","j","750","2","11","4","1","25","1","1","11","150","","","","",""
"html-keyboard-response","134","273596","0.0-57.0-1.0","","null","<div style=""display: flex; flex-direction: column; align-items: center; margin-top: -40px;""><img src=""images/pattern_5.png"" style=""width: 234px; height: 230px; margin-top: -50px;""><div style=""display: flex; justify-content: space-between; margin-top: 33px;""><img src=""images/choice_trial_11.png"" style=""width: 408px; height: 417px; margin-left:608px;""></div></div>","null","delaylearn","learning","display_response","5f0cfeef098f1e53ff201909","FjNaKAYjjDNuzXwE7oPjxNAsE133","","","","","","","","","","","","","","","","","chosen stimuli: images/choice_trial_11.png","","","",""
"html-keyboard-response","135","274357","0.0-57.0-2.0","","null","","null","delaylearn","learning","feedback_duration_window","5f0cfeef098f1e53ff201909","FjNaKAYjjDNuzXwE7oPjxNAsE133","","","","","","","","","","","","","","","","","","750","","",""
"html-keyboard-response","136","275859","0.0-57.0-3.0","","null","<div style='margin:auto;width: auto; font-size: 150%'><span style='font-weight: bold; font-size: 100px; color: green;'>+10 points!</span><br><br></div>","null","delaylearn","learning","feedback_image_window","5f0cfeef098f1e53ff201909","FjNaKAYjjDNuzXwE7oPjxNAsE133","","","","","","","","","","","","","","","","","","","","",""
"html-keyboard-response","137","277373","0.0-58.0","","null","<div style=""font-size:100px;"">+</div>","null","delaylearn","learning","ITI","5f0cfeef098f1e53ff201909","FjNaKAYjjDNuzXwE7oPjxNAsE133","","","","","","","","","","","","","","","","","","","1508","",""
"html-keyboard-response","138","279184","0.0-59.0-0.0","","1809","<div style=""display: flex; flex-direction: column; align-items: center; margin-top: -40px;""><img src=""images/pattern_3.png"" style=""width: 234px; height: 230px; margin-top: -50px;""><div style=""display: flex; justify-content: space-between; margin-top: 33px;""><img src=""images/choice_trial_10.png"" style=""width: 408px; height: 417px; margin-right: 200px;""><img src=""images/choice_trial_13.png"" style=""width: 408px; height: 417px;""></div></div>","j","delaylearn","learning","trial","5f0cfeef098f1e53ff201909","FjNaKAYjjDNuzXwE7oPjxNAsE133","3","images/choice_trial_10.png","images/choice_trial_13.png","images/pattern_3.png","j","j","7000","10","13","2","1","26","1","1","13","160","","","","",""
"html-keyboard-response","139","280190","0.0-59.0-1.0","","null","<div style=""display: flex; flex-direction: column; align-items: center; margin-top: -40px;""><img src=""images/pattern_3.png"" style=""width: 234px; height: 230px; margin-top: -50px;""><div style=""display: flex; justify-content: space-between; margin-top: 33px;""><img src=""images/choice_trial_13.png"" style=""width: 408px; height: 417px; margin-left:608px;""></div></div>","null","delaylearn","learning","display_response","5f0cfeef098f1e53ff201909","FjNaKAYjjDNuzXwE7oPjxNAsE133","","","","","","","","","","","","","","","","","chosen stimuli: images/choice_trial_13.png","","","",""
"html-keyboard-response","140","287197","0.0-59.0-2.0","","null","","null","delaylearn","learning","feedback_duration_window","5f0cfeef098f1e53ff201909","FjNaKAYjjDNuzXwE7oPjxNAsE133","","","","","","","","","","","","","","","","","","7000","","",""
"html-keyboard-response","141","288702","0.0-59.0-3.0","","null","<div style='margin:auto;width: auto; font-size: 150%'><span style='font-weight: bold; font-size: 100px; color: green;'>+10 points!</span><br><br></div>","null","delaylearn","learning","feedback_image_window","5f0cfeef098f1e53ff201909","FjNaKAYjjDNuzXwE7oPjxNAsE133","","","","","","","","","","","","","","","","","","","","",""
"lmdlab-html-vas-response","142","295665","0.0-60.0-0.0","","5447","*How <b><u>confident</u></b> are you feeling about your answers at this moment?*","0.6055555555555555","rewlearn","rate_confidence","","5f0cfeef098f1e53ff201909","FjNaKAYjjDNuzXwE7oPjxNAsE133","","","","","","","","","","","","","","","","","","","","[""No confidence"",""Complete confidence""]",""
"lmdlab-rest-trial-limit","143","344319","0.0-60.0-1.0","","47142.39999999106","<div style=""font-size:40px;""><b>Please take a break!</b><br><br><br><br><p>Great work: you earned 160 points.<br><br><br><p>You have completed part(s) 1 of 5.<br><br><br><br>When you are ready to continue<br><br><br>please click the button.</p><br><br>","0","delaylearn","learning","break","5f0cfeef098f1e53ff201909","FjNaKAYjjDNuzXwE7oPjxNAsE133","","","","","","","","","","","","","","","","","","","","","0"
"html-keyboard-response","144","347326","0.0-60.0-2.0","","null","<div style=""font-size:100px;"">+</div>","null","delaylearn","learning","pre_fixation","5f0cfeef098f1e53ff201909","","","","","","","","","","","","","","","","","","","","","",""
"lmdlab-html-vas-response","145","350688","0.0-60.0-3.0-0.0","","2348","How happy are you right now?","0.7407696759259259","delaylearn","learning","mood_baseline","5f0cfeef098f1e53ff201909","FjNaKAYjjDNuzXwE7oPjxNAsE133","","","","","","","","","","","","","","","","","","","","[""Very unhappy"",""Very happy""]",""
"html-keyboard-response","146","352202","0.0-60.0-3.0-1.0","","null","","null","","","mood_baseline_fixation","","","","","","","","","","","","","","","","","","","","","","",""
"html-keyboard-response","147","354240","0.0-61.0","","null","<div style=""font-size:100px;"">+</div>","null","delaylearn","learning","ITI","5f0cfeef098f1e53ff201909","FjNaKAYjjDNuzXwE7oPjxNAsE133","","","","","","","","","","","","","","","","","","","2026","",""
"html-keyboard-response","148","355503","0.0-62.0-0.0","","1259.5","<div style=""display: flex; flex-direction: column; align-items: center; margin-top: -40px;""><img src=""images/pattern_7.png"" style=""width: 234px; height: 230px; margin-top: -50px;""><div style=""display: flex; justify-content: space-between; margin-top: 33px;""><img src=""images/choice_trial_12.png"" style=""width: 408px; height: 417px; margin-right: 200px;""><img src=""images/choice_trial_6.png"" style=""width: 408px; height: 417px;""></div></div>","f","delaylearn","learning","trial","5f0cfeef098f1e53ff201909","FjNaKAYjjDNuzXwE7oPjxNAsE133","3","images/choice_trial_12.png","images/choice_trial_6.png","images/pattern_7.png","j","j","750","12","6","6","1","27","0","0","12","160","","","","",""
"html-keyboard-response","149","356514","0.0-62.0-1.0","","null","<div style=""display: flex; flex-direction: column; align-items: center; margin-top: -40px;""><img src=""images/pattern_7.png"" style=""width: 234px; height: 230px; margin-top: -50px;""><div style=""display: flex; justify-content: space-between; margin-top: 33px;""><img src=""images/choice_trial_12.png"" style=""width: 408px; height: 417px; margin-right: 608px;""></div></div>","null","delaylearn","learning","display_response","5f0cfeef098f1e53ff201909","FjNaKAYjjDNuzXwE7oPjxNAsE133","","","","","","","","","","","","","","","","","chosen stimuli: images/choice_trial_12.png","","","",""
"html-keyboard-response","150","357270","0.0-62.0-2.0","","null","","null","delaylearn","learning","feedback_duration_window","5f0cfeef098f1e53ff201909","FjNaKAYjjDNuzXwE7oPjxNAsE133","","","","","","","","","","","","","","","","","","750","","",""
"html-keyboard-response","151","358776","0.0-62.0-3.0","","null","<div style='margin:auto;width: auto; font-size: 150%'><span style='font-weight: bold; font-size: 100px; color: red;'>0 points!</span><br><br></div>","null","delaylearn","learning","feedback_image_window","5f0cfeef098f1e53ff201909","FjNaKAYjjDNuzXwE7oPjxNAsE133","","","","","","","","","","","","","","","","","","","","",""
"html-keyboard-response","152","359278","0.0-63.0-0.0","","null","","null","","","mood_trial_fixation","","","","","","","","","","","","","","","","","","","","","","",""
"lmdlab-html-vas-response","153","366611","0.0-63.0-1.0","","6320","How happy are you right now?","0.738917824074074","delaylearn","learning","mood_trial","5f0cfeef098f1e53ff201909","FjNaKAYjjDNuzXwE7oPjxNAsE133","","","","","","","","","","","","","","","","","","","","[""Very unhappy"",""Very happy""]",""
"html-keyboard-response","154","368890","0.0-64.0","","null","<div style=""font-size:100px;"">+</div>","null","delaylearn","learning","ITI","5f0cfeef098f1e53ff201909","FjNaKAYjjDNuzXwE7oPjxNAsE133","","","","","","","","","","","","","","","","","","","2270","",""
"html-keyboard-response","155","370513","0.0-65.0-0.0","","1620.0999999940395","<div style=""display: flex; flex-direction: column; align-items: center; margin-top: -40px;""><img src=""images/pattern_1.png"" style=""width: 234px; height: 230px; margin-top: -50px;""><div style=""display: flex; justify-content: space-between; margin-top: 33px;""><img src=""images/choice_trial_14.png"" style=""width: 408px; height: 417px; margin-right: 200px;""><img src=""images/choice_trial_8.png"" style=""width: 408px; height: 417px;""></div></div>","j","delaylearn","learning","trial","5f0cfeef098f1e53ff201909","FjNaKAYjjDNuzXwE7oPjxNAsE133","3","images/choice_trial_14.png","images/choice_trial_8.png","images/pattern_1.png","f","f","7000","14","8","1","0","28","0","0","8","160","","","","",""
"html-keyboard-response","156","371520","0.0-65.0-1.0","","null","<div style=""display: flex; flex-direction: column; align-items: center; margin-top: -40px;""><img src=""images/pattern_1.png"" style=""width: 234px; height: 230px; margin-top: -50px;""><div style=""display: flex; justify-content: space-between; margin-top: 33px;""><img src=""images/choice_trial_8.png"" style=""width: 408px; height: 417px; margin-left:608px;""></div></div>","null","delaylearn","learning","display_response","5f0cfeef098f1e53ff201909","FjNaKAYjjDNuzXwE7oPjxNAsE133","","","","","","","","","","","","","","","","","chosen stimuli: images/choice_trial_8.png","","","",""
"html-keyboard-response","157","378529","0.0-65.0-2.0","","null","","null","delaylearn","learning","feedback_duration_window","5f0cfeef098f1e53ff201909","FjNaKAYjjDNuzXwE7oPjxNAsE133","","","","","","","","","","","","","","","","","","7000","","",""
"html-keyboard-response","158","380041","0.0-65.0-3.0","","null","<div style='margin:auto;width: auto; font-size: 150%'><span style='font-weight: bold; font-size: 100px; color: red;'>0 points!</span><br><br></div>","null","delaylearn","learning","feedback_image_window","5f0cfeef098f1e53ff201909","FjNaKAYjjDNuzXwE7oPjxNAsE133","","","","","","","","","","","","","","","","","","","","",""
"html-keyboard-response","159","381895","0.0-66.0","","null","<div style=""font-size:100px;"">+</div>","null","delaylearn","learning","ITI","5f0cfeef098f1e53ff201909","FjNaKAYjjDNuzXwE7oPjxNAsE133","","","","","","","","","","","","","","","","","","","1846","",""
"html-keyboard-response","160","383440","0.0-67.0-0.0","","1541.9000000059605","<div style=""display: flex; flex-direction: column; align-items: center; margin-top: -40px;""><img src=""images/pattern_5.png"" style=""width: 234px; height: 230px; margin-top: -50px;""><div style=""display: flex; justify-content: space-between; margin-top: 33px;""><img src=""images/choice_trial_11.png"" style=""width: 408px; height: 417px; margin-right: 200px;""><img src=""images/choice_trial_2.png"" style=""width: 408px; height: 417px;""></div></div>","f","delaylearn","learning","trial","5f0cfeef098f1e53ff201909","FjNaKAYjjDNuzXwE7oPjxNAsE133","3","images/choice_trial_11.png","images/choice_trial_2.png","images/pattern_5.png","f","f","750","11","2","4","0","29","1","1","11","170","","","","",""
"html-keyboard-response","161","384452","0.0-67.0-1.0","","null","<div style=""display: flex; flex-direction: column; align-items: center; margin-top: -40px;""><img src=""images/pattern_5.png"" style=""width: 234px; height: 230px; margin-top: -50px;""><div style=""display: flex; justify-content: space-between; margin-top: 33px;""><img src=""images/choice_trial_11.png"" style=""width: 408px; height: 417px; margin-right: 608px;""></div></div>","null","delaylearn","learning","display_response","5f0cfeef098f1e53ff201909","FjNaKAYjjDNuzXwE7oPjxNAsE133","","","","","","","","","","","","","","","","","chosen stimuli: images/choice_trial_11.png","","","",""
"html-keyboard-response","162","385207","0.0-67.0-2.0","","null","","null","delaylearn","learning","feedback_duration_window","5f0cfeef098f1e53ff201909","FjNaKAYjjDNuzXwE7oPjxNAsE133","","","","","","","","","","","","","","","","","","750","","",""
"html-keyboard-response","163","386711","0.0-67.0-3.0","","null","<div style='margin:auto;width: auto; font-size: 150%'><span style='font-weight: bold; font-size: 100px; color: green;'>+10 points!</span><br><br></div>","null","delaylearn","learning","feedback_image_window","5f0cfeef098f1e53ff201909","FjNaKAYjjDNuzXwE7oPjxNAsE133","","","","","","","","","","","","","","","","","","","","",""
"html-keyboard-response","164","388223","0.0-68.0","","null","<div style=""font-size:100px;"">+</div>","null","delaylearn","learning","ITI","5f0cfeef098f1e53ff201909","FjNaKAYjjDNuzXwE7oPjxNAsE133","","","","","","","","","","","","","","","","","","","1508","",""
"html-keyboard-response","165","390611","0.0-69.0-0.0","","2384.8999999910593","<div style=""display: flex; flex-direction: column; align-items: center; margin-top: -40px;""><img src=""images/pattern_6.png"" style=""width: 234px; height: 230px; margin-top: -50px;""><div style=""display: flex; justify-content: space-between; margin-top: 33px;""><img src=""images/choice_trial_3.png"" style=""width: 408px; height: 417px; margin-right: 200px;""><img src=""images/choice_trial_16.png"" style=""width: 408px; height: 417px;""></div></div>","f","delaylearn","learning","trial","5f0cfeef098f1e53ff201909","FjNaKAYjjDNuzXwE7oPjxNAsE133","3","images/choice_trial_3.png","images/choice_trial_16.png","images/pattern_6.png","j","j","750","3","16","5","1","30","0","0","3","170","","","","",""
"html-keyboard-response","166","391617","0.0-69.0-1.0","","null","<div style=""display: flex; flex-direction: column; align-items: center; margin-top: -40px;""><img src=""images/pattern_6.png"" style=""width: 234px; height: 230px; margin-top: -50px;""><div style=""display: flex; justify-content: space-between; margin-top: 33px;""><img src=""images/choice_trial_3.png"" style=""width: 408px; height: 417px; margin-right: 608px;""></div></div>","null","delaylearn","learning","display_response","5f0cfeef098f1e53ff201909","FjNaKAYjjDNuzXwE7oPjxNAsE133","","","","","","","","","","","","","","","","","chosen stimuli: images/choice_trial_3.png","","","",""
"html-keyboard-response","167","392377","0.0-69.0-2.0","","null","","null","delaylearn","learning","feedback_duration_window","5f0cfeef098f1e53ff201909","FjNaKAYjjDNuzXwE7oPjxNAsE133","","","","","","","","","","","","","","","","","","750","","",""
"html-keyboard-response","168","393891","0.0-69.0-3.0","","null","<div style='margin:auto;width: auto; font-size: 150%'><span style='font-weight: bold; font-size: 100px; color: red;'>0 points!</span><br><br></div>","null","delaylearn","learning","feedback_image_window","5f0cfeef098f1e53ff201909","FjNaKAYjjDNuzXwE7oPjxNAsE133","","","","","","","","","","","","","","","","","","","","",""
"html-keyboard-response","169","394399","0.0-70.0-0.0","","null","","null","","","mood_trial_fixation","","","","","","","","","","","","","","","","","","","","","","",""
"lmdlab-html-vas-response","170","400581","0.0-70.0-1.0","","5167","How happy are you right now?","0.7481770833333333","delaylearn","learning","mood_trial","5f0cfeef098f1e53ff201909","FjNaKAYjjDNuzXwE7oPjxNAsE133","","","","","","","","","","","","","","","","","","","","[""Very unhappy"",""Very happy""]",""
"html-keyboard-response","171","402297","0.0-71.0","","null","<div style=""font-size:100px;"">+</div>","null","delaylearn","learning","ITI","5f0cfeef098f1e53ff201909","FjNaKAYjjDNuzXwE7oPjxNAsE133","","","","","","","","","","","","","","","","","","","1708","",""
"html-keyboard-response","172","403824","0.0-72.0-0.0","","1524.3999999910593","<div style=""display: flex; flex-direction: column; align-items: center; margin-top: -40px;""><img src=""images/pattern_4.png"" style=""width: 234px; height: 230px; margin-top: -50px;""><div style=""display: flex; justify-content: space-between; margin-top: 33px;""><img src=""images/choice_trial_9.png"" style=""width: 408px; height: 417px; margin-right: 200px;""><img src=""images/choice_trial_15.png"" style=""width: 408px; height: 417px;""></div></div>","j","delaylearn","learning","trial","5f0cfeef098f1e53ff201909","FjNaKAYjjDNuzXwE7oPjxNAsE133","3","images/choice_trial_9.png","images/choice_trial_15.png","images/pattern_4.png","j","j","7000","9","15","3","1","31","1","1","15","180","","","","",""
"html-keyboard-response","173","404832","0.0-72.0-1.0","","null","<div style=""display: flex; flex-direction: column; align-items: center; margin-top: -40px;""><img src=""images/pattern_4.png"" style=""width: 234px; height: 230px; margin-top: -50px;""><div style=""display: flex; justify-content: space-between; margin-top: 33px;""><img src=""images/choice_trial_15.png"" style=""width: 408px; height: 417px; margin-left:608px;""></div></div>","null","delaylearn","learning","display_response","5f0cfeef098f1e53ff201909","FjNaKAYjjDNuzXwE7oPjxNAsE133","","","","","","","","","","","","","","","","","chosen stimuli: images/choice_trial_15.png","","","",""
"html-keyboard-response","174","411841","0.0-72.0-2.0","","null","","null","delaylearn","learning","feedback_duration_window","5f0cfeef098f1e53ff201909","FjNaKAYjjDNuzXwE7oPjxNAsE133","","","","","","","","","","","","","","","","","","7000","","",""
"html-keyboard-response","175","413348","0.0-72.0-3.0","","null","<div style='margin:auto;width: auto; font-size: 150%'><span style='font-weight: bold; font-size: 100px; color: green;'>+10 points!</span><br><br></div>","null","delaylearn","learning","feedback_image_window","5f0cfeef098f1e53ff201909","FjNaKAYjjDNuzXwE7oPjxNAsE133","","","","","","","","","","","","","","","","","","","","",""
"html-keyboard-response","176","415515","0.0-73.0","","null","<div style=""font-size:100px;"">+</div>","null","delaylearn","learning","ITI","5f0cfeef098f1e53ff201909","FjNaKAYjjDNuzXwE7oPjxNAsE133","","","","","","","","","","","","","","","","","","","2156","",""
"html-keyboard-response","177","418521","0.0-74.0-0.0","","null","<div style=""display: flex; flex-direction: column; align-items: center; margin-top: -40px;""><img src=""images/pattern_3.png"" style=""width: 234px; height: 230px; margin-top: -50px;""><div style=""display: flex; justify-content: space-between; margin-top: 33px;""><img src=""images/choice_trial_10.png"" style=""width: 408px; height: 417px; margin-right: 200px;""><img src=""images/choice_trial_13.png"" style=""width: 408px; height: 417px;""></div></div>","null","delaylearn","learning","trial","5f0cfeef098f1e53ff201909","FjNaKAYjjDNuzXwE7oPjxNAsE133","3","images/choice_trial_10.png","images/choice_trial_13.png","images/pattern_3.png","j","j","7000","10","13","2","1","32","0","0","0","180","","","","",""
"html-keyboard-response","178","419531","0.0-74.0-1.0","","null","<div style='font-weight: bold; font-size: 75px; color: red;'>Missed Trial <br><br><br><br> Please respond faster</div>","null","delaylearn","learning","display_response","5f0cfeef098f1e53ff201909","FjNaKAYjjDNuzXwE7oPjxNAsE133","","","","","","","","","","","","","","","","","Missed trial","","","",""
"html-keyboard-response","179","419537","0.0-74.0-2.0","","null","","null","delaylearn","learning","feedback_duration_window","5f0cfeef098f1e53ff201909","FjNaKAYjjDNuzXwE7oPjxNAsE133","","","","","","","","","","","","","","","","","","0","","",""
"html-keyboard-response","180","419543","0.0-74.0-3.0","","null","","null","delaylearn","learning","feedback_image_window","5f0cfeef098f1e53ff201909","FjNaKAYjjDNuzXwE7oPjxNAsE133","","","","","","","","","","","","","","","","","","","","",""
"html-keyboard-response","181","421616","0.0-75.0","","null","<div style=""font-size:100px;"">+</div>","null","delaylearn","learning","ITI","5f0cfeef098f1e53ff201909","FjNaKAYjjDNuzXwE7oPjxNAsE133","","","","","","","","","","","","","","","","","","","2064","",""
"html-keyboard-response","182","423665","0.0-76.0-0.0","","2046.8999999910593","<div style=""display: flex; flex-direction: column; align-items: center; margin-top: -40px;""><img src=""images/pattern_5.png"" style=""width: 234px; height: 230px; margin-top: -50px;""><div style=""display: flex; justify-content: space-between; margin-top: 33px;""><img src=""images/choice_trial_11.png"" style=""width: 408px; height: 417px; margin-right: 200px;""><img src=""images/choice_trial_2.png"" style=""width: 408px; height: 417px;""></div></div>","f","delaylearn","learning","trial","5f0cfeef098f1e53ff201909","FjNaKAYjjDNuzXwE7oPjxNAsE133","3","images/choice_trial_11.png","images/choice_trial_2.png","images/pattern_5.png","j","f","750","11","2","4","0","33","1","0","11","180","","","","",""
"html-keyboard-response","183","424672","0.0-76.0-1.0","","null","<div style=""display: flex; flex-direction: column; align-items: center; margin-top: -40px;""><img src=""images/pattern_5.png"" style=""width: 234px; height: 230px; margin-top: -50px;""><div style=""display: flex; justify-content: space-between; margin-top: 33px;""><img src=""images/choice_trial_11.png"" style=""width: 408px; height: 417px; margin-right: 608px;""></div></div>","null","delaylearn","learning","display_response","5f0cfeef098f1e53ff201909","FjNaKAYjjDNuzXwE7oPjxNAsE133","","","","","","","","","","","","","","","","","chosen stimuli: images/choice_trial_11.png","","","",""
"html-keyboard-response","184","425428","0.0-76.0-2.0","","null","","null","delaylearn","learning","feedback_duration_window","5f0cfeef098f1e53ff201909","FjNaKAYjjDNuzXwE7oPjxNAsE133","","","","","","","","","","","","","","","","","","750","","",""
"html-keyboard-response","185","426941","0.0-76.0-3.0","","null","<div style='margin:auto;width: auto; font-size: 150%'><span style='font-weight: bold; font-size: 100px; color: red;'>0 points!</span><br><br></div>","null","delaylearn","learning","feedback_image_window","5f0cfeef098f1e53ff201909","FjNaKAYjjDNuzXwE7oPjxNAsE133","","","","","","","","","","","","","","","","","","","","",""
"html-keyboard-response","186","429341","0.0-77.0","","null","<div style=""font-size:100px;"">+</div>","null","delaylearn","learning","ITI","5f0cfeef098f1e53ff201909","FjNaKAYjjDNuzXwE7oPjxNAsE133","","","","","","","","","","","","","","","","","","","2386","",""
"html-keyboard-response","187","430926","0.0-78.0-0.0","","1581.4000000059605","<div style=""display: flex; flex-direction: column; align-items: center; margin-top: -40px;""><img src=""images/pattern_1.png"" style=""width: 234px; height: 230px; margin-top: -50px;""><div style=""display: flex; justify-content: space-between; margin-top: 33px;""><img src=""images/choice_trial_14.png"" style=""width: 408px; height: 417px; margin-right: 200px;""><img src=""images/choice_trial_8.png"" style=""width: 408px; height: 417px;""></div></div>","f","delaylearn","learning","trial","5f0cfeef098f1e53ff201909","FjNaKAYjjDNuzXwE7oPjxNAsE133","3","images/choice_trial_14.png","images/choice_trial_8.png","images/pattern_1.png","f","f","7000","14","8","1","0","34","1","1","14","190","","","","",""
"html-keyboard-response","188","431941","0.0-78.0-1.0","","null","<div style=""display: flex; flex-direction: column; align-items: center; margin-top: -40px;""><img src=""images/pattern_1.png"" style=""width: 234px; height: 230px; margin-top: -50px;""><div style=""display: flex; justify-content: space-between; margin-top: 33px;""><img src=""images/choice_trial_14.png"" style=""width: 408px; height: 417px; margin-right: 608px;""></div></div>","null","delaylearn","learning","display_response","5f0cfeef098f1e53ff201909","FjNaKAYjjDNuzXwE7oPjxNAsE133","","","","","","","","","","","","","","","","","chosen stimuli: images/choice_trial_14.png","","","",""
"html-keyboard-response","189","438949","0.0-78.0-2.0","","null","","null","delaylearn","learning","feedback_duration_window","5f0cfeef098f1e53ff201909","FjNaKAYjjDNuzXwE7oPjxNAsE133","","","","","","","","","","","","","","","","","","7000","","",""
"html-keyboard-response","190","440460","0.0-78.0-3.0","","null","<div style='margin:auto;width: auto; font-size: 150%'><span style='font-weight: bold; font-size: 100px; color: green;'>+10 points!</span><br><br></div>","null","delaylearn","learning","feedback_image_window","5f0cfeef098f1e53ff201909","FjNaKAYjjDNuzXwE7oPjxNAsE133","","","","","","","","","","","","","","","","","","","","",""
"html-keyboard-response","191","440969","0.0-79.0-0.0","","null","","null","","","mood_trial_fixation","","","","","","","","","","","","","","","","","","","","","","",""
"lmdlab-html-vas-response","192","446634","0.0-79.0-1.0","","4653","How happy are you right now?","0.7166956018518519","delaylearn","learning","mood_trial","5f0cfeef098f1e53ff201909","FjNaKAYjjDNuzXwE7oPjxNAsE133","","","","","","","","","","","","","","","","","","","","[""Very unhappy"",""Very happy""]",""
"html-keyboard-response","193","448333","0.0-80.0","","null","<div style=""font-size:100px;"">+</div>","null","delaylearn","learning","ITI","5f0cfeef098f1e53ff201909","FjNaKAYjjDNuzXwE7oPjxNAsE133","","","","","","","","","","","","","","","","","","","1689","",""
"html-keyboard-response","194","451060","0.0-81.0-0.0","","2724.2999999970198","<div style=""display: flex; flex-direction: column; align-items: center; margin-top: -40px;""><img src=""images/pattern_6.png"" style=""width: 234px; height: 230px; margin-top: -50px;""><div style=""display: flex; justify-content: space-between; margin-top: 33px;""><img src=""images/choice_trial_16.png"" style=""width: 408px; height: 417px; margin-right: 200px;""><img src=""images/choice_trial_3.png"" style=""width: 408px; height: 417px;""></div></div>","f","delaylearn","learning","trial","5f0cfeef098f1e53ff201909","FjNaKAYjjDNuzXwE7oPjxNAsE133","3","images/choice_trial_16.png","images/choice_trial_3.png","images/pattern_6.png","j","f","750","16","3","5","0","35","1","0","16","190","","","","",""
"html-keyboard-response","195","452067","0.0-81.0-1.0","","null","<div style=""display: flex; flex-direction: column; align-items: center; margin-top: -40px;""><img src=""images/pattern_6.png"" style=""width: 234px; height: 230px; margin-top: -50px;""><div style=""display: flex; justify-content: space-between; margin-top: 33px;""><img src=""images/choice_trial_16.png"" style=""width: 408px; height: 417px; margin-right: 608px;""></div></div>","null","delaylearn","learning","display_response","5f0cfeef098f1e53ff201909","FjNaKAYjjDNuzXwE7oPjxNAsE133","","","","","","","","","","","","","","","","","chosen stimuli: images/choice_trial_16.png","","","",""
"html-keyboard-response","196","452830","0.0-81.0-2.0","","null","","null","delaylearn","learning","feedback_duration_window","5f0cfeef098f1e53ff201909","FjNaKAYjjDNuzXwE7oPjxNAsE133","","","","","","","","","","","","","","","","","","750","","",""
"html-keyboard-response","197","454342","0.0-81.0-3.0","","null","<div style='margin:auto;width: auto; font-size: 150%'><span style='font-weight: bold; font-size: 100px; color: red;'>0 points!</span><br><br></div>","null","delaylearn","learning","feedback_image_window","5f0cfeef098f1e53ff201909","FjNaKAYjjDNuzXwE7oPjxNAsE133","","","","","","","","","","","","","","","","","","","","",""
"html-keyboard-response","198","456097","0.0-82.0","","null","<div style=""font-size:100px;"">+</div>","null","delaylearn","learning","ITI","5f0cfeef098f1e53ff201909","FjNaKAYjjDNuzXwE7oPjxNAsE133","","","","","","","","","","","","","","","","","","","1750","",""
"html-keyboard-response","199","458552","0.0-83.0-0.0","","2451.5","<div style=""display: flex; flex-direction: column; align-items: center; margin-top: -40px;""><img src=""images/pattern_3.png"" style=""width: 234px; height: 230px; margin-top: -50px;""><div style=""display: flex; justify-content: space-between; margin-top: 33px;""><img src=""images/choice_trial_10.png"" style=""width: 408px; height: 417px; margin-right: 200px;""><img src=""images/choice_trial_13.png"" style=""width: 408px; height: 417px;""></div></div>","j","delaylearn","learning","trial","5f0cfeef098f1e53ff201909","FjNaKAYjjDNuzXwE7oPjxNAsE133","3","images/choice_trial_10.png","images/choice_trial_13.png","images/pattern_3.png","j","j","7000","10","13","2","1","36","1","1","13","200","","","","",""
"html-keyboard-response","200","459563","0.0-83.0-1.0","","null","<div style=""display: flex; flex-direction: column; align-items: center; margin-top: -40px;""><img src=""images/pattern_3.png"" style=""width: 234px; height: 230px; margin-top: -50px;""><div style=""display: flex; justify-content: space-between; margin-top: 33px;""><img src=""images/choice_trial_13.png"" style=""width: 408px; height: 417px; margin-left:608px;""></div></div>","null","delaylearn","learning","display_response","5f0cfeef098f1e53ff201909","FjNaKAYjjDNuzXwE7oPjxNAsE133","","","","","","","","","","","","","","","","","chosen stimuli: images/choice_trial_13.png","","","",""
"html-keyboard-response","201","466571","0.0-83.0-2.0","","null","","null","delaylearn","learning","feedback_duration_window","5f0cfeef098f1e53ff201909","FjNaKAYjjDNuzXwE7oPjxNAsE133","","","","","","","","","","","","","","","","","","7000","","",""
"html-keyboard-response","202","468083","0.0-83.0-3.0","","null","<div style='margin:auto;width: auto; font-size: 150%'><span style='font-weight: bold; font-size: 100px; color: green;'>+10 points!</span><br><br></div>","null","delaylearn","learning","feedback_image_window","5f0cfeef098f1e53ff201909","FjNaKAYjjDNuzXwE7oPjxNAsE133","","","","","","","","","","","","","","","","","","","","",""
"html-keyboard-response","203","469981","0.0-84.0","","null","<div style=""font-size:100px;"">+</div>","null","delaylearn","learning","ITI","5f0cfeef098f1e53ff201909","FjNaKAYjjDNuzXwE7oPjxNAsE133","","","","","","","","","","","","","","","","","","","1891","",""
"html-keyboard-response","204","471307","0.0-85.0-0.0","","1323.1000000089407","<div style=""display: flex; flex-direction: column; align-items: center; margin-top: -40px;""><img src=""images/pattern_4.png"" style=""width: 234px; height: 230px; margin-top: -50px;""><div style=""display: flex; justify-content: space-between; margin-top: 33px;""><img src=""images/choice_trial_9.png"" style=""width: 408px; height: 417px; margin-right: 200px;""><img src=""images/choice_trial_15.png"" style=""width: 408px; height: 417px;""></div></div>","j","delaylearn","learning","trial","5f0cfeef098f1e53ff201909","FjNaKAYjjDNuzXwE7oPjxNAsE133","3","images/choice_trial_9.png","images/choice_trial_15.png","images/pattern_4.png","f","j","7000","9","15","3","1","37","1","0","15","200","","","","",""
"html-keyboard-response","205","472315","0.0-85.0-1.0","","null","<div style=""display: flex; flex-direction: column; align-items: center; margin-top: -40px;""><img src=""images/pattern_4.png"" style=""width: 234px; height: 230px; margin-top: -50px;""><div style=""display: flex; justify-content: space-between; margin-top: 33px;""><img src=""images/choice_trial_15.png"" style=""width: 408px; height: 417px; margin-left:608px;""></div></div>","null","delaylearn","learning","display_response","5f0cfeef098f1e53ff201909","FjNaKAYjjDNuzXwE7oPjxNAsE133","","","","","","","","","","","","","","","","","chosen stimuli: images/choice_trial_15.png","","","",""
"html-keyboard-response","206","479322","0.0-85.0-2.0","","null","","null","delaylearn","learning","feedback_duration_window","5f0cfeef098f1e53ff201909","FjNaKAYjjDNuzXwE7oPjxNAsE133","","","","","","","","","","","","","","","","","","7000","","",""
"html-keyboard-response","207","480831","0.0-85.0-3.0","","null","<div style='margin:auto;width: auto; font-size: 150%'><span style='font-weight: bold; font-size: 100px; color: red;'>0 points!</span><br><br></div>","null","delaylearn","learning","feedback_image_window","5f0cfeef098f1e53ff201909","FjNaKAYjjDNuzXwE7oPjxNAsE133","","","","","","","","","","","","","","","","","","","","",""
"html-keyboard-response","208","483222","0.0-86.0","","null","<div style=""font-size:100px;"">+</div>","null","delaylearn","learning","ITI","5f0cfeef098f1e53ff201909","FjNaKAYjjDNuzXwE7oPjxNAsE133","","","","","","","","","","","","","","","","","","","2378","",""
"html-keyboard-response","209","485307","0.0-87.0-0.0","","2082.4000000059605","<div style=""display: flex; flex-direction: column; align-items: center; margin-top: -40px;""><img src=""images/pattern_7.png"" style=""width: 234px; height: 230px; margin-top: -50px;""><div style=""display: flex; justify-content: space-between; margin-top: 33px;""><img src=""images/choice_trial_6.png"" style=""width: 408px; height: 417px; margin-right: 200px;""><img src=""images/choice_trial_12.png"" style=""width: 408px; height: 417px;""></div></div>","f","delaylearn","learning","trial","5f0cfeef098f1e53ff201909","FjNaKAYjjDNuzXwE7oPjxNAsE133","3","images/choice_trial_6.png","images/choice_trial_12.png","images/pattern_7.png","f","f","750","6","12","6","0","38","1","1","6","210","","","","",""
"html-keyboard-response","210","486314","0.0-87.0-1.0","","null","<div style=""display: flex; flex-direction: column; align-items: center; margin-top: -40px;""><img src=""images/pattern_7.png"" style=""width: 234px; height: 230px; margin-top: -50px;""><div style=""display: flex; justify-content: space-between; margin-top: 33px;""><img src=""images/choice_trial_6.png"" style=""width: 408px; height: 417px; margin-right: 608px;""></div></div>","null","delaylearn","learning","display_response","5f0cfeef098f1e53ff201909","FjNaKAYjjDNuzXwE7oPjxNAsE133","","","","","","","","","","","","","","","","","chosen stimuli: images/choice_trial_6.png","","","",""
"html-keyboard-response","211","487074","0.0-87.0-2.0","","null","","null","delaylearn","learning","feedback_duration_window","5f0cfeef098f1e53ff201909","FjNaKAYjjDNuzXwE7oPjxNAsE133","","","","","","","","","","","","","","","","","","750","","",""
"html-keyboard-response","212","488578","0.0-87.0-3.0","","null","<div style='margin:auto;width: auto; font-size: 150%'><span style='font-weight: bold; font-size: 100px; color: green;'>+10 points!</span><br><br></div>","null","delaylearn","learning","feedback_image_window","5f0cfeef098f1e53ff201909","FjNaKAYjjDNuzXwE7oPjxNAsE133","","","","","","","","","","","","","","","","","","","","",""
"html-keyboard-response","213","490214","0.0-88.0","","null","<div style=""font-size:100px;"">+</div>","null","delaylearn","learning","ITI","5f0cfeef098f1e53ff201909","FjNaKAYjjDNuzXwE7oPjxNAsE133","","","","","","","","","","","","","","","","","","","1630","",""
"html-keyboard-response","214","492269","0.0-89.0-0.0","","2052.4000000059605","<div style=""display: flex; flex-direction: column; align-items: center; margin-top: -40px;""><img src=""images/pattern_1.png"" style=""width: 234px; height: 230px; margin-top: -50px;""><div style=""display: flex; justify-content: space-between; margin-top: 33px;""><img src=""images/choice_trial_14.png"" style=""width: 408px; height: 417px; margin-right: 200px;""><img src=""images/choice_trial_8.png"" style=""width: 408px; height: 417px;""></div></div>","f","delaylearn","learning","trial","5f0cfeef098f1e53ff201909","FjNaKAYjjDNuzXwE7oPjxNAsE133","3","images/choice_trial_14.png","images/choice_trial_8.png","images/pattern_1.png","f","f","7000","14","8","1","0","39","1","1","14","220","","","","",""
"html-keyboard-response","215","493275","0.0-89.0-1.0","","null","<div style=""display: flex; flex-direction: column; align-items: center; margin-top: -40px;""><img src=""images/pattern_1.png"" style=""width: 234px; height: 230px; margin-top: -50px;""><div style=""display: flex; justify-content: space-between; margin-top: 33px;""><img src=""images/choice_trial_14.png"" style=""width: 408px; height: 417px; margin-right: 608px;""></div></div>","null","delaylearn","learning","display_response","5f0cfeef098f1e53ff201909","FjNaKAYjjDNuzXwE7oPjxNAsE133","","","","","","","","","","","","","","","","","chosen stimuli: images/choice_trial_14.png","","","",""
"html-keyboard-response","216","500284","0.0-89.0-2.0","","null","","null","delaylearn","learning","feedback_duration_window","5f0cfeef098f1e53ff201909","FjNaKAYjjDNuzXwE7oPjxNAsE133","","","","","","","","","","","","","","","","","","7000","","",""
"html-keyboard-response","217","501794","0.0-89.0-3.0","","null","<div style='margin:auto;width: auto; font-size: 150%'><span style='font-weight: bold; font-size: 100px; color: green;'>+10 points!</span><br><br></div>","null","delaylearn","learning","feedback_image_window","5f0cfeef098f1e53ff201909","FjNaKAYjjDNuzXwE7oPjxNAsE133","","","","","","","","","","","","","","","","","","","","",""
"html-keyboard-response","218","502302","0.0-90.0-0.0","","null","","null","","","mood_trial_fixation","","","","","","","","","","","","","","","","","","","","","","",""
"lmdlab-html-vas-response","219","507324","0.0-90.0-1.0","","4011","How happy are you right now?","0.7611400462962963","delaylearn","learning","mood_trial","5f0cfeef098f1e53ff201909","FjNaKAYjjDNuzXwE7oPjxNAsE133","","","","","","","","","","","","","","","","","","","","[""Very unhappy"",""Very happy""]",""
"html-keyboard-response","220","509399","0.0-91.0","","null","<div style=""font-size:100px;"">+</div>","null","delaylearn","learning","ITI","5f0cfeef098f1e53ff201909","FjNaKAYjjDNuzXwE7oPjxNAsE133","","","","","","","","","","","","","","","","","","","2065","",""
