"trial_type","trial_index","time_elapsed","internal_node_id","participant","rt","stimulus","response","exp_name","exp_stage","test_part","subjectID","databaseID","counterbal","choice_stimuli_1","choice_stimuli_2","pattern_stimuli","rewarded_answer","correct_answer","feedback_duration_times","stim_left","stim_right","pair","leftright_counter","trial","response_correct","response_rewarded","chosen_stim","counter","displayed_choice","feedback_durations","ITI_duration","labels","rest_warning"
"pavlovia","0","516","0.0-0.0","","","","","","","","","","","","","","","","","","","","","","","","","","","","","",""
"html-keyboard-response","1","3520","0.0-1.0","","null","<div style=""font-size:100px;"">+</div>","null","delaylearn","learning","pre_fixation","5e89e802134569681e691e0a","","","","","","","","","","","","","","","","","","","","","",""
"html-keyboard-response","2","5155","0.0-2.0-0.0","","1632.0999999940395","<div style=""display: flex; flex-direction: column; align-items: center; margin-top: -40px;""><img src=""images/demo_images/pattern_1.png"" style=""width: 234px; height: 230px; margin-top: -50px;""><div style=""display: flex; justify-content: space-between; margin-top: 33px;""><img src=""images/demo_images/choice_trial_2.png"" style=""width: 408px; height: 417px; margin-right: 200px;""><img src=""images/demo_images/choice_trial_1.png"" style=""width: 408px; height: 417px;""></div></div>","j","delaylearn","learning","trial","5e89e802134569681e691e0a","4BGvIZTajUP41tE1FjPA1Yr8SZI3","3","images/demo_images/choice_trial_2.png","images/demo_images/choice_trial_1.png","images/demo_images/pattern_1.png","j","j","3000","2","1","20","1","1","1","1","1","10","","","","",""
"html-keyboard-response","3","6161","0.0-2.0-1.0","","null","<div style=""display: flex; flex-direction: column; align-items: center; margin-top: -40px;""><img src=""images/demo_images/pattern_1.png"" style=""width: 234px; height: 230px; margin-top: -50px;""><div style=""display: flex; justify-content: space-between; margin-top: 33px;""><img src=""images/demo_images/choice_trial_1.png"" style=""width: 408px; height: 417px; margin-left:608px;""></div></div>","null","delaylearn","learning","display_response","5e89e802134569681e691e0a","4BGvIZTajUP41tE1FjPA1Yr8SZI3","","","","","","","","","","","","","","","","","chosen stimuli: images/demo_images/choice_trial_1.png","","","",""
"html-keyboard-response","4","9165","0.0-2.0-2.0","","null","","null","delaylearn","learning","feedback_duration_window","5e89e802134569681e691e0a","4BGvIZTajUP41tE1FjPA1Yr8SZI3","","","","","","","","","","","","","","","","","","3000","","",""
"html-keyboard-response","5","10668","0.0-2.0-3.0","","null","<div style='margin:auto;width: auto; font-size: 150%'><span style='font-weight: bold; font-size: 100px; color: green;'>+10 points!</span><br><br></div>","null","delaylearn","learning","feedback_image_window","5e89e802134569681e691e0a","4BGvIZTajUP41tE1FjPA1Yr8SZI3","","","","","","","","","","","","","","","","","","","","",""
"html-keyboard-response","6","12781","0.0-3.0","","null","<div style=""font-size:100px;"">+</div>","null","delaylearn","learning","ITI","5e89e802134569681e691e0a","4BGvIZTajUP41tE1FjPA1Yr8SZI3","","","","","","","","","","","","","","","","","","","2111","",""
"html-keyboard-response","7","14185","0.0-4.0-0.0","","1400.5","<div style=""display: flex; flex-direction: column; align-items: center; margin-top: -40px;""><img src=""images/demo_images/pattern_1.png"" style=""width: 234px; height: 230px; margin-top: -50px;""><div style=""display: flex; justify-content: space-between; margin-top: 33px;""><img src=""images/demo_images/choice_trial_2.png"" style=""width: 408px; height: 417px; margin-right: 200px;""><img src=""images/demo_images/choice_trial_1.png"" style=""width: 408px; height: 417px;""></div></div>","j","delaylearn","learning","trial","5e89e802134569681e691e0a","4BGvIZTajUP41tE1FjPA1Yr8SZI3","3","images/demo_images/choice_trial_2.png","images/demo_images/choice_trial_1.png","images/demo_images/pattern_1.png","j","j","3000","2","1","20","1","2","1","1","1","20","","","","",""
"html-keyboard-response","8","15188","0.0-4.0-1.0","","null","<div style=""display: flex; flex-direction: column; align-items: center; margin-top: -40px;""><img src=""images/demo_images/pattern_1.png"" style=""width: 234px; height: 230px; margin-top: -50px;""><div style=""display: flex; justify-content: space-between; margin-top: 33px;""><img src=""images/demo_images/choice_trial_1.png"" style=""width: 408px; height: 417px; margin-left:608px;""></div></div>","null","delaylearn","learning","display_response","5e89e802134569681e691e0a","4BGvIZTajUP41tE1FjPA1Yr8SZI3","","","","","","","","","","","","","","","","","chosen stimuli: images/demo_images/choice_trial_1.png","","","",""
"html-keyboard-response","9","18190","0.0-4.0-2.0","","null","","null","delaylearn","learning","feedback_duration_window","5e89e802134569681e691e0a","4BGvIZTajUP41tE1FjPA1Yr8SZI3","","","","","","","","","","","","","","","","","","3000","","",""
"html-keyboard-response","10","19693","0.0-4.0-3.0","","null","<div style='margin:auto;width: auto; font-size: 150%'><span style='font-weight: bold; font-size: 100px; color: green;'>+10 points!</span><br><br></div>","null","delaylearn","learning","feedback_image_window","5e89e802134569681e691e0a","4BGvIZTajUP41tE1FjPA1Yr8SZI3","","","","","","","","","","","","","","","","","","","","",""
"html-keyboard-response","11","21421","0.0-5.0","","null","<div style=""font-size:100px;"">+</div>","null","delaylearn","learning","ITI","5e89e802134569681e691e0a","4BGvIZTajUP41tE1FjPA1Yr8SZI3","","","","","","","","","","","","","","","","","","","1725","",""
"html-keyboard-response","12","23541","0.0-6.0-0.0","","2117.7000000029802","<div style=""display: flex; flex-direction: column; align-items: center; margin-top: -40px;""><img src=""images/demo_images/pattern_1.png"" style=""width: 234px; height: 230px; margin-top: -50px;""><div style=""display: flex; justify-content: space-between; margin-top: 33px;""><img src=""images/demo_images/choice_trial_1.png"" style=""width: 408px; height: 417px; margin-right: 200px;""><img src=""images/demo_images/choice_trial_2.png"" style=""width: 408px; height: 417px;""></div></div>","j","delaylearn","learning","trial","5e89e802134569681e691e0a","4BGvIZTajUP41tE1FjPA1Yr8SZI3","3","images/demo_images/choice_trial_1.png","images/demo_images/choice_trial_2.png","images/demo_images/pattern_1.png","j","f","3000","1","2","20","0","3","0","1","2","30","","","","",""
"html-keyboard-response","13","24545","0.0-6.0-1.0","","null","<div style=""display: flex; flex-direction: column; align-items: center; margin-top: -40px;""><img src=""images/demo_images/pattern_1.png"" style=""width: 234px; height: 230px; margin-top: -50px;""><div style=""display: flex; justify-content: space-between; margin-top: 33px;""><img src=""images/demo_images/choice_trial_2.png"" style=""width: 408px; height: 417px; margin-left:608px;""></div></div>","null","delaylearn","learning","display_response","5e89e802134569681e691e0a","4BGvIZTajUP41tE1FjPA1Yr8SZI3","","","","","","","","","","","","","","","","","chosen stimuli: images/demo_images/choice_trial_2.png","","","",""
"html-keyboard-response","14","27548","0.0-6.0-2.0","","null","","null","delaylearn","learning","feedback_duration_window","5e89e802134569681e691e0a","4BGvIZTajUP41tE1FjPA1Yr8SZI3","","","","","","","","","","","","","","","","","","3000","","",""
"html-keyboard-response","15","29051","0.0-6.0-3.0","","null","<div style='margin:auto;width: auto; font-size: 150%'><span style='font-weight: bold; font-size: 100px; color: green;'>+10 points!</span><br><br></div>","null","delaylearn","learning","feedback_image_window","5e89e802134569681e691e0a","4BGvIZTajUP41tE1FjPA1Yr8SZI3","","","","","","","","","","","","","","","","","","","","",""
"html-keyboard-response","16","30757","0.0-7.0","","null","<div style=""font-size:100px;"">+</div>","null","delaylearn","learning","ITI","5e89e802134569681e691e0a","4BGvIZTajUP41tE1FjPA1Yr8SZI3","","","","","","","","","","","","","","","","","","","1704","",""
"html-keyboard-response","17","32071","0.0-8.0-0.0","","1310.8999999910593","<div style=""display: flex; flex-direction: column; align-items: center; margin-top: -40px;""><img src=""images/demo_images/pattern_1.png"" style=""width: 234px; height: 230px; margin-top: -50px;""><div style=""display: flex; justify-content: space-between; margin-top: 33px;""><img src=""images/demo_images/choice_trial_1.png"" style=""width: 408px; height: 417px; margin-right: 200px;""><img src=""images/demo_images/choice_trial_2.png"" style=""width: 408px; height: 417px;""></div></div>","j","delaylearn","learning","trial","5e89e802134569681e691e0a","4BGvIZTajUP41tE1FjPA1Yr8SZI3","3","images/demo_images/choice_trial_1.png","images/demo_images/choice_trial_2.png","images/demo_images/pattern_1.png","f","f","3000","1","2","20","0","4","0","0","2","30","","","","",""
"html-keyboard-response","18","33075","0.0-8.0-1.0","","null","<div style=""display: flex; flex-direction: column; align-items: center; margin-top: -40px;""><img src=""images/demo_images/pattern_1.png"" style=""width: 234px; height: 230px; margin-top: -50px;""><div style=""display: flex; justify-content: space-between; margin-top: 33px;""><img src=""images/demo_images/choice_trial_2.png"" style=""width: 408px; height: 417px; margin-left:608px;""></div></div>","null","delaylearn","learning","display_response","5e89e802134569681e691e0a","4BGvIZTajUP41tE1FjPA1Yr8SZI3","","","","","","","","","","","","","","","","","chosen stimuli: images/demo_images/choice_trial_2.png","","","",""
"html-keyboard-response","19","36077","0.0-8.0-2.0","","null","","null","delaylearn","learning","feedback_duration_window","5e89e802134569681e691e0a","4BGvIZTajUP41tE1FjPA1Yr8SZI3","","","","","","","","","","","","","","","","","","3000","","",""
"html-keyboard-response","20","37581","0.0-8.0-3.0","","null","<div style='margin:auto;width: auto; font-size: 150%'><span style='font-weight: bold; font-size: 100px; color: red;'>0 points!</span><br><br></div>","null","delaylearn","learning","feedback_image_window","5e89e802134569681e691e0a","4BGvIZTajUP41tE1FjPA1Yr8SZI3","","","","","","","","","","","","","","","","","","","","",""
"html-keyboard-response","21","38085","0.0-9.0-0.0","","null","","null","","","mood_trial_fixation","","","","","","","","","","","","","","","","","","","","","","",""
"lmdlab-html-vas-response","22","45118","0.0-9.0-1.0","","6020","How happy are you right now?","0.4777777777777778","delaylearn","learning","mood_trial","5e89e802134569681e691e0a","4BGvIZTajUP41tE1FjPA1Yr8SZI3","","","","","","","","","","","","","","","","","","","","[""Very unhappy"",""Very happy""]",""
"html-keyboard-response","23","47154","0.0-10.0","","null","<div style=""font-size:100px;"">+</div>","null","delaylearn","learning","ITI","5e89e802134569681e691e0a","4BGvIZTajUP41tE1FjPA1Yr8SZI3","","","","","","","","","","","","","","","","","","","2034","",""
"html-keyboard-response","24","48328","0.0-11.0-0.0","","1170.5999999940395","<div style=""display: flex; flex-direction: column; align-items: center; margin-top: -40px;""><img src=""images/demo_images/pattern_1.png"" style=""width: 234px; height: 230px; margin-top: -50px;""><div style=""display: flex; justify-content: space-between; margin-top: 33px;""><img src=""images/demo_images/choice_trial_2.png"" style=""width: 408px; height: 417px; margin-right: 200px;""><img src=""images/demo_images/choice_trial_1.png"" style=""width: 408px; height: 417px;""></div></div>","j","delaylearn","learning","trial","5e89e802134569681e691e0a","4BGvIZTajUP41tE1FjPA1Yr8SZI3","3","images/demo_images/choice_trial_2.png","images/demo_images/choice_trial_1.png","images/demo_images/pattern_1.png","j","j","3000","2","1","20","1","5","1","1","1","40","","","","",""
"html-keyboard-response","25","49333","0.0-11.0-1.0","","null","<div style=""display: flex; flex-direction: column; align-items: center; margin-top: -40px;""><img src=""images/demo_images/pattern_1.png"" style=""width: 234px; height: 230px; margin-top: -50px;""><div style=""display: flex; justify-content: space-between; margin-top: 33px;""><img src=""images/demo_images/choice_trial_1.png"" style=""width: 408px; height: 417px; margin-left:608px;""></div></div>","null","delaylearn","learning","display_response","5e89e802134569681e691e0a","4BGvIZTajUP41tE1FjPA1Yr8SZI3","","","","","","","","","","","","","","","","","chosen stimuli: images/demo_images/choice_trial_1.png","","","",""
"html-keyboard-response","26","52335","0.0-11.0-2.0","","null","","null","delaylearn","learning","feedback_duration_window","5e89e802134569681e691e0a","4BGvIZTajUP41tE1FjPA1Yr8SZI3","","","","","","","","","","","","","","","","","","3000","","",""
"html-keyboard-response","27","53838","0.0-11.0-3.0","","null","<div style='margin:auto;width: auto; font-size: 150%'><span style='font-weight: bold; font-size: 100px; color: green;'>+10 points!</span><br><br></div>","null","delaylearn","learning","feedback_image_window","5e89e802134569681e691e0a","4BGvIZTajUP41tE1FjPA1Yr8SZI3","","","","","","","","","","","","","","","","","","","","",""
"html-keyboard-response","28","56320","0.0-12.0","","null","<div style=""font-size:100px;"">+</div>","null","delaylearn","learning","ITI","5e89e802134569681e691e0a","4BGvIZTajUP41tE1FjPA1Yr8SZI3","","","","","","","","","","","","","","","","","","","2478","",""
"html-keyboard-response","29","57640","0.0-13.0-0.0","","1317.3999999910593","<div style=""display: flex; flex-direction: column; align-items: center; margin-top: -40px;""><img src=""images/demo_images/pattern_1.png"" style=""width: 234px; height: 230px; margin-top: -50px;""><div style=""display: flex; justify-content: space-between; margin-top: 33px;""><img src=""images/demo_images/choice_trial_1.png"" style=""width: 408px; height: 417px; margin-right: 200px;""><img src=""images/demo_images/choice_trial_2.png"" style=""width: 408px; height: 417px;""></div></div>","f","delaylearn","learning","trial","5e89e802134569681e691e0a","4BGvIZTajUP41tE1FjPA1Yr8SZI3","3","images/demo_images/choice_trial_1.png","images/demo_images/choice_trial_2.png","images/demo_images/pattern_1.png","f","f","3000","1","2","20","0","6","1","1","1","50","","","","",""
"html-keyboard-response","30","58643","0.0-13.0-1.0","","null","<div style=""display: flex; flex-direction: column; align-items: center; margin-top: -40px;""><img src=""images/demo_images/pattern_1.png"" style=""width: 234px; height: 230px; margin-top: -50px;""><div style=""display: flex; justify-content: space-between; margin-top: 33px;""><img src=""images/demo_images/choice_trial_1.png"" style=""width: 408px; height: 417px; margin-right: 608px;""></div></div>","null","delaylearn","learning","display_response","5e89e802134569681e691e0a","4BGvIZTajUP41tE1FjPA1Yr8SZI3","","","","","","","","","","","","","","","","","chosen stimuli: images/demo_images/choice_trial_1.png","","","",""
"html-keyboard-response","31","61646","0.0-13.0-2.0","","null","","null","delaylearn","learning","feedback_duration_window","5e89e802134569681e691e0a","4BGvIZTajUP41tE1FjPA1Yr8SZI3","","","","","","","","","","","","","","","","","","3000","","",""
"html-keyboard-response","32","63150","0.0-13.0-3.0","","null","<div style='margin:auto;width: auto; font-size: 150%'><span style='font-weight: bold; font-size: 100px; color: green;'>+10 points!</span><br><br></div>","null","delaylearn","learning","feedback_image_window","5e89e802134569681e691e0a","4BGvIZTajUP41tE1FjPA1Yr8SZI3","","","","","","","","","","","","","","","","","","","","",""
"html-keyboard-response","33","64967","0.0-14.0","","null","<div style=""font-size:100px;"">+</div>","null","delaylearn","learning","ITI","5e89e802134569681e691e0a","4BGvIZTajUP41tE1FjPA1Yr8SZI3","","","","","","","","","","","","","","","","","","","1813","",""
"html-keyboard-response","34","66003","0.0-15.0-0.0","","1032.800000011921","<div style=""display: flex; flex-direction: column; align-items: center; margin-top: -40px;""><img src=""images/demo_images/pattern_1.png"" style=""width: 234px; height: 230px; margin-top: -50px;""><div style=""display: flex; justify-content: space-between; margin-top: 33px;""><img src=""images/demo_images/choice_trial_2.png"" style=""width: 408px; height: 417px; margin-right: 200px;""><img src=""images/demo_images/choice_trial_1.png"" style=""width: 408px; height: 417px;""></div></div>","j","delaylearn","learning","trial","5e89e802134569681e691e0a","4BGvIZTajUP41tE1FjPA1Yr8SZI3","3","images/demo_images/choice_trial_2.png","images/demo_images/choice_trial_1.png","images/demo_images/pattern_1.png","j","j","3000","2","1","20","1","7","1","1","1","60","","","","",""
"html-keyboard-response","35","67007","0.0-15.0-1.0","","null","<div style=""display: flex; flex-direction: column; align-items: center; margin-top: -40px;""><img src=""images/demo_images/pattern_1.png"" style=""width: 234px; height: 230px; margin-top: -50px;""><div style=""display: flex; justify-content: space-between; margin-top: 33px;""><img src=""images/demo_images/choice_trial_1.png"" style=""width: 408px; height: 417px; margin-left:608px;""></div></div>","null","delaylearn","learning","display_response","5e89e802134569681e691e0a","4BGvIZTajUP41tE1FjPA1Yr8SZI3","","","","","","","","","","","","","","","","","chosen stimuli: images/demo_images/choice_trial_1.png","","","",""
"html-keyboard-response","36","70010","0.0-15.0-2.0","","null","","null","delaylearn","learning","feedback_duration_window","5e89e802134569681e691e0a","4BGvIZTajUP41tE1FjPA1Yr8SZI3","","","","","","","","","","","","","","","","","","3000","","",""
"html-keyboard-response","37","71513","0.0-15.0-3.0","","null","<div style='margin:auto;width: auto; font-size: 150%'><span style='font-weight: bold; font-size: 100px; color: green;'>+10 points!</span><br><br></div>","null","delaylearn","learning","feedback_image_window","5e89e802134569681e691e0a","4BGvIZTajUP41tE1FjPA1Yr8SZI3","","","","","","","","","","","","","","","","","","","","",""
"html-keyboard-response","38","73745","0.0-16.0","","null","<div style=""font-size:100px;"">+</div>","null","delaylearn","learning","ITI","5e89e802134569681e691e0a","4BGvIZTajUP41tE1FjPA1Yr8SZI3","","","","","","","","","","","","","","","","","","","2229","",""
"html-keyboard-response","39","74951","0.0-17.0-0.0","","1202.9000000059605","<div style=""display: flex; flex-direction: column; align-items: center; margin-top: -40px;""><img src=""images/demo_images/pattern_1.png"" style=""width: 234px; height: 230px; margin-top: -50px;""><div style=""display: flex; justify-content: space-between; margin-top: 33px;""><img src=""images/demo_images/choice_trial_1.png"" style=""width: 408px; height: 417px; margin-right: 200px;""><img src=""images/demo_images/choice_trial_2.png"" style=""width: 408px; height: 417px;""></div></div>","f","delaylearn","learning","trial","5e89e802134569681e691e0a","4BGvIZTajUP41tE1FjPA1Yr8SZI3","3","images/demo_images/choice_trial_1.png","images/demo_images/choice_trial_2.png","images/demo_images/pattern_1.png","f","f","3000","1","2","20","0","8","1","1","1","70","","","","",""
"html-keyboard-response","40","75954","0.0-17.0-1.0","","null","<div style=""display: flex; flex-direction: column; align-items: center; margin-top: -40px;""><img src=""images/demo_images/pattern_1.png"" style=""width: 234px; height: 230px; margin-top: -50px;""><div style=""display: flex; justify-content: space-between; margin-top: 33px;""><img src=""images/demo_images/choice_trial_1.png"" style=""width: 408px; height: 417px; margin-right: 608px;""></div></div>","null","delaylearn","learning","display_response","5e89e802134569681e691e0a","4BGvIZTajUP41tE1FjPA1Yr8SZI3","","","","","","","","","","","","","","","","","chosen stimuli: images/demo_images/choice_trial_1.png","","","",""
"html-keyboard-response","41","78957","0.0-17.0-2.0","","null","","null","delaylearn","learning","feedback_duration_window","5e89e802134569681e691e0a","4BGvIZTajUP41tE1FjPA1Yr8SZI3","","","","","","","","","","","","","","","","","","3000","","",""
"html-keyboard-response","42","80461","0.0-17.0-3.0","","null","<div style='margin:auto;width: auto; font-size: 150%'><span style='font-weight: bold; font-size: 100px; color: green;'>+10 points!</span><br><br></div>","null","delaylearn","learning","feedback_image_window","5e89e802134569681e691e0a","4BGvIZTajUP41tE1FjPA1Yr8SZI3","","","","","","","","","","","","","","","","","","","","",""
"html-button-response","43","83567","0.0-18.0","","3102.6000000089407","
  <div style=""display: flex; align-items: center; justify-content: center; height: 80vh;"">
  <div>
          <img src=""images/inst_demo_finish.png"" style=""width: 80vw; height:auto;"">
          <br><br>
      </div>
      <br><br>
  </div>","0","","","","","","","","","","","","","","","","","","","","","","","","","",""
"html-keyboard-response","44","91178","0.0-19.0","","7610.20000000298","
  <div style=""display: flex; align-items: center; justify-content: center; height: 80vh;"">
  <div>
          <img src=""images/inst_6.png"" style=""width: 80vw; height:auto;"">
          <br><br>
      </div>
      <br><br>
  </div>","f","","","","","","","","","","","","","","","","","","","","","","","","","",""
"html-keyboard-response","45","94182","0.0-20.0","","null","<div style=""font-size:100px;"">+</div>","null","delaylearn","learning","pre_fixation","5e89e802134569681e691e0a","","","","","","","","","","","","","","","","","","","","","",""
"html-keyboard-response","46","95988","0.0-21.0","","null","<div style=""font-size:100px;"">+</div>","null","delaylearn","learning","ITI","5e89e802134569681e691e0a","4BGvIZTajUP41tE1FjPA1Yr8SZI3","","","","","","","","","","","","","","","","","","","1802","",""
"html-keyboard-response","47","98024","0.0-22.0-0.0","","2032.8999999910593","<div style=""display: flex; flex-direction: column; align-items: center; margin-top: -40px;""><img src=""images/pattern_3.png"" style=""width: 234px; height: 230px; margin-top: -50px;""><div style=""display: flex; justify-content: space-between; margin-top: 33px;""><img src=""images/choice_trial_13.png"" style=""width: 408px; height: 417px; margin-right: 200px;""><img src=""images/choice_trial_10.png"" style=""width: 408px; height: 417px;""></div></div>","f","delaylearn","learning","trial","5e89e802134569681e691e0a","4BGvIZTajUP41tE1FjPA1Yr8SZI3","3","images/choice_trial_13.png","images/choice_trial_10.png","images/pattern_3.png","f","f","7000","13","10","2","0","9","1","1","13","80","","","","",""
"html-keyboard-response","48","99028","0.0-22.0-1.0","","null","<div style=""display: flex; flex-direction: column; align-items: center; margin-top: -40px;""><img src=""images/pattern_3.png"" style=""width: 234px; height: 230px; margin-top: -50px;""><div style=""display: flex; justify-content: space-between; margin-top: 33px;""><img src=""images/choice_trial_13.png"" style=""width: 408px; height: 417px; margin-right: 608px;""></div></div>","null","delaylearn","learning","display_response","5e89e802134569681e691e0a","4BGvIZTajUP41tE1FjPA1Yr8SZI3","","","","","","","","","","","","","","","","","chosen stimuli: images/choice_trial_13.png","","","",""
"html-keyboard-response","49","106030","0.0-22.0-2.0","","null","","null","delaylearn","learning","feedback_duration_window","5e89e802134569681e691e0a","4BGvIZTajUP41tE1FjPA1Yr8SZI3","","","","","","","","","","","","","","","","","","7000","","",""
"html-keyboard-response","50","107535","0.0-22.0-3.0","","null","<div style='margin:auto;width: auto; font-size: 150%'><span style='font-weight: bold; font-size: 100px; color: green;'>+10 points!</span><br><br></div>","null","delaylearn","learning","feedback_image_window","5e89e802134569681e691e0a","4BGvIZTajUP41tE1FjPA1Yr8SZI3","","","","","","","","","","","","","","","","","","","","",""
"html-keyboard-response","51","109641","0.0-23.0","","null","<div style=""font-size:100px;"">+</div>","null","delaylearn","learning","ITI","5e89e802134569681e691e0a","4BGvIZTajUP41tE1FjPA1Yr8SZI3","","","","","","","","","","","","","","","","","","","2104","",""
"html-keyboard-response","52","110728","0.0-24.0-0.0","","1083.5","<div style=""display: flex; flex-direction: column; align-items: center; margin-top: -40px;""><img src=""images/pattern_7.png"" style=""width: 234px; height: 230px; margin-top: -50px;""><div style=""display: flex; justify-content: space-between; margin-top: 33px;""><img src=""images/choice_trial_12.png"" style=""width: 408px; height: 417px; margin-right: 200px;""><img src=""images/choice_trial_6.png"" style=""width: 408px; height: 417px;""></div></div>","j","delaylearn","learning","trial","5e89e802134569681e691e0a","4BGvIZTajUP41tE1FjPA1Yr8SZI3","3","images/choice_trial_12.png","images/choice_trial_6.png","images/pattern_7.png","j","j","750","12","6","6","1","10","1","1","6","90","","","","",""
"html-keyboard-response","53","111731","0.0-24.0-1.0","","null","<div style=""display: flex; flex-direction: column; align-items: center; margin-top: -40px;""><img src=""images/pattern_7.png"" style=""width: 234px; height: 230px; margin-top: -50px;""><div style=""display: flex; justify-content: space-between; margin-top: 33px;""><img src=""images/choice_trial_6.png"" style=""width: 408px; height: 417px; margin-left:608px;""></div></div>","null","delaylearn","learning","display_response","5e89e802134569681e691e0a","4BGvIZTajUP41tE1FjPA1Yr8SZI3","","","","","","","","","","","","","","","","","chosen stimuli: images/choice_trial_6.png","","","",""
"html-keyboard-response","54","112484","0.0-24.0-2.0","","null","","null","delaylearn","learning","feedback_duration_window","5e89e802134569681e691e0a","4BGvIZTajUP41tE1FjPA1Yr8SZI3","","","","","","","","","","","","","","","","","","750","","",""
"html-keyboard-response","55","113987","0.0-24.0-3.0","","null","<div style='margin:auto;width: auto; font-size: 150%'><span style='font-weight: bold; font-size: 100px; color: green;'>+10 points!</span><br><br></div>","null","delaylearn","learning","feedback_image_window","5e89e802134569681e691e0a","4BGvIZTajUP41tE1FjPA1Yr8SZI3","","","","","","","","","","","","","","","","","","","","",""
"html-keyboard-response","56","115519","0.0-25.0","","null","<div style=""font-size:100px;"">+</div>","null","delaylearn","learning","ITI","5e89e802134569681e691e0a","4BGvIZTajUP41tE1FjPA1Yr8SZI3","","","","","","","","","","","","","","","","","","","1529","",""
"html-keyboard-response","57","117532","0.0-26.0-0.0","","2010.2999999970198","<div style=""display: flex; flex-direction: column; align-items: center; margin-top: -40px;""><img src=""images/pattern_4.png"" style=""width: 234px; height: 230px; margin-top: -50px;""><div style=""display: flex; justify-content: space-between; margin-top: 33px;""><img src=""images/choice_trial_15.png"" style=""width: 408px; height: 417px; margin-right: 200px;""><img src=""images/choice_trial_9.png"" style=""width: 408px; height: 417px;""></div></div>","j","delaylearn","learning","trial","5e89e802134569681e691e0a","4BGvIZTajUP41tE1FjPA1Yr8SZI3","3","images/choice_trial_15.png","images/choice_trial_9.png","images/pattern_4.png","f","f","7000","15","9","3","0","11","0","0","9","90","","","","",""
"html-keyboard-response","58","118536","0.0-26.0-1.0","","null","<div style=""display: flex; flex-direction: column; align-items: center; margin-top: -40px;""><img src=""images/pattern_4.png"" style=""width: 234px; height: 230px; margin-top: -50px;""><div style=""display: flex; justify-content: space-between; margin-top: 33px;""><img src=""images/choice_trial_9.png"" style=""width: 408px; height: 417px; margin-left:608px;""></div></div>","null","delaylearn","learning","display_response","5e89e802134569681e691e0a","4BGvIZTajUP41tE1FjPA1Yr8SZI3","","","","","","","","","","","","","","","","","chosen stimuli: images/choice_trial_9.png","","","",""
"html-keyboard-response","59","125538","0.0-26.0-2.0","","null","","null","delaylearn","learning","feedback_duration_window","5e89e802134569681e691e0a","4BGvIZTajUP41tE1FjPA1Yr8SZI3","","","","","","","","","","","","","","","","","","7000","","",""
"html-keyboard-response","60","127042","0.0-26.0-3.0","","null","<div style='margin:auto;width: auto; font-size: 150%'><span style='font-weight: bold; font-size: 100px; color: red;'>0 points!</span><br><br></div>","null","delaylearn","learning","feedback_image_window","5e89e802134569681e691e0a","4BGvIZTajUP41tE1FjPA1Yr8SZI3","","","","","","","","","","","","","","","","","","","","",""
"html-keyboard-response","61","129312","0.0-27.0","","null","<div style=""font-size:100px;"">+</div>","null","delaylearn","learning","ITI","5e89e802134569681e691e0a","4BGvIZTajUP41tE1FjPA1Yr8SZI3","","","","","","","","","","","","","","","","","","","2267","",""
"html-keyboard-response","62","130544","0.0-28.0-0.0","","1228.0999999940395","<div style=""display: flex; flex-direction: column; align-items: center; margin-top: -40px;""><img src=""images/pattern_5.png"" style=""width: 234px; height: 230px; margin-top: -50px;""><div style=""display: flex; justify-content: space-between; margin-top: 33px;""><img src=""images/choice_trial_2.png"" style=""width: 408px; height: 417px; margin-right: 200px;""><img src=""images/choice_trial_11.png"" style=""width: 408px; height: 417px;""></div></div>","f","delaylearn","learning","trial","5e89e802134569681e691e0a","4BGvIZTajUP41tE1FjPA1Yr8SZI3","3","images/choice_trial_2.png","images/choice_trial_11.png","images/pattern_5.png","j","j","750","2","11","4","1","12","0","0","2","90","","","","",""
"html-keyboard-response","63","131547","0.0-28.0-1.0","","null","<div style=""display: flex; flex-direction: column; align-items: center; margin-top: -40px;""><img src=""images/pattern_5.png"" style=""width: 234px; height: 230px; margin-top: -50px;""><div style=""display: flex; justify-content: space-between; margin-top: 33px;""><img src=""images/choice_trial_2.png"" style=""width: 408px; height: 417px; margin-right: 608px;""></div></div>","null","delaylearn","learning","display_response","5e89e802134569681e691e0a","4BGvIZTajUP41tE1FjPA1Yr8SZI3","","","","","","","","","","","","","","","","","chosen stimuli: images/choice_trial_2.png","","","",""
"html-keyboard-response","64","132299","0.0-28.0-2.0","","null","","null","delaylearn","learning","feedback_duration_window","5e89e802134569681e691e0a","4BGvIZTajUP41tE1FjPA1Yr8SZI3","","","","","","","","","","","","","","","","","","750","","",""
"html-keyboard-response","65","133803","0.0-28.0-3.0","","null","<div style='margin:auto;width: auto; font-size: 150%'><span style='font-weight: bold; font-size: 100px; color: red;'>0 points!</span><br><br></div>","null","delaylearn","learning","feedback_image_window","5e89e802134569681e691e0a","4BGvIZTajUP41tE1FjPA1Yr8SZI3","","","","","","","","","","","","","","","","","","","","",""
"html-keyboard-response","66","135761","0.0-29.0","","null","<div style=""font-size:100px;"">+</div>","null","delaylearn","learning","ITI","5e89e802134569681e691e0a","4BGvIZTajUP41tE1FjPA1Yr8SZI3","","","","","","","","","","","","","","","","","","","1956","",""
"html-keyboard-response","67","137563","0.0-30.0-0.0","","1798.2000000029802","<div style=""display: flex; flex-direction: column; align-items: center; margin-top: -40px;""><img src=""images/pattern_6.png"" style=""width: 234px; height: 230px; margin-top: -50px;""><div style=""display: flex; justify-content: space-between; margin-top: 33px;""><img src=""images/choice_trial_16.png"" style=""width: 408px; height: 417px; margin-right: 200px;""><img src=""images/choice_trial_3.png"" style=""width: 408px; height: 417px;""></div></div>","j","delaylearn","learning","trial","5e89e802134569681e691e0a","4BGvIZTajUP41tE1FjPA1Yr8SZI3","3","images/choice_trial_16.png","images/choice_trial_3.png","images/pattern_6.png","j","f","750","16","3","5","0","13","0","1","3","100","","","","",""
"html-keyboard-response","68","138566","0.0-30.0-1.0","","null","<div style=""display: flex; flex-direction: column; align-items: center; margin-top: -40px;""><img src=""images/pattern_6.png"" style=""width: 234px; height: 230px; margin-top: -50px;""><div style=""display: flex; justify-content: space-between; margin-top: 33px;""><img src=""images/choice_trial_3.png"" style=""width: 408px; height: 417px; margin-left:608px;""></div></div>","null","delaylearn","learning","display_response","5e89e802134569681e691e0a","4BGvIZTajUP41tE1FjPA1Yr8SZI3","","","","","","","","","","","","","","","","","chosen stimuli: images/choice_trial_3.png","","","",""
"html-keyboard-response","69","139320","0.0-30.0-2.0","","null","","null","delaylearn","learning","feedback_duration_window","5e89e802134569681e691e0a","4BGvIZTajUP41tE1FjPA1Yr8SZI3","","","","","","","","","","","","","","","","","","750","","",""
"html-keyboard-response","70","140823","0.0-30.0-3.0","","null","<div style='margin:auto;width: auto; font-size: 150%'><span style='font-weight: bold; font-size: 100px; color: green;'>+10 points!</span><br><br></div>","null","delaylearn","learning","feedback_image_window","5e89e802134569681e691e0a","4BGvIZTajUP41tE1FjPA1Yr8SZI3","","","","","","","","","","","","","","","","","","","","",""
"html-keyboard-response","71","141326","0.0-31.0-0.0","","null","","null","","","mood_trial_fixation","","","","","","","","","","","","","","","","","","","","","","",""
"lmdlab-html-vas-response","72","150634","0.0-31.0-1.0","","8301","How happy are you right now?","0.5907407407407408","delaylearn","learning","mood_trial","5e89e802134569681e691e0a","4BGvIZTajUP41tE1FjPA1Yr8SZI3","","","","","","","","","","","","","","","","","","","","[""Very unhappy"",""Very happy""]",""
"html-keyboard-response","73","152937","0.0-32.0","","null","<div style=""font-size:100px;"">+</div>","null","delaylearn","learning","ITI","5e89e802134569681e691e0a","4BGvIZTajUP41tE1FjPA1Yr8SZI3","","","","","","","","","","","","","","","","","","","2300","",""
"html-keyboard-response","74","154225","0.0-33.0-0.0","","1285.2000000029802","<div style=""display: flex; flex-direction: column; align-items: center; margin-top: -40px;""><img src=""images/pattern_1.png"" style=""width: 234px; height: 230px; margin-top: -50px;""><div style=""display: flex; justify-content: space-between; margin-top: 33px;""><img src=""images/choice_trial_8.png"" style=""width: 408px; height: 417px; margin-right: 200px;""><img src=""images/choice_trial_14.png"" style=""width: 408px; height: 417px;""></div></div>","j","delaylearn","learning","trial","5e89e802134569681e691e0a","4BGvIZTajUP41tE1FjPA1Yr8SZI3","3","images/choice_trial_8.png","images/choice_trial_14.png","images/pattern_1.png","j","j","7000","8","14","1","1","14","1","1","14","110","","","","",""
"html-keyboard-response","75","155229","0.0-33.0-1.0","","null","<div style=""display: flex; flex-direction: column; align-items: center; margin-top: -40px;""><img src=""images/pattern_1.png"" style=""width: 234px; height: 230px; margin-top: -50px;""><div style=""display: flex; justify-content: space-between; margin-top: 33px;""><img src=""images/choice_trial_14.png"" style=""width: 408px; height: 417px; margin-left:608px;""></div></div>","null","delaylearn","learning","display_response","5e89e802134569681e691e0a","4BGvIZTajUP41tE1FjPA1Yr8SZI3","","","","","","","","","","","","","","","","","chosen stimuli: images/choice_trial_14.png","","","",""
"html-keyboard-response","76","162232","0.0-33.0-2.0","","null","","null","delaylearn","learning","feedback_duration_window","5e89e802134569681e691e0a","4BGvIZTajUP41tE1FjPA1Yr8SZI3","","","","","","","","","","","","","","","","","","7000","","",""
"html-keyboard-response","77","163736","0.0-33.0-3.0","","null","<div style='margin:auto;width: auto; font-size: 150%'><span style='font-weight: bold; font-size: 100px; color: green;'>+10 points!</span><br><br></div>","null","delaylearn","learning","feedback_image_window","5e89e802134569681e691e0a","4BGvIZTajUP41tE1FjPA1Yr8SZI3","","","","","","","","","","","","","","","","","","","","",""
"html-keyboard-response","78","165968","0.0-34.0","","null","<div style=""font-size:100px;"">+</div>","null","delaylearn","learning","ITI","5e89e802134569681e691e0a","4BGvIZTajUP41tE1FjPA1Yr8SZI3","","","","","","","","","","","","","","","","","","","2229","",""
"html-keyboard-response","79","168972","0.0-35.0-0.0","","null","<div style=""display: flex; flex-direction: column; align-items: center; margin-top: -40px;""><img src=""images/pattern_3.png"" style=""width: 234px; height: 230px; margin-top: -50px;""><div style=""display: flex; justify-content: space-between; margin-top: 33px;""><img src=""images/choice_trial_10.png"" style=""width: 408px; height: 417px; margin-right: 200px;""><img src=""images/choice_trial_13.png"" style=""width: 408px; height: 417px;""></div></div>","null","delaylearn","learning","trial","5e89e802134569681e691e0a","4BGvIZTajUP41tE1FjPA1Yr8SZI3","3","images/choice_trial_10.png","images/choice_trial_13.png","images/pattern_3.png","f","j","7000","10","13","2","1","15","0","0","0","110","","","","",""
"html-keyboard-response","80","169976","0.0-35.0-1.0","","null","<div style='font-weight: bold; font-size: 75px; color: red;'>Missed Trial <br><br><br><br> Please respond faster</div>","null","delaylearn","learning","display_response","5e89e802134569681e691e0a","4BGvIZTajUP41tE1FjPA1Yr8SZI3","","","","","","","","","","","","","","","","","Missed trial","","","",""
"html-keyboard-response","81","169981","0.0-35.0-2.0","","null","","null","delaylearn","learning","feedback_duration_window","5e89e802134569681e691e0a","4BGvIZTajUP41tE1FjPA1Yr8SZI3","","","","","","","","","","","","","","","","","","0","","",""
"html-keyboard-response","82","169987","0.0-35.0-3.0","","null","","null","delaylearn","learning","feedback_image_window","5e89e802134569681e691e0a","4BGvIZTajUP41tE1FjPA1Yr8SZI3","","","","","","","","","","","","","","","","","","","","",""
"html-keyboard-response","83","172284","0.0-36.0","","null","<div style=""font-size:100px;"">+</div>","null","delaylearn","learning","ITI","5e89e802134569681e691e0a","4BGvIZTajUP41tE1FjPA1Yr8SZI3","","","","","","","","","","","","","","","","","","","2296","",""
"html-keyboard-response","84","173830","0.0-37.0-0.0","","1541.800000011921","<div style=""display: flex; flex-direction: column; align-items: center; margin-top: -40px;""><img src=""images/pattern_5.png"" style=""width: 234px; height: 230px; margin-top: -50px;""><div style=""display: flex; justify-content: space-between; margin-top: 33px;""><img src=""images/choice_trial_11.png"" style=""width: 408px; height: 417px; margin-right: 200px;""><img src=""images/choice_trial_2.png"" style=""width: 408px; height: 417px;""></div></div>","f","delaylearn","learning","trial","5e89e802134569681e691e0a","4BGvIZTajUP41tE1FjPA1Yr8SZI3","3","images/choice_trial_11.png","images/choice_trial_2.png","images/pattern_5.png","f","f","750","11","2","4","0","16","1","1","11","120","","","","",""
"html-keyboard-response","85","174833","0.0-37.0-1.0","","null","<div style=""display: flex; flex-direction: column; align-items: center; margin-top: -40px;""><img src=""images/pattern_5.png"" style=""width: 234px; height: 230px; margin-top: -50px;""><div style=""display: flex; justify-content: space-between; margin-top: 33px;""><img src=""images/choice_trial_11.png"" style=""width: 408px; height: 417px; margin-right: 608px;""></div></div>","null","delaylearn","learning","display_response","5e89e802134569681e691e0a","4BGvIZTajUP41tE1FjPA1Yr8SZI3","","","","","","","","","","","","","","","","","chosen stimuli: images/choice_trial_11.png","","","",""
"html-keyboard-response","86","175586","0.0-37.0-2.0","","null","","null","delaylearn","learning","feedback_duration_window","5e89e802134569681e691e0a","4BGvIZTajUP41tE1FjPA1Yr8SZI3","","","","","","","","","","","","","","","","","","750","","",""
"html-keyboard-response","87","177089","0.0-37.0-3.0","","null","<div style='margin:auto;width: auto; font-size: 150%'><span style='font-weight: bold; font-size: 100px; color: green;'>+10 points!</span><br><br></div>","null","delaylearn","learning","feedback_image_window","5e89e802134569681e691e0a","4BGvIZTajUP41tE1FjPA1Yr8SZI3","","","","","","","","","","","","","","","","","","","","",""
"html-keyboard-response","88","177592","0.0-38.0-0.0","","null","","null","","","mood_trial_fixation","","","","","","","","","","","","","","","","","","","","","","",""
"lmdlab-html-vas-response","89","181801","0.0-38.0-1.0","","3202","How happy are you right now?","0.3537037037037037","delaylearn","learning","mood_trial","5e89e802134569681e691e0a","4BGvIZTajUP41tE1FjPA1Yr8SZI3","","","","","","","","","","","","","","","","","","","","[""Very unhappy"",""Very happy""]",""
"html-keyboard-response","90","184084","0.0-39.0","","null","<div style=""font-size:100px;"">+</div>","null","delaylearn","learning","ITI","5e89e802134569681e691e0a","4BGvIZTajUP41tE1FjPA1Yr8SZI3","","","","","","","","","","","","","","","","","","","2281","",""
"html-keyboard-response","91","185340","0.0-40.0-0.0","","1252.5999999940395","<div style=""display: flex; flex-direction: column; align-items: center; margin-top: -40px;""><img src=""images/pattern_6.png"" style=""width: 234px; height: 230px; margin-top: -50px;""><div style=""display: flex; justify-content: space-between; margin-top: 33px;""><img src=""images/choice_trial_16.png"" style=""width: 408px; height: 417px; margin-right: 200px;""><img src=""images/choice_trial_3.png"" style=""width: 408px; height: 417px;""></div></div>","j","delaylearn","learning","trial","5e89e802134569681e691e0a","4BGvIZTajUP41tE1FjPA1Yr8SZI3","3","images/choice_trial_16.png","images/choice_trial_3.png","images/pattern_6.png","f","f","750","16","3","5","0","17","0","0","3","120","","","","",""
"html-keyboard-response","92","186344","0.0-40.0-1.0","","null","<div style=""display: flex; flex-direction: column; align-items: center; margin-top: -40px;""><img src=""images/pattern_6.png"" style=""width: 234px; height: 230px; margin-top: -50px;""><div style=""display: flex; justify-content: space-between; margin-top: 33px;""><img src=""images/choice_trial_3.png"" style=""width: 408px; height: 417px; margin-left:608px;""></div></div>","null","delaylearn","learning","display_response","5e89e802134569681e691e0a","4BGvIZTajUP41tE1FjPA1Yr8SZI3","","","","","","","","","","","","","","","","","chosen stimuli: images/choice_trial_3.png","","","",""
"html-keyboard-response","93","187096","0.0-40.0-2.0","","null","","null","delaylearn","learning","feedback_duration_window","5e89e802134569681e691e0a","4BGvIZTajUP41tE1FjPA1Yr8SZI3","","","","","","","","","","","","","","","","","","750","","",""
"html-keyboard-response","94","188599","0.0-40.0-3.0","","null","<div style='margin:auto;width: auto; font-size: 150%'><span style='font-weight: bold; font-size: 100px; color: red;'>0 points!</span><br><br></div>","null","delaylearn","learning","feedback_image_window","5e89e802134569681e691e0a","4BGvIZTajUP41tE1FjPA1Yr8SZI3","","","","","","","","","","","","","","","","","","","","",""
"html-keyboard-response","95","191042","0.0-41.0","","null","<div style=""font-size:100px;"">+</div>","null","delaylearn","learning","ITI","5e89e802134569681e691e0a","4BGvIZTajUP41tE1FjPA1Yr8SZI3","","","","","","","","","","","","","","","","","","","2440","",""
"html-keyboard-response","96","192646","0.0-42.0-0.0","","1599.9000000059605","<div style=""display: flex; flex-direction: column; align-items: center; margin-top: -40px;""><img src=""images/pattern_4.png"" style=""width: 234px; height: 230px; margin-top: -50px;""><div style=""display: flex; justify-content: space-between; margin-top: 33px;""><img src=""images/choice_trial_9.png"" style=""width: 408px; height: 417px; margin-right: 200px;""><img src=""images/choice_trial_15.png"" style=""width: 408px; height: 417px;""></div></div>","f","delaylearn","learning","trial","5e89e802134569681e691e0a","4BGvIZTajUP41tE1FjPA1Yr8SZI3","3","images/choice_trial_9.png","images/choice_trial_15.png","images/pattern_4.png","j","j","7000","9","15","3","1","18","0","0","9","120","","","","",""
"html-keyboard-response","97","193649","0.0-42.0-1.0","","null","<div style=""display: flex; flex-direction: column; align-items: center; margin-top: -40px;""><img src=""images/pattern_4.png"" style=""width: 234px; height: 230px; margin-top: -50px;""><div style=""display: flex; justify-content: space-between; margin-top: 33px;""><img src=""images/choice_trial_9.png"" style=""width: 408px; height: 417px; margin-right: 608px;""></div></div>","null","delaylearn","learning","display_response","5e89e802134569681e691e0a","4BGvIZTajUP41tE1FjPA1Yr8SZI3","","","","","","","","","","","","","","","","","chosen stimuli: images/choice_trial_9.png","","","",""
"html-keyboard-response","98","200652","0.0-42.0-2.0","","null","","null","delaylearn","learning","feedback_duration_window","5e89e802134569681e691e0a","4BGvIZTajUP41tE1FjPA1Yr8SZI3","","","","","","","","","","","","","","","","","","7000","","",""
"html-keyboard-response","99","202156","0.0-42.0-3.0","","null","<div style='margin:auto;width: auto; font-size: 150%'><span style='font-weight: bold; font-size: 100px; color: red;'>0 points!</span><br><br></div>","null","delaylearn","learning","feedback_image_window","5e89e802134569681e691e0a","4BGvIZTajUP41tE1FjPA1Yr8SZI3","","","","","","","","","","","","","","","","","","","","",""
"html-keyboard-response","100","204401","0.0-43.0","","null","<div style=""font-size:100px;"">+</div>","null","delaylearn","learning","ITI","5e89e802134569681e691e0a","4BGvIZTajUP41tE1FjPA1Yr8SZI3","","","","","","","","","","","","","","","","","","","2243","",""
"html-keyboard-response","101","206753","0.0-44.0-0.0","","2348.0999999940395","<div style=""display: flex; flex-direction: column; align-items: center; margin-top: -40px;""><img src=""images/pattern_7.png"" style=""width: 234px; height: 230px; margin-top: -50px;""><div style=""display: flex; justify-content: space-between; margin-top: 33px;""><img src=""images/choice_trial_6.png"" style=""width: 408px; height: 417px; margin-right: 200px;""><img src=""images/choice_trial_12.png"" style=""width: 408px; height: 417px;""></div></div>","j","delaylearn","learning","trial","5e89e802134569681e691e0a","4BGvIZTajUP41tE1FjPA1Yr8SZI3","3","images/choice_trial_6.png","images/choice_trial_12.png","images/pattern_7.png","j","f","750","6","12","6","0","19","0","1","12","130","","","","",""
"html-keyboard-response","102","207757","0.0-44.0-1.0","","null","<div style=""display: flex; flex-direction: column; align-items: center; margin-top: -40px;""><img src=""images/pattern_7.png"" style=""width: 234px; height: 230px; margin-top: -50px;""><div style=""display: flex; justify-content: space-between; margin-top: 33px;""><img src=""images/choice_trial_12.png"" style=""width: 408px; height: 417px; margin-left:608px;""></div></div>","null","delaylearn","learning","display_response","5e89e802134569681e691e0a","4BGvIZTajUP41tE1FjPA1Yr8SZI3","","","","","","","","","","","","","","","","","chosen stimuli: images/choice_trial_12.png","","","",""
"html-keyboard-response","103","208510","0.0-44.0-2.0","","null","","null","delaylearn","learning","feedback_duration_window","5e89e802134569681e691e0a","4BGvIZTajUP41tE1FjPA1Yr8SZI3","","","","","","","","","","","","","","","","","","750","","",""
"html-keyboard-response","104","210013","0.0-44.0-3.0","","null","<div style='margin:auto;width: auto; font-size: 150%'><span style='font-weight: bold; font-size: 100px; color: green;'>+10 points!</span><br><br></div>","null","delaylearn","learning","feedback_image_window","5e89e802134569681e691e0a","4BGvIZTajUP41tE1FjPA1Yr8SZI3","","","","","","","","","","","","","","","","","","","","",""
"html-keyboard-response","105","212135","0.0-45.0","","null","<div style=""font-size:100px;"">+</div>","null","delaylearn","learning","ITI","5e89e802134569681e691e0a","4BGvIZTajUP41tE1FjPA1Yr8SZI3","","","","","","","","","","","","","","","","","","","2120","",""
"html-keyboard-response","106","213929","0.0-46.0-0.0","","1790.3999999910593","<div style=""display: flex; flex-direction: column; align-items: center; margin-top: -40px;""><img src=""images/pattern_1.png"" style=""width: 234px; height: 230px; margin-top: -50px;""><div style=""display: flex; justify-content: space-between; margin-top: 33px;""><img src=""images/choice_trial_14.png"" style=""width: 408px; height: 417px; margin-right: 200px;""><img src=""images/choice_trial_8.png"" style=""width: 408px; height: 417px;""></div></div>","f","delaylearn","learning","trial","5e89e802134569681e691e0a","4BGvIZTajUP41tE1FjPA1Yr8SZI3","3","images/choice_trial_14.png","images/choice_trial_8.png","images/pattern_1.png","f","f","7000","14","8","1","0","20","1","1","14","140","","","","",""
"html-keyboard-response","107","214933","0.0-46.0-1.0","","null","<div style=""display: flex; flex-direction: column; align-items: center; margin-top: -40px;""><img src=""images/pattern_1.png"" style=""width: 234px; height: 230px; margin-top: -50px;""><div style=""display: flex; justify-content: space-between; margin-top: 33px;""><img src=""images/choice_trial_14.png"" style=""width: 408px; height: 417px; margin-right: 608px;""></div></div>","null","delaylearn","learning","display_response","5e89e802134569681e691e0a","4BGvIZTajUP41tE1FjPA1Yr8SZI3","","","","","","","","","","","","","","","","","chosen stimuli: images/choice_trial_14.png","","","",""
"html-keyboard-response","108","221936","0.0-46.0-2.0","","null","","null","delaylearn","learning","feedback_duration_window","5e89e802134569681e691e0a","4BGvIZTajUP41tE1FjPA1Yr8SZI3","","","","","","","","","","","","","","","","","","7000","","",""
"html-keyboard-response","109","223440","0.0-46.0-3.0","","null","<div style='margin:auto;width: auto; font-size: 150%'><span style='font-weight: bold; font-size: 100px; color: green;'>+10 points!</span><br><br></div>","null","delaylearn","learning","feedback_image_window","5e89e802134569681e691e0a","4BGvIZTajUP41tE1FjPA1Yr8SZI3","","","","","","","","","","","","","","","","","","","","",""
"html-keyboard-response","110","225314","0.0-47.0","","null","<div style=""font-size:100px;"">+</div>","null","delaylearn","learning","ITI","5e89e802134569681e691e0a","4BGvIZTajUP41tE1FjPA1Yr8SZI3","","","","","","","","","","","","","","","","","","","1871","",""
"html-keyboard-response","111","228319","0.0-48.0-0.0","","null","<div style=""display: flex; flex-direction: column; align-items: center; margin-top: -40px;""><img src=""images/pattern_6.png"" style=""width: 234px; height: 230px; margin-top: -50px;""><div style=""display: flex; justify-content: space-between; margin-top: 33px;""><img src=""images/choice_trial_3.png"" style=""width: 408px; height: 417px; margin-right: 200px;""><img src=""images/choice_trial_16.png"" style=""width: 408px; height: 417px;""></div></div>","null","delaylearn","learning","trial","5e89e802134569681e691e0a","4BGvIZTajUP41tE1FjPA1Yr8SZI3","3","images/choice_trial_3.png","images/choice_trial_16.png","images/pattern_6.png","j","j","750","3","16","5","1","21","0","0","0","140","","","","",""
"html-keyboard-response","112","229323","0.0-48.0-1.0","","null","<div style='font-weight: bold; font-size: 75px; color: red;'>Missed Trial <br><br><br><br> Please respond faster</div>","null","delaylearn","learning","display_response","5e89e802134569681e691e0a","4BGvIZTajUP41tE1FjPA1Yr8SZI3","","","","","","","","","","","","","","","","","Missed trial","","","",""
"html-keyboard-response","113","229328","0.0-48.0-2.0","","null","","null","delaylearn","learning","feedback_duration_window","5e89e802134569681e691e0a","4BGvIZTajUP41tE1FjPA1Yr8SZI3","","","","","","","","","","","","","","","","","","0","","",""
"html-keyboard-response","114","229333","0.0-48.0-3.0","","null","","null","delaylearn","learning","feedback_image_window","5e89e802134569681e691e0a","4BGvIZTajUP41tE1FjPA1Yr8SZI3","","","","","","","","","","","","","","","","","","","","",""
"html-keyboard-response","115","231565","0.0-49.0","","null","<div style=""font-size:100px;"">+</div>","null","delaylearn","learning","ITI","5e89e802134569681e691e0a","4BGvIZTajUP41tE1FjPA1Yr8SZI3","","","","","","","","","","","","","","","","","","","2229","",""
"html-keyboard-response","116","232319","0.0-50.0-0.0","","751.2999999970198","<div style=""display: flex; flex-direction: column; align-items: center; margin-top: -40px;""><img src=""images/pattern_4.png"" style=""width: 234px; height: 230px; margin-top: -50px;""><div style=""display: flex; justify-content: space-between; margin-top: 33px;""><img src=""images/choice_trial_15.png"" style=""width: 408px; height: 417px; margin-right: 200px;""><img src=""images/choice_trial_9.png"" style=""width: 408px; height: 417px;""></div></div>","j","delaylearn","learning","trial","5e89e802134569681e691e0a","4BGvIZTajUP41tE1FjPA1Yr8SZI3","3","images/choice_trial_15.png","images/choice_trial_9.png","images/pattern_4.png","f","f","7000","15","9","3","0","22","0","0","9","140","","","","",""
"html-keyboard-response","117","233324","0.0-50.0-1.0","","null","<div style=""display: flex; flex-direction: column; align-items: center; margin-top: -40px;""><img src=""images/pattern_4.png"" style=""width: 234px; height: 230px; margin-top: -50px;""><div style=""display: flex; justify-content: space-between; margin-top: 33px;""><img src=""images/choice_trial_9.png"" style=""width: 408px; height: 417px; margin-left:608px;""></div></div>","null","delaylearn","learning","display_response","5e89e802134569681e691e0a","4BGvIZTajUP41tE1FjPA1Yr8SZI3","","","","","","","","","","","","","","","","","chosen stimuli: images/choice_trial_9.png","","","",""
"html-keyboard-response","118","240327","0.0-50.0-2.0","","null","","null","delaylearn","learning","feedback_duration_window","5e89e802134569681e691e0a","4BGvIZTajUP41tE1FjPA1Yr8SZI3","","","","","","","","","","","","","","","","","","7000","","",""
"html-keyboard-response","119","241830","0.0-50.0-3.0","","null","<div style='margin:auto;width: auto; font-size: 150%'><span style='font-weight: bold; font-size: 100px; color: red;'>0 points!</span><br><br></div>","null","delaylearn","learning","feedback_image_window","5e89e802134569681e691e0a","4BGvIZTajUP41tE1FjPA1Yr8SZI3","","","","","","","","","","","","","","","","","","","","",""
"html-keyboard-response","120","242333","0.0-51.0-0.0","","null","","null","","","mood_trial_fixation","","","","","","","","","","","","","","","","","","","","","","",""
"lmdlab-html-vas-response","121","246818","0.0-51.0-1.0","","3479","How happy are you right now?","0.22962962962962963","delaylearn","learning","mood_trial","5e89e802134569681e691e0a","4BGvIZTajUP41tE1FjPA1Yr8SZI3","","","","","","","","","","","","","","","","","","","","[""Very unhappy"",""Very happy""]",""
"html-keyboard-response","122","248567","0.0-52.0","","null","<div style=""font-size:100px;"">+</div>","null","delaylearn","learning","ITI","5e89e802134569681e691e0a","4BGvIZTajUP41tE1FjPA1Yr8SZI3","","","","","","","","","","","","","","","","","","","1746","",""
"html-keyboard-response","123","249459","0.0-53.0-0.0","","888.5","<div style=""display: flex; flex-direction: column; align-items: center; margin-top: -40px;""><img src=""images/pattern_7.png"" style=""width: 234px; height: 230px; margin-top: -50px;""><div style=""display: flex; justify-content: space-between; margin-top: 33px;""><img src=""images/choice_trial_12.png"" style=""width: 408px; height: 417px; margin-right: 200px;""><img src=""images/choice_trial_6.png"" style=""width: 408px; height: 417px;""></div></div>","j","delaylearn","learning","trial","5e89e802134569681e691e0a","4BGvIZTajUP41tE1FjPA1Yr8SZI3","3","images/choice_trial_12.png","images/choice_trial_6.png","images/pattern_7.png","j","j","750","12","6","6","1","23","1","1","6","150","","","","",""
"html-keyboard-response","124","250463","0.0-53.0-1.0","","null","<div style=""display: flex; flex-direction: column; align-items: center; margin-top: -40px;""><img src=""images/pattern_7.png"" style=""width: 234px; height: 230px; margin-top: -50px;""><div style=""display: flex; justify-content: space-between; margin-top: 33px;""><img src=""images/choice_trial_6.png"" style=""width: 408px; height: 417px; margin-left:608px;""></div></div>","null","delaylearn","learning","display_response","5e89e802134569681e691e0a","4BGvIZTajUP41tE1FjPA1Yr8SZI3","","","","","","","","","","","","","","","","","chosen stimuli: images/choice_trial_6.png","","","",""
"html-keyboard-response","125","251216","0.0-53.0-2.0","","null","","null","delaylearn","learning","feedback_duration_window","5e89e802134569681e691e0a","4BGvIZTajUP41tE1FjPA1Yr8SZI3","","","","","","","","","","","","","","","","","","750","","",""
"html-keyboard-response","126","252720","0.0-53.0-3.0","","null","<div style='margin:auto;width: auto; font-size: 150%'><span style='font-weight: bold; font-size: 100px; color: green;'>+10 points!</span><br><br></div>","null","delaylearn","learning","feedback_image_window","5e89e802134569681e691e0a","4BGvIZTajUP41tE1FjPA1Yr8SZI3","","","","","","","","","","","","","","","","","","","","",""
"html-keyboard-response","127","254994","0.0-54.0","","null","<div style=""font-size:100px;"">+</div>","null","delaylearn","learning","ITI","5e89e802134569681e691e0a","4BGvIZTajUP41tE1FjPA1Yr8SZI3","","","","","","","","","","","","","","","","","","","2272","",""
"html-keyboard-response","128","255885","0.0-55.0-0.0","","887.5","<div style=""display: flex; flex-direction: column; align-items: center; margin-top: -40px;""><img src=""images/pattern_1.png"" style=""width: 234px; height: 230px; margin-top: -50px;""><div style=""display: flex; justify-content: space-between; margin-top: 33px;""><img src=""images/choice_trial_8.png"" style=""width: 408px; height: 417px; margin-right: 200px;""><img src=""images/choice_trial_14.png"" style=""width: 408px; height: 417px;""></div></div>","f","delaylearn","learning","trial","5e89e802134569681e691e0a","4BGvIZTajUP41tE1FjPA1Yr8SZI3","3","images/choice_trial_8.png","images/choice_trial_14.png","images/pattern_1.png","f","j","7000","8","14","1","1","24","0","1","8","160","","","","",""
"html-keyboard-response","129","256889","0.0-55.0-1.0","","null","<div style=""display: flex; flex-direction: column; align-items: center; margin-top: -40px;""><img src=""images/pattern_1.png"" style=""width: 234px; height: 230px; margin-top: -50px;""><div style=""display: flex; justify-content: space-between; margin-top: 33px;""><img src=""images/choice_trial_8.png"" style=""width: 408px; height: 417px; margin-right: 608px;""></div></div>","null","delaylearn","learning","display_response","5e89e802134569681e691e0a","4BGvIZTajUP41tE1FjPA1Yr8SZI3","","","","","","","","","","","","","","","","","chosen stimuli: images/choice_trial_8.png","","","",""
"html-keyboard-response","130","263891","0.0-55.0-2.0","","null","","null","delaylearn","learning","feedback_duration_window","5e89e802134569681e691e0a","4BGvIZTajUP41tE1FjPA1Yr8SZI3","","","","","","","","","","","","","","","","","","7000","","",""
"html-keyboard-response","131","265395","0.0-55.0-3.0","","null","<div style='margin:auto;width: auto; font-size: 150%'><span style='font-weight: bold; font-size: 100px; color: green;'>+10 points!</span><br><br></div>","null","delaylearn","learning","feedback_image_window","5e89e802134569681e691e0a","4BGvIZTajUP41tE1FjPA1Yr8SZI3","","","","","","","","","","","","","","","","","","","","",""
"html-keyboard-response","132","267277","0.0-56.0","","null","<div style=""font-size:100px;"">+</div>","null","delaylearn","learning","ITI","5e89e802134569681e691e0a","4BGvIZTajUP41tE1FjPA1Yr8SZI3","","","","","","","","","","","","","","","","","","","1879","",""
"html-keyboard-response","133","268135","0.0-57.0-0.0","","854.5","<div style=""display: flex; flex-direction: column; align-items: center; margin-top: -40px;""><img src=""images/pattern_5.png"" style=""width: 234px; height: 230px; margin-top: -50px;""><div style=""display: flex; justify-content: space-between; margin-top: 33px;""><img src=""images/choice_trial_2.png"" style=""width: 408px; height: 417px; margin-right: 200px;""><img src=""images/choice_trial_11.png"" style=""width: 408px; height: 417px;""></div></div>","j","delaylearn","learning","trial","5e89e802134569681e691e0a","4BGvIZTajUP41tE1FjPA1Yr8SZI3","3","images/choice_trial_2.png","images/choice_trial_11.png","images/pattern_5.png","j","j","750","2","11","4","1","25","1","1","11","170","","","","",""
"html-keyboard-response","134","269138","0.0-57.0-1.0","","null","<div style=""display: flex; flex-direction: column; align-items: center; margin-top: -40px;""><img src=""images/pattern_5.png"" style=""width: 234px; height: 230px; margin-top: -50px;""><div style=""display: flex; justify-content: space-between; margin-top: 33px;""><img src=""images/choice_trial_11.png"" style=""width: 408px; height: 417px; margin-left:608px;""></div></div>","null","delaylearn","learning","display_response","5e89e802134569681e691e0a","4BGvIZTajUP41tE1FjPA1Yr8SZI3","","","","","","","","","","","","","","","","","chosen stimuli: images/choice_trial_11.png","","","",""
"html-keyboard-response","135","269891","0.0-57.0-2.0","","null","","null","delaylearn","learning","feedback_duration_window","5e89e802134569681e691e0a","4BGvIZTajUP41tE1FjPA1Yr8SZI3","","","","","","","","","","","","","","","","","","750","","",""
"html-keyboard-response","136","271394","0.0-57.0-3.0","","null","<div style='margin:auto;width: auto; font-size: 150%'><span style='font-weight: bold; font-size: 100px; color: green;'>+10 points!</span><br><br></div>","null","delaylearn","learning","feedback_image_window","5e89e802134569681e691e0a","4BGvIZTajUP41tE1FjPA1Yr8SZI3","","","","","","","","","","","","","","","","","","","","",""
"html-keyboard-response","137","273629","0.0-58.0","","null","<div style=""font-size:100px;"">+</div>","null","delaylearn","learning","ITI","5e89e802134569681e691e0a","4BGvIZTajUP41tE1FjPA1Yr8SZI3","","","","","","","","","","","","","","","","","","","2232","",""
"html-keyboard-response","138","274789","0.0-59.0-0.0","","1155.7999999970198","<div style=""display: flex; flex-direction: column; align-items: center; margin-top: -40px;""><img src=""images/pattern_3.png"" style=""width: 234px; height: 230px; margin-top: -50px;""><div style=""display: flex; justify-content: space-between; margin-top: 33px;""><img src=""images/choice_trial_10.png"" style=""width: 408px; height: 417px; margin-right: 200px;""><img src=""images/choice_trial_13.png"" style=""width: 408px; height: 417px;""></div></div>","f","delaylearn","learning","trial","5e89e802134569681e691e0a","4BGvIZTajUP41tE1FjPA1Yr8SZI3","3","images/choice_trial_10.png","images/choice_trial_13.png","images/pattern_3.png","j","j","7000","10","13","2","1","26","0","0","10","170","","","","",""
"html-keyboard-response","139","275793","0.0-59.0-1.0","","null","<div style=""display: flex; flex-direction: column; align-items: center; margin-top: -40px;""><img src=""images/pattern_3.png"" style=""width: 234px; height: 230px; margin-top: -50px;""><div style=""display: flex; justify-content: space-between; margin-top: 33px;""><img src=""images/choice_trial_10.png"" style=""width: 408px; height: 417px; margin-right: 608px;""></div></div>","null","delaylearn","learning","display_response","5e89e802134569681e691e0a","4BGvIZTajUP41tE1FjPA1Yr8SZI3","","","","","","","","","","","","","","","","","chosen stimuli: images/choice_trial_10.png","","","",""
"html-keyboard-response","140","282795","0.0-59.0-2.0","","null","","null","delaylearn","learning","feedback_duration_window","5e89e802134569681e691e0a","4BGvIZTajUP41tE1FjPA1Yr8SZI3","","","","","","","","","","","","","","","","","","7000","","",""
"html-keyboard-response","141","284300","0.0-59.0-3.0","","null","<div style='margin:auto;width: auto; font-size: 150%'><span style='font-weight: bold; font-size: 100px; color: red;'>0 points!</span><br><br></div>","null","delaylearn","learning","feedback_image_window","5e89e802134569681e691e0a","4BGvIZTajUP41tE1FjPA1Yr8SZI3","","","","","","","","","","","","","","","","","","","","",""
"lmdlab-html-vas-response","142","292451","0.0-60.0-0.0","","6641","*How <b><u>confident</u></b> are you feeling about your answers at this moment?*","0.005555555555555556","rewlearn","rate_confidence","","5e89e802134569681e691e0a","4BGvIZTajUP41tE1FjPA1Yr8SZI3","","","","","","","","","","","","","","","","","","","","[""No confidence"",""Complete confidence""]",""
"lmdlab-rest-trial-limit","143","387736","0.0-60.0-1.0","","93781.5","<div style=""font-size:40px;""><b>Please take a break!</b><br><br><br><br><p>Great work: you earned 170 points.<br><br><br><p>You have completed part(s) 1 of 5.<br><br><br><br>When you are ready to continue<br><br><br>please click the button.</p><br><br>","0","delaylearn","learning","break","5e89e802134569681e691e0a","4BGvIZTajUP41tE1FjPA1Yr8SZI3","","","","","","","","","","","","","","","","","","","","","0"
"html-keyboard-response","144","390740","0.0-60.0-2.0","","null","<div style=""font-size:100px;"">+</div>","null","delaylearn","learning","pre_fixation","5e89e802134569681e691e0a","","","","","","","","","","","","","","","","","","","","","",""
"lmdlab-html-vas-response","145","396517","0.0-60.0-3.0-0.0","","4771","How happy are you right now?","0.3907407407407407","delaylearn","learning","mood_baseline","5e89e802134569681e691e0a","4BGvIZTajUP41tE1FjPA1Yr8SZI3","","","","","","","","","","","","","","","","","","","","[""Very unhappy"",""Very happy""]",""
"html-keyboard-response","146","398020","0.0-60.0-3.0-1.0","","null","","null","","","mood_baseline_fixation","","","","","","","","","","","","","","","","","","","","","","",""
"html-keyboard-response","147","400340","0.0-61.0","","null","<div style=""font-size:100px;"">+</div>","null","delaylearn","learning","ITI","5e89e802134569681e691e0a","4BGvIZTajUP41tE1FjPA1Yr8SZI3","","","","","","","","","","","","","","","","","","","2316","",""
"html-keyboard-response","148","401470","0.0-62.0-0.0","","1127.2000000029802","<div style=""display: flex; flex-direction: column; align-items: center; margin-top: -40px;""><img src=""images/pattern_7.png"" style=""width: 234px; height: 230px; margin-top: -50px;""><div style=""display: flex; justify-content: space-between; margin-top: 33px;""><img src=""images/choice_trial_12.png"" style=""width: 408px; height: 417px; margin-right: 200px;""><img src=""images/choice_trial_6.png"" style=""width: 408px; height: 417px;""></div></div>","j","delaylearn","learning","trial","5e89e802134569681e691e0a","4BGvIZTajUP41tE1FjPA1Yr8SZI3","3","images/choice_trial_12.png","images/choice_trial_6.png","images/pattern_7.png","j","j","750","12","6","6","1","27","1","1","6","180","","","","",""
"html-keyboard-response","149","402474","0.0-62.0-1.0","","null","<div style=""display: flex; flex-direction: column; align-items: center; margin-top: -40px;""><img src=""images/pattern_7.png"" style=""width: 234px; height: 230px; margin-top: -50px;""><div style=""display: flex; justify-content: space-between; margin-top: 33px;""><img src=""images/choice_trial_6.png"" style=""width: 408px; height: 417px; margin-left:608px;""></div></div>","null","delaylearn","learning","display_response","5e89e802134569681e691e0a","4BGvIZTajUP41tE1FjPA1Yr8SZI3","","","","","","","","","","","","","","","","","chosen stimuli: images/choice_trial_6.png","","","",""
"html-keyboard-response","150","403227","0.0-62.0-2.0","","null","","null","delaylearn","learning","feedback_duration_window","5e89e802134569681e691e0a","4BGvIZTajUP41tE1FjPA1Yr8SZI3","","","","","","","","","","","","","","","","","","750","","",""
"html-keyboard-response","151","404731","0.0-62.0-3.0","","null","<div style='margin:auto;width: auto; font-size: 150%'><span style='font-weight: bold; font-size: 100px; color: green;'>+10 points!</span><br><br></div>","null","delaylearn","learning","feedback_image_window","5e89e802134569681e691e0a","4BGvIZTajUP41tE1FjPA1Yr8SZI3","","","","","","","","","","","","","","","","","","","","",""
"html-keyboard-response","152","405234","0.0-63.0-0.0","","null","","null","","","mood_trial_fixation","","","","","","","","","","","","","","","","","","","","","","",""
"lmdlab-html-vas-response","153","408551","0.0-63.0-1.0","","2311","How happy are you right now?","0.4888888888888889","delaylearn","learning","mood_trial","5e89e802134569681e691e0a","4BGvIZTajUP41tE1FjPA1Yr8SZI3","","","","","","","","","","","","","","","","","","","","[""Very unhappy"",""Very happy""]",""
"html-keyboard-response","154","410845","0.0-64.0","","null","<div style=""font-size:100px;"">+</div>","null","delaylearn","learning","ITI","5e89e802134569681e691e0a","4BGvIZTajUP41tE1FjPA1Yr8SZI3","","","","","","","","","","","","","","","","","","","2291","",""
"html-keyboard-response","155","411866","0.0-65.0-0.0","","1017.7000000029802","<div style=""display: flex; flex-direction: column; align-items: center; margin-top: -40px;""><img src=""images/pattern_1.png"" style=""width: 234px; height: 230px; margin-top: -50px;""><div style=""display: flex; justify-content: space-between; margin-top: 33px;""><img src=""images/choice_trial_14.png"" style=""width: 408px; height: 417px; margin-right: 200px;""><img src=""images/choice_trial_8.png"" style=""width: 408px; height: 417px;""></div></div>","j","delaylearn","learning","trial","5e89e802134569681e691e0a","4BGvIZTajUP41tE1FjPA1Yr8SZI3","3","images/choice_trial_14.png","images/choice_trial_8.png","images/pattern_1.png","f","f","7000","14","8","1","0","28","0","0","8","180","","","","",""
"html-keyboard-response","156","412870","0.0-65.0-1.0","","null","<div style=""display: flex; flex-direction: column; align-items: center; margin-top: -40px;""><img src=""images/pattern_1.png"" style=""width: 234px; height: 230px; margin-top: -50px;""><div style=""display: flex; justify-content: space-between; margin-top: 33px;""><img src=""images/choice_trial_8.png"" style=""width: 408px; height: 417px; margin-left:608px;""></div></div>","null","delaylearn","learning","display_response","5e89e802134569681e691e0a","4BGvIZTajUP41tE1FjPA1Yr8SZI3","","","","","","","","","","","","","","","","","chosen stimuli: images/choice_trial_8.png","","","",""
"html-keyboard-response","157","419873","0.0-65.0-2.0","","null","","null","delaylearn","learning","feedback_duration_window","5e89e802134569681e691e0a","4BGvIZTajUP41tE1FjPA1Yr8SZI3","","","","","","","","","","","","","","","","","","7000","","",""
"html-keyboard-response","158","421377","0.0-65.0-3.0","","null","<div style='margin:auto;width: auto; font-size: 150%'><span style='font-weight: bold; font-size: 100px; color: red;'>0 points!</span><br><br></div>","null","delaylearn","learning","feedback_image_window","5e89e802134569681e691e0a","4BGvIZTajUP41tE1FjPA1Yr8SZI3","","","","","","","","","","","","","","","","","","","","",""
"html-keyboard-response","159","423490","0.0-66.0","","null","<div style=""font-size:100px;"">+</div>","null","delaylearn","learning","ITI","5e89e802134569681e691e0a","4BGvIZTajUP41tE1FjPA1Yr8SZI3","","","","","","","","","","","","","","","","","","","2112","",""
"html-keyboard-response","160","424270","0.0-67.0-0.0","","777.3999999910593","<div style=""display: flex; flex-direction: column; align-items: center; margin-top: -40px;""><img src=""images/pattern_5.png"" style=""width: 234px; height: 230px; margin-top: -50px;""><div style=""display: flex; justify-content: space-between; margin-top: 33px;""><img src=""images/choice_trial_11.png"" style=""width: 408px; height: 417px; margin-right: 200px;""><img src=""images/choice_trial_2.png"" style=""width: 408px; height: 417px;""></div></div>","f","delaylearn","learning","trial","5e89e802134569681e691e0a","4BGvIZTajUP41tE1FjPA1Yr8SZI3","3","images/choice_trial_11.png","images/choice_trial_2.png","images/pattern_5.png","f","f","750","11","2","4","0","29","1","1","11","190","","","","",""
"html-keyboard-response","161","425275","0.0-67.0-1.0","","null","<div style=""display: flex; flex-direction: column; align-items: center; margin-top: -40px;""><img src=""images/pattern_5.png"" style=""width: 234px; height: 230px; margin-top: -50px;""><div style=""display: flex; justify-content: space-between; margin-top: 33px;""><img src=""images/choice_trial_11.png"" style=""width: 408px; height: 417px; margin-right: 608px;""></div></div>","null","delaylearn","learning","display_response","5e89e802134569681e691e0a","4BGvIZTajUP41tE1FjPA1Yr8SZI3","","","","","","","","","","","","","","","","","chosen stimuli: images/choice_trial_11.png","","","",""
"html-keyboard-response","162","426027","0.0-67.0-2.0","","null","","null","delaylearn","learning","feedback_duration_window","5e89e802134569681e691e0a","4BGvIZTajUP41tE1FjPA1Yr8SZI3","","","","","","","","","","","","","","","","","","750","","",""
"html-keyboard-response","163","427531","0.0-67.0-3.0","","null","<div style='margin:auto;width: auto; font-size: 150%'><span style='font-weight: bold; font-size: 100px; color: green;'>+10 points!</span><br><br></div>","null","delaylearn","learning","feedback_image_window","5e89e802134569681e691e0a","4BGvIZTajUP41tE1FjPA1Yr8SZI3","","","","","","","","","","","","","","","","","","","","",""
"html-keyboard-response","164","429498","0.0-68.0","","null","<div style=""font-size:100px;"">+</div>","null","delaylearn","learning","ITI","5e89e802134569681e691e0a","4BGvIZTajUP41tE1FjPA1Yr8SZI3","","","","","","","","","","","","","","","","","","","1965","",""
"html-keyboard-response","165","430371","0.0-69.0-0.0","","869.2000000029802","<div style=""display: flex; flex-direction: column; align-items: center; margin-top: -40px;""><img src=""images/pattern_6.png"" style=""width: 234px; height: 230px; margin-top: -50px;""><div style=""display: flex; justify-content: space-between; margin-top: 33px;""><img src=""images/choice_trial_3.png"" style=""width: 408px; height: 417px; margin-right: 200px;""><img src=""images/choice_trial_16.png"" style=""width: 408px; height: 417px;""></div></div>","j","delaylearn","learning","trial","5e89e802134569681e691e0a","4BGvIZTajUP41tE1FjPA1Yr8SZI3","3","images/choice_trial_3.png","images/choice_trial_16.png","images/pattern_6.png","j","j","750","3","16","5","1","30","1","1","16","200","","","","",""
"html-keyboard-response","166","431376","0.0-69.0-1.0","","null","<div style=""display: flex; flex-direction: column; align-items: center; margin-top: -40px;""><img src=""images/pattern_6.png"" style=""width: 234px; height: 230px; margin-top: -50px;""><div style=""display: flex; justify-content: space-between; margin-top: 33px;""><img src=""images/choice_trial_16.png"" style=""width: 408px; height: 417px; margin-left:608px;""></div></div>","null","delaylearn","learning","display_response","5e89e802134569681e691e0a","4BGvIZTajUP41tE1FjPA1Yr8SZI3","","","","","","","","","","","","","","","","","chosen stimuli: images/choice_trial_16.png","","","",""
"html-keyboard-response","167","432128","0.0-69.0-2.0","","null","","null","delaylearn","learning","feedback_duration_window","5e89e802134569681e691e0a","4BGvIZTajUP41tE1FjPA1Yr8SZI3","","","","","","","","","","","","","","","","","","750","","",""
"html-keyboard-response","168","433631","0.0-69.0-3.0","","null","<div style='margin:auto;width: auto; font-size: 150%'><span style='font-weight: bold; font-size: 100px; color: green;'>+10 points!</span><br><br></div>","null","delaylearn","learning","feedback_image_window","5e89e802134569681e691e0a","4BGvIZTajUP41tE1FjPA1Yr8SZI3","","","","","","","","","","","","","","","","","","","","",""
"html-keyboard-response","169","434134","0.0-70.0-0.0","","null","","null","","","mood_trial_fixation","","","","","","","","","","","","","","","","","","","","","","",""
"lmdlab-html-vas-response","170","437451","0.0-70.0-1.0","","2310","How happy are you right now?","0.4722222222222222","delaylearn","learning","mood_trial","5e89e802134569681e691e0a","4BGvIZTajUP41tE1FjPA1Yr8SZI3","","","","","","","","","","","","","","","","","","","","[""Very unhappy"",""Very happy""]",""
"html-keyboard-response","171","439483","0.0-71.0","","null","<div style=""font-size:100px;"">+</div>","null","delaylearn","learning","ITI","5e89e802134569681e691e0a","4BGvIZTajUP41tE1FjPA1Yr8SZI3","","","","","","","","","","","","","","","","","","","2029","",""
"html-keyboard-response","172","440421","0.0-72.0-0.0","","935.1999999880791","<div style=""display: flex; flex-direction: column; align-items: center; margin-top: -40px;""><img src=""images/pattern_4.png"" style=""width: 234px; height: 230px; margin-top: -50px;""><div style=""display: flex; justify-content: space-between; margin-top: 33px;""><img src=""images/choice_trial_9.png"" style=""width: 408px; height: 417px; margin-right: 200px;""><img src=""images/choice_trial_15.png"" style=""width: 408px; height: 417px;""></div></div>","j","delaylearn","learning","trial","5e89e802134569681e691e0a","4BGvIZTajUP41tE1FjPA1Yr8SZI3","3","images/choice_trial_9.png","images/choice_trial_15.png","images/pattern_4.png","j","j","7000","9","15","3","1","31","1","1","15","210","","","","",""
"html-keyboard-response","173","441426","0.0-72.0-1.0","","null","<div style=""display: flex; flex-direction: column; align-items: center; margin-top: -40px;""><img src=""images/pattern_4.png"" style=""width: 234px; height: 230px; margin-top: -50px;""><div style=""display: flex; justify-content: space-between; margin-top: 33px;""><img src=""images/choice_trial_15.png"" style=""width: 408px; height: 417px; margin-left:608px;""></div></div>","null","delaylearn","learning","display_response","5e89e802134569681e691e0a","4BGvIZTajUP41tE1FjPA1Yr8SZI3","","","","","","","","","","","","","","","","","chosen stimuli: images/choice_trial_15.png","","","",""
"html-keyboard-response","174","448428","0.0-72.0-2.0","","null","","null","delaylearn","learning","feedback_duration_window","5e89e802134569681e691e0a","4BGvIZTajUP41tE1FjPA1Yr8SZI3","","","","","","","","","","","","","","","","","","7000","","",""
"html-keyboard-response","175","449932","0.0-72.0-3.0","","null","<div style='margin:auto;width: auto; font-size: 150%'><span style='font-weight: bold; font-size: 100px; color: green;'>+10 points!</span><br><br></div>","null","delaylearn","learning","feedback_image_window","5e89e802134569681e691e0a","4BGvIZTajUP41tE1FjPA1Yr8SZI3","","","","","","","","","","","","","","","","","","","","",""
"html-keyboard-response","176","452158","0.0-73.0","","null","<div style=""font-size:100px;"">+</div>","null","delaylearn","learning","ITI","5e89e802134569681e691e0a","4BGvIZTajUP41tE1FjPA1Yr8SZI3","","","","","","","","","","","","","","","","","","","2225","",""
"html-keyboard-response","177","453317","0.0-74.0-0.0","","1154.9000000059605","<div style=""display: flex; flex-direction: column; align-items: center; margin-top: -40px;""><img src=""images/pattern_3.png"" style=""width: 234px; height: 230px; margin-top: -50px;""><div style=""display: flex; justify-content: space-between; margin-top: 33px;""><img src=""images/choice_trial_10.png"" style=""width: 408px; height: 417px; margin-right: 200px;""><img src=""images/choice_trial_13.png"" style=""width: 408px; height: 417px;""></div></div>","j","delaylearn","learning","trial","5e89e802134569681e691e0a","4BGvIZTajUP41tE1FjPA1Yr8SZI3","3","images/choice_trial_10.png","images/choice_trial_13.png","images/pattern_3.png","j","j","7000","10","13","2","1","32","1","1","13","220","","","","",""
"html-keyboard-response","178","454321","0.0-74.0-1.0","","null","<div style=""display: flex; flex-direction: column; align-items: center; margin-top: -40px;""><img src=""images/pattern_3.png"" style=""width: 234px; height: 230px; margin-top: -50px;""><div style=""display: flex; justify-content: space-between; margin-top: 33px;""><img src=""images/choice_trial_13.png"" style=""width: 408px; height: 417px; margin-left:608px;""></div></div>","null","delaylearn","learning","display_response","5e89e802134569681e691e0a","4BGvIZTajUP41tE1FjPA1Yr8SZI3","","","","","","","","","","","","","","","","","chosen stimuli: images/choice_trial_13.png","","","",""
"html-keyboard-response","179","461323","0.0-74.0-2.0","","null","","null","delaylearn","learning","feedback_duration_window","5e89e802134569681e691e0a","4BGvIZTajUP41tE1FjPA1Yr8SZI3","","","","","","","","","","","","","","","","","","7000","","",""
"html-keyboard-response","180","462827","0.0-74.0-3.0","","null","<div style='margin:auto;width: auto; font-size: 150%'><span style='font-weight: bold; font-size: 100px; color: green;'>+10 points!</span><br><br></div>","null","delaylearn","learning","feedback_image_window","5e89e802134569681e691e0a","4BGvIZTajUP41tE1FjPA1Yr8SZI3","","","","","","","","","","","","","","","","","","","","",""
"html-keyboard-response","181","465031","0.0-75.0","","null","<div style=""font-size:100px;"">+</div>","null","delaylearn","learning","ITI","5e89e802134569681e691e0a","4BGvIZTajUP41tE1FjPA1Yr8SZI3","","","","","","","","","","","","","","","","","","","2201","",""
"html-keyboard-response","182","465877","0.0-76.0-0.0","","841.9000000059605","<div style=""display: flex; flex-direction: column; align-items: center; margin-top: -40px;""><img src=""images/pattern_5.png"" style=""width: 234px; height: 230px; margin-top: -50px;""><div style=""display: flex; justify-content: space-between; margin-top: 33px;""><img src=""images/choice_trial_11.png"" style=""width: 408px; height: 417px; margin-right: 200px;""><img src=""images/choice_trial_2.png"" style=""width: 408px; height: 417px;""></div></div>","f","delaylearn","learning","trial","5e89e802134569681e691e0a","4BGvIZTajUP41tE1FjPA1Yr8SZI3","3","images/choice_trial_11.png","images/choice_trial_2.png","images/pattern_5.png","j","f","750","11","2","4","0","33","1","0","11","220","","","","",""
"html-keyboard-response","183","466881","0.0-76.0-1.0","","null","<div style=""display: flex; flex-direction: column; align-items: center; margin-top: -40px;""><img src=""images/pattern_5.png"" style=""width: 234px; height: 230px; margin-top: -50px;""><div style=""display: flex; justify-content: space-between; margin-top: 33px;""><img src=""images/choice_trial_11.png"" style=""width: 408px; height: 417px; margin-right: 608px;""></div></div>","null","delaylearn","learning","display_response","5e89e802134569681e691e0a","4BGvIZTajUP41tE1FjPA1Yr8SZI3","","","","","","","","","","","","","","","","","chosen stimuli: images/choice_trial_11.png","","","",""
"html-keyboard-response","184","467635","0.0-76.0-2.0","","null","","null","delaylearn","learning","feedback_duration_window","5e89e802134569681e691e0a","4BGvIZTajUP41tE1FjPA1Yr8SZI3","","","","","","","","","","","","","","","","","","750","","",""
"html-keyboard-response","185","469138","0.0-76.0-3.0","","null","<div style='margin:auto;width: auto; font-size: 150%'><span style='font-weight: bold; font-size: 100px; color: red;'>0 points!</span><br><br></div>","null","delaylearn","learning","feedback_image_window","5e89e802134569681e691e0a","4BGvIZTajUP41tE1FjPA1Yr8SZI3","","","","","","","","","","","","","","","","","","","","",""
"html-keyboard-response","186","470756","0.0-77.0","","null","<div style=""font-size:100px;"">+</div>","null","delaylearn","learning","ITI","5e89e802134569681e691e0a","4BGvIZTajUP41tE1FjPA1Yr8SZI3","","","","","","","","","","","","","","","","","","","1615","",""
"html-keyboard-response","187","471491","0.0-78.0-0.0","","731.1999999880791","<div style=""display: flex; flex-direction: column; align-items: center; margin-top: -40px;""><img src=""images/pattern_1.png"" style=""width: 234px; height: 230px; margin-top: -50px;""><div style=""display: flex; justify-content: space-between; margin-top: 33px;""><img src=""images/choice_trial_14.png"" style=""width: 408px; height: 417px; margin-right: 200px;""><img src=""images/choice_trial_8.png"" style=""width: 408px; height: 417px;""></div></div>","j","delaylearn","learning","trial","5e89e802134569681e691e0a","4BGvIZTajUP41tE1FjPA1Yr8SZI3","3","images/choice_trial_14.png","images/choice_trial_8.png","images/pattern_1.png","f","f","7000","14","8","1","0","34","0","0","8","220","","","","",""
"html-keyboard-response","188","472494","0.0-78.0-1.0","","null","<div style=""display: flex; flex-direction: column; align-items: center; margin-top: -40px;""><img src=""images/pattern_1.png"" style=""width: 234px; height: 230px; margin-top: -50px;""><div style=""display: flex; justify-content: space-between; margin-top: 33px;""><img src=""images/choice_trial_8.png"" style=""width: 408px; height: 417px; margin-left:608px;""></div></div>","null","delaylearn","learning","display_response","5e89e802134569681e691e0a","4BGvIZTajUP41tE1FjPA1Yr8SZI3","","","","","","","","","","","","","","","","","chosen stimuli: images/choice_trial_8.png","","","",""
"html-keyboard-response","189","479497","0.0-78.0-2.0","","null","","null","delaylearn","learning","feedback_duration_window","5e89e802134569681e691e0a","4BGvIZTajUP41tE1FjPA1Yr8SZI3","","","","","","","","","","","","","","","","","","7000","","",""
"html-keyboard-response","190","481000","0.0-78.0-3.0","","null","<div style='margin:auto;width: auto; font-size: 150%'><span style='font-weight: bold; font-size: 100px; color: red;'>0 points!</span><br><br></div>","null","delaylearn","learning","feedback_image_window","5e89e802134569681e691e0a","4BGvIZTajUP41tE1FjPA1Yr8SZI3","","","","","","","","","","","","","","","","","","","","",""
"html-keyboard-response","191","481503","0.0-79.0-0.0","","null","","null","","","mood_trial_fixation","","","","","","","","","","","","","","","","","","","","","","",""
"lmdlab-html-vas-response","192","493284","0.0-79.0-1.0","","10775","How happy are you right now?","0.5037037037037037","delaylearn","learning","mood_trial","5e89e802134569681e691e0a","4BGvIZTajUP41tE1FjPA1Yr8SZI3","","","","","","","","","","","","","","","","","","","","[""Very unhappy"",""Very happy""]",""
"html-keyboard-response","193","495104","0.0-80.0","","null","<div style=""font-size:100px;"">+</div>","null","delaylearn","learning","ITI","5e89e802134569681e691e0a","4BGvIZTajUP41tE1FjPA1Yr8SZI3","","","","","","","","","","","","","","","","","","","1816","",""
"html-keyboard-response","194","497096","0.0-81.0-0.0","","1988.5999999940395","<div style=""display: flex; flex-direction: column; align-items: center; margin-top: -40px;""><img src=""images/pattern_6.png"" style=""width: 234px; height: 230px; margin-top: -50px;""><div style=""display: flex; justify-content: space-between; margin-top: 33px;""><img src=""images/choice_trial_16.png"" style=""width: 408px; height: 417px; margin-right: 200px;""><img src=""images/choice_trial_3.png"" style=""width: 408px; height: 417px;""></div></div>","j","delaylearn","learning","trial","5e89e802134569681e691e0a","4BGvIZTajUP41tE1FjPA1Yr8SZI3","3","images/choice_trial_16.png","images/choice_trial_3.png","images/pattern_6.png","j","f","750","16","3","5","0","35","0","1","3","230","","","","",""
"html-keyboard-response","195","498100","0.0-81.0-1.0","","null","<div style=""display: flex; flex-direction: column; align-items: center; margin-top: -40px;""><img src=""images/pattern_6.png"" style=""width: 234px; height: 230px; margin-top: -50px;""><div style=""display: flex; justify-content: space-between; margin-top: 33px;""><img src=""images/choice_trial_3.png"" style=""width: 408px; height: 417px; margin-left:608px;""></div></div>","null","delaylearn","learning","display_response","5e89e802134569681e691e0a","4BGvIZTajUP41tE1FjPA1Yr8SZI3","","","","","","","","","","","","","","","","","chosen stimuli: images/choice_trial_3.png","","","",""
"html-keyboard-response","196","498853","0.0-81.0-2.0","","null","","null","delaylearn","learning","feedback_duration_window","5e89e802134569681e691e0a","4BGvIZTajUP41tE1FjPA1Yr8SZI3","","","","","","","","","","","","","","","","","","750","","",""
"html-keyboard-response","197","500356","0.0-81.0-3.0","","null","<div style='margin:auto;width: auto; font-size: 150%'><span style='font-weight: bold; font-size: 100px; color: green;'>+10 points!</span><br><br></div>","null","delaylearn","learning","feedback_image_window","5e89e802134569681e691e0a","4BGvIZTajUP41tE1FjPA1Yr8SZI3","","","","","","","","","","","","","","","","","","","","",""
"html-keyboard-response","198","502343","0.0-82.0","","null","<div style=""font-size:100px;"">+</div>","null","delaylearn","learning","ITI","5e89e802134569681e691e0a","4BGvIZTajUP41tE1FjPA1Yr8SZI3","","","","","","","","","","","","","","","","","","","1984","",""
"html-keyboard-response","199","503413","0.0-83.0-0.0","","1066.8999999910593","<div style=""display: flex; flex-direction: column; align-items: center; margin-top: -40px;""><img src=""images/pattern_3.png"" style=""width: 234px; height: 230px; margin-top: -50px;""><div style=""display: flex; justify-content: space-between; margin-top: 33px;""><img src=""images/choice_trial_10.png"" style=""width: 408px; height: 417px; margin-right: 200px;""><img src=""images/choice_trial_13.png"" style=""width: 408px; height: 417px;""></div></div>","f","delaylearn","learning","trial","5e89e802134569681e691e0a","4BGvIZTajUP41tE1FjPA1Yr8SZI3","3","images/choice_trial_10.png","images/choice_trial_13.png","images/pattern_3.png","j","j","7000","10","13","2","1","36","0","0","10","230","","","","",""
"html-keyboard-response","200","504417","0.0-83.0-1.0","","null","<div style=""display: flex; flex-direction: column; align-items: center; margin-top: -40px;""><img src=""images/pattern_3.png"" style=""width: 234px; height: 230px; margin-top: -50px;""><div style=""display: flex; justify-content: space-between; margin-top: 33px;""><img src=""images/choice_trial_10.png"" style=""width: 408px; height: 417px; margin-right: 608px;""></div></div>","null","delaylearn","learning","display_response","5e89e802134569681e691e0a","4BGvIZTajUP41tE1FjPA1Yr8SZI3","","","","","","","","","","","","","","","","","chosen stimuli: images/choice_trial_10.png","","","",""
"html-keyboard-response","201","511420","0.0-83.0-2.0","","null","","null","delaylearn","learning","feedback_duration_window","5e89e802134569681e691e0a","4BGvIZTajUP41tE1FjPA1Yr8SZI3","","","","","","","","","","","","","","","","","","7000","","",""
"html-keyboard-response","202","512923","0.0-83.0-3.0","","null","<div style='margin:auto;width: auto; font-size: 150%'><span style='font-weight: bold; font-size: 100px; color: red;'>0 points!</span><br><br></div>","null","delaylearn","learning","feedback_image_window","5e89e802134569681e691e0a","4BGvIZTajUP41tE1FjPA1Yr8SZI3","","","","","","","","","","","","","","","","","","","","",""
"html-keyboard-response","203","514647","0.0-84.0","","null","<div style=""font-size:100px;"">+</div>","null","delaylearn","learning","ITI","5e89e802134569681e691e0a","4BGvIZTajUP41tE1FjPA1Yr8SZI3","","","","","","","","","","","","","","","","","","","1721","",""
"html-keyboard-response","204","515425","0.0-85.0-0.0","","773.7999999970198","<div style=""display: flex; flex-direction: column; align-items: center; margin-top: -40px;""><img src=""images/pattern_4.png"" style=""width: 234px; height: 230px; margin-top: -50px;""><div style=""display: flex; justify-content: space-between; margin-top: 33px;""><img src=""images/choice_trial_9.png"" style=""width: 408px; height: 417px; margin-right: 200px;""><img src=""images/choice_trial_15.png"" style=""width: 408px; height: 417px;""></div></div>","j","delaylearn","learning","trial","5e89e802134569681e691e0a","4BGvIZTajUP41tE1FjPA1Yr8SZI3","3","images/choice_trial_9.png","images/choice_trial_15.png","images/pattern_4.png","f","j","7000","9","15","3","1","37","1","0","15","230","","","","",""
"html-keyboard-response","205","516428","0.0-85.0-1.0","","null","<div style=""display: flex; flex-direction: column; align-items: center; margin-top: -40px;""><img src=""images/pattern_4.png"" style=""width: 234px; height: 230px; margin-top: -50px;""><div style=""display: flex; justify-content: space-between; margin-top: 33px;""><img src=""images/choice_trial_15.png"" style=""width: 408px; height: 417px; margin-left:608px;""></div></div>","null","delaylearn","learning","display_response","5e89e802134569681e691e0a","4BGvIZTajUP41tE1FjPA1Yr8SZI3","","","","","","","","","","","","","","","","","chosen stimuli: images/choice_trial_15.png","","","",""
"html-keyboard-response","206","523430","0.0-85.0-2.0","","null","","null","delaylearn","learning","feedback_duration_window","5e89e802134569681e691e0a","4BGvIZTajUP41tE1FjPA1Yr8SZI3","","","","","","","","","","","","","","","","","","7000","","",""
"html-keyboard-response","207","524933","0.0-85.0-3.0","","null","<div style='margin:auto;width: auto; font-size: 150%'><span style='font-weight: bold; font-size: 100px; color: red;'>0 points!</span><br><br></div>","null","delaylearn","learning","feedback_image_window","5e89e802134569681e691e0a","4BGvIZTajUP41tE1FjPA1Yr8SZI3","","","","","","","","","","","","","","","","","","","","",""
"html-keyboard-response","208","526549","0.0-86.0","","null","<div style=""font-size:100px;"">+</div>","null","delaylearn","learning","ITI","5e89e802134569681e691e0a","4BGvIZTajUP41tE1FjPA1Yr8SZI3","","","","","","","","","","","","","","","","","","","1612","",""
"html-keyboard-response","209","527607","0.0-87.0-0.0","","1054.300000011921","<div style=""display: flex; flex-direction: column; align-items: center; margin-top: -40px;""><img src=""images/pattern_7.png"" style=""width: 234px; height: 230px; margin-top: -50px;""><div style=""display: flex; justify-content: space-between; margin-top: 33px;""><img src=""images/choice_trial_6.png"" style=""width: 408px; height: 417px; margin-right: 200px;""><img src=""images/choice_trial_12.png"" style=""width: 408px; height: 417px;""></div></div>","f","delaylearn","learning","trial","5e89e802134569681e691e0a","4BGvIZTajUP41tE1FjPA1Yr8SZI3","3","images/choice_trial_6.png","images/choice_trial_12.png","images/pattern_7.png","f","f","750","6","12","6","0","38","1","1","6","240","","","","",""
"html-keyboard-response","210","528611","0.0-87.0-1.0","","null","<div style=""display: flex; flex-direction: column; align-items: center; margin-top: -40px;""><img src=""images/pattern_7.png"" style=""width: 234px; height: 230px; margin-top: -50px;""><div style=""display: flex; justify-content: space-between; margin-top: 33px;""><img src=""images/choice_trial_6.png"" style=""width: 408px; height: 417px; margin-right: 608px;""></div></div>","null","delaylearn","learning","display_response","5e89e802134569681e691e0a","4BGvIZTajUP41tE1FjPA1Yr8SZI3","","","","","","","","","","","","","","","","","chosen stimuli: images/choice_trial_6.png","","","",""
"html-keyboard-response","211","529364","0.0-87.0-2.0","","null","","null","delaylearn","learning","feedback_duration_window","5e89e802134569681e691e0a","4BGvIZTajUP41tE1FjPA1Yr8SZI3","","","","","","","","","","","","","","","","","","750","","",""
"html-keyboard-response","212","530868","0.0-87.0-3.0","","null","<div style='margin:auto;width: auto; font-size: 150%'><span style='font-weight: bold; font-size: 100px; color: green;'>+10 points!</span><br><br></div>","null","delaylearn","learning","feedback_image_window","5e89e802134569681e691e0a","4BGvIZTajUP41tE1FjPA1Yr8SZI3","","","","","","","","","","","","","","","","","","","","",""
"html-keyboard-response","213","532757","0.0-88.0","","null","<div style=""font-size:100px;"">+</div>","null","delaylearn","learning","ITI","5e89e802134569681e691e0a","4BGvIZTajUP41tE1FjPA1Yr8SZI3","","","","","","","","","","","","","","","","","","","1886","",""
"html-keyboard-response","214","533653","0.0-89.0-0.0","","892.0999999940395","<div style=""display: flex; flex-direction: column; align-items: center; margin-top: -40px;""><img src=""images/pattern_1.png"" style=""width: 234px; height: 230px; margin-top: -50px;""><div style=""display: flex; justify-content: space-between; margin-top: 33px;""><img src=""images/choice_trial_14.png"" style=""width: 408px; height: 417px; margin-right: 200px;""><img src=""images/choice_trial_8.png"" style=""width: 408px; height: 417px;""></div></div>","j","delaylearn","learning","trial","5e89e802134569681e691e0a","4BGvIZTajUP41tE1FjPA1Yr8SZI3","3","images/choice_trial_14.png","images/choice_trial_8.png","images/pattern_1.png","f","f","7000","14","8","1","0","39","0","0","8","240","","","","",""
"html-keyboard-response","215","534658","0.0-89.0-1.0","","null","<div style=""display: flex; flex-direction: column; align-items: center; margin-top: -40px;""><img src=""images/pattern_1.png"" style=""width: 234px; height: 230px; margin-top: -50px;""><div style=""display: flex; justify-content: space-between; margin-top: 33px;""><img src=""images/choice_trial_8.png"" style=""width: 408px; height: 417px; margin-left:608px;""></div></div>","null","delaylearn","learning","display_response","5e89e802134569681e691e0a","4BGvIZTajUP41tE1FjPA1Yr8SZI3","","","","","","","","","","","","","","","","","chosen stimuli: images/choice_trial_8.png","","","",""
"html-keyboard-response","216","541660","0.0-89.0-2.0","","null","","null","delaylearn","learning","feedback_duration_window","5e89e802134569681e691e0a","4BGvIZTajUP41tE1FjPA1Yr8SZI3","","","","","","","","","","","","","","","","","","7000","","",""
"html-keyboard-response","217","543164","0.0-89.0-3.0","","null","<div style='margin:auto;width: auto; font-size: 150%'><span style='font-weight: bold; font-size: 100px; color: red;'>0 points!</span><br><br></div>","null","delaylearn","learning","feedback_image_window","5e89e802134569681e691e0a","4BGvIZTajUP41tE1FjPA1Yr8SZI3","","","","","","","","","","","","","","","","","","","","",""
"html-keyboard-response","218","543666","0.0-90.0-0.0","","null","","null","","","mood_trial_fixation","","","","","","","","","","","","","","","","","","","","","","",""
"lmdlab-html-vas-response","219","548084","0.0-90.0-1.0","","3411","How happy are you right now?","0.17222222222222222","delaylearn","learning","mood_trial","5e89e802134569681e691e0a","4BGvIZTajUP41tE1FjPA1Yr8SZI3","","","","","","","","","","","","","","","","","","","","[""Very unhappy"",""Very happy""]",""
"html-keyboard-response","220","549960","0.0-91.0","","null","<div style=""font-size:100px;"">+</div>","null","delaylearn","learning","ITI","5e89e802134569681e691e0a","4BGvIZTajUP41tE1FjPA1Yr8SZI3","","","","","","","","","","","","","","","","","","","1873","",""
"html-keyboard-response","221","552965","0.0-92.0-0.0","","null","<div style=""display: flex; flex-direction: column; align-items: center; margin-top: -40px;""><img src=""images/pattern_3.png"" style=""width: 234px; height: 230px; margin-top: -50px;""><div style=""display: flex; justify-content: space-between; margin-top: 33px;""><img src=""images/choice_trial_13.png"" style=""width: 408px; height: 417px; margin-right: 200px;""><img src=""images/choice_trial_10.png"" style=""width: 408px; height: 417px;""></div></div>","null","delaylearn","learning","trial","5e89e802134569681e691e0a","4BGvIZTajUP41tE1FjPA1Yr8SZI3","3","images/choice_trial_13.png","images/choice_trial_10.png","images/pattern_3.png","j","f","7000","13","10","2","0","40","0","0","0","240","","","","",""
