"trial_type","trial_index","time_elapsed","internal_node_id","participant","rt","stimulus","response","exp_name","exp_stage","test_part","subjectID","databaseID","counterbal","choice_stimuli_1","choice_stimuli_2","pattern_stimuli","rewarded_answer","correct_answer","feedback_duration_times","stim_left","stim_right","pair","leftright_counter","trial","response_correct","response_rewarded","chosen_stim","counter","displayed_choice","feedback_durations","ITI_duration","labels","rest_warning"
"pavlovia","0","469","0.0-0.0","","","","","","","","","","","","","","","","","","","","","","","","","","","","","",""
"html-keyboard-response","1","3473","0.0-1.0","","null","<div style=""font-size:100px;"">+</div>","null","delaylearn","learning","pre_fixation","5ffa22d8dcae1e3cc129b6f6","","","","","","","","","","","","","","","","","","","","","",""
"html-keyboard-response","2","4276","0.0-2.0-0.0","","802.3000000000466","<div style=""display: flex; flex-direction: column; align-items: center; margin-top: -40px;""><img src=""images/demo_images/pattern_1.png"" style=""width: 234px; height: 230px; margin-top: -50px;""><div style=""display: flex; justify-content: space-between; margin-top: 33px;""><img src=""images/demo_images/choice_trial_2.png"" style=""width: 408px; height: 417px; margin-right: 200px;""><img src=""images/demo_images/choice_trial_1.png"" style=""width: 408px; height: 417px;""></div></div>","j","delaylearn","learning","trial","5ffa22d8dcae1e3cc129b6f6","GSiPszFUwOdYuZR6fnqDeDupDr62","5","images/demo_images/choice_trial_2.png","images/demo_images/choice_trial_1.png","images/demo_images/pattern_1.png","j","j","3000","2","1","20","1","1","1","1","1","10","","","","",""
"html-keyboard-response","3","5284","0.0-2.0-1.0","","null","<div style=""display: flex; flex-direction: column; align-items: center; margin-top: -40px;""><img src=""images/demo_images/pattern_1.png"" style=""width: 234px; height: 230px; margin-top: -50px;""><div style=""display: flex; justify-content: space-between; margin-top: 33px;""><img src=""images/demo_images/choice_trial_1.png"" style=""width: 408px; height: 417px; margin-left:608px;""></div></div>","null","delaylearn","learning","display_response","5ffa22d8dcae1e3cc129b6f6","GSiPszFUwOdYuZR6fnqDeDupDr62","","","","","","","","","","","","","","","","","chosen stimuli: images/demo_images/choice_trial_1.png","","","",""
"html-keyboard-response","4","8289","0.0-2.0-2.0","","null","","null","delaylearn","learning","feedback_duration_window","5ffa22d8dcae1e3cc129b6f6","GSiPszFUwOdYuZR6fnqDeDupDr62","","","","","","","","","","","","","","","","","","3000","","",""
"html-keyboard-response","5","9797","0.0-2.0-3.0","","null","<div style='margin:auto;width: auto; font-size: 150%'><span style='font-weight: bold; font-size: 100px; color: green;'>+10 points!</span><br><br></div>","null","delaylearn","learning","feedback_image_window","5ffa22d8dcae1e3cc129b6f6","GSiPszFUwOdYuZR6fnqDeDupDr62","","","","","","","","","","","","","","","","","","","","",""
"html-keyboard-response","6","11992","0.0-3.0","","null","<div style=""font-size:100px;"">+</div>","null","delaylearn","learning","ITI","5ffa22d8dcae1e3cc129b6f6","GSiPszFUwOdYuZR6fnqDeDupDr62","","","","","","","","","","","","","","","","","","","2182","",""
"html-keyboard-response","7","12981","0.0-4.0-0.0","","987.5","<div style=""display: flex; flex-direction: column; align-items: center; margin-top: -40px;""><img src=""images/demo_images/pattern_1.png"" style=""width: 234px; height: 230px; margin-top: -50px;""><div style=""display: flex; justify-content: space-between; margin-top: 33px;""><img src=""images/demo_images/choice_trial_2.png"" style=""width: 408px; height: 417px; margin-right: 200px;""><img src=""images/demo_images/choice_trial_1.png"" style=""width: 408px; height: 417px;""></div></div>","j","delaylearn","learning","trial","5ffa22d8dcae1e3cc129b6f6","GSiPszFUwOdYuZR6fnqDeDupDr62","5","images/demo_images/choice_trial_2.png","images/demo_images/choice_trial_1.png","images/demo_images/pattern_1.png","j","j","3000","2","1","20","1","2","1","1","1","20","","","","",""
"html-keyboard-response","8","13993","0.0-4.0-1.0","","null","<div style=""display: flex; flex-direction: column; align-items: center; margin-top: -40px;""><img src=""images/demo_images/pattern_1.png"" style=""width: 234px; height: 230px; margin-top: -50px;""><div style=""display: flex; justify-content: space-between; margin-top: 33px;""><img src=""images/demo_images/choice_trial_1.png"" style=""width: 408px; height: 417px; margin-left:608px;""></div></div>","null","delaylearn","learning","display_response","5ffa22d8dcae1e3cc129b6f6","GSiPszFUwOdYuZR6fnqDeDupDr62","","","","","","","","","","","","","","","","","chosen stimuli: images/demo_images/choice_trial_1.png","","","",""
"html-keyboard-response","9","16996","0.0-4.0-2.0","","null","","null","delaylearn","learning","feedback_duration_window","5ffa22d8dcae1e3cc129b6f6","GSiPszFUwOdYuZR6fnqDeDupDr62","","","","","","","","","","","","","","","","","","3000","","",""
"html-keyboard-response","10","18509","0.0-4.0-3.0","","null","<div style='margin:auto;width: auto; font-size: 150%'><span style='font-weight: bold; font-size: 100px; color: green;'>+10 points!</span><br><br></div>","null","delaylearn","learning","feedback_image_window","5ffa22d8dcae1e3cc129b6f6","GSiPszFUwOdYuZR6fnqDeDupDr62","","","","","","","","","","","","","","","","","","","","",""
"html-keyboard-response","11","20760","0.0-5.0","","null","<div style=""font-size:100px;"">+</div>","null","delaylearn","learning","ITI","5ffa22d8dcae1e3cc129b6f6","GSiPszFUwOdYuZR6fnqDeDupDr62","","","","","","","","","","","","","","","","","","","2248","",""
"html-keyboard-response","12","21781","0.0-6.0-0.0","","1020.0999999999767","<div style=""display: flex; flex-direction: column; align-items: center; margin-top: -40px;""><img src=""images/demo_images/pattern_1.png"" style=""width: 234px; height: 230px; margin-top: -50px;""><div style=""display: flex; justify-content: space-between; margin-top: 33px;""><img src=""images/demo_images/choice_trial_1.png"" style=""width: 408px; height: 417px; margin-right: 200px;""><img src=""images/demo_images/choice_trial_2.png"" style=""width: 408px; height: 417px;""></div></div>","f","delaylearn","learning","trial","5ffa22d8dcae1e3cc129b6f6","GSiPszFUwOdYuZR6fnqDeDupDr62","5","images/demo_images/choice_trial_1.png","images/demo_images/choice_trial_2.png","images/demo_images/pattern_1.png","j","f","3000","1","2","20","0","3","1","0","1","20","","","","",""
"html-keyboard-response","13","22791","0.0-6.0-1.0","","null","<div style=""display: flex; flex-direction: column; align-items: center; margin-top: -40px;""><img src=""images/demo_images/pattern_1.png"" style=""width: 234px; height: 230px; margin-top: -50px;""><div style=""display: flex; justify-content: space-between; margin-top: 33px;""><img src=""images/demo_images/choice_trial_1.png"" style=""width: 408px; height: 417px; margin-right: 608px;""></div></div>","null","delaylearn","learning","display_response","5ffa22d8dcae1e3cc129b6f6","GSiPszFUwOdYuZR6fnqDeDupDr62","","","","","","","","","","","","","","","","","chosen stimuli: images/demo_images/choice_trial_1.png","","","",""
"html-keyboard-response","14","25792","0.0-6.0-2.0","","null","","null","delaylearn","learning","feedback_duration_window","5ffa22d8dcae1e3cc129b6f6","GSiPszFUwOdYuZR6fnqDeDupDr62","","","","","","","","","","","","","","","","","","3000","","",""
"html-keyboard-response","15","27300","0.0-6.0-3.0","","null","<div style='margin:auto;width: auto; font-size: 150%'><span style='font-weight: bold; font-size: 100px; color: red;'>0 points!</span><br><br></div>","null","delaylearn","learning","feedback_image_window","5ffa22d8dcae1e3cc129b6f6","GSiPszFUwOdYuZR6fnqDeDupDr62","","","","","","","","","","","","","","","","","","","","",""
"html-keyboard-response","16","29196","0.0-7.0","","null","<div style=""font-size:100px;"">+</div>","null","delaylearn","learning","ITI","5ffa22d8dcae1e3cc129b6f6","GSiPszFUwOdYuZR6fnqDeDupDr62","","","","","","","","","","","","","","","","","","","1895","",""
"html-keyboard-response","17","30478","0.0-8.0-0.0","","1281.399999999965","<div style=""display: flex; flex-direction: column; align-items: center; margin-top: -40px;""><img src=""images/demo_images/pattern_1.png"" style=""width: 234px; height: 230px; margin-top: -50px;""><div style=""display: flex; justify-content: space-between; margin-top: 33px;""><img src=""images/demo_images/choice_trial_1.png"" style=""width: 408px; height: 417px; margin-right: 200px;""><img src=""images/demo_images/choice_trial_2.png"" style=""width: 408px; height: 417px;""></div></div>","j","delaylearn","learning","trial","5ffa22d8dcae1e3cc129b6f6","GSiPszFUwOdYuZR6fnqDeDupDr62","5","images/demo_images/choice_trial_1.png","images/demo_images/choice_trial_2.png","images/demo_images/pattern_1.png","f","f","3000","1","2","20","0","4","0","0","2","20","","","","",""
"html-keyboard-response","18","31493","0.0-8.0-1.0","","null","<div style=""display: flex; flex-direction: column; align-items: center; margin-top: -40px;""><img src=""images/demo_images/pattern_1.png"" style=""width: 234px; height: 230px; margin-top: -50px;""><div style=""display: flex; justify-content: space-between; margin-top: 33px;""><img src=""images/demo_images/choice_trial_2.png"" style=""width: 408px; height: 417px; margin-left:608px;""></div></div>","null","delaylearn","learning","display_response","5ffa22d8dcae1e3cc129b6f6","GSiPszFUwOdYuZR6fnqDeDupDr62","","","","","","","","","","","","","","","","","chosen stimuli: images/demo_images/choice_trial_2.png","","","",""
"html-keyboard-response","19","34497","0.0-8.0-2.0","","null","","null","delaylearn","learning","feedback_duration_window","5ffa22d8dcae1e3cc129b6f6","GSiPszFUwOdYuZR6fnqDeDupDr62","","","","","","","","","","","","","","","","","","3000","","",""
"html-keyboard-response","20","36000","0.0-8.0-3.0","","null","<div style='margin:auto;width: auto; font-size: 150%'><span style='font-weight: bold; font-size: 100px; color: red;'>0 points!</span><br><br></div>","null","delaylearn","learning","feedback_image_window","5ffa22d8dcae1e3cc129b6f6","GSiPszFUwOdYuZR6fnqDeDupDr62","","","","","","","","","","","","","","","","","","","","",""
"html-keyboard-response","21","36500","0.0-9.0-0.0","","null","","null","","","mood_trial_fixation","","","","","","","","","","","","","","","","","","","","","","",""
"lmdlab-html-vas-response","22","41535","0.0-9.0-1.0","","4026","How happy are you right now?","0.2893880208333333","delaylearn","learning","mood_trial","5ffa22d8dcae1e3cc129b6f6","GSiPszFUwOdYuZR6fnqDeDupDr62","","","","","","","","","","","","","","","","","","","","[""Very unhappy"",""Very happy""]",""
"html-keyboard-response","23","43280","0.0-10.0","","null","<div style=""font-size:100px;"">+</div>","null","delaylearn","learning","ITI","5ffa22d8dcae1e3cc129b6f6","GSiPszFUwOdYuZR6fnqDeDupDr62","","","","","","","","","","","","","","","","","","","1743","",""
"html-keyboard-response","24","44726","0.0-11.0-0.0","","1445.4000000000233","<div style=""display: flex; flex-direction: column; align-items: center; margin-top: -40px;""><img src=""images/demo_images/pattern_1.png"" style=""width: 234px; height: 230px; margin-top: -50px;""><div style=""display: flex; justify-content: space-between; margin-top: 33px;""><img src=""images/demo_images/choice_trial_2.png"" style=""width: 408px; height: 417px; margin-right: 200px;""><img src=""images/demo_images/choice_trial_1.png"" style=""width: 408px; height: 417px;""></div></div>","j","delaylearn","learning","trial","5ffa22d8dcae1e3cc129b6f6","GSiPszFUwOdYuZR6fnqDeDupDr62","5","images/demo_images/choice_trial_2.png","images/demo_images/choice_trial_1.png","images/demo_images/pattern_1.png","j","j","3000","2","1","20","1","5","1","1","1","30","","","","",""
"html-keyboard-response","25","45731","0.0-11.0-1.0","","null","<div style=""display: flex; flex-direction: column; align-items: center; margin-top: -40px;""><img src=""images/demo_images/pattern_1.png"" style=""width: 234px; height: 230px; margin-top: -50px;""><div style=""display: flex; justify-content: space-between; margin-top: 33px;""><img src=""images/demo_images/choice_trial_1.png"" style=""width: 408px; height: 417px; margin-left:608px;""></div></div>","null","delaylearn","learning","display_response","5ffa22d8dcae1e3cc129b6f6","GSiPszFUwOdYuZR6fnqDeDupDr62","","","","","","","","","","","","","","","","","chosen stimuli: images/demo_images/choice_trial_1.png","","","",""
"html-keyboard-response","26","48741","0.0-11.0-2.0","","null","","null","delaylearn","learning","feedback_duration_window","5ffa22d8dcae1e3cc129b6f6","GSiPszFUwOdYuZR6fnqDeDupDr62","","","","","","","","","","","","","","","","","","3000","","",""
"html-keyboard-response","27","50243","0.0-11.0-3.0","","null","<div style='margin:auto;width: auto; font-size: 150%'><span style='font-weight: bold; font-size: 100px; color: green;'>+10 points!</span><br><br></div>","null","delaylearn","learning","feedback_image_window","5ffa22d8dcae1e3cc129b6f6","GSiPszFUwOdYuZR6fnqDeDupDr62","","","","","","","","","","","","","","","","","","","","",""
"html-keyboard-response","28","52639","0.0-12.0","","null","<div style=""font-size:100px;"">+</div>","null","delaylearn","learning","ITI","5ffa22d8dcae1e3cc129b6f6","GSiPszFUwOdYuZR6fnqDeDupDr62","","","","","","","","","","","","","","","","","","","2388","",""
"html-keyboard-response","29","53383","0.0-13.0-0.0","","743.0999999999767","<div style=""display: flex; flex-direction: column; align-items: center; margin-top: -40px;""><img src=""images/demo_images/pattern_1.png"" style=""width: 234px; height: 230px; margin-top: -50px;""><div style=""display: flex; justify-content: space-between; margin-top: 33px;""><img src=""images/demo_images/choice_trial_1.png"" style=""width: 408px; height: 417px; margin-right: 200px;""><img src=""images/demo_images/choice_trial_2.png"" style=""width: 408px; height: 417px;""></div></div>","f","delaylearn","learning","trial","5ffa22d8dcae1e3cc129b6f6","GSiPszFUwOdYuZR6fnqDeDupDr62","5","images/demo_images/choice_trial_1.png","images/demo_images/choice_trial_2.png","images/demo_images/pattern_1.png","f","f","3000","1","2","20","0","6","1","1","1","40","","","","",""
"html-keyboard-response","30","54388","0.0-13.0-1.0","","null","<div style=""display: flex; flex-direction: column; align-items: center; margin-top: -40px;""><img src=""images/demo_images/pattern_1.png"" style=""width: 234px; height: 230px; margin-top: -50px;""><div style=""display: flex; justify-content: space-between; margin-top: 33px;""><img src=""images/demo_images/choice_trial_1.png"" style=""width: 408px; height: 417px; margin-right: 608px;""></div></div>","null","delaylearn","learning","display_response","5ffa22d8dcae1e3cc129b6f6","GSiPszFUwOdYuZR6fnqDeDupDr62","","","","","","","","","","","","","","","","","chosen stimuli: images/demo_images/choice_trial_1.png","","","",""
"html-keyboard-response","31","57391","0.0-13.0-2.0","","null","","null","delaylearn","learning","feedback_duration_window","5ffa22d8dcae1e3cc129b6f6","GSiPszFUwOdYuZR6fnqDeDupDr62","","","","","","","","","","","","","","","","","","3000","","",""
"html-keyboard-response","32","58906","0.0-13.0-3.0","","null","<div style='margin:auto;width: auto; font-size: 150%'><span style='font-weight: bold; font-size: 100px; color: green;'>+10 points!</span><br><br></div>","null","delaylearn","learning","feedback_image_window","5ffa22d8dcae1e3cc129b6f6","GSiPszFUwOdYuZR6fnqDeDupDr62","","","","","","","","","","","","","","","","","","","","",""
"html-keyboard-response","33","60625","0.0-14.0","","null","<div style=""font-size:100px;"">+</div>","null","delaylearn","learning","ITI","5ffa22d8dcae1e3cc129b6f6","GSiPszFUwOdYuZR6fnqDeDupDr62","","","","","","","","","","","","","","","","","","","1707","",""
"html-keyboard-response","34","61327","0.0-15.0-0.0","","700.9000000000233","<div style=""display: flex; flex-direction: column; align-items: center; margin-top: -40px;""><img src=""images/demo_images/pattern_1.png"" style=""width: 234px; height: 230px; margin-top: -50px;""><div style=""display: flex; justify-content: space-between; margin-top: 33px;""><img src=""images/demo_images/choice_trial_2.png"" style=""width: 408px; height: 417px; margin-right: 200px;""><img src=""images/demo_images/choice_trial_1.png"" style=""width: 408px; height: 417px;""></div></div>","j","delaylearn","learning","trial","5ffa22d8dcae1e3cc129b6f6","GSiPszFUwOdYuZR6fnqDeDupDr62","5","images/demo_images/choice_trial_2.png","images/demo_images/choice_trial_1.png","images/demo_images/pattern_1.png","j","j","3000","2","1","20","1","7","1","1","1","50","","","","",""
"html-keyboard-response","35","62328","0.0-15.0-1.0","","null","<div style=""display: flex; flex-direction: column; align-items: center; margin-top: -40px;""><img src=""images/demo_images/pattern_1.png"" style=""width: 234px; height: 230px; margin-top: -50px;""><div style=""display: flex; justify-content: space-between; margin-top: 33px;""><img src=""images/demo_images/choice_trial_1.png"" style=""width: 408px; height: 417px; margin-left:608px;""></div></div>","null","delaylearn","learning","display_response","5ffa22d8dcae1e3cc129b6f6","GSiPszFUwOdYuZR6fnqDeDupDr62","","","","","","","","","","","","","","","","","chosen stimuli: images/demo_images/choice_trial_1.png","","","",""
"html-keyboard-response","36","65337","0.0-15.0-2.0","","null","","null","delaylearn","learning","feedback_duration_window","5ffa22d8dcae1e3cc129b6f6","GSiPszFUwOdYuZR6fnqDeDupDr62","","","","","","","","","","","","","","","","","","3000","","",""
"html-keyboard-response","37","66849","0.0-15.0-3.0","","null","<div style='margin:auto;width: auto; font-size: 150%'><span style='font-weight: bold; font-size: 100px; color: green;'>+10 points!</span><br><br></div>","null","delaylearn","learning","feedback_image_window","5ffa22d8dcae1e3cc129b6f6","GSiPszFUwOdYuZR6fnqDeDupDr62","","","","","","","","","","","","","","","","","","","","",""
"html-keyboard-response","38","68457","0.0-16.0","","null","<div style=""font-size:100px;"">+</div>","null","delaylearn","learning","ITI","5ffa22d8dcae1e3cc129b6f6","GSiPszFUwOdYuZR6fnqDeDupDr62","","","","","","","","","","","","","","","","","","","1606","",""
"html-keyboard-response","39","69111","0.0-17.0-0.0","","652.9000000000233","<div style=""display: flex; flex-direction: column; align-items: center; margin-top: -40px;""><img src=""images/demo_images/pattern_1.png"" style=""width: 234px; height: 230px; margin-top: -50px;""><div style=""display: flex; justify-content: space-between; margin-top: 33px;""><img src=""images/demo_images/choice_trial_1.png"" style=""width: 408px; height: 417px; margin-right: 200px;""><img src=""images/demo_images/choice_trial_2.png"" style=""width: 408px; height: 417px;""></div></div>","f","delaylearn","learning","trial","5ffa22d8dcae1e3cc129b6f6","GSiPszFUwOdYuZR6fnqDeDupDr62","5","images/demo_images/choice_trial_1.png","images/demo_images/choice_trial_2.png","images/demo_images/pattern_1.png","f","f","3000","1","2","20","0","8","1","1","1","60","","","","",""
"html-keyboard-response","40","70116","0.0-17.0-1.0","","null","<div style=""display: flex; flex-direction: column; align-items: center; margin-top: -40px;""><img src=""images/demo_images/pattern_1.png"" style=""width: 234px; height: 230px; margin-top: -50px;""><div style=""display: flex; justify-content: space-between; margin-top: 33px;""><img src=""images/demo_images/choice_trial_1.png"" style=""width: 408px; height: 417px; margin-right: 608px;""></div></div>","null","delaylearn","learning","display_response","5ffa22d8dcae1e3cc129b6f6","GSiPszFUwOdYuZR6fnqDeDupDr62","","","","","","","","","","","","","","","","","chosen stimuli: images/demo_images/choice_trial_1.png","","","",""
"html-keyboard-response","41","73120","0.0-17.0-2.0","","null","","null","delaylearn","learning","feedback_duration_window","5ffa22d8dcae1e3cc129b6f6","GSiPszFUwOdYuZR6fnqDeDupDr62","","","","","","","","","","","","","","","","","","3000","","",""
"html-keyboard-response","42","74636","0.0-17.0-3.0","","null","<div style='margin:auto;width: auto; font-size: 150%'><span style='font-weight: bold; font-size: 100px; color: green;'>+10 points!</span><br><br></div>","null","delaylearn","learning","feedback_image_window","5ffa22d8dcae1e3cc129b6f6","GSiPszFUwOdYuZR6fnqDeDupDr62","","","","","","","","","","","","","","","","","","","","",""
"html-button-response","43","77600","0.0-18.0","","2963.100000000035","
  <div style=""display: flex; align-items: center; justify-content: center; height: 80vh;"">
  <div>
          <img src=""images/inst_demo_finish.png"" style=""width: 80vw; height:auto;"">
          <br><br>
      </div>
      <br><br>
  </div>","0","","","","","","","","","","","","","","","","","","","","","","","","","",""
"html-keyboard-response","44","83896","0.0-19.0","","6295.900000000023","
  <div style=""display: flex; align-items: center; justify-content: center; height: 80vh;"">
  <div>
          <img src=""images/inst_6.png"" style=""width: 80vw; height:auto;"">
          <br><br>
      </div>
      <br><br>
  </div>","f","","","","","","","","","","","","","","","","","","","","","","","","","",""
"html-keyboard-response","45","86909","0.0-20.0","","null","<div style=""font-size:100px;"">+</div>","null","delaylearn","learning","pre_fixation","5ffa22d8dcae1e3cc129b6f6","","","","","","","","","","","","","","","","","","","","","",""
"html-keyboard-response","46","89122","0.0-21.0","","null","<div style=""font-size:100px;"">+</div>","null","delaylearn","learning","ITI","5ffa22d8dcae1e3cc129b6f6","GSiPszFUwOdYuZR6fnqDeDupDr62","","","","","","","","","","","","","","","","","","","2204","",""
"html-keyboard-response","47","89985","0.0-22.0-0.0","","862.1000000000349","<div style=""display: flex; flex-direction: column; align-items: center; margin-top: -40px;""><img src=""images/pattern_3.png"" style=""width: 234px; height: 230px; margin-top: -50px;""><div style=""display: flex; justify-content: space-between; margin-top: 33px;""><img src=""images/choice_trial_16.png"" style=""width: 408px; height: 417px; margin-right: 200px;""><img src=""images/choice_trial_2.png"" style=""width: 408px; height: 417px;""></div></div>","f","delaylearn","learning","trial","5ffa22d8dcae1e3cc129b6f6","GSiPszFUwOdYuZR6fnqDeDupDr62","5","images/choice_trial_16.png","images/choice_trial_2.png","images/pattern_3.png","f","f","7000","16","2","2","0","9","1","1","16","70","","","","",""
"html-keyboard-response","48","90988","0.0-22.0-1.0","","null","<div style=""display: flex; flex-direction: column; align-items: center; margin-top: -40px;""><img src=""images/pattern_3.png"" style=""width: 234px; height: 230px; margin-top: -50px;""><div style=""display: flex; justify-content: space-between; margin-top: 33px;""><img src=""images/choice_trial_16.png"" style=""width: 408px; height: 417px; margin-right: 608px;""></div></div>","null","delaylearn","learning","display_response","5ffa22d8dcae1e3cc129b6f6","GSiPszFUwOdYuZR6fnqDeDupDr62","","","","","","","","","","","","","","","","","chosen stimuli: images/choice_trial_16.png","","","",""
"html-keyboard-response","49","98000","0.0-22.0-2.0","","null","","null","delaylearn","learning","feedback_duration_window","5ffa22d8dcae1e3cc129b6f6","GSiPszFUwOdYuZR6fnqDeDupDr62","","","","","","","","","","","","","","","","","","7000","","",""
"html-keyboard-response","50","99512","0.0-22.0-3.0","","null","<div style='margin:auto;width: auto; font-size: 150%'><span style='font-weight: bold; font-size: 100px; color: green;'>+10 points!</span><br><br></div>","null","delaylearn","learning","feedback_image_window","5ffa22d8dcae1e3cc129b6f6","GSiPszFUwOdYuZR6fnqDeDupDr62","","","","","","","","","","","","","","","","","","","","",""
"html-keyboard-response","51","101718","0.0-23.0","","null","<div style=""font-size:100px;"">+</div>","null","delaylearn","learning","ITI","5ffa22d8dcae1e3cc129b6f6","GSiPszFUwOdYuZR6fnqDeDupDr62","","","","","","","","","","","","","","","","","","","2192","",""
"html-keyboard-response","52","103953","0.0-24.0-0.0","","2234.5","<div style=""display: flex; flex-direction: column; align-items: center; margin-top: -40px;""><img src=""images/pattern_7.png"" style=""width: 234px; height: 230px; margin-top: -50px;""><div style=""display: flex; justify-content: space-between; margin-top: 33px;""><img src=""images/choice_trial_10.png"" style=""width: 408px; height: 417px; margin-right: 200px;""><img src=""images/choice_trial_8.png"" style=""width: 408px; height: 417px;""></div></div>","j","delaylearn","learning","trial","5ffa22d8dcae1e3cc129b6f6","GSiPszFUwOdYuZR6fnqDeDupDr62","5","images/choice_trial_10.png","images/choice_trial_8.png","images/pattern_7.png","j","j","750","10","8","6","1","10","1","1","8","80","","","","",""
"html-keyboard-response","53","104967","0.0-24.0-1.0","","null","<div style=""display: flex; flex-direction: column; align-items: center; margin-top: -40px;""><img src=""images/pattern_7.png"" style=""width: 234px; height: 230px; margin-top: -50px;""><div style=""display: flex; justify-content: space-between; margin-top: 33px;""><img src=""images/choice_trial_8.png"" style=""width: 408px; height: 417px; margin-left:608px;""></div></div>","null","delaylearn","learning","display_response","5ffa22d8dcae1e3cc129b6f6","GSiPszFUwOdYuZR6fnqDeDupDr62","","","","","","","","","","","","","","","","","chosen stimuli: images/choice_trial_8.png","","","",""
"html-keyboard-response","54","105719","0.0-24.0-2.0","","null","","null","delaylearn","learning","feedback_duration_window","5ffa22d8dcae1e3cc129b6f6","GSiPszFUwOdYuZR6fnqDeDupDr62","","","","","","","","","","","","","","","","","","750","","",""
"html-keyboard-response","55","107234","0.0-24.0-3.0","","null","<div style='margin:auto;width: auto; font-size: 150%'><span style='font-weight: bold; font-size: 100px; color: green;'>+10 points!</span><br><br></div>","null","delaylearn","learning","feedback_image_window","5ffa22d8dcae1e3cc129b6f6","GSiPszFUwOdYuZR6fnqDeDupDr62","","","","","","","","","","","","","","","","","","","","",""
"html-keyboard-response","56","109641","0.0-25.0","","null","<div style=""font-size:100px;"">+</div>","null","delaylearn","learning","ITI","5ffa22d8dcae1e3cc129b6f6","GSiPszFUwOdYuZR6fnqDeDupDr62","","","","","","","","","","","","","","","","","","","2398","",""
"html-keyboard-response","57","111593","0.0-26.0-0.0","","1952","<div style=""display: flex; flex-direction: column; align-items: center; margin-top: -40px;""><img src=""images/pattern_4.png"" style=""width: 234px; height: 230px; margin-top: -50px;""><div style=""display: flex; justify-content: space-between; margin-top: 33px;""><img src=""images/choice_trial_11.png"" style=""width: 408px; height: 417px; margin-right: 200px;""><img src=""images/choice_trial_4.png"" style=""width: 408px; height: 417px;""></div></div>","f","delaylearn","learning","trial","5ffa22d8dcae1e3cc129b6f6","GSiPszFUwOdYuZR6fnqDeDupDr62","5","images/choice_trial_11.png","images/choice_trial_4.png","images/pattern_4.png","f","f","7000","11","4","3","0","11","1","1","11","90","","","","",""
"html-keyboard-response","58","112597","0.0-26.0-1.0","","null","<div style=""display: flex; flex-direction: column; align-items: center; margin-top: -40px;""><img src=""images/pattern_4.png"" style=""width: 234px; height: 230px; margin-top: -50px;""><div style=""display: flex; justify-content: space-between; margin-top: 33px;""><img src=""images/choice_trial_11.png"" style=""width: 408px; height: 417px; margin-right: 608px;""></div></div>","null","delaylearn","learning","display_response","5ffa22d8dcae1e3cc129b6f6","GSiPszFUwOdYuZR6fnqDeDupDr62","","","","","","","","","","","","","","","","","chosen stimuli: images/choice_trial_11.png","","","",""
"html-keyboard-response","59","119602","0.0-26.0-2.0","","null","","null","delaylearn","learning","feedback_duration_window","5ffa22d8dcae1e3cc129b6f6","GSiPszFUwOdYuZR6fnqDeDupDr62","","","","","","","","","","","","","","","","","","7000","","",""
"html-keyboard-response","60","121116","0.0-26.0-3.0","","null","<div style='margin:auto;width: auto; font-size: 150%'><span style='font-weight: bold; font-size: 100px; color: green;'>+10 points!</span><br><br></div>","null","delaylearn","learning","feedback_image_window","5ffa22d8dcae1e3cc129b6f6","GSiPszFUwOdYuZR6fnqDeDupDr62","","","","","","","","","","","","","","","","","","","","",""
"html-keyboard-response","61","122982","0.0-27.0","","null","<div style=""font-size:100px;"">+</div>","null","delaylearn","learning","ITI","5ffa22d8dcae1e3cc129b6f6","GSiPszFUwOdYuZR6fnqDeDupDr62","","","","","","","","","","","","","","","","","","","1863","",""
"html-keyboard-response","62","125988","0.0-28.0-0.0","","null","<div style=""display: flex; flex-direction: column; align-items: center; margin-top: -40px;""><img src=""images/pattern_5.png"" style=""width: 234px; height: 230px; margin-top: -50px;""><div style=""display: flex; justify-content: space-between; margin-top: 33px;""><img src=""images/choice_trial_13.png"" style=""width: 408px; height: 417px; margin-right: 200px;""><img src=""images/choice_trial_7.png"" style=""width: 408px; height: 417px;""></div></div>","null","delaylearn","learning","trial","5ffa22d8dcae1e3cc129b6f6","GSiPszFUwOdYuZR6fnqDeDupDr62","5","images/choice_trial_13.png","images/choice_trial_7.png","images/pattern_5.png","j","j","750","13","7","4","1","12","0","0","0","90","","","","",""
"html-keyboard-response","63","127002","0.0-28.0-1.0","","null","<div style='font-weight: bold; font-size: 75px; color: red;'>Missed Trial <br><br><br><br> Please respond faster</div>","null","delaylearn","learning","display_response","5ffa22d8dcae1e3cc129b6f6","GSiPszFUwOdYuZR6fnqDeDupDr62","","","","","","","","","","","","","","","","","Missed trial","","","",""
"html-keyboard-response","64","127006","0.0-28.0-2.0","","null","","null","delaylearn","learning","feedback_duration_window","5ffa22d8dcae1e3cc129b6f6","GSiPszFUwOdYuZR6fnqDeDupDr62","","","","","","","","","","","","","","","","","","0","","",""
"html-keyboard-response","65","127011","0.0-28.0-3.0","","null","","null","delaylearn","learning","feedback_image_window","5ffa22d8dcae1e3cc129b6f6","GSiPszFUwOdYuZR6fnqDeDupDr62","","","","","","","","","","","","","","","","","","","","",""
"html-keyboard-response","66","129190","0.0-29.0","","null","<div style=""font-size:100px;"">+</div>","null","delaylearn","learning","ITI","5ffa22d8dcae1e3cc129b6f6","GSiPszFUwOdYuZR6fnqDeDupDr62","","","","","","","","","","","","","","","","","","","2176","",""
"html-keyboard-response","67","130666","0.0-30.0-0.0","","1475.600000000035","<div style=""display: flex; flex-direction: column; align-items: center; margin-top: -40px;""><img src=""images/pattern_6.png"" style=""width: 234px; height: 230px; margin-top: -50px;""><div style=""display: flex; justify-content: space-between; margin-top: 33px;""><img src=""images/choice_trial_14.png"" style=""width: 408px; height: 417px; margin-right: 200px;""><img src=""images/choice_trial_9.png"" style=""width: 408px; height: 417px;""></div></div>","j","delaylearn","learning","trial","5ffa22d8dcae1e3cc129b6f6","GSiPszFUwOdYuZR6fnqDeDupDr62","5","images/choice_trial_14.png","images/choice_trial_9.png","images/pattern_6.png","j","f","750","14","9","5","0","13","0","1","9","100","","","","",""
"html-keyboard-response","68","131676","0.0-30.0-1.0","","null","<div style=""display: flex; flex-direction: column; align-items: center; margin-top: -40px;""><img src=""images/pattern_6.png"" style=""width: 234px; height: 230px; margin-top: -50px;""><div style=""display: flex; justify-content: space-between; margin-top: 33px;""><img src=""images/choice_trial_9.png"" style=""width: 408px; height: 417px; margin-left:608px;""></div></div>","null","delaylearn","learning","display_response","5ffa22d8dcae1e3cc129b6f6","GSiPszFUwOdYuZR6fnqDeDupDr62","","","","","","","","","","","","","","","","","chosen stimuli: images/choice_trial_9.png","","","",""
"html-keyboard-response","69","132427","0.0-30.0-2.0","","null","","null","delaylearn","learning","feedback_duration_window","5ffa22d8dcae1e3cc129b6f6","GSiPszFUwOdYuZR6fnqDeDupDr62","","","","","","","","","","","","","","","","","","750","","",""
"html-keyboard-response","70","133941","0.0-30.0-3.0","","null","<div style='margin:auto;width: auto; font-size: 150%'><span style='font-weight: bold; font-size: 100px; color: green;'>+10 points!</span><br><br></div>","null","delaylearn","learning","feedback_image_window","5ffa22d8dcae1e3cc129b6f6","GSiPszFUwOdYuZR6fnqDeDupDr62","","","","","","","","","","","","","","","","","","","","",""
"html-keyboard-response","71","134456","0.0-31.0-0.0","","null","","null","","","mood_trial_fixation","","","","","","","","","","","","","","","","","","","","","","",""
"lmdlab-html-vas-response","72","139171","0.0-31.0-1.0","","3711","How happy are you right now?","0.7940176504629629","delaylearn","learning","mood_trial","5ffa22d8dcae1e3cc129b6f6","GSiPszFUwOdYuZR6fnqDeDupDr62","","","","","","","","","","","","","","","","","","","","[""Very unhappy"",""Very happy""]",""
"html-keyboard-response","73","141540","0.0-32.0","","null","<div style=""font-size:100px;"">+</div>","null","delaylearn","learning","ITI","5ffa22d8dcae1e3cc129b6f6","GSiPszFUwOdYuZR6fnqDeDupDr62","","","","","","","","","","","","","","","","","","","2366","",""
"html-keyboard-response","74","142763","0.0-33.0-0.0","","1221.9000000000233","<div style=""display: flex; flex-direction: column; align-items: center; margin-top: -40px;""><img src=""images/pattern_1.png"" style=""width: 234px; height: 230px; margin-top: -50px;""><div style=""display: flex; justify-content: space-between; margin-top: 33px;""><img src=""images/choice_trial_15.png"" style=""width: 408px; height: 417px; margin-right: 200px;""><img src=""images/choice_trial_6.png"" style=""width: 408px; height: 417px;""></div></div>","j","delaylearn","learning","trial","5ffa22d8dcae1e3cc129b6f6","GSiPszFUwOdYuZR6fnqDeDupDr62","5","images/choice_trial_15.png","images/choice_trial_6.png","images/pattern_1.png","j","j","7000","15","6","1","1","14","1","1","6","110","","","","",""
"html-keyboard-response","75","143772","0.0-33.0-1.0","","null","<div style=""display: flex; flex-direction: column; align-items: center; margin-top: -40px;""><img src=""images/pattern_1.png"" style=""width: 234px; height: 230px; margin-top: -50px;""><div style=""display: flex; justify-content: space-between; margin-top: 33px;""><img src=""images/choice_trial_6.png"" style=""width: 408px; height: 417px; margin-left:608px;""></div></div>","null","delaylearn","learning","display_response","5ffa22d8dcae1e3cc129b6f6","GSiPszFUwOdYuZR6fnqDeDupDr62","","","","","","","","","","","","","","","","","chosen stimuli: images/choice_trial_6.png","","","",""
"html-keyboard-response","76","150779","0.0-33.0-2.0","","null","","null","delaylearn","learning","feedback_duration_window","5ffa22d8dcae1e3cc129b6f6","GSiPszFUwOdYuZR6fnqDeDupDr62","","","","","","","","","","","","","","","","","","7000","","",""
"html-keyboard-response","77","152283","0.0-33.0-3.0","","null","<div style='margin:auto;width: auto; font-size: 150%'><span style='font-weight: bold; font-size: 100px; color: green;'>+10 points!</span><br><br></div>","null","delaylearn","learning","feedback_image_window","5ffa22d8dcae1e3cc129b6f6","GSiPszFUwOdYuZR6fnqDeDupDr62","","","","","","","","","","","","","","","","","","","","",""
"html-keyboard-response","78","154540","0.0-34.0","","null","<div style=""font-size:100px;"">+</div>","null","delaylearn","learning","ITI","5ffa22d8dcae1e3cc129b6f6","GSiPszFUwOdYuZR6fnqDeDupDr62","","","","","","","","","","","","","","","","","","","2243","",""
"html-keyboard-response","79","155756","0.0-35.0-0.0","","1214.899999999965","<div style=""display: flex; flex-direction: column; align-items: center; margin-top: -40px;""><img src=""images/pattern_3.png"" style=""width: 234px; height: 230px; margin-top: -50px;""><div style=""display: flex; justify-content: space-between; margin-top: 33px;""><img src=""images/choice_trial_2.png"" style=""width: 408px; height: 417px; margin-right: 200px;""><img src=""images/choice_trial_16.png"" style=""width: 408px; height: 417px;""></div></div>","j","delaylearn","learning","trial","5ffa22d8dcae1e3cc129b6f6","GSiPszFUwOdYuZR6fnqDeDupDr62","5","images/choice_trial_2.png","images/choice_trial_16.png","images/pattern_3.png","f","j","7000","2","16","2","1","15","1","0","16","110","","","","",""
"html-keyboard-response","80","156757","0.0-35.0-1.0","","null","<div style=""display: flex; flex-direction: column; align-items: center; margin-top: -40px;""><img src=""images/pattern_3.png"" style=""width: 234px; height: 230px; margin-top: -50px;""><div style=""display: flex; justify-content: space-between; margin-top: 33px;""><img src=""images/choice_trial_16.png"" style=""width: 408px; height: 417px; margin-left:608px;""></div></div>","null","delaylearn","learning","display_response","5ffa22d8dcae1e3cc129b6f6","GSiPszFUwOdYuZR6fnqDeDupDr62","","","","","","","","","","","","","","","","","chosen stimuli: images/choice_trial_16.png","","","",""
"html-keyboard-response","81","163773","0.0-35.0-2.0","","null","","null","delaylearn","learning","feedback_duration_window","5ffa22d8dcae1e3cc129b6f6","GSiPszFUwOdYuZR6fnqDeDupDr62","","","","","","","","","","","","","","","","","","7000","","",""
"html-keyboard-response","82","165285","0.0-35.0-3.0","","null","<div style='margin:auto;width: auto; font-size: 150%'><span style='font-weight: bold; font-size: 100px; color: red;'>0 points!</span><br><br></div>","null","delaylearn","learning","feedback_image_window","5ffa22d8dcae1e3cc129b6f6","GSiPszFUwOdYuZR6fnqDeDupDr62","","","","","","","","","","","","","","","","","","","","",""
"html-keyboard-response","83","167567","0.0-36.0","","null","<div style=""font-size:100px;"">+</div>","null","delaylearn","learning","ITI","5ffa22d8dcae1e3cc129b6f6","GSiPszFUwOdYuZR6fnqDeDupDr62","","","","","","","","","","","","","","","","","","","2279","",""
"html-keyboard-response","84","169621","0.0-37.0-0.0","","2053.100000000035","<div style=""display: flex; flex-direction: column; align-items: center; margin-top: -40px;""><img src=""images/pattern_5.png"" style=""width: 234px; height: 230px; margin-top: -50px;""><div style=""display: flex; justify-content: space-between; margin-top: 33px;""><img src=""images/choice_trial_7.png"" style=""width: 408px; height: 417px; margin-right: 200px;""><img src=""images/choice_trial_13.png"" style=""width: 408px; height: 417px;""></div></div>","f","delaylearn","learning","trial","5ffa22d8dcae1e3cc129b6f6","GSiPszFUwOdYuZR6fnqDeDupDr62","5","images/choice_trial_7.png","images/choice_trial_13.png","images/pattern_5.png","f","f","750","7","13","4","0","16","1","1","7","120","","","","",""
"html-keyboard-response","85","170631","0.0-37.0-1.0","","null","<div style=""display: flex; flex-direction: column; align-items: center; margin-top: -40px;""><img src=""images/pattern_5.png"" style=""width: 234px; height: 230px; margin-top: -50px;""><div style=""display: flex; justify-content: space-between; margin-top: 33px;""><img src=""images/choice_trial_7.png"" style=""width: 408px; height: 417px; margin-right: 608px;""></div></div>","null","delaylearn","learning","display_response","5ffa22d8dcae1e3cc129b6f6","GSiPszFUwOdYuZR6fnqDeDupDr62","","","","","","","","","","","","","","","","","chosen stimuli: images/choice_trial_7.png","","","",""
"html-keyboard-response","86","171383","0.0-37.0-2.0","","null","","null","delaylearn","learning","feedback_duration_window","5ffa22d8dcae1e3cc129b6f6","GSiPszFUwOdYuZR6fnqDeDupDr62","","","","","","","","","","","","","","","","","","750","","",""
"html-keyboard-response","87","172898","0.0-37.0-3.0","","null","<div style='margin:auto;width: auto; font-size: 150%'><span style='font-weight: bold; font-size: 100px; color: green;'>+10 points!</span><br><br></div>","null","delaylearn","learning","feedback_image_window","5ffa22d8dcae1e3cc129b6f6","GSiPszFUwOdYuZR6fnqDeDupDr62","","","","","","","","","","","","","","","","","","","","",""
"html-keyboard-response","88","173398","0.0-38.0-0.0","","null","","null","","","mood_trial_fixation","","","","","","","","","","","","","","","","","","","","","","",""
"lmdlab-html-vas-response","89","177733","0.0-38.0-1.0","","3330","How happy are you right now?","0.6597583912037037","delaylearn","learning","mood_trial","5ffa22d8dcae1e3cc129b6f6","GSiPszFUwOdYuZR6fnqDeDupDr62","","","","","","","","","","","","","","","","","","","","[""Very unhappy"",""Very happy""]",""
"html-keyboard-response","90","180059","0.0-39.0","","null","<div style=""font-size:100px;"">+</div>","null","delaylearn","learning","ITI","5ffa22d8dcae1e3cc129b6f6","GSiPszFUwOdYuZR6fnqDeDupDr62","","","","","","","","","","","","","","","","","","","2324","",""
"html-keyboard-response","91","181269","0.0-40.0-0.0","","1208.7999999999884","<div style=""display: flex; flex-direction: column; align-items: center; margin-top: -40px;""><img src=""images/pattern_6.png"" style=""width: 234px; height: 230px; margin-top: -50px;""><div style=""display: flex; justify-content: space-between; margin-top: 33px;""><img src=""images/choice_trial_14.png"" style=""width: 408px; height: 417px; margin-right: 200px;""><img src=""images/choice_trial_9.png"" style=""width: 408px; height: 417px;""></div></div>","f","delaylearn","learning","trial","5ffa22d8dcae1e3cc129b6f6","GSiPszFUwOdYuZR6fnqDeDupDr62","5","images/choice_trial_14.png","images/choice_trial_9.png","images/pattern_6.png","f","f","750","14","9","5","0","17","1","1","14","130","","","","",""
"html-keyboard-response","92","182275","0.0-40.0-1.0","","null","<div style=""display: flex; flex-direction: column; align-items: center; margin-top: -40px;""><img src=""images/pattern_6.png"" style=""width: 234px; height: 230px; margin-top: -50px;""><div style=""display: flex; justify-content: space-between; margin-top: 33px;""><img src=""images/choice_trial_14.png"" style=""width: 408px; height: 417px; margin-right: 608px;""></div></div>","null","delaylearn","learning","display_response","5ffa22d8dcae1e3cc129b6f6","GSiPszFUwOdYuZR6fnqDeDupDr62","","","","","","","","","","","","","","","","","chosen stimuli: images/choice_trial_14.png","","","",""
"html-keyboard-response","93","183028","0.0-40.0-2.0","","null","","null","delaylearn","learning","feedback_duration_window","5ffa22d8dcae1e3cc129b6f6","GSiPszFUwOdYuZR6fnqDeDupDr62","","","","","","","","","","","","","","","","","","750","","",""
"html-keyboard-response","94","184531","0.0-40.0-3.0","","null","<div style='margin:auto;width: auto; font-size: 150%'><span style='font-weight: bold; font-size: 100px; color: green;'>+10 points!</span><br><br></div>","null","delaylearn","learning","feedback_image_window","5ffa22d8dcae1e3cc129b6f6","GSiPszFUwOdYuZR6fnqDeDupDr62","","","","","","","","","","","","","","","","","","","","",""
"html-keyboard-response","95","186964","0.0-41.0","","null","<div style=""font-size:100px;"">+</div>","null","delaylearn","learning","ITI","5ffa22d8dcae1e3cc129b6f6","GSiPszFUwOdYuZR6fnqDeDupDr62","","","","","","","","","","","","","","","","","","","2425","",""
"html-keyboard-response","96","188685","0.0-42.0-0.0","","1720.1999999999534","<div style=""display: flex; flex-direction: column; align-items: center; margin-top: -40px;""><img src=""images/pattern_4.png"" style=""width: 234px; height: 230px; margin-top: -50px;""><div style=""display: flex; justify-content: space-between; margin-top: 33px;""><img src=""images/choice_trial_4.png"" style=""width: 408px; height: 417px; margin-right: 200px;""><img src=""images/choice_trial_11.png"" style=""width: 408px; height: 417px;""></div></div>","j","delaylearn","learning","trial","5ffa22d8dcae1e3cc129b6f6","GSiPszFUwOdYuZR6fnqDeDupDr62","5","images/choice_trial_4.png","images/choice_trial_11.png","images/pattern_4.png","j","j","7000","4","11","3","1","18","1","1","11","140","","","","",""
"html-keyboard-response","97","189693","0.0-42.0-1.0","","null","<div style=""display: flex; flex-direction: column; align-items: center; margin-top: -40px;""><img src=""images/pattern_4.png"" style=""width: 234px; height: 230px; margin-top: -50px;""><div style=""display: flex; justify-content: space-between; margin-top: 33px;""><img src=""images/choice_trial_11.png"" style=""width: 408px; height: 417px; margin-left:608px;""></div></div>","null","delaylearn","learning","display_response","5ffa22d8dcae1e3cc129b6f6","GSiPszFUwOdYuZR6fnqDeDupDr62","","","","","","","","","","","","","","","","","chosen stimuli: images/choice_trial_11.png","","","",""
"html-keyboard-response","98","196701","0.0-42.0-2.0","","null","","null","delaylearn","learning","feedback_duration_window","5ffa22d8dcae1e3cc129b6f6","GSiPszFUwOdYuZR6fnqDeDupDr62","","","","","","","","","","","","","","","","","","7000","","",""
"html-keyboard-response","99","198205","0.0-42.0-3.0","","null","<div style='margin:auto;width: auto; font-size: 150%'><span style='font-weight: bold; font-size: 100px; color: green;'>+10 points!</span><br><br></div>","null","delaylearn","learning","feedback_image_window","5ffa22d8dcae1e3cc129b6f6","GSiPszFUwOdYuZR6fnqDeDupDr62","","","","","","","","","","","","","","","","","","","","",""
"html-keyboard-response","100","200083","0.0-43.0","","null","<div style=""font-size:100px;"">+</div>","null","delaylearn","learning","ITI","5ffa22d8dcae1e3cc129b6f6","GSiPszFUwOdYuZR6fnqDeDupDr62","","","","","","","","","","","","","","","","","","","1864","",""
"html-keyboard-response","101","201398","0.0-44.0-0.0","","1313.7000000000698","<div style=""display: flex; flex-direction: column; align-items: center; margin-top: -40px;""><img src=""images/pattern_7.png"" style=""width: 234px; height: 230px; margin-top: -50px;""><div style=""display: flex; justify-content: space-between; margin-top: 33px;""><img src=""images/choice_trial_8.png"" style=""width: 408px; height: 417px; margin-right: 200px;""><img src=""images/choice_trial_10.png"" style=""width: 408px; height: 417px;""></div></div>","f","delaylearn","learning","trial","5ffa22d8dcae1e3cc129b6f6","GSiPszFUwOdYuZR6fnqDeDupDr62","5","images/choice_trial_8.png","images/choice_trial_10.png","images/pattern_7.png","j","f","750","8","10","6","0","19","1","0","8","140","","","","",""
"html-keyboard-response","102","202412","0.0-44.0-1.0","","null","<div style=""display: flex; flex-direction: column; align-items: center; margin-top: -40px;""><img src=""images/pattern_7.png"" style=""width: 234px; height: 230px; margin-top: -50px;""><div style=""display: flex; justify-content: space-between; margin-top: 33px;""><img src=""images/choice_trial_8.png"" style=""width: 408px; height: 417px; margin-right: 608px;""></div></div>","null","delaylearn","learning","display_response","5ffa22d8dcae1e3cc129b6f6","GSiPszFUwOdYuZR6fnqDeDupDr62","","","","","","","","","","","","","","","","","chosen stimuli: images/choice_trial_8.png","","","",""
"html-keyboard-response","103","203178","0.0-44.0-2.0","","null","","null","delaylearn","learning","feedback_duration_window","5ffa22d8dcae1e3cc129b6f6","GSiPszFUwOdYuZR6fnqDeDupDr62","","","","","","","","","","","","","","","","","","750","","",""
"html-keyboard-response","104","204691","0.0-44.0-3.0","","null","<div style='margin:auto;width: auto; font-size: 150%'><span style='font-weight: bold; font-size: 100px; color: red;'>0 points!</span><br><br></div>","null","delaylearn","learning","feedback_image_window","5ffa22d8dcae1e3cc129b6f6","GSiPszFUwOdYuZR6fnqDeDupDr62","","","","","","","","","","","","","","","","","","","","",""
"html-keyboard-response","105","206315","0.0-45.0","","null","<div style=""font-size:100px;"">+</div>","null","delaylearn","learning","ITI","5ffa22d8dcae1e3cc129b6f6","GSiPszFUwOdYuZR6fnqDeDupDr62","","","","","","","","","","","","","","","","","","","1610","",""
"html-keyboard-response","106","208126","0.0-46.0-0.0","","1810.4000000000233","<div style=""display: flex; flex-direction: column; align-items: center; margin-top: -40px;""><img src=""images/pattern_1.png"" style=""width: 234px; height: 230px; margin-top: -50px;""><div style=""display: flex; justify-content: space-between; margin-top: 33px;""><img src=""images/choice_trial_6.png"" style=""width: 408px; height: 417px; margin-right: 200px;""><img src=""images/choice_trial_15.png"" style=""width: 408px; height: 417px;""></div></div>","f","delaylearn","learning","trial","5ffa22d8dcae1e3cc129b6f6","GSiPszFUwOdYuZR6fnqDeDupDr62","5","images/choice_trial_6.png","images/choice_trial_15.png","images/pattern_1.png","f","f","7000","6","15","1","0","20","1","1","6","150","","","","",""
"html-keyboard-response","107","209131","0.0-46.0-1.0","","null","<div style=""display: flex; flex-direction: column; align-items: center; margin-top: -40px;""><img src=""images/pattern_1.png"" style=""width: 234px; height: 230px; margin-top: -50px;""><div style=""display: flex; justify-content: space-between; margin-top: 33px;""><img src=""images/choice_trial_6.png"" style=""width: 408px; height: 417px; margin-right: 608px;""></div></div>","null","delaylearn","learning","display_response","5ffa22d8dcae1e3cc129b6f6","GSiPszFUwOdYuZR6fnqDeDupDr62","","","","","","","","","","","","","","","","","chosen stimuli: images/choice_trial_6.png","","","",""
"html-keyboard-response","108","216147","0.0-46.0-2.0","","null","","null","delaylearn","learning","feedback_duration_window","5ffa22d8dcae1e3cc129b6f6","GSiPszFUwOdYuZR6fnqDeDupDr62","","","","","","","","","","","","","","","","","","7000","","",""
"html-keyboard-response","109","217648","0.0-46.0-3.0","","null","<div style='margin:auto;width: auto; font-size: 150%'><span style='font-weight: bold; font-size: 100px; color: green;'>+10 points!</span><br><br></div>","null","delaylearn","learning","feedback_image_window","5ffa22d8dcae1e3cc129b6f6","GSiPszFUwOdYuZR6fnqDeDupDr62","","","","","","","","","","","","","","","","","","","","",""
"html-keyboard-response","110","219896","0.0-47.0","","null","<div style=""font-size:100px;"">+</div>","null","delaylearn","learning","ITI","5ffa22d8dcae1e3cc129b6f6","GSiPszFUwOdYuZR6fnqDeDupDr62","","","","","","","","","","","","","","","","","","","2243","",""
"html-keyboard-response","111","221871","0.0-48.0-0.0","","1973.5","<div style=""display: flex; flex-direction: column; align-items: center; margin-top: -40px;""><img src=""images/pattern_6.png"" style=""width: 234px; height: 230px; margin-top: -50px;""><div style=""display: flex; justify-content: space-between; margin-top: 33px;""><img src=""images/choice_trial_9.png"" style=""width: 408px; height: 417px; margin-right: 200px;""><img src=""images/choice_trial_14.png"" style=""width: 408px; height: 417px;""></div></div>","f","delaylearn","learning","trial","5ffa22d8dcae1e3cc129b6f6","GSiPszFUwOdYuZR6fnqDeDupDr62","5","images/choice_trial_9.png","images/choice_trial_14.png","images/pattern_6.png","j","j","750","9","14","5","1","21","0","0","9","150","","","","",""
"html-keyboard-response","112","222883","0.0-48.0-1.0","","null","<div style=""display: flex; flex-direction: column; align-items: center; margin-top: -40px;""><img src=""images/pattern_6.png"" style=""width: 234px; height: 230px; margin-top: -50px;""><div style=""display: flex; justify-content: space-between; margin-top: 33px;""><img src=""images/choice_trial_9.png"" style=""width: 408px; height: 417px; margin-right: 608px;""></div></div>","null","delaylearn","learning","display_response","5ffa22d8dcae1e3cc129b6f6","GSiPszFUwOdYuZR6fnqDeDupDr62","","","","","","","","","","","","","","","","","chosen stimuli: images/choice_trial_9.png","","","",""
"html-keyboard-response","113","223648","0.0-48.0-2.0","","null","","null","delaylearn","learning","feedback_duration_window","5ffa22d8dcae1e3cc129b6f6","GSiPszFUwOdYuZR6fnqDeDupDr62","","","","","","","","","","","","","","","","","","750","","",""
"html-keyboard-response","114","225152","0.0-48.0-3.0","","null","<div style='margin:auto;width: auto; font-size: 150%'><span style='font-weight: bold; font-size: 100px; color: red;'>0 points!</span><br><br></div>","null","delaylearn","learning","feedback_image_window","5ffa22d8dcae1e3cc129b6f6","GSiPszFUwOdYuZR6fnqDeDupDr62","","","","","","","","","","","","","","","","","","","","",""
"html-keyboard-response","115","227468","0.0-49.0","","null","<div style=""font-size:100px;"">+</div>","null","delaylearn","learning","ITI","5ffa22d8dcae1e3cc129b6f6","GSiPszFUwOdYuZR6fnqDeDupDr62","","","","","","","","","","","","","","","","","","","2304","",""
"html-keyboard-response","116","230063","0.0-50.0-0.0","","2593.5999999999767","<div style=""display: flex; flex-direction: column; align-items: center; margin-top: -40px;""><img src=""images/pattern_4.png"" style=""width: 234px; height: 230px; margin-top: -50px;""><div style=""display: flex; justify-content: space-between; margin-top: 33px;""><img src=""images/choice_trial_11.png"" style=""width: 408px; height: 417px; margin-right: 200px;""><img src=""images/choice_trial_4.png"" style=""width: 408px; height: 417px;""></div></div>","j","delaylearn","learning","trial","5ffa22d8dcae1e3cc129b6f6","GSiPszFUwOdYuZR6fnqDeDupDr62","5","images/choice_trial_11.png","images/choice_trial_4.png","images/pattern_4.png","f","f","7000","11","4","3","0","22","0","0","4","150","","","","",""
"html-keyboard-response","117","231076","0.0-50.0-1.0","","null","<div style=""display: flex; flex-direction: column; align-items: center; margin-top: -40px;""><img src=""images/pattern_4.png"" style=""width: 234px; height: 230px; margin-top: -50px;""><div style=""display: flex; justify-content: space-between; margin-top: 33px;""><img src=""images/choice_trial_4.png"" style=""width: 408px; height: 417px; margin-left:608px;""></div></div>","null","delaylearn","learning","display_response","5ffa22d8dcae1e3cc129b6f6","GSiPszFUwOdYuZR6fnqDeDupDr62","","","","","","","","","","","","","","","","","chosen stimuli: images/choice_trial_4.png","","","",""
"html-keyboard-response","118","238089","0.0-50.0-2.0","","null","","null","delaylearn","learning","feedback_duration_window","5ffa22d8dcae1e3cc129b6f6","GSiPszFUwOdYuZR6fnqDeDupDr62","","","","","","","","","","","","","","","","","","7000","","",""
"html-keyboard-response","119","239593","0.0-50.0-3.0","","null","<div style='margin:auto;width: auto; font-size: 150%'><span style='font-weight: bold; font-size: 100px; color: red;'>0 points!</span><br><br></div>","null","delaylearn","learning","feedback_image_window","5ffa22d8dcae1e3cc129b6f6","GSiPszFUwOdYuZR6fnqDeDupDr62","","","","","","","","","","","","","","","","","","","","",""
"html-keyboard-response","120","240098","0.0-51.0-0.0","","null","","null","","","mood_trial_fixation","","","","","","","","","","","","","","","","","","","","","","",""
"lmdlab-html-vas-response","121","244576","0.0-51.0-1.0","","3476","How happy are you right now?","0.3796657986111111","delaylearn","learning","mood_trial","5ffa22d8dcae1e3cc129b6f6","GSiPszFUwOdYuZR6fnqDeDupDr62","","","","","","","","","","","","","","","","","","","","[""Very unhappy"",""Very happy""]",""
"html-keyboard-response","122","247022","0.0-52.0","","null","<div style=""font-size:100px;"">+</div>","null","delaylearn","learning","ITI","5ffa22d8dcae1e3cc129b6f6","GSiPszFUwOdYuZR6fnqDeDupDr62","","","","","","","","","","","","","","","","","","","2437","",""
"html-keyboard-response","123","249184","0.0-53.0-0.0","","2160.4000000000233","<div style=""display: flex; flex-direction: column; align-items: center; margin-top: -40px;""><img src=""images/pattern_7.png"" style=""width: 234px; height: 230px; margin-top: -50px;""><div style=""display: flex; justify-content: space-between; margin-top: 33px;""><img src=""images/choice_trial_10.png"" style=""width: 408px; height: 417px; margin-right: 200px;""><img src=""images/choice_trial_8.png"" style=""width: 408px; height: 417px;""></div></div>","f","delaylearn","learning","trial","5ffa22d8dcae1e3cc129b6f6","GSiPszFUwOdYuZR6fnqDeDupDr62","5","images/choice_trial_10.png","images/choice_trial_8.png","images/pattern_7.png","j","j","750","10","8","6","1","23","0","0","10","150","","","","",""
"html-keyboard-response","124","250187","0.0-53.0-1.0","","null","<div style=""display: flex; flex-direction: column; align-items: center; margin-top: -40px;""><img src=""images/pattern_7.png"" style=""width: 234px; height: 230px; margin-top: -50px;""><div style=""display: flex; justify-content: space-between; margin-top: 33px;""><img src=""images/choice_trial_10.png"" style=""width: 408px; height: 417px; margin-right: 608px;""></div></div>","null","delaylearn","learning","display_response","5ffa22d8dcae1e3cc129b6f6","GSiPszFUwOdYuZR6fnqDeDupDr62","","","","","","","","","","","","","","","","","chosen stimuli: images/choice_trial_10.png","","","",""
"html-keyboard-response","125","250950","0.0-53.0-2.0","","null","","null","delaylearn","learning","feedback_duration_window","5ffa22d8dcae1e3cc129b6f6","GSiPszFUwOdYuZR6fnqDeDupDr62","","","","","","","","","","","","","","","","","","750","","",""
"html-keyboard-response","126","252464","0.0-53.0-3.0","","null","<div style='margin:auto;width: auto; font-size: 150%'><span style='font-weight: bold; font-size: 100px; color: red;'>0 points!</span><br><br></div>","null","delaylearn","learning","feedback_image_window","5ffa22d8dcae1e3cc129b6f6","GSiPszFUwOdYuZR6fnqDeDupDr62","","","","","","","","","","","","","","","","","","","","",""
"html-keyboard-response","127","254574","0.0-54.0","","null","<div style=""font-size:100px;"">+</div>","null","delaylearn","learning","ITI","5ffa22d8dcae1e3cc129b6f6","GSiPszFUwOdYuZR6fnqDeDupDr62","","","","","","","","","","","","","","","","","","","2106","",""
"html-keyboard-response","128","256712","0.0-55.0-0.0","","2136.9000000000233","<div style=""display: flex; flex-direction: column; align-items: center; margin-top: -40px;""><img src=""images/pattern_1.png"" style=""width: 234px; height: 230px; margin-top: -50px;""><div style=""display: flex; justify-content: space-between; margin-top: 33px;""><img src=""images/choice_trial_15.png"" style=""width: 408px; height: 417px; margin-right: 200px;""><img src=""images/choice_trial_6.png"" style=""width: 408px; height: 417px;""></div></div>","f","delaylearn","learning","trial","5ffa22d8dcae1e3cc129b6f6","GSiPszFUwOdYuZR6fnqDeDupDr62","5","images/choice_trial_15.png","images/choice_trial_6.png","images/pattern_1.png","f","j","7000","15","6","1","1","24","0","1","15","160","","","","",""
"html-keyboard-response","129","257716","0.0-55.0-1.0","","null","<div style=""display: flex; flex-direction: column; align-items: center; margin-top: -40px;""><img src=""images/pattern_1.png"" style=""width: 234px; height: 230px; margin-top: -50px;""><div style=""display: flex; justify-content: space-between; margin-top: 33px;""><img src=""images/choice_trial_15.png"" style=""width: 408px; height: 417px; margin-right: 608px;""></div></div>","null","delaylearn","learning","display_response","5ffa22d8dcae1e3cc129b6f6","GSiPszFUwOdYuZR6fnqDeDupDr62","","","","","","","","","","","","","","","","","chosen stimuli: images/choice_trial_15.png","","","",""
"html-keyboard-response","130","264727","0.0-55.0-2.0","","null","","null","delaylearn","learning","feedback_duration_window","5ffa22d8dcae1e3cc129b6f6","GSiPszFUwOdYuZR6fnqDeDupDr62","","","","","","","","","","","","","","","","","","7000","","",""
"html-keyboard-response","131","266240","0.0-55.0-3.0","","null","<div style='margin:auto;width: auto; font-size: 150%'><span style='font-weight: bold; font-size: 100px; color: green;'>+10 points!</span><br><br></div>","null","delaylearn","learning","feedback_image_window","5ffa22d8dcae1e3cc129b6f6","GSiPszFUwOdYuZR6fnqDeDupDr62","","","","","","","","","","","","","","","","","","","","",""
"html-keyboard-response","132","267796","0.0-56.0","","null","<div style=""font-size:100px;"">+</div>","null","delaylearn","learning","ITI","5ffa22d8dcae1e3cc129b6f6","GSiPszFUwOdYuZR6fnqDeDupDr62","","","","","","","","","","","","","","","","","","","1543","",""
"html-keyboard-response","133","269585","0.0-57.0-0.0","","1788.2000000000698","<div style=""display: flex; flex-direction: column; align-items: center; margin-top: -40px;""><img src=""images/pattern_5.png"" style=""width: 234px; height: 230px; margin-top: -50px;""><div style=""display: flex; justify-content: space-between; margin-top: 33px;""><img src=""images/choice_trial_13.png"" style=""width: 408px; height: 417px; margin-right: 200px;""><img src=""images/choice_trial_7.png"" style=""width: 408px; height: 417px;""></div></div>","j","delaylearn","learning","trial","5ffa22d8dcae1e3cc129b6f6","GSiPszFUwOdYuZR6fnqDeDupDr62","5","images/choice_trial_13.png","images/choice_trial_7.png","images/pattern_5.png","j","j","750","13","7","4","1","25","1","1","7","170","","","","",""
"html-keyboard-response","134","270589","0.0-57.0-1.0","","null","<div style=""display: flex; flex-direction: column; align-items: center; margin-top: -40px;""><img src=""images/pattern_5.png"" style=""width: 234px; height: 230px; margin-top: -50px;""><div style=""display: flex; justify-content: space-between; margin-top: 33px;""><img src=""images/choice_trial_7.png"" style=""width: 408px; height: 417px; margin-left:608px;""></div></div>","null","delaylearn","learning","display_response","5ffa22d8dcae1e3cc129b6f6","GSiPszFUwOdYuZR6fnqDeDupDr62","","","","","","","","","","","","","","","","","chosen stimuli: images/choice_trial_7.png","","","",""
"html-keyboard-response","135","271347","0.0-57.0-2.0","","null","","null","delaylearn","learning","feedback_duration_window","5ffa22d8dcae1e3cc129b6f6","GSiPszFUwOdYuZR6fnqDeDupDr62","","","","","","","","","","","","","","","","","","750","","",""
"html-keyboard-response","136","272854","0.0-57.0-3.0","","null","<div style='margin:auto;width: auto; font-size: 150%'><span style='font-weight: bold; font-size: 100px; color: green;'>+10 points!</span><br><br></div>","null","delaylearn","learning","feedback_image_window","5ffa22d8dcae1e3cc129b6f6","GSiPszFUwOdYuZR6fnqDeDupDr62","","","","","","","","","","","","","","","","","","","","",""
"html-keyboard-response","137","274732","0.0-58.0","","null","<div style=""font-size:100px;"">+</div>","null","delaylearn","learning","ITI","5ffa22d8dcae1e3cc129b6f6","GSiPszFUwOdYuZR6fnqDeDupDr62","","","","","","","","","","","","","","","","","","","1874","",""
"html-keyboard-response","138","276241","0.0-59.0-0.0","","1508","<div style=""display: flex; flex-direction: column; align-items: center; margin-top: -40px;""><img src=""images/pattern_3.png"" style=""width: 234px; height: 230px; margin-top: -50px;""><div style=""display: flex; justify-content: space-between; margin-top: 33px;""><img src=""images/choice_trial_2.png"" style=""width: 408px; height: 417px; margin-right: 200px;""><img src=""images/choice_trial_16.png"" style=""width: 408px; height: 417px;""></div></div>","j","delaylearn","learning","trial","5ffa22d8dcae1e3cc129b6f6","GSiPszFUwOdYuZR6fnqDeDupDr62","5","images/choice_trial_2.png","images/choice_trial_16.png","images/pattern_3.png","j","j","7000","2","16","2","1","26","1","1","16","180","","","","",""
"html-keyboard-response","139","277256","0.0-59.0-1.0","","null","<div style=""display: flex; flex-direction: column; align-items: center; margin-top: -40px;""><img src=""images/pattern_3.png"" style=""width: 234px; height: 230px; margin-top: -50px;""><div style=""display: flex; justify-content: space-between; margin-top: 33px;""><img src=""images/choice_trial_16.png"" style=""width: 408px; height: 417px; margin-left:608px;""></div></div>","null","delaylearn","learning","display_response","5ffa22d8dcae1e3cc129b6f6","GSiPszFUwOdYuZR6fnqDeDupDr62","","","","","","","","","","","","","","","","","chosen stimuli: images/choice_trial_16.png","","","",""
"html-keyboard-response","140","284262","0.0-59.0-2.0","","null","","null","delaylearn","learning","feedback_duration_window","5ffa22d8dcae1e3cc129b6f6","GSiPszFUwOdYuZR6fnqDeDupDr62","","","","","","","","","","","","","","","","","","7000","","",""
"html-keyboard-response","141","285777","0.0-59.0-3.0","","null","<div style='margin:auto;width: auto; font-size: 150%'><span style='font-weight: bold; font-size: 100px; color: green;'>+10 points!</span><br><br></div>","null","delaylearn","learning","feedback_image_window","5ffa22d8dcae1e3cc129b6f6","GSiPszFUwOdYuZR6fnqDeDupDr62","","","","","","","","","","","","","","","","","","","","",""
"lmdlab-html-vas-response","142","293221","0.0-60.0-0.0","","5925","*How <b><u>confident</u></b> are you feeling about your answers at this moment?*","0.7407407407407407","rewlearn","rate_confidence","","5ffa22d8dcae1e3cc129b6f6","GSiPszFUwOdYuZR6fnqDeDupDr62","","","","","","","","","","","","","","","","","","","","[""No confidence"",""Complete confidence""]",""
"lmdlab-rest-trial-limit","143","335355","0.0-60.0-1.0","","40630.10000000009","<div style=""font-size:40px;""><b>Please take a break!</b><br><br><br><br><p>Great work: you earned 180 points.<br><br><br><p>You have completed part(s) 1 of 5.<br><br><br><br>When you are ready to continue<br><br><br>please click the button.</p><br><br>","0","delaylearn","learning","break","5ffa22d8dcae1e3cc129b6f6","GSiPszFUwOdYuZR6fnqDeDupDr62","","","","","","","","","","","","","","","","","","","","","0"
"html-keyboard-response","144","338370","0.0-60.0-2.0","","null","<div style=""font-size:100px;"">+</div>","null","delaylearn","learning","pre_fixation","5ffa22d8dcae1e3cc129b6f6","","","","","","","","","","","","","","","","","","","","","",""
"lmdlab-html-vas-response","145","342709","0.0-60.0-3.0-0.0","","3326","How happy are you right now?","0.7893880208333334","delaylearn","learning","mood_baseline","5ffa22d8dcae1e3cc129b6f6","GSiPszFUwOdYuZR6fnqDeDupDr62","","","","","","","","","","","","","","","","","","","","[""Very unhappy"",""Very happy""]",""
"html-keyboard-response","146","344214","0.0-60.0-3.0-1.0","","null","","null","","","mood_baseline_fixation","","","","","","","","","","","","","","","","","","","","","","",""
"html-keyboard-response","147","346366","0.0-61.0","","null","<div style=""font-size:100px;"">+</div>","null","delaylearn","learning","ITI","5ffa22d8dcae1e3cc129b6f6","GSiPszFUwOdYuZR6fnqDeDupDr62","","","","","","","","","","","","","","","","","","","2148","",""
"html-keyboard-response","148","347333","0.0-62.0-0.0","","965.7999999999302","<div style=""display: flex; flex-direction: column; align-items: center; margin-top: -40px;""><img src=""images/pattern_7.png"" style=""width: 234px; height: 230px; margin-top: -50px;""><div style=""display: flex; justify-content: space-between; margin-top: 33px;""><img src=""images/choice_trial_10.png"" style=""width: 408px; height: 417px; margin-right: 200px;""><img src=""images/choice_trial_8.png"" style=""width: 408px; height: 417px;""></div></div>","j","delaylearn","learning","trial","5ffa22d8dcae1e3cc129b6f6","GSiPszFUwOdYuZR6fnqDeDupDr62","5","images/choice_trial_10.png","images/choice_trial_8.png","images/pattern_7.png","j","j","750","10","8","6","1","27","1","1","8","190","","","","",""
"html-keyboard-response","149","348348","0.0-62.0-1.0","","null","<div style=""display: flex; flex-direction: column; align-items: center; margin-top: -40px;""><img src=""images/pattern_7.png"" style=""width: 234px; height: 230px; margin-top: -50px;""><div style=""display: flex; justify-content: space-between; margin-top: 33px;""><img src=""images/choice_trial_8.png"" style=""width: 408px; height: 417px; margin-left:608px;""></div></div>","null","delaylearn","learning","display_response","5ffa22d8dcae1e3cc129b6f6","GSiPszFUwOdYuZR6fnqDeDupDr62","","","","","","","","","","","","","","","","","chosen stimuli: images/choice_trial_8.png","","","",""
"html-keyboard-response","150","349112","0.0-62.0-2.0","","null","","null","delaylearn","learning","feedback_duration_window","5ffa22d8dcae1e3cc129b6f6","GSiPszFUwOdYuZR6fnqDeDupDr62","","","","","","","","","","","","","","","","","","750","","",""
"html-keyboard-response","151","350619","0.0-62.0-3.0","","null","<div style='margin:auto;width: auto; font-size: 150%'><span style='font-weight: bold; font-size: 100px; color: green;'>+10 points!</span><br><br></div>","null","delaylearn","learning","feedback_image_window","5ffa22d8dcae1e3cc129b6f6","GSiPszFUwOdYuZR6fnqDeDupDr62","","","","","","","","","","","","","","","","","","","","",""
"html-keyboard-response","152","351131","0.0-63.0-0.0","","null","","null","","","mood_trial_fixation","","","","","","","","","","","","","","","","","","","","","","",""
"lmdlab-html-vas-response","153","355822","0.0-63.0-1.0","","3680","How happy are you right now?","0.9236472800925926","delaylearn","learning","mood_trial","5ffa22d8dcae1e3cc129b6f6","GSiPszFUwOdYuZR6fnqDeDupDr62","","","","","","","","","","","","","","","","","","","","[""Very unhappy"",""Very happy""]",""
"html-keyboard-response","154","358158","0.0-64.0","","null","<div style=""font-size:100px;"">+</div>","null","delaylearn","learning","ITI","5ffa22d8dcae1e3cc129b6f6","GSiPszFUwOdYuZR6fnqDeDupDr62","","","","","","","","","","","","","","","","","","","2324","",""
"html-keyboard-response","155","359389","0.0-65.0-0.0","","1230.0999999999767","<div style=""display: flex; flex-direction: column; align-items: center; margin-top: -40px;""><img src=""images/pattern_1.png"" style=""width: 234px; height: 230px; margin-top: -50px;""><div style=""display: flex; justify-content: space-between; margin-top: 33px;""><img src=""images/choice_trial_6.png"" style=""width: 408px; height: 417px; margin-right: 200px;""><img src=""images/choice_trial_15.png"" style=""width: 408px; height: 417px;""></div></div>","f","delaylearn","learning","trial","5ffa22d8dcae1e3cc129b6f6","GSiPszFUwOdYuZR6fnqDeDupDr62","5","images/choice_trial_6.png","images/choice_trial_15.png","images/pattern_1.png","f","f","7000","6","15","1","0","28","1","1","6","200","","","","",""
"html-keyboard-response","156","360398","0.0-65.0-1.0","","null","<div style=""display: flex; flex-direction: column; align-items: center; margin-top: -40px;""><img src=""images/pattern_1.png"" style=""width: 234px; height: 230px; margin-top: -50px;""><div style=""display: flex; justify-content: space-between; margin-top: 33px;""><img src=""images/choice_trial_6.png"" style=""width: 408px; height: 417px; margin-right: 608px;""></div></div>","null","delaylearn","learning","display_response","5ffa22d8dcae1e3cc129b6f6","GSiPszFUwOdYuZR6fnqDeDupDr62","","","","","","","","","","","","","","","","","chosen stimuli: images/choice_trial_6.png","","","",""
"html-keyboard-response","157","367400","0.0-65.0-2.0","","null","","null","delaylearn","learning","feedback_duration_window","5ffa22d8dcae1e3cc129b6f6","GSiPszFUwOdYuZR6fnqDeDupDr62","","","","","","","","","","","","","","","","","","7000","","",""
"html-keyboard-response","158","368905","0.0-65.0-3.0","","null","<div style='margin:auto;width: auto; font-size: 150%'><span style='font-weight: bold; font-size: 100px; color: green;'>+10 points!</span><br><br></div>","null","delaylearn","learning","feedback_image_window","5ffa22d8dcae1e3cc129b6f6","GSiPszFUwOdYuZR6fnqDeDupDr62","","","","","","","","","","","","","","","","","","","","",""
"html-keyboard-response","159","371347","0.0-66.0","","null","<div style=""font-size:100px;"">+</div>","null","delaylearn","learning","ITI","5ffa22d8dcae1e3cc129b6f6","GSiPszFUwOdYuZR6fnqDeDupDr62","","","","","","","","","","","","","","","","","","","2431","",""
"html-keyboard-response","160","372598","0.0-67.0-0.0","","1249.4000000000233","<div style=""display: flex; flex-direction: column; align-items: center; margin-top: -40px;""><img src=""images/pattern_5.png"" style=""width: 234px; height: 230px; margin-top: -50px;""><div style=""display: flex; justify-content: space-between; margin-top: 33px;""><img src=""images/choice_trial_7.png"" style=""width: 408px; height: 417px; margin-right: 200px;""><img src=""images/choice_trial_13.png"" style=""width: 408px; height: 417px;""></div></div>","f","delaylearn","learning","trial","5ffa22d8dcae1e3cc129b6f6","GSiPszFUwOdYuZR6fnqDeDupDr62","5","images/choice_trial_7.png","images/choice_trial_13.png","images/pattern_5.png","f","f","750","7","13","4","0","29","1","1","7","210","","","","",""
"html-keyboard-response","161","373607","0.0-67.0-1.0","","null","<div style=""display: flex; flex-direction: column; align-items: center; margin-top: -40px;""><img src=""images/pattern_5.png"" style=""width: 234px; height: 230px; margin-top: -50px;""><div style=""display: flex; justify-content: space-between; margin-top: 33px;""><img src=""images/choice_trial_7.png"" style=""width: 408px; height: 417px; margin-right: 608px;""></div></div>","null","delaylearn","learning","display_response","5ffa22d8dcae1e3cc129b6f6","GSiPszFUwOdYuZR6fnqDeDupDr62","","","","","","","","","","","","","","","","","chosen stimuli: images/choice_trial_7.png","","","",""
"html-keyboard-response","162","374367","0.0-67.0-2.0","","null","","null","delaylearn","learning","feedback_duration_window","5ffa22d8dcae1e3cc129b6f6","GSiPszFUwOdYuZR6fnqDeDupDr62","","","","","","","","","","","","","","","","","","750","","",""
"html-keyboard-response","163","375876","0.0-67.0-3.0","","null","<div style='margin:auto;width: auto; font-size: 150%'><span style='font-weight: bold; font-size: 100px; color: green;'>+10 points!</span><br><br></div>","null","delaylearn","learning","feedback_image_window","5ffa22d8dcae1e3cc129b6f6","GSiPszFUwOdYuZR6fnqDeDupDr62","","","","","","","","","","","","","","","","","","","","",""
"html-keyboard-response","164","378183","0.0-68.0","","null","<div style=""font-size:100px;"">+</div>","null","delaylearn","learning","ITI","5ffa22d8dcae1e3cc129b6f6","GSiPszFUwOdYuZR6fnqDeDupDr62","","","","","","","","","","","","","","","","","","","2291","",""
"html-keyboard-response","165","379606","0.0-69.0-0.0","","1422.5","<div style=""display: flex; flex-direction: column; align-items: center; margin-top: -40px;""><img src=""images/pattern_6.png"" style=""width: 234px; height: 230px; margin-top: -50px;""><div style=""display: flex; justify-content: space-between; margin-top: 33px;""><img src=""images/choice_trial_9.png"" style=""width: 408px; height: 417px; margin-right: 200px;""><img src=""images/choice_trial_14.png"" style=""width: 408px; height: 417px;""></div></div>","f","delaylearn","learning","trial","5ffa22d8dcae1e3cc129b6f6","GSiPszFUwOdYuZR6fnqDeDupDr62","5","images/choice_trial_9.png","images/choice_trial_14.png","images/pattern_6.png","j","j","750","9","14","5","1","30","0","0","9","210","","","","",""
"html-keyboard-response","166","380616","0.0-69.0-1.0","","null","<div style=""display: flex; flex-direction: column; align-items: center; margin-top: -40px;""><img src=""images/pattern_6.png"" style=""width: 234px; height: 230px; margin-top: -50px;""><div style=""display: flex; justify-content: space-between; margin-top: 33px;""><img src=""images/choice_trial_9.png"" style=""width: 408px; height: 417px; margin-right: 608px;""></div></div>","null","delaylearn","learning","display_response","5ffa22d8dcae1e3cc129b6f6","GSiPszFUwOdYuZR6fnqDeDupDr62","","","","","","","","","","","","","","","","","chosen stimuli: images/choice_trial_9.png","","","",""
"html-keyboard-response","167","381378","0.0-69.0-2.0","","null","","null","delaylearn","learning","feedback_duration_window","5ffa22d8dcae1e3cc129b6f6","GSiPszFUwOdYuZR6fnqDeDupDr62","","","","","","","","","","","","","","","","","","750","","",""
"html-keyboard-response","168","382888","0.0-69.0-3.0","","null","<div style='margin:auto;width: auto; font-size: 150%'><span style='font-weight: bold; font-size: 100px; color: red;'>0 points!</span><br><br></div>","null","delaylearn","learning","feedback_image_window","5ffa22d8dcae1e3cc129b6f6","GSiPszFUwOdYuZR6fnqDeDupDr62","","","","","","","","","","","","","","","","","","","","",""
"html-keyboard-response","169","383400","0.0-70.0-0.0","","null","","null","","","mood_trial_fixation","","","","","","","","","","","","","","","","","","","","","","",""
"lmdlab-html-vas-response","170","388335","0.0-70.0-1.0","","3933","How happy are you right now?","0.7292028356481481","delaylearn","learning","mood_trial","5ffa22d8dcae1e3cc129b6f6","GSiPszFUwOdYuZR6fnqDeDupDr62","","","","","","","","","","","","","","","","","","","","[""Very unhappy"",""Very happy""]",""
"html-keyboard-response","171","390528","0.0-71.0","","null","<div style=""font-size:100px;"">+</div>","null","delaylearn","learning","ITI","5ffa22d8dcae1e3cc129b6f6","GSiPszFUwOdYuZR6fnqDeDupDr62","","","","","","","","","","","","","","","","","","","2179","",""
"html-keyboard-response","172","392335","0.0-72.0-0.0","","1806","<div style=""display: flex; flex-direction: column; align-items: center; margin-top: -40px;""><img src=""images/pattern_4.png"" style=""width: 234px; height: 230px; margin-top: -50px;""><div style=""display: flex; justify-content: space-between; margin-top: 33px;""><img src=""images/choice_trial_4.png"" style=""width: 408px; height: 417px; margin-right: 200px;""><img src=""images/choice_trial_11.png"" style=""width: 408px; height: 417px;""></div></div>","j","delaylearn","learning","trial","5ffa22d8dcae1e3cc129b6f6","GSiPszFUwOdYuZR6fnqDeDupDr62","5","images/choice_trial_4.png","images/choice_trial_11.png","images/pattern_4.png","j","j","7000","4","11","3","1","31","1","1","11","220","","","","",""
"html-keyboard-response","173","393345","0.0-72.0-1.0","","null","<div style=""display: flex; flex-direction: column; align-items: center; margin-top: -40px;""><img src=""images/pattern_4.png"" style=""width: 234px; height: 230px; margin-top: -50px;""><div style=""display: flex; justify-content: space-between; margin-top: 33px;""><img src=""images/choice_trial_11.png"" style=""width: 408px; height: 417px; margin-left:608px;""></div></div>","null","delaylearn","learning","display_response","5ffa22d8dcae1e3cc129b6f6","GSiPszFUwOdYuZR6fnqDeDupDr62","","","","","","","","","","","","","","","","","chosen stimuli: images/choice_trial_11.png","","","",""
"html-keyboard-response","174","400349","0.0-72.0-2.0","","null","","null","delaylearn","learning","feedback_duration_window","5ffa22d8dcae1e3cc129b6f6","GSiPszFUwOdYuZR6fnqDeDupDr62","","","","","","","","","","","","","","","","","","7000","","",""
"html-keyboard-response","175","401863","0.0-72.0-3.0","","null","<div style='margin:auto;width: auto; font-size: 150%'><span style='font-weight: bold; font-size: 100px; color: green;'>+10 points!</span><br><br></div>","null","delaylearn","learning","feedback_image_window","5ffa22d8dcae1e3cc129b6f6","GSiPszFUwOdYuZR6fnqDeDupDr62","","","","","","","","","","","","","","","","","","","","",""
"html-keyboard-response","176","403764","0.0-73.0","","null","<div style=""font-size:100px;"">+</div>","null","delaylearn","learning","ITI","5ffa22d8dcae1e3cc129b6f6","GSiPszFUwOdYuZR6fnqDeDupDr62","","","","","","","","","","","","","","","","","","","1892","",""
"html-keyboard-response","177","404920","0.0-74.0-0.0","","1155.1999999999534","<div style=""display: flex; flex-direction: column; align-items: center; margin-top: -40px;""><img src=""images/pattern_3.png"" style=""width: 234px; height: 230px; margin-top: -50px;""><div style=""display: flex; justify-content: space-between; margin-top: 33px;""><img src=""images/choice_trial_2.png"" style=""width: 408px; height: 417px; margin-right: 200px;""><img src=""images/choice_trial_16.png"" style=""width: 408px; height: 417px;""></div></div>","j","delaylearn","learning","trial","5ffa22d8dcae1e3cc129b6f6","GSiPszFUwOdYuZR6fnqDeDupDr62","5","images/choice_trial_2.png","images/choice_trial_16.png","images/pattern_3.png","j","j","7000","2","16","2","1","32","1","1","16","230","","","","",""
"html-keyboard-response","178","405930","0.0-74.0-1.0","","null","<div style=""display: flex; flex-direction: column; align-items: center; margin-top: -40px;""><img src=""images/pattern_3.png"" style=""width: 234px; height: 230px; margin-top: -50px;""><div style=""display: flex; justify-content: space-between; margin-top: 33px;""><img src=""images/choice_trial_16.png"" style=""width: 408px; height: 417px; margin-left:608px;""></div></div>","null","delaylearn","learning","display_response","5ffa22d8dcae1e3cc129b6f6","GSiPszFUwOdYuZR6fnqDeDupDr62","","","","","","","","","","","","","","","","","chosen stimuli: images/choice_trial_16.png","","","",""
"html-keyboard-response","179","412931","0.0-74.0-2.0","","null","","null","delaylearn","learning","feedback_duration_window","5ffa22d8dcae1e3cc129b6f6","GSiPszFUwOdYuZR6fnqDeDupDr62","","","","","","","","","","","","","","","","","","7000","","",""
"html-keyboard-response","180","414440","0.0-74.0-3.0","","null","<div style='margin:auto;width: auto; font-size: 150%'><span style='font-weight: bold; font-size: 100px; color: green;'>+10 points!</span><br><br></div>","null","delaylearn","learning","feedback_image_window","5ffa22d8dcae1e3cc129b6f6","GSiPszFUwOdYuZR6fnqDeDupDr62","","","","","","","","","","","","","","","","","","","","",""
"html-keyboard-response","181","416185","0.0-75.0","","null","<div style=""font-size:100px;"">+</div>","null","delaylearn","learning","ITI","5ffa22d8dcae1e3cc129b6f6","GSiPszFUwOdYuZR6fnqDeDupDr62","","","","","","","","","","","","","","","","","","","1741","",""
"html-keyboard-response","182","417312","0.0-76.0-0.0","","1126.1999999999534","<div style=""display: flex; flex-direction: column; align-items: center; margin-top: -40px;""><img src=""images/pattern_5.png"" style=""width: 234px; height: 230px; margin-top: -50px;""><div style=""display: flex; justify-content: space-between; margin-top: 33px;""><img src=""images/choice_trial_7.png"" style=""width: 408px; height: 417px; margin-right: 200px;""><img src=""images/choice_trial_13.png"" style=""width: 408px; height: 417px;""></div></div>","f","delaylearn","learning","trial","5ffa22d8dcae1e3cc129b6f6","GSiPszFUwOdYuZR6fnqDeDupDr62","5","images/choice_trial_7.png","images/choice_trial_13.png","images/pattern_5.png","j","f","750","7","13","4","0","33","1","0","7","230","","","","",""
"html-keyboard-response","183","418317","0.0-76.0-1.0","","null","<div style=""display: flex; flex-direction: column; align-items: center; margin-top: -40px;""><img src=""images/pattern_5.png"" style=""width: 234px; height: 230px; margin-top: -50px;""><div style=""display: flex; justify-content: space-between; margin-top: 33px;""><img src=""images/choice_trial_7.png"" style=""width: 408px; height: 417px; margin-right: 608px;""></div></div>","null","delaylearn","learning","display_response","5ffa22d8dcae1e3cc129b6f6","GSiPszFUwOdYuZR6fnqDeDupDr62","","","","","","","","","","","","","","","","","chosen stimuli: images/choice_trial_7.png","","","",""
"html-keyboard-response","184","419069","0.0-76.0-2.0","","null","","null","delaylearn","learning","feedback_duration_window","5ffa22d8dcae1e3cc129b6f6","GSiPszFUwOdYuZR6fnqDeDupDr62","","","","","","","","","","","","","","","","","","750","","",""
"html-keyboard-response","185","420577","0.0-76.0-3.0","","null","<div style='margin:auto;width: auto; font-size: 150%'><span style='font-weight: bold; font-size: 100px; color: red;'>0 points!</span><br><br></div>","null","delaylearn","learning","feedback_image_window","5ffa22d8dcae1e3cc129b6f6","GSiPszFUwOdYuZR6fnqDeDupDr62","","","","","","","","","","","","","","","","","","","","",""
"html-keyboard-response","186","422371","0.0-77.0","","null","<div style=""font-size:100px;"">+</div>","null","delaylearn","learning","ITI","5ffa22d8dcae1e3cc129b6f6","GSiPszFUwOdYuZR6fnqDeDupDr62","","","","","","","","","","","","","","","","","","","1788","",""
"html-keyboard-response","187","424696","0.0-78.0-0.0","","2324.0999999999767","<div style=""display: flex; flex-direction: column; align-items: center; margin-top: -40px;""><img src=""images/pattern_1.png"" style=""width: 234px; height: 230px; margin-top: -50px;""><div style=""display: flex; justify-content: space-between; margin-top: 33px;""><img src=""images/choice_trial_6.png"" style=""width: 408px; height: 417px; margin-right: 200px;""><img src=""images/choice_trial_15.png"" style=""width: 408px; height: 417px;""></div></div>","j","delaylearn","learning","trial","5ffa22d8dcae1e3cc129b6f6","GSiPszFUwOdYuZR6fnqDeDupDr62","5","images/choice_trial_6.png","images/choice_trial_15.png","images/pattern_1.png","f","f","7000","6","15","1","0","34","0","0","15","230","","","","",""
"html-keyboard-response","188","425711","0.0-78.0-1.0","","null","<div style=""display: flex; flex-direction: column; align-items: center; margin-top: -40px;""><img src=""images/pattern_1.png"" style=""width: 234px; height: 230px; margin-top: -50px;""><div style=""display: flex; justify-content: space-between; margin-top: 33px;""><img src=""images/choice_trial_15.png"" style=""width: 408px; height: 417px; margin-left:608px;""></div></div>","null","delaylearn","learning","display_response","5ffa22d8dcae1e3cc129b6f6","GSiPszFUwOdYuZR6fnqDeDupDr62","","","","","","","","","","","","","","","","","chosen stimuli: images/choice_trial_15.png","","","",""
"html-keyboard-response","189","432725","0.0-78.0-2.0","","null","","null","delaylearn","learning","feedback_duration_window","5ffa22d8dcae1e3cc129b6f6","GSiPszFUwOdYuZR6fnqDeDupDr62","","","","","","","","","","","","","","","","","","7000","","",""
"html-keyboard-response","190","434231","0.0-78.0-3.0","","null","<div style='margin:auto;width: auto; font-size: 150%'><span style='font-weight: bold; font-size: 100px; color: red;'>0 points!</span><br><br></div>","null","delaylearn","learning","feedback_image_window","5ffa22d8dcae1e3cc129b6f6","GSiPszFUwOdYuZR6fnqDeDupDr62","","","","","","","","","","","","","","","","","","","","",""
"html-keyboard-response","191","434743","0.0-79.0-0.0","","null","","null","","","mood_trial_fixation","","","","","","","","","","","","","","","","","","","","","","",""
"lmdlab-html-vas-response","192","438730","0.0-79.0-1.0","","2972","How happy are you right now?","0.7801287615740741","delaylearn","learning","mood_trial","5ffa22d8dcae1e3cc129b6f6","GSiPszFUwOdYuZR6fnqDeDupDr62","","","","","","","","","","","","","","","","","","","","[""Very unhappy"",""Very happy""]",""
"html-keyboard-response","193","440803","0.0-80.0","","null","<div style=""font-size:100px;"">+</div>","null","delaylearn","learning","ITI","5ffa22d8dcae1e3cc129b6f6","GSiPszFUwOdYuZR6fnqDeDupDr62","","","","","","","","","","","","","","","","","","","2066","",""
"html-keyboard-response","194","442737","0.0-81.0-0.0","","1933.5","<div style=""display: flex; flex-direction: column; align-items: center; margin-top: -40px;""><img src=""images/pattern_6.png"" style=""width: 234px; height: 230px; margin-top: -50px;""><div style=""display: flex; justify-content: space-between; margin-top: 33px;""><img src=""images/choice_trial_14.png"" style=""width: 408px; height: 417px; margin-right: 200px;""><img src=""images/choice_trial_9.png"" style=""width: 408px; height: 417px;""></div></div>","j","delaylearn","learning","trial","5ffa22d8dcae1e3cc129b6f6","GSiPszFUwOdYuZR6fnqDeDupDr62","5","images/choice_trial_14.png","images/choice_trial_9.png","images/pattern_6.png","j","f","750","14","9","5","0","35","0","1","9","240","","","","",""
"html-keyboard-response","195","443745","0.0-81.0-1.0","","null","<div style=""display: flex; flex-direction: column; align-items: center; margin-top: -40px;""><img src=""images/pattern_6.png"" style=""width: 234px; height: 230px; margin-top: -50px;""><div style=""display: flex; justify-content: space-between; margin-top: 33px;""><img src=""images/choice_trial_9.png"" style=""width: 408px; height: 417px; margin-left:608px;""></div></div>","null","delaylearn","learning","display_response","5ffa22d8dcae1e3cc129b6f6","GSiPszFUwOdYuZR6fnqDeDupDr62","","","","","","","","","","","","","","","","","chosen stimuli: images/choice_trial_9.png","","","",""
"html-keyboard-response","196","444509","0.0-81.0-2.0","","null","","null","delaylearn","learning","feedback_duration_window","5ffa22d8dcae1e3cc129b6f6","GSiPszFUwOdYuZR6fnqDeDupDr62","","","","","","","","","","","","","","","","","","750","","",""
"html-keyboard-response","197","446017","0.0-81.0-3.0","","null","<div style='margin:auto;width: auto; font-size: 150%'><span style='font-weight: bold; font-size: 100px; color: green;'>+10 points!</span><br><br></div>","null","delaylearn","learning","feedback_image_window","5ffa22d8dcae1e3cc129b6f6","GSiPszFUwOdYuZR6fnqDeDupDr62","","","","","","","","","","","","","","","","","","","","",""
"html-keyboard-response","198","447803","0.0-82.0","","null","<div style=""font-size:100px;"">+</div>","null","delaylearn","learning","ITI","5ffa22d8dcae1e3cc129b6f6","GSiPszFUwOdYuZR6fnqDeDupDr62","","","","","","","","","","","","","","","","","","","1780","",""
"html-keyboard-response","199","449522","0.0-83.0-0.0","","1717.2999999999302","<div style=""display: flex; flex-direction: column; align-items: center; margin-top: -40px;""><img src=""images/pattern_3.png"" style=""width: 234px; height: 230px; margin-top: -50px;""><div style=""display: flex; justify-content: space-between; margin-top: 33px;""><img src=""images/choice_trial_2.png"" style=""width: 408px; height: 417px; margin-right: 200px;""><img src=""images/choice_trial_16.png"" style=""width: 408px; height: 417px;""></div></div>","j","delaylearn","learning","trial","5ffa22d8dcae1e3cc129b6f6","GSiPszFUwOdYuZR6fnqDeDupDr62","5","images/choice_trial_2.png","images/choice_trial_16.png","images/pattern_3.png","j","j","7000","2","16","2","1","36","1","1","16","250","","","","",""
"html-keyboard-response","200","450527","0.0-83.0-1.0","","null","<div style=""display: flex; flex-direction: column; align-items: center; margin-top: -40px;""><img src=""images/pattern_3.png"" style=""width: 234px; height: 230px; margin-top: -50px;""><div style=""display: flex; justify-content: space-between; margin-top: 33px;""><img src=""images/choice_trial_16.png"" style=""width: 408px; height: 417px; margin-left:608px;""></div></div>","null","delaylearn","learning","display_response","5ffa22d8dcae1e3cc129b6f6","GSiPszFUwOdYuZR6fnqDeDupDr62","","","","","","","","","","","","","","","","","chosen stimuli: images/choice_trial_16.png","","","",""
"html-keyboard-response","201","457538","0.0-83.0-2.0","","null","","null","delaylearn","learning","feedback_duration_window","5ffa22d8dcae1e3cc129b6f6","GSiPszFUwOdYuZR6fnqDeDupDr62","","","","","","","","","","","","","","","","","","7000","","",""
"html-keyboard-response","202","459053","0.0-83.0-3.0","","null","<div style='margin:auto;width: auto; font-size: 150%'><span style='font-weight: bold; font-size: 100px; color: green;'>+10 points!</span><br><br></div>","null","delaylearn","learning","feedback_image_window","5ffa22d8dcae1e3cc129b6f6","GSiPszFUwOdYuZR6fnqDeDupDr62","","","","","","","","","","","","","","","","","","","","",""
"html-keyboard-response","203","461096","0.0-84.0","","null","<div style=""font-size:100px;"">+</div>","null","delaylearn","learning","ITI","5ffa22d8dcae1e3cc129b6f6","GSiPszFUwOdYuZR6fnqDeDupDr62","","","","","","","","","","","","","","","","","","","2032","",""
"html-keyboard-response","204","463346","0.0-85.0-0.0","","2249.100000000093","<div style=""display: flex; flex-direction: column; align-items: center; margin-top: -40px;""><img src=""images/pattern_4.png"" style=""width: 234px; height: 230px; margin-top: -50px;""><div style=""display: flex; justify-content: space-between; margin-top: 33px;""><img src=""images/choice_trial_4.png"" style=""width: 408px; height: 417px; margin-right: 200px;""><img src=""images/choice_trial_11.png"" style=""width: 408px; height: 417px;""></div></div>","f","delaylearn","learning","trial","5ffa22d8dcae1e3cc129b6f6","GSiPszFUwOdYuZR6fnqDeDupDr62","5","images/choice_trial_4.png","images/choice_trial_11.png","images/pattern_4.png","f","j","7000","4","11","3","1","37","0","1","4","260","","","","",""
"html-keyboard-response","205","464348","0.0-85.0-1.0","","null","<div style=""display: flex; flex-direction: column; align-items: center; margin-top: -40px;""><img src=""images/pattern_4.png"" style=""width: 234px; height: 230px; margin-top: -50px;""><div style=""display: flex; justify-content: space-between; margin-top: 33px;""><img src=""images/choice_trial_4.png"" style=""width: 408px; height: 417px; margin-right: 608px;""></div></div>","null","delaylearn","learning","display_response","5ffa22d8dcae1e3cc129b6f6","GSiPszFUwOdYuZR6fnqDeDupDr62","","","","","","","","","","","","","","","","","chosen stimuli: images/choice_trial_4.png","","","",""
"html-keyboard-response","206","471355","0.0-85.0-2.0","","null","","null","delaylearn","learning","feedback_duration_window","5ffa22d8dcae1e3cc129b6f6","GSiPszFUwOdYuZR6fnqDeDupDr62","","","","","","","","","","","","","","","","","","7000","","",""
"html-keyboard-response","207","472863","0.0-85.0-3.0","","null","<div style='margin:auto;width: auto; font-size: 150%'><span style='font-weight: bold; font-size: 100px; color: green;'>+10 points!</span><br><br></div>","null","delaylearn","learning","feedback_image_window","5ffa22d8dcae1e3cc129b6f6","GSiPszFUwOdYuZR6fnqDeDupDr62","","","","","","","","","","","","","","","","","","","","",""
"html-keyboard-response","208","475010","0.0-86.0","","null","<div style=""font-size:100px;"">+</div>","null","delaylearn","learning","ITI","5ffa22d8dcae1e3cc129b6f6","GSiPszFUwOdYuZR6fnqDeDupDr62","","","","","","","","","","","","","","","","","","","2146","",""
"html-keyboard-response","209","476635","0.0-87.0-0.0","","1623.3000000000466","<div style=""display: flex; flex-direction: column; align-items: center; margin-top: -40px;""><img src=""images/pattern_7.png"" style=""width: 234px; height: 230px; margin-top: -50px;""><div style=""display: flex; justify-content: space-between; margin-top: 33px;""><img src=""images/choice_trial_8.png"" style=""width: 408px; height: 417px; margin-right: 200px;""><img src=""images/choice_trial_10.png"" style=""width: 408px; height: 417px;""></div></div>","j","delaylearn","learning","trial","5ffa22d8dcae1e3cc129b6f6","GSiPszFUwOdYuZR6fnqDeDupDr62","5","images/choice_trial_8.png","images/choice_trial_10.png","images/pattern_7.png","f","f","750","8","10","6","0","38","0","0","10","260","","","","",""
"html-keyboard-response","210","477639","0.0-87.0-1.0","","null","<div style=""display: flex; flex-direction: column; align-items: center; margin-top: -40px;""><img src=""images/pattern_7.png"" style=""width: 234px; height: 230px; margin-top: -50px;""><div style=""display: flex; justify-content: space-between; margin-top: 33px;""><img src=""images/choice_trial_10.png"" style=""width: 408px; height: 417px; margin-left:608px;""></div></div>","null","delaylearn","learning","display_response","5ffa22d8dcae1e3cc129b6f6","GSiPszFUwOdYuZR6fnqDeDupDr62","","","","","","","","","","","","","","","","","chosen stimuli: images/choice_trial_10.png","","","",""
"html-keyboard-response","211","478399","0.0-87.0-2.0","","null","","null","delaylearn","learning","feedback_duration_window","5ffa22d8dcae1e3cc129b6f6","GSiPszFUwOdYuZR6fnqDeDupDr62","","","","","","","","","","","","","","","","","","750","","",""
"html-keyboard-response","212","479911","0.0-87.0-3.0","","null","<div style='margin:auto;width: auto; font-size: 150%'><span style='font-weight: bold; font-size: 100px; color: red;'>0 points!</span><br><br></div>","null","delaylearn","learning","feedback_image_window","5ffa22d8dcae1e3cc129b6f6","GSiPszFUwOdYuZR6fnqDeDupDr62","","","","","","","","","","","","","","","","","","","","",""
"html-keyboard-response","213","481779","0.0-88.0","","null","<div style=""font-size:100px;"">+</div>","null","delaylearn","learning","ITI","5ffa22d8dcae1e3cc129b6f6","GSiPszFUwOdYuZR6fnqDeDupDr62","","","","","","","","","","","","","","","","","","","1858","",""
"html-keyboard-response","214","483003","0.0-89.0-0.0","","1223","<div style=""display: flex; flex-direction: column; align-items: center; margin-top: -40px;""><img src=""images/pattern_1.png"" style=""width: 234px; height: 230px; margin-top: -50px;""><div style=""display: flex; justify-content: space-between; margin-top: 33px;""><img src=""images/choice_trial_6.png"" style=""width: 408px; height: 417px; margin-right: 200px;""><img src=""images/choice_trial_15.png"" style=""width: 408px; height: 417px;""></div></div>","f","delaylearn","learning","trial","5ffa22d8dcae1e3cc129b6f6","GSiPszFUwOdYuZR6fnqDeDupDr62","5","images/choice_trial_6.png","images/choice_trial_15.png","images/pattern_1.png","f","f","7000","6","15","1","0","39","1","1","6","270","","","","",""
"html-keyboard-response","215","484016","0.0-89.0-1.0","","null","<div style=""display: flex; flex-direction: column; align-items: center; margin-top: -40px;""><img src=""images/pattern_1.png"" style=""width: 234px; height: 230px; margin-top: -50px;""><div style=""display: flex; justify-content: space-between; margin-top: 33px;""><img src=""images/choice_trial_6.png"" style=""width: 408px; height: 417px; margin-right: 608px;""></div></div>","null","delaylearn","learning","display_response","5ffa22d8dcae1e3cc129b6f6","GSiPszFUwOdYuZR6fnqDeDupDr62","","","","","","","","","","","","","","","","","chosen stimuli: images/choice_trial_6.png","","","",""
"html-keyboard-response","216","491026","0.0-89.0-2.0","","null","","null","delaylearn","learning","feedback_duration_window","5ffa22d8dcae1e3cc129b6f6","GSiPszFUwOdYuZR6fnqDeDupDr62","","","","","","","","","","","","","","","","","","7000","","",""
"html-keyboard-response","217","492536","0.0-89.0-3.0","","null","<div style='margin:auto;width: auto; font-size: 150%'><span style='font-weight: bold; font-size: 100px; color: green;'>+10 points!</span><br><br></div>","null","delaylearn","learning","feedback_image_window","5ffa22d8dcae1e3cc129b6f6","GSiPszFUwOdYuZR6fnqDeDupDr62","","","","","","","","","","","","","","","","","","","","",""
"html-keyboard-response","218","493050","0.0-90.0-0.0","","null","","null","","","mood_trial_fixation","","","","","","","","","","","","","","","","","","","","","","",""
"lmdlab-html-vas-response","219","497332","0.0-90.0-1.0","","3270","How happy are you right now?","0.7430917245370371","delaylearn","learning","mood_trial","5ffa22d8dcae1e3cc129b6f6","GSiPszFUwOdYuZR6fnqDeDupDr62","","","","","","","","","","","","","","","","","","","","[""Very unhappy"",""Very happy""]",""
"html-keyboard-response","220","499062","0.0-91.0","","null","<div style=""font-size:100px;"">+</div>","null","delaylearn","learning","ITI","5ffa22d8dcae1e3cc129b6f6","GSiPszFUwOdYuZR6fnqDeDupDr62","","","","","","","","","","","","","","","","","","","1714","",""
