"trial_type","trial_index","time_elapsed","internal_node_id","participant","rt","stimulus","response","exp_name","exp_stage","test_part","subjectID","databaseID","counterbal","choice_stimuli_1","choice_stimuli_2","pattern_stimuli","rewarded_answer","correct_answer","feedback_duration_times","stim_left","stim_right","pair","leftright_counter","trial","response_correct","response_rewarded","chosen_stim","counter","displayed_choice","feedback_durations","ITI_duration","labels","rest_warning"
"pavlovia","0","435","0.0-0.0","","","","","","","","","","","","","","","","","","","","","","","","","","","","","",""
"html-keyboard-response","1","3448","0.0-1.0","","null","<div style=""font-size:100px;"">+</div>","null","delaylearn","learning","pre_fixation","5b2a72f7c293b90001732b89","","","","","","","","","","","","","","","","","","","","","",""
"html-keyboard-response","2","4363","0.0-2.0-0.0","","913.3999999999069","<div style=""display: flex; flex-direction: column; align-items: center; margin-top: -40px;""><img src=""images/demo_images/pattern_1.png"" style=""width: 234px; height: 230px; margin-top: -50px;""><div style=""display: flex; justify-content: space-between; margin-top: 33px;""><img src=""images/demo_images/choice_trial_2.png"" style=""width: 408px; height: 417px; margin-right: 200px;""><img src=""images/demo_images/choice_trial_1.png"" style=""width: 408px; height: 417px;""></div></div>","f","delaylearn","learning","trial","5b2a72f7c293b90001732b89","QKCoqgybpVPCUhNO3IkPbBYcrVS2","3","images/demo_images/choice_trial_2.png","images/demo_images/choice_trial_1.png","images/demo_images/pattern_1.png","j","j","3000","2","1","20","1","1","0","0","2","0","","","","",""
"html-keyboard-response","3","5365","0.0-2.0-1.0","","null","<div style=""display: flex; flex-direction: column; align-items: center; margin-top: -40px;""><img src=""images/demo_images/pattern_1.png"" style=""width: 234px; height: 230px; margin-top: -50px;""><div style=""display: flex; justify-content: space-between; margin-top: 33px;""><img src=""images/demo_images/choice_trial_2.png"" style=""width: 408px; height: 417px; margin-right: 608px;""></div></div>","null","delaylearn","learning","display_response","5b2a72f7c293b90001732b89","QKCoqgybpVPCUhNO3IkPbBYcrVS2","","","","","","","","","","","","","","","","","chosen stimuli: images/demo_images/choice_trial_2.png","","","",""
"html-keyboard-response","4","8370","0.0-2.0-2.0","","null","","null","delaylearn","learning","feedback_duration_window","5b2a72f7c293b90001732b89","QKCoqgybpVPCUhNO3IkPbBYcrVS2","","","","","","","","","","","","","","","","","","3000","","",""
"html-keyboard-response","5","9879","0.0-2.0-3.0","","null","<div style='margin:auto;width: auto; font-size: 150%'><span style='font-weight: bold; font-size: 100px; color: red;'>0 points!</span><br><br></div>","null","delaylearn","learning","feedback_image_window","5b2a72f7c293b90001732b89","QKCoqgybpVPCUhNO3IkPbBYcrVS2","","","","","","","","","","","","","","","","","","","","",""
"html-keyboard-response","6","11748","0.0-3.0","","null","<div style=""font-size:100px;"">+</div>","null","delaylearn","learning","ITI","5b2a72f7c293b90001732b89","QKCoqgybpVPCUhNO3IkPbBYcrVS2","","","","","","","","","","","","","","","","","","","1858","",""
"html-keyboard-response","7","12250","0.0-4.0-0.0","","500.60000000009313","<div style=""display: flex; flex-direction: column; align-items: center; margin-top: -40px;""><img src=""images/demo_images/pattern_1.png"" style=""width: 234px; height: 230px; margin-top: -50px;""><div style=""display: flex; justify-content: space-between; margin-top: 33px;""><img src=""images/demo_images/choice_trial_2.png"" style=""width: 408px; height: 417px; margin-right: 200px;""><img src=""images/demo_images/choice_trial_1.png"" style=""width: 408px; height: 417px;""></div></div>","j","delaylearn","learning","trial","5b2a72f7c293b90001732b89","QKCoqgybpVPCUhNO3IkPbBYcrVS2","3","images/demo_images/choice_trial_2.png","images/demo_images/choice_trial_1.png","images/demo_images/pattern_1.png","j","j","3000","2","1","20","1","2","1","1","1","10","","","","",""
"html-keyboard-response","8","13252","0.0-4.0-1.0","","null","<div style=""display: flex; flex-direction: column; align-items: center; margin-top: -40px;""><img src=""images/demo_images/pattern_1.png"" style=""width: 234px; height: 230px; margin-top: -50px;""><div style=""display: flex; justify-content: space-between; margin-top: 33px;""><img src=""images/demo_images/choice_trial_1.png"" style=""width: 408px; height: 417px; margin-left:608px;""></div></div>","null","delaylearn","learning","display_response","5b2a72f7c293b90001732b89","QKCoqgybpVPCUhNO3IkPbBYcrVS2","","","","","","","","","","","","","","","","","chosen stimuli: images/demo_images/choice_trial_1.png","","","",""
"html-keyboard-response","9","16260","0.0-4.0-2.0","","null","","null","delaylearn","learning","feedback_duration_window","5b2a72f7c293b90001732b89","QKCoqgybpVPCUhNO3IkPbBYcrVS2","","","","","","","","","","","","","","","","","","3000","","",""
"html-keyboard-response","10","17764","0.0-4.0-3.0","","null","<div style='margin:auto;width: auto; font-size: 150%'><span style='font-weight: bold; font-size: 100px; color: green;'>+10 points!</span><br><br></div>","null","delaylearn","learning","feedback_image_window","5b2a72f7c293b90001732b89","QKCoqgybpVPCUhNO3IkPbBYcrVS2","","","","","","","","","","","","","","","","","","","","",""
"html-keyboard-response","11","19875","0.0-5.0","","null","<div style=""font-size:100px;"">+</div>","null","delaylearn","learning","ITI","5b2a72f7c293b90001732b89","QKCoqgybpVPCUhNO3IkPbBYcrVS2","","","","","","","","","","","","","","","","","","","2095","",""
"html-keyboard-response","12","20427","0.0-6.0-0.0","","550.9000000001397","<div style=""display: flex; flex-direction: column; align-items: center; margin-top: -40px;""><img src=""images/demo_images/pattern_1.png"" style=""width: 234px; height: 230px; margin-top: -50px;""><div style=""display: flex; justify-content: space-between; margin-top: 33px;""><img src=""images/demo_images/choice_trial_1.png"" style=""width: 408px; height: 417px; margin-right: 200px;""><img src=""images/demo_images/choice_trial_2.png"" style=""width: 408px; height: 417px;""></div></div>","f","delaylearn","learning","trial","5b2a72f7c293b90001732b89","QKCoqgybpVPCUhNO3IkPbBYcrVS2","3","images/demo_images/choice_trial_1.png","images/demo_images/choice_trial_2.png","images/demo_images/pattern_1.png","j","f","3000","1","2","20","0","3","1","0","1","10","","","","",""
"html-keyboard-response","13","21442","0.0-6.0-1.0","","null","<div style=""display: flex; flex-direction: column; align-items: center; margin-top: -40px;""><img src=""images/demo_images/pattern_1.png"" style=""width: 234px; height: 230px; margin-top: -50px;""><div style=""display: flex; justify-content: space-between; margin-top: 33px;""><img src=""images/demo_images/choice_trial_1.png"" style=""width: 408px; height: 417px; margin-right: 608px;""></div></div>","null","delaylearn","learning","display_response","5b2a72f7c293b90001732b89","QKCoqgybpVPCUhNO3IkPbBYcrVS2","","","","","","","","","","","","","","","","","chosen stimuli: images/demo_images/choice_trial_1.png","","","",""
"html-keyboard-response","14","24444","0.0-6.0-2.0","","null","","null","delaylearn","learning","feedback_duration_window","5b2a72f7c293b90001732b89","QKCoqgybpVPCUhNO3IkPbBYcrVS2","","","","","","","","","","","","","","","","","","3000","","",""
"html-keyboard-response","15","25951","0.0-6.0-3.0","","null","<div style='margin:auto;width: auto; font-size: 150%'><span style='font-weight: bold; font-size: 100px; color: red;'>0 points!</span><br><br></div>","null","delaylearn","learning","feedback_image_window","5b2a72f7c293b90001732b89","QKCoqgybpVPCUhNO3IkPbBYcrVS2","","","","","","","","","","","","","","","","","","","","",""
"html-keyboard-response","16","27645","0.0-7.0","","null","<div style=""font-size:100px;"">+</div>","null","delaylearn","learning","ITI","5b2a72f7c293b90001732b89","QKCoqgybpVPCUhNO3IkPbBYcrVS2","","","","","","","","","","","","","","","","","","","1689","",""
"html-keyboard-response","17","28082","0.0-8.0-0.0","","436","<div style=""display: flex; flex-direction: column; align-items: center; margin-top: -40px;""><img src=""images/demo_images/pattern_1.png"" style=""width: 234px; height: 230px; margin-top: -50px;""><div style=""display: flex; justify-content: space-between; margin-top: 33px;""><img src=""images/demo_images/choice_trial_1.png"" style=""width: 408px; height: 417px; margin-right: 200px;""><img src=""images/demo_images/choice_trial_2.png"" style=""width: 408px; height: 417px;""></div></div>","f","delaylearn","learning","trial","5b2a72f7c293b90001732b89","QKCoqgybpVPCUhNO3IkPbBYcrVS2","3","images/demo_images/choice_trial_1.png","images/demo_images/choice_trial_2.png","images/demo_images/pattern_1.png","f","f","3000","1","2","20","0","4","1","1","1","20","","","","",""
"html-keyboard-response","18","29087","0.0-8.0-1.0","","null","<div style=""display: flex; flex-direction: column; align-items: center; margin-top: -40px;""><img src=""images/demo_images/pattern_1.png"" style=""width: 234px; height: 230px; margin-top: -50px;""><div style=""display: flex; justify-content: space-between; margin-top: 33px;""><img src=""images/demo_images/choice_trial_1.png"" style=""width: 408px; height: 417px; margin-right: 608px;""></div></div>","null","delaylearn","learning","display_response","5b2a72f7c293b90001732b89","QKCoqgybpVPCUhNO3IkPbBYcrVS2","","","","","","","","","","","","","","","","","chosen stimuli: images/demo_images/choice_trial_1.png","","","",""
"html-keyboard-response","19","32103","0.0-8.0-2.0","","null","","null","delaylearn","learning","feedback_duration_window","5b2a72f7c293b90001732b89","QKCoqgybpVPCUhNO3IkPbBYcrVS2","","","","","","","","","","","","","","","","","","3000","","",""
"html-keyboard-response","20","33609","0.0-8.0-3.0","","null","<div style='margin:auto;width: auto; font-size: 150%'><span style='font-weight: bold; font-size: 100px; color: green;'>+10 points!</span><br><br></div>","null","delaylearn","learning","feedback_image_window","5b2a72f7c293b90001732b89","QKCoqgybpVPCUhNO3IkPbBYcrVS2","","","","","","","","","","","","","","","","","","","","",""
"html-keyboard-response","21","34112","0.0-9.0-0.0","","null","","null","","","mood_trial_fixation","","","","","","","","","","","","","","","","","","","","","","",""
"lmdlab-html-vas-response","22","37386","0.0-9.0-1.0","","2255","How happy are you right now?","0.6423611111111112","delaylearn","learning","mood_trial","5b2a72f7c293b90001732b89","QKCoqgybpVPCUhNO3IkPbBYcrVS2","","","","","","","","","","","","","","","","","","","","[""Very unhappy"",""Very happy""]",""
"html-keyboard-response","23","39341","0.0-10.0","","null","<div style=""font-size:100px;"">+</div>","null","delaylearn","learning","ITI","5b2a72f7c293b90001732b89","QKCoqgybpVPCUhNO3IkPbBYcrVS2","","","","","","","","","","","","","","","","","","","1943","",""
"html-keyboard-response","24","39970","0.0-11.0-0.0","","627.6999999999534","<div style=""display: flex; flex-direction: column; align-items: center; margin-top: -40px;""><img src=""images/demo_images/pattern_1.png"" style=""width: 234px; height: 230px; margin-top: -50px;""><div style=""display: flex; justify-content: space-between; margin-top: 33px;""><img src=""images/demo_images/choice_trial_2.png"" style=""width: 408px; height: 417px; margin-right: 200px;""><img src=""images/demo_images/choice_trial_1.png"" style=""width: 408px; height: 417px;""></div></div>","j","delaylearn","learning","trial","5b2a72f7c293b90001732b89","QKCoqgybpVPCUhNO3IkPbBYcrVS2","3","images/demo_images/choice_trial_2.png","images/demo_images/choice_trial_1.png","images/demo_images/pattern_1.png","j","j","3000","2","1","20","1","5","1","1","1","30","","","","",""
"html-keyboard-response","25","40973","0.0-11.0-1.0","","null","<div style=""display: flex; flex-direction: column; align-items: center; margin-top: -40px;""><img src=""images/demo_images/pattern_1.png"" style=""width: 234px; height: 230px; margin-top: -50px;""><div style=""display: flex; justify-content: space-between; margin-top: 33px;""><img src=""images/demo_images/choice_trial_1.png"" style=""width: 408px; height: 417px; margin-left:608px;""></div></div>","null","delaylearn","learning","display_response","5b2a72f7c293b90001732b89","QKCoqgybpVPCUhNO3IkPbBYcrVS2","","","","","","","","","","","","","","","","","chosen stimuli: images/demo_images/choice_trial_1.png","","","",""
"html-keyboard-response","26","43978","0.0-11.0-2.0","","null","","null","delaylearn","learning","feedback_duration_window","5b2a72f7c293b90001732b89","QKCoqgybpVPCUhNO3IkPbBYcrVS2","","","","","","","","","","","","","","","","","","3000","","",""
"html-keyboard-response","27","45492","0.0-11.0-3.0","","null","<div style='margin:auto;width: auto; font-size: 150%'><span style='font-weight: bold; font-size: 100px; color: green;'>+10 points!</span><br><br></div>","null","delaylearn","learning","feedback_image_window","5b2a72f7c293b90001732b89","QKCoqgybpVPCUhNO3IkPbBYcrVS2","","","","","","","","","","","","","","","","","","","","",""
"html-keyboard-response","28","47187","0.0-12.0","","null","<div style=""font-size:100px;"">+</div>","null","delaylearn","learning","ITI","5b2a72f7c293b90001732b89","QKCoqgybpVPCUhNO3IkPbBYcrVS2","","","","","","","","","","","","","","","","","","","1688","",""
"html-keyboard-response","29","47683","0.0-13.0-0.0","","494.69999999995343","<div style=""display: flex; flex-direction: column; align-items: center; margin-top: -40px;""><img src=""images/demo_images/pattern_1.png"" style=""width: 234px; height: 230px; margin-top: -50px;""><div style=""display: flex; justify-content: space-between; margin-top: 33px;""><img src=""images/demo_images/choice_trial_1.png"" style=""width: 408px; height: 417px; margin-right: 200px;""><img src=""images/demo_images/choice_trial_2.png"" style=""width: 408px; height: 417px;""></div></div>","f","delaylearn","learning","trial","5b2a72f7c293b90001732b89","QKCoqgybpVPCUhNO3IkPbBYcrVS2","3","images/demo_images/choice_trial_1.png","images/demo_images/choice_trial_2.png","images/demo_images/pattern_1.png","f","f","3000","1","2","20","0","6","1","1","1","40","","","","",""
"html-keyboard-response","30","48684","0.0-13.0-1.0","","null","<div style=""display: flex; flex-direction: column; align-items: center; margin-top: -40px;""><img src=""images/demo_images/pattern_1.png"" style=""width: 234px; height: 230px; margin-top: -50px;""><div style=""display: flex; justify-content: space-between; margin-top: 33px;""><img src=""images/demo_images/choice_trial_1.png"" style=""width: 408px; height: 417px; margin-right: 608px;""></div></div>","null","delaylearn","learning","display_response","5b2a72f7c293b90001732b89","QKCoqgybpVPCUhNO3IkPbBYcrVS2","","","","","","","","","","","","","","","","","chosen stimuli: images/demo_images/choice_trial_1.png","","","",""
"html-keyboard-response","31","51697","0.0-13.0-2.0","","null","","null","delaylearn","learning","feedback_duration_window","5b2a72f7c293b90001732b89","QKCoqgybpVPCUhNO3IkPbBYcrVS2","","","","","","","","","","","","","","","","","","3000","","",""
"html-keyboard-response","32","53207","0.0-13.0-3.0","","null","<div style='margin:auto;width: auto; font-size: 150%'><span style='font-weight: bold; font-size: 100px; color: green;'>+10 points!</span><br><br></div>","null","delaylearn","learning","feedback_image_window","5b2a72f7c293b90001732b89","QKCoqgybpVPCUhNO3IkPbBYcrVS2","","","","","","","","","","","","","","","","","","","","",""
"html-keyboard-response","33","54847","0.0-14.0","","null","<div style=""font-size:100px;"">+</div>","null","delaylearn","learning","ITI","5b2a72f7c293b90001732b89","QKCoqgybpVPCUhNO3IkPbBYcrVS2","","","","","","","","","","","","","","","","","","","1631","",""
"html-keyboard-response","34","55185","0.0-15.0-0.0","","337.70000000018626","<div style=""display: flex; flex-direction: column; align-items: center; margin-top: -40px;""><img src=""images/demo_images/pattern_1.png"" style=""width: 234px; height: 230px; margin-top: -50px;""><div style=""display: flex; justify-content: space-between; margin-top: 33px;""><img src=""images/demo_images/choice_trial_2.png"" style=""width: 408px; height: 417px; margin-right: 200px;""><img src=""images/demo_images/choice_trial_1.png"" style=""width: 408px; height: 417px;""></div></div>","j","delaylearn","learning","trial","5b2a72f7c293b90001732b89","QKCoqgybpVPCUhNO3IkPbBYcrVS2","3","images/demo_images/choice_trial_2.png","images/demo_images/choice_trial_1.png","images/demo_images/pattern_1.png","j","j","3000","2","1","20","1","7","1","1","1","50","","","","",""
"html-keyboard-response","35","56192","0.0-15.0-1.0","","null","<div style=""display: flex; flex-direction: column; align-items: center; margin-top: -40px;""><img src=""images/demo_images/pattern_1.png"" style=""width: 234px; height: 230px; margin-top: -50px;""><div style=""display: flex; justify-content: space-between; margin-top: 33px;""><img src=""images/demo_images/choice_trial_1.png"" style=""width: 408px; height: 417px; margin-left:608px;""></div></div>","null","delaylearn","learning","display_response","5b2a72f7c293b90001732b89","QKCoqgybpVPCUhNO3IkPbBYcrVS2","","","","","","","","","","","","","","","","","chosen stimuli: images/demo_images/choice_trial_1.png","","","",""
"html-keyboard-response","36","59207","0.0-15.0-2.0","","null","","null","delaylearn","learning","feedback_duration_window","5b2a72f7c293b90001732b89","QKCoqgybpVPCUhNO3IkPbBYcrVS2","","","","","","","","","","","","","","","","","","3000","","",""
"html-keyboard-response","37","60712","0.0-15.0-3.0","","null","<div style='margin:auto;width: auto; font-size: 150%'><span style='font-weight: bold; font-size: 100px; color: green;'>+10 points!</span><br><br></div>","null","delaylearn","learning","feedback_image_window","5b2a72f7c293b90001732b89","QKCoqgybpVPCUhNO3IkPbBYcrVS2","","","","","","","","","","","","","","","","","","","","",""
"html-keyboard-response","38","62633","0.0-16.0","","null","<div style=""font-size:100px;"">+</div>","null","delaylearn","learning","ITI","5b2a72f7c293b90001732b89","QKCoqgybpVPCUhNO3IkPbBYcrVS2","","","","","","","","","","","","","","","","","","","1913","",""
"html-keyboard-response","39","63059","0.0-17.0-0.0","","424.89999999990687","<div style=""display: flex; flex-direction: column; align-items: center; margin-top: -40px;""><img src=""images/demo_images/pattern_1.png"" style=""width: 234px; height: 230px; margin-top: -50px;""><div style=""display: flex; justify-content: space-between; margin-top: 33px;""><img src=""images/demo_images/choice_trial_1.png"" style=""width: 408px; height: 417px; margin-right: 200px;""><img src=""images/demo_images/choice_trial_2.png"" style=""width: 408px; height: 417px;""></div></div>","f","delaylearn","learning","trial","5b2a72f7c293b90001732b89","QKCoqgybpVPCUhNO3IkPbBYcrVS2","3","images/demo_images/choice_trial_1.png","images/demo_images/choice_trial_2.png","images/demo_images/pattern_1.png","f","f","3000","1","2","20","0","8","1","1","1","60","","","","",""
"html-keyboard-response","40","64068","0.0-17.0-1.0","","null","<div style=""display: flex; flex-direction: column; align-items: center; margin-top: -40px;""><img src=""images/demo_images/pattern_1.png"" style=""width: 234px; height: 230px; margin-top: -50px;""><div style=""display: flex; justify-content: space-between; margin-top: 33px;""><img src=""images/demo_images/choice_trial_1.png"" style=""width: 408px; height: 417px; margin-right: 608px;""></div></div>","null","delaylearn","learning","display_response","5b2a72f7c293b90001732b89","QKCoqgybpVPCUhNO3IkPbBYcrVS2","","","","","","","","","","","","","","","","","chosen stimuli: images/demo_images/choice_trial_1.png","","","",""
"html-keyboard-response","41","67080","0.0-17.0-2.0","","null","","null","delaylearn","learning","feedback_duration_window","5b2a72f7c293b90001732b89","QKCoqgybpVPCUhNO3IkPbBYcrVS2","","","","","","","","","","","","","","","","","","3000","","",""
"html-keyboard-response","42","68586","0.0-17.0-3.0","","null","<div style='margin:auto;width: auto; font-size: 150%'><span style='font-weight: bold; font-size: 100px; color: green;'>+10 points!</span><br><br></div>","null","delaylearn","learning","feedback_image_window","5b2a72f7c293b90001732b89","QKCoqgybpVPCUhNO3IkPbBYcrVS2","","","","","","","","","","","","","","","","","","","","",""
"html-button-response","43","94812","0.0-18.0","","26225.399999999907","
  <div style=""display: flex; align-items: center; justify-content: center; height: 80vh;"">
  <div>
          <img src=""images/inst_demo_finish.png"" style=""width: 80vw; height:auto;"">
          <br><br>
      </div>
      <br><br>
  </div>","0","","","","","","","","","","","","","","","","","","","","","","","","","",""
"html-keyboard-response","44","97601","0.0-19.0","","2788.5","
  <div style=""display: flex; align-items: center; justify-content: center; height: 80vh;"">
  <div>
          <img src=""images/inst_6.png"" style=""width: 80vw; height:auto;"">
          <br><br>
      </div>
      <br><br>
  </div>","j","","","","","","","","","","","","","","","","","","","","","","","","","",""
"html-keyboard-response","45","100617","0.0-20.0","","null","<div style=""font-size:100px;"">+</div>","null","delaylearn","learning","pre_fixation","5b2a72f7c293b90001732b89","","","","","","","","","","","","","","","","","","","","","",""
"html-keyboard-response","46","103019","0.0-21.0","","null","<div style=""font-size:100px;"">+</div>","null","delaylearn","learning","ITI","5b2a72f7c293b90001732b89","QKCoqgybpVPCUhNO3IkPbBYcrVS2","","","","","","","","","","","","","","","","","","","2393","",""
"html-keyboard-response","47","103963","0.0-22.0-0.0","","943","<div style=""display: flex; flex-direction: column; align-items: center; margin-top: -40px;""><img src=""images/pattern_3.png"" style=""width: 234px; height: 230px; margin-top: -50px;""><div style=""display: flex; justify-content: space-between; margin-top: 33px;""><img src=""images/choice_trial_13.png"" style=""width: 408px; height: 417px; margin-right: 200px;""><img src=""images/choice_trial_10.png"" style=""width: 408px; height: 417px;""></div></div>","j","delaylearn","learning","trial","5b2a72f7c293b90001732b89","QKCoqgybpVPCUhNO3IkPbBYcrVS2","3","images/choice_trial_13.png","images/choice_trial_10.png","images/pattern_3.png","f","f","7000","13","10","2","0","9","0","0","10","60","","","","",""
"html-keyboard-response","48","104975","0.0-22.0-1.0","","null","<div style=""display: flex; flex-direction: column; align-items: center; margin-top: -40px;""><img src=""images/pattern_3.png"" style=""width: 234px; height: 230px; margin-top: -50px;""><div style=""display: flex; justify-content: space-between; margin-top: 33px;""><img src=""images/choice_trial_10.png"" style=""width: 408px; height: 417px; margin-left:608px;""></div></div>","null","delaylearn","learning","display_response","5b2a72f7c293b90001732b89","QKCoqgybpVPCUhNO3IkPbBYcrVS2","","","","","","","","","","","","","","","","","chosen stimuli: images/choice_trial_10.png","","","",""
"html-keyboard-response","49","111991","0.0-22.0-2.0","","null","","null","delaylearn","learning","feedback_duration_window","5b2a72f7c293b90001732b89","QKCoqgybpVPCUhNO3IkPbBYcrVS2","","","","","","","","","","","","","","","","","","7000","","",""
"html-keyboard-response","50","113506","0.0-22.0-3.0","","null","<div style='margin:auto;width: auto; font-size: 150%'><span style='font-weight: bold; font-size: 100px; color: red;'>0 points!</span><br><br></div>","null","delaylearn","learning","feedback_image_window","5b2a72f7c293b90001732b89","QKCoqgybpVPCUhNO3IkPbBYcrVS2","","","","","","","","","","","","","","","","","","","","",""
"html-keyboard-response","51","115239","0.0-23.0","","null","<div style=""font-size:100px;"">+</div>","null","delaylearn","learning","ITI","5b2a72f7c293b90001732b89","QKCoqgybpVPCUhNO3IkPbBYcrVS2","","","","","","","","","","","","","","","","","","","1730","",""
"html-keyboard-response","52","116250","0.0-24.0-0.0","","1009.8999999999069","<div style=""display: flex; flex-direction: column; align-items: center; margin-top: -40px;""><img src=""images/pattern_7.png"" style=""width: 234px; height: 230px; margin-top: -50px;""><div style=""display: flex; justify-content: space-between; margin-top: 33px;""><img src=""images/choice_trial_12.png"" style=""width: 408px; height: 417px; margin-right: 200px;""><img src=""images/choice_trial_6.png"" style=""width: 408px; height: 417px;""></div></div>","f","delaylearn","learning","trial","5b2a72f7c293b90001732b89","QKCoqgybpVPCUhNO3IkPbBYcrVS2","3","images/choice_trial_12.png","images/choice_trial_6.png","images/pattern_7.png","j","j","750","12","6","6","1","10","0","0","12","60","","","","",""
"html-keyboard-response","53","117262","0.0-24.0-1.0","","null","<div style=""display: flex; flex-direction: column; align-items: center; margin-top: -40px;""><img src=""images/pattern_7.png"" style=""width: 234px; height: 230px; margin-top: -50px;""><div style=""display: flex; justify-content: space-between; margin-top: 33px;""><img src=""images/choice_trial_12.png"" style=""width: 408px; height: 417px; margin-right: 608px;""></div></div>","null","delaylearn","learning","display_response","5b2a72f7c293b90001732b89","QKCoqgybpVPCUhNO3IkPbBYcrVS2","","","","","","","","","","","","","","","","","chosen stimuli: images/choice_trial_12.png","","","",""
"html-keyboard-response","54","118022","0.0-24.0-2.0","","null","","null","delaylearn","learning","feedback_duration_window","5b2a72f7c293b90001732b89","QKCoqgybpVPCUhNO3IkPbBYcrVS2","","","","","","","","","","","","","","","","","","750","","",""
"html-keyboard-response","55","119536","0.0-24.0-3.0","","null","<div style='margin:auto;width: auto; font-size: 150%'><span style='font-weight: bold; font-size: 100px; color: red;'>0 points!</span><br><br></div>","null","delaylearn","learning","feedback_image_window","5b2a72f7c293b90001732b89","QKCoqgybpVPCUhNO3IkPbBYcrVS2","","","","","","","","","","","","","","","","","","","","",""
"html-keyboard-response","56","121318","0.0-25.0","","null","<div style=""font-size:100px;"">+</div>","null","delaylearn","learning","ITI","5b2a72f7c293b90001732b89","QKCoqgybpVPCUhNO3IkPbBYcrVS2","","","","","","","","","","","","","","","","","","","1774","",""
"html-keyboard-response","57","122249","0.0-26.0-0.0","","929.6000000000931","<div style=""display: flex; flex-direction: column; align-items: center; margin-top: -40px;""><img src=""images/pattern_4.png"" style=""width: 234px; height: 230px; margin-top: -50px;""><div style=""display: flex; justify-content: space-between; margin-top: 33px;""><img src=""images/choice_trial_15.png"" style=""width: 408px; height: 417px; margin-right: 200px;""><img src=""images/choice_trial_9.png"" style=""width: 408px; height: 417px;""></div></div>","f","delaylearn","learning","trial","5b2a72f7c293b90001732b89","QKCoqgybpVPCUhNO3IkPbBYcrVS2","3","images/choice_trial_15.png","images/choice_trial_9.png","images/pattern_4.png","f","f","7000","15","9","3","0","11","1","1","15","70","","","","",""
"html-keyboard-response","58","123260","0.0-26.0-1.0","","null","<div style=""display: flex; flex-direction: column; align-items: center; margin-top: -40px;""><img src=""images/pattern_4.png"" style=""width: 234px; height: 230px; margin-top: -50px;""><div style=""display: flex; justify-content: space-between; margin-top: 33px;""><img src=""images/choice_trial_15.png"" style=""width: 408px; height: 417px; margin-right: 608px;""></div></div>","null","delaylearn","learning","display_response","5b2a72f7c293b90001732b89","QKCoqgybpVPCUhNO3IkPbBYcrVS2","","","","","","","","","","","","","","","","","chosen stimuli: images/choice_trial_15.png","","","",""
"html-keyboard-response","59","130274","0.0-26.0-2.0","","null","","null","delaylearn","learning","feedback_duration_window","5b2a72f7c293b90001732b89","QKCoqgybpVPCUhNO3IkPbBYcrVS2","","","","","","","","","","","","","","","","","","7000","","",""
"html-keyboard-response","60","131788","0.0-26.0-3.0","","null","<div style='margin:auto;width: auto; font-size: 150%'><span style='font-weight: bold; font-size: 100px; color: green;'>+10 points!</span><br><br></div>","null","delaylearn","learning","feedback_image_window","5b2a72f7c293b90001732b89","QKCoqgybpVPCUhNO3IkPbBYcrVS2","","","","","","","","","","","","","","","","","","","","",""
"html-keyboard-response","61","133922","0.0-27.0","","null","<div style=""font-size:100px;"">+</div>","null","delaylearn","learning","ITI","5b2a72f7c293b90001732b89","QKCoqgybpVPCUhNO3IkPbBYcrVS2","","","","","","","","","","","","","","","","","","","2130","",""
"html-keyboard-response","62","134810","0.0-28.0-0.0","","886.5","<div style=""display: flex; flex-direction: column; align-items: center; margin-top: -40px;""><img src=""images/pattern_5.png"" style=""width: 234px; height: 230px; margin-top: -50px;""><div style=""display: flex; justify-content: space-between; margin-top: 33px;""><img src=""images/choice_trial_2.png"" style=""width: 408px; height: 417px; margin-right: 200px;""><img src=""images/choice_trial_11.png"" style=""width: 408px; height: 417px;""></div></div>","j","delaylearn","learning","trial","5b2a72f7c293b90001732b89","QKCoqgybpVPCUhNO3IkPbBYcrVS2","3","images/choice_trial_2.png","images/choice_trial_11.png","images/pattern_5.png","j","j","750","2","11","4","1","12","1","1","11","80","","","","",""
"html-keyboard-response","63","135823","0.0-28.0-1.0","","null","<div style=""display: flex; flex-direction: column; align-items: center; margin-top: -40px;""><img src=""images/pattern_5.png"" style=""width: 234px; height: 230px; margin-top: -50px;""><div style=""display: flex; justify-content: space-between; margin-top: 33px;""><img src=""images/choice_trial_11.png"" style=""width: 408px; height: 417px; margin-left:608px;""></div></div>","null","delaylearn","learning","display_response","5b2a72f7c293b90001732b89","QKCoqgybpVPCUhNO3IkPbBYcrVS2","","","","","","","","","","","","","","","","","chosen stimuli: images/choice_trial_11.png","","","",""
"html-keyboard-response","64","136586","0.0-28.0-2.0","","null","","null","delaylearn","learning","feedback_duration_window","5b2a72f7c293b90001732b89","QKCoqgybpVPCUhNO3IkPbBYcrVS2","","","","","","","","","","","","","","","","","","750","","",""
"html-keyboard-response","65","138092","0.0-28.0-3.0","","null","<div style='margin:auto;width: auto; font-size: 150%'><span style='font-weight: bold; font-size: 100px; color: green;'>+10 points!</span><br><br></div>","null","delaylearn","learning","feedback_image_window","5b2a72f7c293b90001732b89","QKCoqgybpVPCUhNO3IkPbBYcrVS2","","","","","","","","","","","","","","","","","","","","",""
"html-keyboard-response","66","140544","0.0-29.0","","null","<div style=""font-size:100px;"">+</div>","null","delaylearn","learning","ITI","5b2a72f7c293b90001732b89","QKCoqgybpVPCUhNO3IkPbBYcrVS2","","","","","","","","","","","","","","","","","","","2441","",""
"html-keyboard-response","67","142041","0.0-30.0-0.0","","1495.5999999998603","<div style=""display: flex; flex-direction: column; align-items: center; margin-top: -40px;""><img src=""images/pattern_6.png"" style=""width: 234px; height: 230px; margin-top: -50px;""><div style=""display: flex; justify-content: space-between; margin-top: 33px;""><img src=""images/choice_trial_16.png"" style=""width: 408px; height: 417px; margin-right: 200px;""><img src=""images/choice_trial_3.png"" style=""width: 408px; height: 417px;""></div></div>","f","delaylearn","learning","trial","5b2a72f7c293b90001732b89","QKCoqgybpVPCUhNO3IkPbBYcrVS2","3","images/choice_trial_16.png","images/choice_trial_3.png","images/pattern_6.png","j","f","750","16","3","5","0","13","1","0","16","80","","","","",""
"html-keyboard-response","68","143053","0.0-30.0-1.0","","null","<div style=""display: flex; flex-direction: column; align-items: center; margin-top: -40px;""><img src=""images/pattern_6.png"" style=""width: 234px; height: 230px; margin-top: -50px;""><div style=""display: flex; justify-content: space-between; margin-top: 33px;""><img src=""images/choice_trial_16.png"" style=""width: 408px; height: 417px; margin-right: 608px;""></div></div>","null","delaylearn","learning","display_response","5b2a72f7c293b90001732b89","QKCoqgybpVPCUhNO3IkPbBYcrVS2","","","","","","","","","","","","","","","","","chosen stimuli: images/choice_trial_16.png","","","",""
"html-keyboard-response","69","143818","0.0-30.0-2.0","","null","","null","delaylearn","learning","feedback_duration_window","5b2a72f7c293b90001732b89","QKCoqgybpVPCUhNO3IkPbBYcrVS2","","","","","","","","","","","","","","","","","","750","","",""
"html-keyboard-response","70","145323","0.0-30.0-3.0","","null","<div style='margin:auto;width: auto; font-size: 150%'><span style='font-weight: bold; font-size: 100px; color: red;'>0 points!</span><br><br></div>","null","delaylearn","learning","feedback_image_window","5b2a72f7c293b90001732b89","QKCoqgybpVPCUhNO3IkPbBYcrVS2","","","","","","","","","","","","","","","","","","","","",""
"html-keyboard-response","71","145832","0.0-31.0-0.0","","null","","null","","","mood_trial_fixation","","","","","","","","","","","","","","","","","","","","","","",""
"lmdlab-html-vas-response","72","149723","0.0-31.0-1.0","","2879","How happy are you right now?","0.5196759259259259","delaylearn","learning","mood_trial","5b2a72f7c293b90001732b89","QKCoqgybpVPCUhNO3IkPbBYcrVS2","","","","","","","","","","","","","","","","","","","","[""Very unhappy"",""Very happy""]",""
"html-keyboard-response","73","151299","0.0-32.0","","null","<div style=""font-size:100px;"">+</div>","null","delaylearn","learning","ITI","5b2a72f7c293b90001732b89","QKCoqgybpVPCUhNO3IkPbBYcrVS2","","","","","","","","","","","","","","","","","","","1570","",""
"html-keyboard-response","74","152088","0.0-33.0-0.0","","787.5","<div style=""display: flex; flex-direction: column; align-items: center; margin-top: -40px;""><img src=""images/pattern_1.png"" style=""width: 234px; height: 230px; margin-top: -50px;""><div style=""display: flex; justify-content: space-between; margin-top: 33px;""><img src=""images/choice_trial_8.png"" style=""width: 408px; height: 417px; margin-right: 200px;""><img src=""images/choice_trial_14.png"" style=""width: 408px; height: 417px;""></div></div>","j","delaylearn","learning","trial","5b2a72f7c293b90001732b89","QKCoqgybpVPCUhNO3IkPbBYcrVS2","3","images/choice_trial_8.png","images/choice_trial_14.png","images/pattern_1.png","j","j","7000","8","14","1","1","14","1","1","14","90","","","","",""
"html-keyboard-response","75","153099","0.0-33.0-1.0","","null","<div style=""display: flex; flex-direction: column; align-items: center; margin-top: -40px;""><img src=""images/pattern_1.png"" style=""width: 234px; height: 230px; margin-top: -50px;""><div style=""display: flex; justify-content: space-between; margin-top: 33px;""><img src=""images/choice_trial_14.png"" style=""width: 408px; height: 417px; margin-left:608px;""></div></div>","null","delaylearn","learning","display_response","5b2a72f7c293b90001732b89","QKCoqgybpVPCUhNO3IkPbBYcrVS2","","","","","","","","","","","","","","","","","chosen stimuli: images/choice_trial_14.png","","","",""
"html-keyboard-response","76","160101","0.0-33.0-2.0","","null","","null","delaylearn","learning","feedback_duration_window","5b2a72f7c293b90001732b89","QKCoqgybpVPCUhNO3IkPbBYcrVS2","","","","","","","","","","","","","","","","","","7000","","",""
"html-keyboard-response","77","161610","0.0-33.0-3.0","","null","<div style='margin:auto;width: auto; font-size: 150%'><span style='font-weight: bold; font-size: 100px; color: green;'>+10 points!</span><br><br></div>","null","delaylearn","learning","feedback_image_window","5b2a72f7c293b90001732b89","QKCoqgybpVPCUhNO3IkPbBYcrVS2","","","","","","","","","","","","","","","","","","","","",""
"html-keyboard-response","78","163266","0.0-34.0","","null","<div style=""font-size:100px;"">+</div>","null","delaylearn","learning","ITI","5b2a72f7c293b90001732b89","QKCoqgybpVPCUhNO3IkPbBYcrVS2","","","","","","","","","","","","","","","","","","","1642","",""
"html-keyboard-response","79","164257","0.0-35.0-0.0","","990","<div style=""display: flex; flex-direction: column; align-items: center; margin-top: -40px;""><img src=""images/pattern_3.png"" style=""width: 234px; height: 230px; margin-top: -50px;""><div style=""display: flex; justify-content: space-between; margin-top: 33px;""><img src=""images/choice_trial_10.png"" style=""width: 408px; height: 417px; margin-right: 200px;""><img src=""images/choice_trial_13.png"" style=""width: 408px; height: 417px;""></div></div>","j","delaylearn","learning","trial","5b2a72f7c293b90001732b89","QKCoqgybpVPCUhNO3IkPbBYcrVS2","3","images/choice_trial_10.png","images/choice_trial_13.png","images/pattern_3.png","f","j","7000","10","13","2","1","15","1","0","13","90","","","","",""
"html-keyboard-response","80","165273","0.0-35.0-1.0","","null","<div style=""display: flex; flex-direction: column; align-items: center; margin-top: -40px;""><img src=""images/pattern_3.png"" style=""width: 234px; height: 230px; margin-top: -50px;""><div style=""display: flex; justify-content: space-between; margin-top: 33px;""><img src=""images/choice_trial_13.png"" style=""width: 408px; height: 417px; margin-left:608px;""></div></div>","null","delaylearn","learning","display_response","5b2a72f7c293b90001732b89","QKCoqgybpVPCUhNO3IkPbBYcrVS2","","","","","","","","","","","","","","","","","chosen stimuli: images/choice_trial_13.png","","","",""
"html-keyboard-response","81","172282","0.0-35.0-2.0","","null","","null","delaylearn","learning","feedback_duration_window","5b2a72f7c293b90001732b89","QKCoqgybpVPCUhNO3IkPbBYcrVS2","","","","","","","","","","","","","","","","","","7000","","",""
"html-keyboard-response","82","173793","0.0-35.0-3.0","","null","<div style='margin:auto;width: auto; font-size: 150%'><span style='font-weight: bold; font-size: 100px; color: red;'>0 points!</span><br><br></div>","null","delaylearn","learning","feedback_image_window","5b2a72f7c293b90001732b89","QKCoqgybpVPCUhNO3IkPbBYcrVS2","","","","","","","","","","","","","","","","","","","","",""
"html-keyboard-response","83","175977","0.0-36.0","","null","<div style=""font-size:100px;"">+</div>","null","delaylearn","learning","ITI","5b2a72f7c293b90001732b89","QKCoqgybpVPCUhNO3IkPbBYcrVS2","","","","","","","","","","","","","","","","","","","2174","",""
"html-keyboard-response","84","177393","0.0-37.0-0.0","","1414.7000000001863","<div style=""display: flex; flex-direction: column; align-items: center; margin-top: -40px;""><img src=""images/pattern_5.png"" style=""width: 234px; height: 230px; margin-top: -50px;""><div style=""display: flex; justify-content: space-between; margin-top: 33px;""><img src=""images/choice_trial_11.png"" style=""width: 408px; height: 417px; margin-right: 200px;""><img src=""images/choice_trial_2.png"" style=""width: 408px; height: 417px;""></div></div>","f","delaylearn","learning","trial","5b2a72f7c293b90001732b89","QKCoqgybpVPCUhNO3IkPbBYcrVS2","3","images/choice_trial_11.png","images/choice_trial_2.png","images/pattern_5.png","f","f","750","11","2","4","0","16","1","1","11","100","","","","",""
"html-keyboard-response","85","178401","0.0-37.0-1.0","","null","<div style=""display: flex; flex-direction: column; align-items: center; margin-top: -40px;""><img src=""images/pattern_5.png"" style=""width: 234px; height: 230px; margin-top: -50px;""><div style=""display: flex; justify-content: space-between; margin-top: 33px;""><img src=""images/choice_trial_11.png"" style=""width: 408px; height: 417px; margin-right: 608px;""></div></div>","null","delaylearn","learning","display_response","5b2a72f7c293b90001732b89","QKCoqgybpVPCUhNO3IkPbBYcrVS2","","","","","","","","","","","","","","","","","chosen stimuli: images/choice_trial_11.png","","","",""
"html-keyboard-response","86","179159","0.0-37.0-2.0","","null","","null","delaylearn","learning","feedback_duration_window","5b2a72f7c293b90001732b89","QKCoqgybpVPCUhNO3IkPbBYcrVS2","","","","","","","","","","","","","","","","","","750","","",""
"html-keyboard-response","87","180665","0.0-37.0-3.0","","null","<div style='margin:auto;width: auto; font-size: 150%'><span style='font-weight: bold; font-size: 100px; color: green;'>+10 points!</span><br><br></div>","null","delaylearn","learning","feedback_image_window","5b2a72f7c293b90001732b89","QKCoqgybpVPCUhNO3IkPbBYcrVS2","","","","","","","","","","","","","","","","","","","","",""
"html-keyboard-response","88","181177","0.0-38.0-0.0","","null","","null","","","mood_trial_fixation","","","","","","","","","","","","","","","","","","","","","","",""
"lmdlab-html-vas-response","89","184784","0.0-38.0-1.0","","2592","How happy are you right now?","0.5891203703703703","delaylearn","learning","mood_trial","5b2a72f7c293b90001732b89","QKCoqgybpVPCUhNO3IkPbBYcrVS2","","","","","","","","","","","","","","","","","","","","[""Very unhappy"",""Very happy""]",""
"html-keyboard-response","90","186668","0.0-39.0","","null","<div style=""font-size:100px;"">+</div>","null","delaylearn","learning","ITI","5b2a72f7c293b90001732b89","QKCoqgybpVPCUhNO3IkPbBYcrVS2","","","","","","","","","","","","","","","","","","","1873","",""
"html-keyboard-response","91","188225","0.0-40.0-0.0","","1555.6000000000931","<div style=""display: flex; flex-direction: column; align-items: center; margin-top: -40px;""><img src=""images/pattern_6.png"" style=""width: 234px; height: 230px; margin-top: -50px;""><div style=""display: flex; justify-content: space-between; margin-top: 33px;""><img src=""images/choice_trial_16.png"" style=""width: 408px; height: 417px; margin-right: 200px;""><img src=""images/choice_trial_3.png"" style=""width: 408px; height: 417px;""></div></div>","f","delaylearn","learning","trial","5b2a72f7c293b90001732b89","QKCoqgybpVPCUhNO3IkPbBYcrVS2","3","images/choice_trial_16.png","images/choice_trial_3.png","images/pattern_6.png","f","f","750","16","3","5","0","17","1","1","16","110","","","","",""
"html-keyboard-response","92","189238","0.0-40.0-1.0","","null","<div style=""display: flex; flex-direction: column; align-items: center; margin-top: -40px;""><img src=""images/pattern_6.png"" style=""width: 234px; height: 230px; margin-top: -50px;""><div style=""display: flex; justify-content: space-between; margin-top: 33px;""><img src=""images/choice_trial_16.png"" style=""width: 408px; height: 417px; margin-right: 608px;""></div></div>","null","delaylearn","learning","display_response","5b2a72f7c293b90001732b89","QKCoqgybpVPCUhNO3IkPbBYcrVS2","","","","","","","","","","","","","","","","","chosen stimuli: images/choice_trial_16.png","","","",""
"html-keyboard-response","93","189990","0.0-40.0-2.0","","null","","null","delaylearn","learning","feedback_duration_window","5b2a72f7c293b90001732b89","QKCoqgybpVPCUhNO3IkPbBYcrVS2","","","","","","","","","","","","","","","","","","750","","",""
"html-keyboard-response","94","191496","0.0-40.0-3.0","","null","<div style='margin:auto;width: auto; font-size: 150%'><span style='font-weight: bold; font-size: 100px; color: green;'>+10 points!</span><br><br></div>","null","delaylearn","learning","feedback_image_window","5b2a72f7c293b90001732b89","QKCoqgybpVPCUhNO3IkPbBYcrVS2","","","","","","","","","","","","","","","","","","","","",""
"html-keyboard-response","95","193573","0.0-41.0","","null","<div style=""font-size:100px;"">+</div>","null","delaylearn","learning","ITI","5b2a72f7c293b90001732b89","QKCoqgybpVPCUhNO3IkPbBYcrVS2","","","","","","","","","","","","","","","","","","","2067","",""
"html-keyboard-response","96","194335","0.0-42.0-0.0","","761.5","<div style=""display: flex; flex-direction: column; align-items: center; margin-top: -40px;""><img src=""images/pattern_4.png"" style=""width: 234px; height: 230px; margin-top: -50px;""><div style=""display: flex; justify-content: space-between; margin-top: 33px;""><img src=""images/choice_trial_9.png"" style=""width: 408px; height: 417px; margin-right: 200px;""><img src=""images/choice_trial_15.png"" style=""width: 408px; height: 417px;""></div></div>","j","delaylearn","learning","trial","5b2a72f7c293b90001732b89","QKCoqgybpVPCUhNO3IkPbBYcrVS2","3","images/choice_trial_9.png","images/choice_trial_15.png","images/pattern_4.png","j","j","7000","9","15","3","1","18","1","1","15","120","","","","",""
"html-keyboard-response","97","195344","0.0-42.0-1.0","","null","<div style=""display: flex; flex-direction: column; align-items: center; margin-top: -40px;""><img src=""images/pattern_4.png"" style=""width: 234px; height: 230px; margin-top: -50px;""><div style=""display: flex; justify-content: space-between; margin-top: 33px;""><img src=""images/choice_trial_15.png"" style=""width: 408px; height: 417px; margin-left:608px;""></div></div>","null","delaylearn","learning","display_response","5b2a72f7c293b90001732b89","QKCoqgybpVPCUhNO3IkPbBYcrVS2","","","","","","","","","","","","","","","","","chosen stimuli: images/choice_trial_15.png","","","",""
"html-keyboard-response","98","202352","0.0-42.0-2.0","","null","","null","delaylearn","learning","feedback_duration_window","5b2a72f7c293b90001732b89","QKCoqgybpVPCUhNO3IkPbBYcrVS2","","","","","","","","","","","","","","","","","","7000","","",""
"html-keyboard-response","99","203858","0.0-42.0-3.0","","null","<div style='margin:auto;width: auto; font-size: 150%'><span style='font-weight: bold; font-size: 100px; color: green;'>+10 points!</span><br><br></div>","null","delaylearn","learning","feedback_image_window","5b2a72f7c293b90001732b89","QKCoqgybpVPCUhNO3IkPbBYcrVS2","","","","","","","","","","","","","","","","","","","","",""
"html-keyboard-response","100","206055","0.0-43.0","","null","<div style=""font-size:100px;"">+</div>","null","delaylearn","learning","ITI","5b2a72f7c293b90001732b89","QKCoqgybpVPCUhNO3IkPbBYcrVS2","","","","","","","","","","","","","","","","","","","2192","",""
"html-keyboard-response","101","207353","0.0-44.0-0.0","","1296","<div style=""display: flex; flex-direction: column; align-items: center; margin-top: -40px;""><img src=""images/pattern_7.png"" style=""width: 234px; height: 230px; margin-top: -50px;""><div style=""display: flex; justify-content: space-between; margin-top: 33px;""><img src=""images/choice_trial_6.png"" style=""width: 408px; height: 417px; margin-right: 200px;""><img src=""images/choice_trial_12.png"" style=""width: 408px; height: 417px;""></div></div>","j","delaylearn","learning","trial","5b2a72f7c293b90001732b89","QKCoqgybpVPCUhNO3IkPbBYcrVS2","3","images/choice_trial_6.png","images/choice_trial_12.png","images/pattern_7.png","j","f","750","6","12","6","0","19","0","1","12","130","","","","",""
"html-keyboard-response","102","208367","0.0-44.0-1.0","","null","<div style=""display: flex; flex-direction: column; align-items: center; margin-top: -40px;""><img src=""images/pattern_7.png"" style=""width: 234px; height: 230px; margin-top: -50px;""><div style=""display: flex; justify-content: space-between; margin-top: 33px;""><img src=""images/choice_trial_12.png"" style=""width: 408px; height: 417px; margin-left:608px;""></div></div>","null","delaylearn","learning","display_response","5b2a72f7c293b90001732b89","QKCoqgybpVPCUhNO3IkPbBYcrVS2","","","","","","","","","","","","","","","","","chosen stimuli: images/choice_trial_12.png","","","",""
"html-keyboard-response","103","209126","0.0-44.0-2.0","","null","","null","delaylearn","learning","feedback_duration_window","5b2a72f7c293b90001732b89","QKCoqgybpVPCUhNO3IkPbBYcrVS2","","","","","","","","","","","","","","","","","","750","","",""
"html-keyboard-response","104","210632","0.0-44.0-3.0","","null","<div style='margin:auto;width: auto; font-size: 150%'><span style='font-weight: bold; font-size: 100px; color: green;'>+10 points!</span><br><br></div>","null","delaylearn","learning","feedback_image_window","5b2a72f7c293b90001732b89","QKCoqgybpVPCUhNO3IkPbBYcrVS2","","","","","","","","","","","","","","","","","","","","",""
"html-keyboard-response","105","213131","0.0-45.0","","null","<div style=""font-size:100px;"">+</div>","null","delaylearn","learning","ITI","5b2a72f7c293b90001732b89","QKCoqgybpVPCUhNO3IkPbBYcrVS2","","","","","","","","","","","","","","","","","","","2494","",""
"html-keyboard-response","106","214080","0.0-46.0-0.0","","947.5","<div style=""display: flex; flex-direction: column; align-items: center; margin-top: -40px;""><img src=""images/pattern_1.png"" style=""width: 234px; height: 230px; margin-top: -50px;""><div style=""display: flex; justify-content: space-between; margin-top: 33px;""><img src=""images/choice_trial_14.png"" style=""width: 408px; height: 417px; margin-right: 200px;""><img src=""images/choice_trial_8.png"" style=""width: 408px; height: 417px;""></div></div>","f","delaylearn","learning","trial","5b2a72f7c293b90001732b89","QKCoqgybpVPCUhNO3IkPbBYcrVS2","3","images/choice_trial_14.png","images/choice_trial_8.png","images/pattern_1.png","f","f","7000","14","8","1","0","20","1","1","14","140","","","","",""
"html-keyboard-response","107","215094","0.0-46.0-1.0","","null","<div style=""display: flex; flex-direction: column; align-items: center; margin-top: -40px;""><img src=""images/pattern_1.png"" style=""width: 234px; height: 230px; margin-top: -50px;""><div style=""display: flex; justify-content: space-between; margin-top: 33px;""><img src=""images/choice_trial_14.png"" style=""width: 408px; height: 417px; margin-right: 608px;""></div></div>","null","delaylearn","learning","display_response","5b2a72f7c293b90001732b89","QKCoqgybpVPCUhNO3IkPbBYcrVS2","","","","","","","","","","","","","","","","","chosen stimuli: images/choice_trial_14.png","","","",""
"html-keyboard-response","108","222099","0.0-46.0-2.0","","null","","null","delaylearn","learning","feedback_duration_window","5b2a72f7c293b90001732b89","QKCoqgybpVPCUhNO3IkPbBYcrVS2","","","","","","","","","","","","","","","","","","7000","","",""
"html-keyboard-response","109","223607","0.0-46.0-3.0","","null","<div style='margin:auto;width: auto; font-size: 150%'><span style='font-weight: bold; font-size: 100px; color: green;'>+10 points!</span><br><br></div>","null","delaylearn","learning","feedback_image_window","5b2a72f7c293b90001732b89","QKCoqgybpVPCUhNO3IkPbBYcrVS2","","","","","","","","","","","","","","","","","","","","",""
"html-keyboard-response","110","225750","0.0-47.0","","null","<div style=""font-size:100px;"">+</div>","null","delaylearn","learning","ITI","5b2a72f7c293b90001732b89","QKCoqgybpVPCUhNO3IkPbBYcrVS2","","","","","","","","","","","","","","","","","","","2127","",""
"html-keyboard-response","111","226553","0.0-48.0-0.0","","802.0999999998603","<div style=""display: flex; flex-direction: column; align-items: center; margin-top: -40px;""><img src=""images/pattern_6.png"" style=""width: 234px; height: 230px; margin-top: -50px;""><div style=""display: flex; justify-content: space-between; margin-top: 33px;""><img src=""images/choice_trial_3.png"" style=""width: 408px; height: 417px; margin-right: 200px;""><img src=""images/choice_trial_16.png"" style=""width: 408px; height: 417px;""></div></div>","j","delaylearn","learning","trial","5b2a72f7c293b90001732b89","QKCoqgybpVPCUhNO3IkPbBYcrVS2","3","images/choice_trial_3.png","images/choice_trial_16.png","images/pattern_6.png","j","j","750","3","16","5","1","21","1","1","16","150","","","","",""
"html-keyboard-response","112","227569","0.0-48.0-1.0","","null","<div style=""display: flex; flex-direction: column; align-items: center; margin-top: -40px;""><img src=""images/pattern_6.png"" style=""width: 234px; height: 230px; margin-top: -50px;""><div style=""display: flex; justify-content: space-between; margin-top: 33px;""><img src=""images/choice_trial_16.png"" style=""width: 408px; height: 417px; margin-left:608px;""></div></div>","null","delaylearn","learning","display_response","5b2a72f7c293b90001732b89","QKCoqgybpVPCUhNO3IkPbBYcrVS2","","","","","","","","","","","","","","","","","chosen stimuli: images/choice_trial_16.png","","","",""
"html-keyboard-response","113","228331","0.0-48.0-2.0","","null","","null","delaylearn","learning","feedback_duration_window","5b2a72f7c293b90001732b89","QKCoqgybpVPCUhNO3IkPbBYcrVS2","","","","","","","","","","","","","","","","","","750","","",""
"html-keyboard-response","114","229834","0.0-48.0-3.0","","null","<div style='margin:auto;width: auto; font-size: 150%'><span style='font-weight: bold; font-size: 100px; color: green;'>+10 points!</span><br><br></div>","null","delaylearn","learning","feedback_image_window","5b2a72f7c293b90001732b89","QKCoqgybpVPCUhNO3IkPbBYcrVS2","","","","","","","","","","","","","","","","","","","","",""
"html-keyboard-response","115","231800","0.0-49.0","","null","<div style=""font-size:100px;"">+</div>","null","delaylearn","learning","ITI","5b2a72f7c293b90001732b89","QKCoqgybpVPCUhNO3IkPbBYcrVS2","","","","","","","","","","","","","","","","","","","1964","",""
"html-keyboard-response","116","232592","0.0-50.0-0.0","","790.8000000000466","<div style=""display: flex; flex-direction: column; align-items: center; margin-top: -40px;""><img src=""images/pattern_4.png"" style=""width: 234px; height: 230px; margin-top: -50px;""><div style=""display: flex; justify-content: space-between; margin-top: 33px;""><img src=""images/choice_trial_15.png"" style=""width: 408px; height: 417px; margin-right: 200px;""><img src=""images/choice_trial_9.png"" style=""width: 408px; height: 417px;""></div></div>","f","delaylearn","learning","trial","5b2a72f7c293b90001732b89","QKCoqgybpVPCUhNO3IkPbBYcrVS2","3","images/choice_trial_15.png","images/choice_trial_9.png","images/pattern_4.png","f","f","7000","15","9","3","0","22","1","1","15","160","","","","",""
"html-keyboard-response","117","233598","0.0-50.0-1.0","","null","<div style=""display: flex; flex-direction: column; align-items: center; margin-top: -40px;""><img src=""images/pattern_4.png"" style=""width: 234px; height: 230px; margin-top: -50px;""><div style=""display: flex; justify-content: space-between; margin-top: 33px;""><img src=""images/choice_trial_15.png"" style=""width: 408px; height: 417px; margin-right: 608px;""></div></div>","null","delaylearn","learning","display_response","5b2a72f7c293b90001732b89","QKCoqgybpVPCUhNO3IkPbBYcrVS2","","","","","","","","","","","","","","","","","chosen stimuli: images/choice_trial_15.png","","","",""
"html-keyboard-response","118","240602","0.0-50.0-2.0","","null","","null","delaylearn","learning","feedback_duration_window","5b2a72f7c293b90001732b89","QKCoqgybpVPCUhNO3IkPbBYcrVS2","","","","","","","","","","","","","","","","","","7000","","",""
"html-keyboard-response","119","242118","0.0-50.0-3.0","","null","<div style='margin:auto;width: auto; font-size: 150%'><span style='font-weight: bold; font-size: 100px; color: green;'>+10 points!</span><br><br></div>","null","delaylearn","learning","feedback_image_window","5b2a72f7c293b90001732b89","QKCoqgybpVPCUhNO3IkPbBYcrVS2","","","","","","","","","","","","","","","","","","","","",""
"html-keyboard-response","120","242626","0.0-51.0-0.0","","null","","null","","","mood_trial_fixation","","","","","","","","","","","","","","","","","","","","","","",""
"lmdlab-html-vas-response","121","246268","0.0-51.0-1.0","","2636","How happy are you right now?","0.6215277777777778","delaylearn","learning","mood_trial","5b2a72f7c293b90001732b89","QKCoqgybpVPCUhNO3IkPbBYcrVS2","","","","","","","","","","","","","","","","","","","","[""Very unhappy"",""Very happy""]",""
"html-keyboard-response","122","247778","0.0-52.0","","null","<div style=""font-size:100px;"">+</div>","null","delaylearn","learning","ITI","5b2a72f7c293b90001732b89","QKCoqgybpVPCUhNO3IkPbBYcrVS2","","","","","","","","","","","","","","","","","","","1500","",""
"html-keyboard-response","123","248832","0.0-53.0-0.0","","1052.0999999998603","<div style=""display: flex; flex-direction: column; align-items: center; margin-top: -40px;""><img src=""images/pattern_7.png"" style=""width: 234px; height: 230px; margin-top: -50px;""><div style=""display: flex; justify-content: space-between; margin-top: 33px;""><img src=""images/choice_trial_12.png"" style=""width: 408px; height: 417px; margin-right: 200px;""><img src=""images/choice_trial_6.png"" style=""width: 408px; height: 417px;""></div></div>","f","delaylearn","learning","trial","5b2a72f7c293b90001732b89","QKCoqgybpVPCUhNO3IkPbBYcrVS2","3","images/choice_trial_12.png","images/choice_trial_6.png","images/pattern_7.png","j","j","750","12","6","6","1","23","0","0","12","160","","","","",""
"html-keyboard-response","124","249842","0.0-53.0-1.0","","null","<div style=""display: flex; flex-direction: column; align-items: center; margin-top: -40px;""><img src=""images/pattern_7.png"" style=""width: 234px; height: 230px; margin-top: -50px;""><div style=""display: flex; justify-content: space-between; margin-top: 33px;""><img src=""images/choice_trial_12.png"" style=""width: 408px; height: 417px; margin-right: 608px;""></div></div>","null","delaylearn","learning","display_response","5b2a72f7c293b90001732b89","QKCoqgybpVPCUhNO3IkPbBYcrVS2","","","","","","","","","","","","","","","","","chosen stimuli: images/choice_trial_12.png","","","",""
"html-keyboard-response","125","250604","0.0-53.0-2.0","","null","","null","delaylearn","learning","feedback_duration_window","5b2a72f7c293b90001732b89","QKCoqgybpVPCUhNO3IkPbBYcrVS2","","","","","","","","","","","","","","","","","","750","","",""
"html-keyboard-response","126","252115","0.0-53.0-3.0","","null","<div style='margin:auto;width: auto; font-size: 150%'><span style='font-weight: bold; font-size: 100px; color: red;'>0 points!</span><br><br></div>","null","delaylearn","learning","feedback_image_window","5b2a72f7c293b90001732b89","QKCoqgybpVPCUhNO3IkPbBYcrVS2","","","","","","","","","","","","","","","","","","","","",""
"html-keyboard-response","127","254302","0.0-54.0","","null","<div style=""font-size:100px;"">+</div>","null","delaylearn","learning","ITI","5b2a72f7c293b90001732b89","QKCoqgybpVPCUhNO3IkPbBYcrVS2","","","","","","","","","","","","","","","","","","","2175","",""
"html-keyboard-response","128","255024","0.0-55.0-0.0","","720.9000000001397","<div style=""display: flex; flex-direction: column; align-items: center; margin-top: -40px;""><img src=""images/pattern_1.png"" style=""width: 234px; height: 230px; margin-top: -50px;""><div style=""display: flex; justify-content: space-between; margin-top: 33px;""><img src=""images/choice_trial_8.png"" style=""width: 408px; height: 417px; margin-right: 200px;""><img src=""images/choice_trial_14.png"" style=""width: 408px; height: 417px;""></div></div>","j","delaylearn","learning","trial","5b2a72f7c293b90001732b89","QKCoqgybpVPCUhNO3IkPbBYcrVS2","3","images/choice_trial_8.png","images/choice_trial_14.png","images/pattern_1.png","f","j","7000","8","14","1","1","24","1","0","14","160","","","","",""
"html-keyboard-response","129","256034","0.0-55.0-1.0","","null","<div style=""display: flex; flex-direction: column; align-items: center; margin-top: -40px;""><img src=""images/pattern_1.png"" style=""width: 234px; height: 230px; margin-top: -50px;""><div style=""display: flex; justify-content: space-between; margin-top: 33px;""><img src=""images/choice_trial_14.png"" style=""width: 408px; height: 417px; margin-left:608px;""></div></div>","null","delaylearn","learning","display_response","5b2a72f7c293b90001732b89","QKCoqgybpVPCUhNO3IkPbBYcrVS2","","","","","","","","","","","","","","","","","chosen stimuli: images/choice_trial_14.png","","","",""
"html-keyboard-response","130","263049","0.0-55.0-2.0","","null","","null","delaylearn","learning","feedback_duration_window","5b2a72f7c293b90001732b89","QKCoqgybpVPCUhNO3IkPbBYcrVS2","","","","","","","","","","","","","","","","","","7000","","",""
"html-keyboard-response","131","264557","0.0-55.0-3.0","","null","<div style='margin:auto;width: auto; font-size: 150%'><span style='font-weight: bold; font-size: 100px; color: red;'>0 points!</span><br><br></div>","null","delaylearn","learning","feedback_image_window","5b2a72f7c293b90001732b89","QKCoqgybpVPCUhNO3IkPbBYcrVS2","","","","","","","","","","","","","","","","","","","","",""
"html-keyboard-response","132","266799","0.0-56.0","","null","<div style=""font-size:100px;"">+</div>","null","delaylearn","learning","ITI","5b2a72f7c293b90001732b89","QKCoqgybpVPCUhNO3IkPbBYcrVS2","","","","","","","","","","","","","","","","","","","2239","",""
"html-keyboard-response","133","267561","0.0-57.0-0.0","","760.9000000001397","<div style=""display: flex; flex-direction: column; align-items: center; margin-top: -40px;""><img src=""images/pattern_5.png"" style=""width: 234px; height: 230px; margin-top: -50px;""><div style=""display: flex; justify-content: space-between; margin-top: 33px;""><img src=""images/choice_trial_2.png"" style=""width: 408px; height: 417px; margin-right: 200px;""><img src=""images/choice_trial_11.png"" style=""width: 408px; height: 417px;""></div></div>","j","delaylearn","learning","trial","5b2a72f7c293b90001732b89","QKCoqgybpVPCUhNO3IkPbBYcrVS2","3","images/choice_trial_2.png","images/choice_trial_11.png","images/pattern_5.png","j","j","750","2","11","4","1","25","1","1","11","170","","","","",""
"html-keyboard-response","134","268575","0.0-57.0-1.0","","null","<div style=""display: flex; flex-direction: column; align-items: center; margin-top: -40px;""><img src=""images/pattern_5.png"" style=""width: 234px; height: 230px; margin-top: -50px;""><div style=""display: flex; justify-content: space-between; margin-top: 33px;""><img src=""images/choice_trial_11.png"" style=""width: 408px; height: 417px; margin-left:608px;""></div></div>","null","delaylearn","learning","display_response","5b2a72f7c293b90001732b89","QKCoqgybpVPCUhNO3IkPbBYcrVS2","","","","","","","","","","","","","","","","","chosen stimuli: images/choice_trial_11.png","","","",""
"html-keyboard-response","135","269333","0.0-57.0-2.0","","null","","null","delaylearn","learning","feedback_duration_window","5b2a72f7c293b90001732b89","QKCoqgybpVPCUhNO3IkPbBYcrVS2","","","","","","","","","","","","","","","","","","750","","",""
"html-keyboard-response","136","270850","0.0-57.0-3.0","","null","<div style='margin:auto;width: auto; font-size: 150%'><span style='font-weight: bold; font-size: 100px; color: green;'>+10 points!</span><br><br></div>","null","delaylearn","learning","feedback_image_window","5b2a72f7c293b90001732b89","QKCoqgybpVPCUhNO3IkPbBYcrVS2","","","","","","","","","","","","","","","","","","","","",""
"html-keyboard-response","137","272742","0.0-58.0","","null","<div style=""font-size:100px;"">+</div>","null","delaylearn","learning","ITI","5b2a72f7c293b90001732b89","QKCoqgybpVPCUhNO3IkPbBYcrVS2","","","","","","","","","","","","","","","","","","","1881","",""
"html-keyboard-response","138","273943","0.0-59.0-0.0","","1200.5999999998603","<div style=""display: flex; flex-direction: column; align-items: center; margin-top: -40px;""><img src=""images/pattern_3.png"" style=""width: 234px; height: 230px; margin-top: -50px;""><div style=""display: flex; justify-content: space-between; margin-top: 33px;""><img src=""images/choice_trial_10.png"" style=""width: 408px; height: 417px; margin-right: 200px;""><img src=""images/choice_trial_13.png"" style=""width: 408px; height: 417px;""></div></div>","f","delaylearn","learning","trial","5b2a72f7c293b90001732b89","QKCoqgybpVPCUhNO3IkPbBYcrVS2","3","images/choice_trial_10.png","images/choice_trial_13.png","images/pattern_3.png","j","j","7000","10","13","2","1","26","0","0","10","170","","","","",""
"html-keyboard-response","139","274949","0.0-59.0-1.0","","null","<div style=""display: flex; flex-direction: column; align-items: center; margin-top: -40px;""><img src=""images/pattern_3.png"" style=""width: 234px; height: 230px; margin-top: -50px;""><div style=""display: flex; justify-content: space-between; margin-top: 33px;""><img src=""images/choice_trial_10.png"" style=""width: 408px; height: 417px; margin-right: 608px;""></div></div>","null","delaylearn","learning","display_response","5b2a72f7c293b90001732b89","QKCoqgybpVPCUhNO3IkPbBYcrVS2","","","","","","","","","","","","","","","","","chosen stimuli: images/choice_trial_10.png","","","",""
"html-keyboard-response","140","281962","0.0-59.0-2.0","","null","","null","delaylearn","learning","feedback_duration_window","5b2a72f7c293b90001732b89","QKCoqgybpVPCUhNO3IkPbBYcrVS2","","","","","","","","","","","","","","","","","","7000","","",""
"html-keyboard-response","141","283466","0.0-59.0-3.0","","null","<div style='margin:auto;width: auto; font-size: 150%'><span style='font-weight: bold; font-size: 100px; color: red;'>0 points!</span><br><br></div>","null","delaylearn","learning","feedback_image_window","5b2a72f7c293b90001732b89","QKCoqgybpVPCUhNO3IkPbBYcrVS2","","","","","","","","","","","","","","","","","","","","",""
"lmdlab-html-vas-response","142","289275","0.0-60.0-0.0","","4297","*How <b><u>confident</u></b> are you feeling about your answers at this moment?*","0.6631944444444444","rewlearn","rate_confidence","","5b2a72f7c293b90001732b89","QKCoqgybpVPCUhNO3IkPbBYcrVS2","","","","","","","","","","","","","","","","","","","","[""No confidence"",""Complete confidence""]",""
"lmdlab-rest-trial-limit","143","294664","0.0-60.0-1.0","","3874.100000000093","<div style=""font-size:40px;""><b>Please take a break!</b><br><br><br><br><p>Great work: you earned 170 points.<br><br><br><p>You have completed part(s) 1 of 5.<br><br><br><br>When you are ready to continue<br><br><br>please click the button.</p><br><br>","0","delaylearn","learning","break","5b2a72f7c293b90001732b89","QKCoqgybpVPCUhNO3IkPbBYcrVS2","","","","","","","","","","","","","","","","","","","","","0"
"html-keyboard-response","144","297674","0.0-60.0-2.0","","null","<div style=""font-size:100px;"">+</div>","null","delaylearn","learning","pre_fixation","5b2a72f7c293b90001732b89","","","","","","","","","","","","","","","","","","","","","",""
"lmdlab-html-vas-response","145","301140","0.0-60.0-3.0-0.0","","2452","How happy are you right now?","0.6516203703703703","delaylearn","learning","mood_baseline","5b2a72f7c293b90001732b89","QKCoqgybpVPCUhNO3IkPbBYcrVS2","","","","","","","","","","","","","","","","","","","","[""Very unhappy"",""Very happy""]",""
"html-keyboard-response","146","302653","0.0-60.0-3.0-1.0","","null","","null","","","mood_baseline_fixation","","","","","","","","","","","","","","","","","","","","","","",""
"html-keyboard-response","147","304721","0.0-61.0","","null","<div style=""font-size:100px;"">+</div>","null","delaylearn","learning","ITI","5b2a72f7c293b90001732b89","QKCoqgybpVPCUhNO3IkPbBYcrVS2","","","","","","","","","","","","","","","","","","","2058","",""
"html-keyboard-response","148","305679","0.0-62.0-0.0","","956.3999999999069","<div style=""display: flex; flex-direction: column; align-items: center; margin-top: -40px;""><img src=""images/pattern_7.png"" style=""width: 234px; height: 230px; margin-top: -50px;""><div style=""display: flex; justify-content: space-between; margin-top: 33px;""><img src=""images/choice_trial_12.png"" style=""width: 408px; height: 417px; margin-right: 200px;""><img src=""images/choice_trial_6.png"" style=""width: 408px; height: 417px;""></div></div>","f","delaylearn","learning","trial","5b2a72f7c293b90001732b89","QKCoqgybpVPCUhNO3IkPbBYcrVS2","3","images/choice_trial_12.png","images/choice_trial_6.png","images/pattern_7.png","j","j","750","12","6","6","1","27","0","0","12","170","","","","",""
"html-keyboard-response","149","306693","0.0-62.0-1.0","","null","<div style=""display: flex; flex-direction: column; align-items: center; margin-top: -40px;""><img src=""images/pattern_7.png"" style=""width: 234px; height: 230px; margin-top: -50px;""><div style=""display: flex; justify-content: space-between; margin-top: 33px;""><img src=""images/choice_trial_12.png"" style=""width: 408px; height: 417px; margin-right: 608px;""></div></div>","null","delaylearn","learning","display_response","5b2a72f7c293b90001732b89","QKCoqgybpVPCUhNO3IkPbBYcrVS2","","","","","","","","","","","","","","","","","chosen stimuli: images/choice_trial_12.png","","","",""
"html-keyboard-response","150","307455","0.0-62.0-2.0","","null","","null","delaylearn","learning","feedback_duration_window","5b2a72f7c293b90001732b89","QKCoqgybpVPCUhNO3IkPbBYcrVS2","","","","","","","","","","","","","","","","","","750","","",""
"html-keyboard-response","151","308961","0.0-62.0-3.0","","null","<div style='margin:auto;width: auto; font-size: 150%'><span style='font-weight: bold; font-size: 100px; color: red;'>0 points!</span><br><br></div>","null","delaylearn","learning","feedback_image_window","5b2a72f7c293b90001732b89","QKCoqgybpVPCUhNO3IkPbBYcrVS2","","","","","","","","","","","","","","","","","","","","",""
"html-keyboard-response","152","309467","0.0-63.0-0.0","","null","","null","","","mood_trial_fixation","","","","","","","","","","","","","","","","","","","","","","",""
"lmdlab-html-vas-response","153","312522","0.0-63.0-1.0","","2050","How happy are you right now?","0.6168981481481481","delaylearn","learning","mood_trial","5b2a72f7c293b90001732b89","QKCoqgybpVPCUhNO3IkPbBYcrVS2","","","","","","","","","","","","","","","","","","","","[""Very unhappy"",""Very happy""]",""
"html-keyboard-response","154","314970","0.0-64.0","","null","<div style=""font-size:100px;"">+</div>","null","delaylearn","learning","ITI","5b2a72f7c293b90001732b89","QKCoqgybpVPCUhNO3IkPbBYcrVS2","","","","","","","","","","","","","","","","","","","2438","",""
"html-keyboard-response","155","315663","0.0-65.0-0.0","","692.2000000001863","<div style=""display: flex; flex-direction: column; align-items: center; margin-top: -40px;""><img src=""images/pattern_1.png"" style=""width: 234px; height: 230px; margin-top: -50px;""><div style=""display: flex; justify-content: space-between; margin-top: 33px;""><img src=""images/choice_trial_14.png"" style=""width: 408px; height: 417px; margin-right: 200px;""><img src=""images/choice_trial_8.png"" style=""width: 408px; height: 417px;""></div></div>","f","delaylearn","learning","trial","5b2a72f7c293b90001732b89","QKCoqgybpVPCUhNO3IkPbBYcrVS2","3","images/choice_trial_14.png","images/choice_trial_8.png","images/pattern_1.png","f","f","7000","14","8","1","0","28","1","1","14","180","","","","",""
"html-keyboard-response","156","316665","0.0-65.0-1.0","","null","<div style=""display: flex; flex-direction: column; align-items: center; margin-top: -40px;""><img src=""images/pattern_1.png"" style=""width: 234px; height: 230px; margin-top: -50px;""><div style=""display: flex; justify-content: space-between; margin-top: 33px;""><img src=""images/choice_trial_14.png"" style=""width: 408px; height: 417px; margin-right: 608px;""></div></div>","null","delaylearn","learning","display_response","5b2a72f7c293b90001732b89","QKCoqgybpVPCUhNO3IkPbBYcrVS2","","","","","","","","","","","","","","","","","chosen stimuli: images/choice_trial_14.png","","","",""
"html-keyboard-response","157","323669","0.0-65.0-2.0","","null","","null","delaylearn","learning","feedback_duration_window","5b2a72f7c293b90001732b89","QKCoqgybpVPCUhNO3IkPbBYcrVS2","","","","","","","","","","","","","","","","","","7000","","",""
"html-keyboard-response","158","325182","0.0-65.0-3.0","","null","<div style='margin:auto;width: auto; font-size: 150%'><span style='font-weight: bold; font-size: 100px; color: green;'>+10 points!</span><br><br></div>","null","delaylearn","learning","feedback_image_window","5b2a72f7c293b90001732b89","QKCoqgybpVPCUhNO3IkPbBYcrVS2","","","","","","","","","","","","","","","","","","","","",""
"html-keyboard-response","159","326880","0.0-66.0","","null","<div style=""font-size:100px;"">+</div>","null","delaylearn","learning","ITI","5b2a72f7c293b90001732b89","QKCoqgybpVPCUhNO3IkPbBYcrVS2","","","","","","","","","","","","","","","","","","","1689","",""
"html-keyboard-response","160","327432","0.0-67.0-0.0","","550.4000000001397","<div style=""display: flex; flex-direction: column; align-items: center; margin-top: -40px;""><img src=""images/pattern_5.png"" style=""width: 234px; height: 230px; margin-top: -50px;""><div style=""display: flex; justify-content: space-between; margin-top: 33px;""><img src=""images/choice_trial_11.png"" style=""width: 408px; height: 417px; margin-right: 200px;""><img src=""images/choice_trial_2.png"" style=""width: 408px; height: 417px;""></div></div>","f","delaylearn","learning","trial","5b2a72f7c293b90001732b89","QKCoqgybpVPCUhNO3IkPbBYcrVS2","3","images/choice_trial_11.png","images/choice_trial_2.png","images/pattern_5.png","f","f","750","11","2","4","0","29","1","1","11","190","","","","",""
"html-keyboard-response","161","328442","0.0-67.0-1.0","","null","<div style=""display: flex; flex-direction: column; align-items: center; margin-top: -40px;""><img src=""images/pattern_5.png"" style=""width: 234px; height: 230px; margin-top: -50px;""><div style=""display: flex; justify-content: space-between; margin-top: 33px;""><img src=""images/choice_trial_11.png"" style=""width: 408px; height: 417px; margin-right: 608px;""></div></div>","null","delaylearn","learning","display_response","5b2a72f7c293b90001732b89","QKCoqgybpVPCUhNO3IkPbBYcrVS2","","","","","","","","","","","","","","","","","chosen stimuli: images/choice_trial_11.png","","","",""
"html-keyboard-response","162","329207","0.0-67.0-2.0","","null","","null","delaylearn","learning","feedback_duration_window","5b2a72f7c293b90001732b89","QKCoqgybpVPCUhNO3IkPbBYcrVS2","","","","","","","","","","","","","","","","","","750","","",""
"html-keyboard-response","163","330714","0.0-67.0-3.0","","null","<div style='margin:auto;width: auto; font-size: 150%'><span style='font-weight: bold; font-size: 100px; color: green;'>+10 points!</span><br><br></div>","null","delaylearn","learning","feedback_image_window","5b2a72f7c293b90001732b89","QKCoqgybpVPCUhNO3IkPbBYcrVS2","","","","","","","","","","","","","","","","","","","","",""
"html-keyboard-response","164","332318","0.0-68.0","","null","<div style=""font-size:100px;"">+</div>","null","delaylearn","learning","ITI","5b2a72f7c293b90001732b89","QKCoqgybpVPCUhNO3IkPbBYcrVS2","","","","","","","","","","","","","","","","","","","1602","",""
"html-keyboard-response","165","333103","0.0-69.0-0.0","","783.6999999999534","<div style=""display: flex; flex-direction: column; align-items: center; margin-top: -40px;""><img src=""images/pattern_6.png"" style=""width: 234px; height: 230px; margin-top: -50px;""><div style=""display: flex; justify-content: space-between; margin-top: 33px;""><img src=""images/choice_trial_3.png"" style=""width: 408px; height: 417px; margin-right: 200px;""><img src=""images/choice_trial_16.png"" style=""width: 408px; height: 417px;""></div></div>","j","delaylearn","learning","trial","5b2a72f7c293b90001732b89","QKCoqgybpVPCUhNO3IkPbBYcrVS2","3","images/choice_trial_3.png","images/choice_trial_16.png","images/pattern_6.png","j","j","750","3","16","5","1","30","1","1","16","200","","","","",""
"html-keyboard-response","166","334120","0.0-69.0-1.0","","null","<div style=""display: flex; flex-direction: column; align-items: center; margin-top: -40px;""><img src=""images/pattern_6.png"" style=""width: 234px; height: 230px; margin-top: -50px;""><div style=""display: flex; justify-content: space-between; margin-top: 33px;""><img src=""images/choice_trial_16.png"" style=""width: 408px; height: 417px; margin-left:608px;""></div></div>","null","delaylearn","learning","display_response","5b2a72f7c293b90001732b89","QKCoqgybpVPCUhNO3IkPbBYcrVS2","","","","","","","","","","","","","","","","","chosen stimuli: images/choice_trial_16.png","","","",""
"html-keyboard-response","167","334883","0.0-69.0-2.0","","null","","null","delaylearn","learning","feedback_duration_window","5b2a72f7c293b90001732b89","QKCoqgybpVPCUhNO3IkPbBYcrVS2","","","","","","","","","","","","","","","","","","750","","",""
"html-keyboard-response","168","336385","0.0-69.0-3.0","","null","<div style='margin:auto;width: auto; font-size: 150%'><span style='font-weight: bold; font-size: 100px; color: green;'>+10 points!</span><br><br></div>","null","delaylearn","learning","feedback_image_window","5b2a72f7c293b90001732b89","QKCoqgybpVPCUhNO3IkPbBYcrVS2","","","","","","","","","","","","","","","","","","","","",""
"html-keyboard-response","169","336895","0.0-70.0-0.0","","null","","null","","","mood_trial_fixation","","","","","","","","","","","","","","","","","","","","","","",""
"lmdlab-html-vas-response","170","341039","0.0-70.0-1.0","","3127","How happy are you right now?","0.6724537037037037","delaylearn","learning","mood_trial","5b2a72f7c293b90001732b89","QKCoqgybpVPCUhNO3IkPbBYcrVS2","","","","","","","","","","","","","","","","","","","","[""Very unhappy"",""Very happy""]",""
"html-keyboard-response","171","342958","0.0-71.0","","null","<div style=""font-size:100px;"">+</div>","null","delaylearn","learning","ITI","5b2a72f7c293b90001732b89","QKCoqgybpVPCUhNO3IkPbBYcrVS2","","","","","","","","","","","","","","","","","","","1912","",""
"html-keyboard-response","172","343518","0.0-72.0-0.0","","559.1000000000931","<div style=""display: flex; flex-direction: column; align-items: center; margin-top: -40px;""><img src=""images/pattern_4.png"" style=""width: 234px; height: 230px; margin-top: -50px;""><div style=""display: flex; justify-content: space-between; margin-top: 33px;""><img src=""images/choice_trial_9.png"" style=""width: 408px; height: 417px; margin-right: 200px;""><img src=""images/choice_trial_15.png"" style=""width: 408px; height: 417px;""></div></div>","j","delaylearn","learning","trial","5b2a72f7c293b90001732b89","QKCoqgybpVPCUhNO3IkPbBYcrVS2","3","images/choice_trial_9.png","images/choice_trial_15.png","images/pattern_4.png","j","j","7000","9","15","3","1","31","1","1","15","210","","","","",""
"html-keyboard-response","173","344530","0.0-72.0-1.0","","null","<div style=""display: flex; flex-direction: column; align-items: center; margin-top: -40px;""><img src=""images/pattern_4.png"" style=""width: 234px; height: 230px; margin-top: -50px;""><div style=""display: flex; justify-content: space-between; margin-top: 33px;""><img src=""images/choice_trial_15.png"" style=""width: 408px; height: 417px; margin-left:608px;""></div></div>","null","delaylearn","learning","display_response","5b2a72f7c293b90001732b89","QKCoqgybpVPCUhNO3IkPbBYcrVS2","","","","","","","","","","","","","","","","","chosen stimuli: images/choice_trial_15.png","","","",""
"html-keyboard-response","174","351546","0.0-72.0-2.0","","null","","null","delaylearn","learning","feedback_duration_window","5b2a72f7c293b90001732b89","QKCoqgybpVPCUhNO3IkPbBYcrVS2","","","","","","","","","","","","","","","","","","7000","","",""
"html-keyboard-response","175","353062","0.0-72.0-3.0","","null","<div style='margin:auto;width: auto; font-size: 150%'><span style='font-weight: bold; font-size: 100px; color: green;'>+10 points!</span><br><br></div>","null","delaylearn","learning","feedback_image_window","5b2a72f7c293b90001732b89","QKCoqgybpVPCUhNO3IkPbBYcrVS2","","","","","","","","","","","","","","","","","","","","",""
"html-keyboard-response","176","354909","0.0-73.0","","null","<div style=""font-size:100px;"">+</div>","null","delaylearn","learning","ITI","5b2a72f7c293b90001732b89","QKCoqgybpVPCUhNO3IkPbBYcrVS2","","","","","","","","","","","","","","","","","","","1837","",""
"html-keyboard-response","177","355992","0.0-74.0-0.0","","1082","<div style=""display: flex; flex-direction: column; align-items: center; margin-top: -40px;""><img src=""images/pattern_3.png"" style=""width: 234px; height: 230px; margin-top: -50px;""><div style=""display: flex; justify-content: space-between; margin-top: 33px;""><img src=""images/choice_trial_10.png"" style=""width: 408px; height: 417px; margin-right: 200px;""><img src=""images/choice_trial_13.png"" style=""width: 408px; height: 417px;""></div></div>","j","delaylearn","learning","trial","5b2a72f7c293b90001732b89","QKCoqgybpVPCUhNO3IkPbBYcrVS2","3","images/choice_trial_10.png","images/choice_trial_13.png","images/pattern_3.png","j","j","7000","10","13","2","1","32","1","1","13","220","","","","",""
"html-keyboard-response","178","356996","0.0-74.0-1.0","","null","<div style=""display: flex; flex-direction: column; align-items: center; margin-top: -40px;""><img src=""images/pattern_3.png"" style=""width: 234px; height: 230px; margin-top: -50px;""><div style=""display: flex; justify-content: space-between; margin-top: 33px;""><img src=""images/choice_trial_13.png"" style=""width: 408px; height: 417px; margin-left:608px;""></div></div>","null","delaylearn","learning","display_response","5b2a72f7c293b90001732b89","QKCoqgybpVPCUhNO3IkPbBYcrVS2","","","","","","","","","","","","","","","","","chosen stimuli: images/choice_trial_13.png","","","",""
"html-keyboard-response","179","364007","0.0-74.0-2.0","","null","","null","delaylearn","learning","feedback_duration_window","5b2a72f7c293b90001732b89","QKCoqgybpVPCUhNO3IkPbBYcrVS2","","","","","","","","","","","","","","","","","","7000","","",""
"html-keyboard-response","180","365519","0.0-74.0-3.0","","null","<div style='margin:auto;width: auto; font-size: 150%'><span style='font-weight: bold; font-size: 100px; color: green;'>+10 points!</span><br><br></div>","null","delaylearn","learning","feedback_image_window","5b2a72f7c293b90001732b89","QKCoqgybpVPCUhNO3IkPbBYcrVS2","","","","","","","","","","","","","","","","","","","","",""
"html-keyboard-response","181","367507","0.0-75.0","","null","<div style=""font-size:100px;"">+</div>","null","delaylearn","learning","ITI","5b2a72f7c293b90001732b89","QKCoqgybpVPCUhNO3IkPbBYcrVS2","","","","","","","","","","","","","","","","","","","1984","",""
"html-keyboard-response","182","368312","0.0-76.0-0.0","","803.2999999998137","<div style=""display: flex; flex-direction: column; align-items: center; margin-top: -40px;""><img src=""images/pattern_5.png"" style=""width: 234px; height: 230px; margin-top: -50px;""><div style=""display: flex; justify-content: space-between; margin-top: 33px;""><img src=""images/choice_trial_11.png"" style=""width: 408px; height: 417px; margin-right: 200px;""><img src=""images/choice_trial_2.png"" style=""width: 408px; height: 417px;""></div></div>","f","delaylearn","learning","trial","5b2a72f7c293b90001732b89","QKCoqgybpVPCUhNO3IkPbBYcrVS2","3","images/choice_trial_11.png","images/choice_trial_2.png","images/pattern_5.png","j","f","750","11","2","4","0","33","1","0","11","220","","","","",""
"html-keyboard-response","183","369314","0.0-76.0-1.0","","null","<div style=""display: flex; flex-direction: column; align-items: center; margin-top: -40px;""><img src=""images/pattern_5.png"" style=""width: 234px; height: 230px; margin-top: -50px;""><div style=""display: flex; justify-content: space-between; margin-top: 33px;""><img src=""images/choice_trial_11.png"" style=""width: 408px; height: 417px; margin-right: 608px;""></div></div>","null","delaylearn","learning","display_response","5b2a72f7c293b90001732b89","QKCoqgybpVPCUhNO3IkPbBYcrVS2","","","","","","","","","","","","","","","","","chosen stimuli: images/choice_trial_11.png","","","",""
"html-keyboard-response","184","370071","0.0-76.0-2.0","","null","","null","delaylearn","learning","feedback_duration_window","5b2a72f7c293b90001732b89","QKCoqgybpVPCUhNO3IkPbBYcrVS2","","","","","","","","","","","","","","","","","","750","","",""
"html-keyboard-response","185","371582","0.0-76.0-3.0","","null","<div style='margin:auto;width: auto; font-size: 150%'><span style='font-weight: bold; font-size: 100px; color: red;'>0 points!</span><br><br></div>","null","delaylearn","learning","feedback_image_window","5b2a72f7c293b90001732b89","QKCoqgybpVPCUhNO3IkPbBYcrVS2","","","","","","","","","","","","","","","","","","","","",""
"html-keyboard-response","186","373800","0.0-77.0","","null","<div style=""font-size:100px;"">+</div>","null","delaylearn","learning","ITI","5b2a72f7c293b90001732b89","QKCoqgybpVPCUhNO3IkPbBYcrVS2","","","","","","","","","","","","","","","","","","","2203","",""
"html-keyboard-response","187","374654","0.0-78.0-0.0","","853.1999999999534","<div style=""display: flex; flex-direction: column; align-items: center; margin-top: -40px;""><img src=""images/pattern_1.png"" style=""width: 234px; height: 230px; margin-top: -50px;""><div style=""display: flex; justify-content: space-between; margin-top: 33px;""><img src=""images/choice_trial_14.png"" style=""width: 408px; height: 417px; margin-right: 200px;""><img src=""images/choice_trial_8.png"" style=""width: 408px; height: 417px;""></div></div>","f","delaylearn","learning","trial","5b2a72f7c293b90001732b89","QKCoqgybpVPCUhNO3IkPbBYcrVS2","3","images/choice_trial_14.png","images/choice_trial_8.png","images/pattern_1.png","f","f","7000","14","8","1","0","34","1","1","14","230","","","","",""
"html-keyboard-response","188","375664","0.0-78.0-1.0","","null","<div style=""display: flex; flex-direction: column; align-items: center; margin-top: -40px;""><img src=""images/pattern_1.png"" style=""width: 234px; height: 230px; margin-top: -50px;""><div style=""display: flex; justify-content: space-between; margin-top: 33px;""><img src=""images/choice_trial_14.png"" style=""width: 408px; height: 417px; margin-right: 608px;""></div></div>","null","delaylearn","learning","display_response","5b2a72f7c293b90001732b89","QKCoqgybpVPCUhNO3IkPbBYcrVS2","","","","","","","","","","","","","","","","","chosen stimuli: images/choice_trial_14.png","","","",""
"html-keyboard-response","189","382673","0.0-78.0-2.0","","null","","null","delaylearn","learning","feedback_duration_window","5b2a72f7c293b90001732b89","QKCoqgybpVPCUhNO3IkPbBYcrVS2","","","","","","","","","","","","","","","","","","7000","","",""
"html-keyboard-response","190","384188","0.0-78.0-3.0","","null","<div style='margin:auto;width: auto; font-size: 150%'><span style='font-weight: bold; font-size: 100px; color: green;'>+10 points!</span><br><br></div>","null","delaylearn","learning","feedback_image_window","5b2a72f7c293b90001732b89","QKCoqgybpVPCUhNO3IkPbBYcrVS2","","","","","","","","","","","","","","","","","","","","",""
"html-keyboard-response","191","384696","0.0-79.0-0.0","","null","","null","","","mood_trial_fixation","","","","","","","","","","","","","","","","","","","","","","",""
"lmdlab-html-vas-response","192","388319","0.0-79.0-1.0","","2609","How happy are you right now?","0.7071759259259259","delaylearn","learning","mood_trial","5b2a72f7c293b90001732b89","QKCoqgybpVPCUhNO3IkPbBYcrVS2","","","","","","","","","","","","","","","","","","","","[""Very unhappy"",""Very happy""]",""
"html-keyboard-response","193","390210","0.0-80.0","","null","<div style=""font-size:100px;"">+</div>","null","delaylearn","learning","ITI","5b2a72f7c293b90001732b89","QKCoqgybpVPCUhNO3IkPbBYcrVS2","","","","","","","","","","","","","","","","","","","1877","",""
"html-keyboard-response","194","391086","0.0-81.0-0.0","","874.4000000001397","<div style=""display: flex; flex-direction: column; align-items: center; margin-top: -40px;""><img src=""images/pattern_6.png"" style=""width: 234px; height: 230px; margin-top: -50px;""><div style=""display: flex; justify-content: space-between; margin-top: 33px;""><img src=""images/choice_trial_16.png"" style=""width: 408px; height: 417px; margin-right: 200px;""><img src=""images/choice_trial_3.png"" style=""width: 408px; height: 417px;""></div></div>","f","delaylearn","learning","trial","5b2a72f7c293b90001732b89","QKCoqgybpVPCUhNO3IkPbBYcrVS2","3","images/choice_trial_16.png","images/choice_trial_3.png","images/pattern_6.png","j","f","750","16","3","5","0","35","1","0","16","230","","","","",""
"html-keyboard-response","195","392096","0.0-81.0-1.0","","null","<div style=""display: flex; flex-direction: column; align-items: center; margin-top: -40px;""><img src=""images/pattern_6.png"" style=""width: 234px; height: 230px; margin-top: -50px;""><div style=""display: flex; justify-content: space-between; margin-top: 33px;""><img src=""images/choice_trial_16.png"" style=""width: 408px; height: 417px; margin-right: 608px;""></div></div>","null","delaylearn","learning","display_response","5b2a72f7c293b90001732b89","QKCoqgybpVPCUhNO3IkPbBYcrVS2","","","","","","","","","","","","","","","","","chosen stimuli: images/choice_trial_16.png","","","",""
"html-keyboard-response","196","392853","0.0-81.0-2.0","","null","","null","delaylearn","learning","feedback_duration_window","5b2a72f7c293b90001732b89","QKCoqgybpVPCUhNO3IkPbBYcrVS2","","","","","","","","","","","","","","","","","","750","","",""
"html-keyboard-response","197","394355","0.0-81.0-3.0","","null","<div style='margin:auto;width: auto; font-size: 150%'><span style='font-weight: bold; font-size: 100px; color: red;'>0 points!</span><br><br></div>","null","delaylearn","learning","feedback_image_window","5b2a72f7c293b90001732b89","QKCoqgybpVPCUhNO3IkPbBYcrVS2","","","","","","","","","","","","","","","","","","","","",""
"html-keyboard-response","198","396496","0.0-82.0","","null","<div style=""font-size:100px;"">+</div>","null","delaylearn","learning","ITI","5b2a72f7c293b90001732b89","QKCoqgybpVPCUhNO3IkPbBYcrVS2","","","","","","","","","","","","","","","","","","","2129","",""
"html-keyboard-response","199","397679","0.0-83.0-0.0","","1181.5","<div style=""display: flex; flex-direction: column; align-items: center; margin-top: -40px;""><img src=""images/pattern_3.png"" style=""width: 234px; height: 230px; margin-top: -50px;""><div style=""display: flex; justify-content: space-between; margin-top: 33px;""><img src=""images/choice_trial_10.png"" style=""width: 408px; height: 417px; margin-right: 200px;""><img src=""images/choice_trial_13.png"" style=""width: 408px; height: 417px;""></div></div>","j","delaylearn","learning","trial","5b2a72f7c293b90001732b89","QKCoqgybpVPCUhNO3IkPbBYcrVS2","3","images/choice_trial_10.png","images/choice_trial_13.png","images/pattern_3.png","j","j","7000","10","13","2","1","36","1","1","13","240","","","","",""
"html-keyboard-response","200","398684","0.0-83.0-1.0","","null","<div style=""display: flex; flex-direction: column; align-items: center; margin-top: -40px;""><img src=""images/pattern_3.png"" style=""width: 234px; height: 230px; margin-top: -50px;""><div style=""display: flex; justify-content: space-between; margin-top: 33px;""><img src=""images/choice_trial_13.png"" style=""width: 408px; height: 417px; margin-left:608px;""></div></div>","null","delaylearn","learning","display_response","5b2a72f7c293b90001732b89","QKCoqgybpVPCUhNO3IkPbBYcrVS2","","","","","","","","","","","","","","","","","chosen stimuli: images/choice_trial_13.png","","","",""
"html-keyboard-response","201","405691","0.0-83.0-2.0","","null","","null","delaylearn","learning","feedback_duration_window","5b2a72f7c293b90001732b89","QKCoqgybpVPCUhNO3IkPbBYcrVS2","","","","","","","","","","","","","","","","","","7000","","",""
"html-keyboard-response","202","407200","0.0-83.0-3.0","","null","<div style='margin:auto;width: auto; font-size: 150%'><span style='font-weight: bold; font-size: 100px; color: green;'>+10 points!</span><br><br></div>","null","delaylearn","learning","feedback_image_window","5b2a72f7c293b90001732b89","QKCoqgybpVPCUhNO3IkPbBYcrVS2","","","","","","","","","","","","","","","","","","","","",""
"html-keyboard-response","203","409671","0.0-84.0","","null","<div style=""font-size:100px;"">+</div>","null","delaylearn","learning","ITI","5b2a72f7c293b90001732b89","QKCoqgybpVPCUhNO3IkPbBYcrVS2","","","","","","","","","","","","","","","","","","","2459","",""
"html-keyboard-response","204","410423","0.0-85.0-0.0","","750.3000000000466","<div style=""display: flex; flex-direction: column; align-items: center; margin-top: -40px;""><img src=""images/pattern_4.png"" style=""width: 234px; height: 230px; margin-top: -50px;""><div style=""display: flex; justify-content: space-between; margin-top: 33px;""><img src=""images/choice_trial_9.png"" style=""width: 408px; height: 417px; margin-right: 200px;""><img src=""images/choice_trial_15.png"" style=""width: 408px; height: 417px;""></div></div>","j","delaylearn","learning","trial","5b2a72f7c293b90001732b89","QKCoqgybpVPCUhNO3IkPbBYcrVS2","3","images/choice_trial_9.png","images/choice_trial_15.png","images/pattern_4.png","f","j","7000","9","15","3","1","37","1","0","15","240","","","","",""
"html-keyboard-response","205","411428","0.0-85.0-1.0","","null","<div style=""display: flex; flex-direction: column; align-items: center; margin-top: -40px;""><img src=""images/pattern_4.png"" style=""width: 234px; height: 230px; margin-top: -50px;""><div style=""display: flex; justify-content: space-between; margin-top: 33px;""><img src=""images/choice_trial_15.png"" style=""width: 408px; height: 417px; margin-left:608px;""></div></div>","null","delaylearn","learning","display_response","5b2a72f7c293b90001732b89","QKCoqgybpVPCUhNO3IkPbBYcrVS2","","","","","","","","","","","","","","","","","chosen stimuli: images/choice_trial_15.png","","","",""
"html-keyboard-response","206","418434","0.0-85.0-2.0","","null","","null","delaylearn","learning","feedback_duration_window","5b2a72f7c293b90001732b89","QKCoqgybpVPCUhNO3IkPbBYcrVS2","","","","","","","","","","","","","","","","","","7000","","",""
"html-keyboard-response","207","419944","0.0-85.0-3.0","","null","<div style='margin:auto;width: auto; font-size: 150%'><span style='font-weight: bold; font-size: 100px; color: red;'>0 points!</span><br><br></div>","null","delaylearn","learning","feedback_image_window","5b2a72f7c293b90001732b89","QKCoqgybpVPCUhNO3IkPbBYcrVS2","","","","","","","","","","","","","","","","","","","","",""
"html-keyboard-response","208","422033","0.0-86.0","","null","<div style=""font-size:100px;"">+</div>","null","delaylearn","learning","ITI","5b2a72f7c293b90001732b89","QKCoqgybpVPCUhNO3IkPbBYcrVS2","","","","","","","","","","","","","","","","","","","2077","",""
"html-keyboard-response","209","423287","0.0-87.0-0.0","","1252.5","<div style=""display: flex; flex-direction: column; align-items: center; margin-top: -40px;""><img src=""images/pattern_7.png"" style=""width: 234px; height: 230px; margin-top: -50px;""><div style=""display: flex; justify-content: space-between; margin-top: 33px;""><img src=""images/choice_trial_6.png"" style=""width: 408px; height: 417px; margin-right: 200px;""><img src=""images/choice_trial_12.png"" style=""width: 408px; height: 417px;""></div></div>","j","delaylearn","learning","trial","5b2a72f7c293b90001732b89","QKCoqgybpVPCUhNO3IkPbBYcrVS2","3","images/choice_trial_6.png","images/choice_trial_12.png","images/pattern_7.png","f","f","750","6","12","6","0","38","0","0","12","240","","","","",""
"html-keyboard-response","210","424301","0.0-87.0-1.0","","null","<div style=""display: flex; flex-direction: column; align-items: center; margin-top: -40px;""><img src=""images/pattern_7.png"" style=""width: 234px; height: 230px; margin-top: -50px;""><div style=""display: flex; justify-content: space-between; margin-top: 33px;""><img src=""images/choice_trial_12.png"" style=""width: 408px; height: 417px; margin-left:608px;""></div></div>","null","delaylearn","learning","display_response","5b2a72f7c293b90001732b89","QKCoqgybpVPCUhNO3IkPbBYcrVS2","","","","","","","","","","","","","","","","","chosen stimuli: images/choice_trial_12.png","","","",""
"html-keyboard-response","211","425054","0.0-87.0-2.0","","null","","null","delaylearn","learning","feedback_duration_window","5b2a72f7c293b90001732b89","QKCoqgybpVPCUhNO3IkPbBYcrVS2","","","","","","","","","","","","","","","","","","750","","",""
"html-keyboard-response","212","426567","0.0-87.0-3.0","","null","<div style='margin:auto;width: auto; font-size: 150%'><span style='font-weight: bold; font-size: 100px; color: red;'>0 points!</span><br><br></div>","null","delaylearn","learning","feedback_image_window","5b2a72f7c293b90001732b89","QKCoqgybpVPCUhNO3IkPbBYcrVS2","","","","","","","","","","","","","","","","","","","","",""
"html-keyboard-response","213","428647","0.0-88.0","","null","<div style=""font-size:100px;"">+</div>","null","delaylearn","learning","ITI","5b2a72f7c293b90001732b89","QKCoqgybpVPCUhNO3IkPbBYcrVS2","","","","","","","","","","","","","","","","","","","2068","",""
"html-keyboard-response","214","429814","0.0-89.0-0.0","","1164.5","<div style=""display: flex; flex-direction: column; align-items: center; margin-top: -40px;""><img src=""images/pattern_1.png"" style=""width: 234px; height: 230px; margin-top: -50px;""><div style=""display: flex; justify-content: space-between; margin-top: 33px;""><img src=""images/choice_trial_14.png"" style=""width: 408px; height: 417px; margin-right: 200px;""><img src=""images/choice_trial_8.png"" style=""width: 408px; height: 417px;""></div></div>","f","delaylearn","learning","trial","5b2a72f7c293b90001732b89","QKCoqgybpVPCUhNO3IkPbBYcrVS2","3","images/choice_trial_14.png","images/choice_trial_8.png","images/pattern_1.png","f","f","7000","14","8","1","0","39","1","1","14","250","","","","",""
"html-keyboard-response","215","430816","0.0-89.0-1.0","","null","<div style=""display: flex; flex-direction: column; align-items: center; margin-top: -40px;""><img src=""images/pattern_1.png"" style=""width: 234px; height: 230px; margin-top: -50px;""><div style=""display: flex; justify-content: space-between; margin-top: 33px;""><img src=""images/choice_trial_14.png"" style=""width: 408px; height: 417px; margin-right: 608px;""></div></div>","null","delaylearn","learning","display_response","5b2a72f7c293b90001732b89","QKCoqgybpVPCUhNO3IkPbBYcrVS2","","","","","","","","","","","","","","","","","chosen stimuli: images/choice_trial_14.png","","","",""
"html-keyboard-response","216","437823","0.0-89.0-2.0","","null","","null","delaylearn","learning","feedback_duration_window","5b2a72f7c293b90001732b89","QKCoqgybpVPCUhNO3IkPbBYcrVS2","","","","","","","","","","","","","","","","","","7000","","",""
"html-keyboard-response","217","439333","0.0-89.0-3.0","","null","<div style='margin:auto;width: auto; font-size: 150%'><span style='font-weight: bold; font-size: 100px; color: green;'>+10 points!</span><br><br></div>","null","delaylearn","learning","feedback_image_window","5b2a72f7c293b90001732b89","QKCoqgybpVPCUhNO3IkPbBYcrVS2","","","","","","","","","","","","","","","","","","","","",""
"html-keyboard-response","218","439838","0.0-90.0-0.0","","null","","null","","","mood_trial_fixation","","","","","","","","","","","","","","","","","","","","","","",""
"lmdlab-html-vas-response","219","442811","0.0-90.0-1.0","","1957","How happy are you right now?","0.6377314814814815","delaylearn","learning","mood_trial","5b2a72f7c293b90001732b89","QKCoqgybpVPCUhNO3IkPbBYcrVS2","","","","","","","","","","","","","","","","","","","","[""Very unhappy"",""Very happy""]",""
"html-keyboard-response","220","444694","0.0-91.0","","null","<div style=""font-size:100px;"">+</div>","null","delaylearn","learning","ITI","5b2a72f7c293b90001732b89","QKCoqgybpVPCUhNO3IkPbBYcrVS2","","","","","","","","","","","","","","","","","","","1871","",""
