"trial_type","trial_index","time_elapsed","internal_node_id","participant","rt","stimulus","response","exp_name","exp_stage","test_part","subjectID","databaseID","counterbal","choice_stimuli_1","choice_stimuli_2","pattern_stimuli","rewarded_answer","correct_answer","feedback_duration_times","stim_left","stim_right","pair","leftright_counter","trial","response_correct","response_rewarded","chosen_stim","counter","displayed_choice","feedback_durations","ITI_duration","labels","rest_warning"
"pavlovia","0","706","0.0-0.0","","","","","","","","","","","","","","","","","","","","","","","","","","","","","",""
"html-keyboard-response","1","3715","0.0-1.0","","null","<div style=""font-size:100px;"">+</div>","null","delaylearn","learning","pre_fixation","5c4d8d706b23ab0001a34af2","","","","","","","","","","","","","","","","","","","","","",""
"html-keyboard-response","2","4653","0.0-2.0-0.0","","931.0999999046326","<div style=""display: flex; flex-direction: column; align-items: center; margin-top: -40px;""><img src=""images/demo_images/pattern_1.png"" style=""width: 234px; height: 230px; margin-top: -50px;""><div style=""display: flex; justify-content: space-between; margin-top: 33px;""><img src=""images/demo_images/choice_trial_2.png"" style=""width: 408px; height: 417px; margin-right: 200px;""><img src=""images/demo_images/choice_trial_1.png"" style=""width: 408px; height: 417px;""></div></div>","f","delaylearn","learning","trial","5c4d8d706b23ab0001a34af2","gh3zrOYqFHNPpCujDw5iAagyjio2","1","images/demo_images/choice_trial_2.png","images/demo_images/choice_trial_1.png","images/demo_images/pattern_1.png","j","j","3000","2","1","20","1","1","0","0","2","0","","","","",""
"html-keyboard-response","3","5671","0.0-2.0-1.0","","null","<div style=""display: flex; flex-direction: column; align-items: center; margin-top: -40px;""><img src=""images/demo_images/pattern_1.png"" style=""width: 234px; height: 230px; margin-top: -50px;""><div style=""display: flex; justify-content: space-between; margin-top: 33px;""><img src=""images/demo_images/choice_trial_2.png"" style=""width: 408px; height: 417px; margin-right: 608px;""></div></div>","null","delaylearn","learning","display_response","5c4d8d706b23ab0001a34af2","gh3zrOYqFHNPpCujDw5iAagyjio2","","","","","","","","","","","","","","","","","chosen stimuli: images/demo_images/choice_trial_2.png","","","",""
"html-keyboard-response","4","8678","0.0-2.0-2.0","","null","","null","delaylearn","learning","feedback_duration_window","5c4d8d706b23ab0001a34af2","gh3zrOYqFHNPpCujDw5iAagyjio2","","","","","","","","","","","","","","","","","","3000","","",""
"html-keyboard-response","5","10185","0.0-2.0-3.0","","null","<div style='margin:auto;width: auto; font-size: 150%'><span style='font-weight: bold; font-size: 100px; color: red;'>0 points!</span><br><br></div>","null","delaylearn","learning","feedback_image_window","5c4d8d706b23ab0001a34af2","gh3zrOYqFHNPpCujDw5iAagyjio2","","","","","","","","","","","","","","","","","","","","",""
"html-keyboard-response","6","12655","0.0-3.0","","null","<div style=""font-size:100px;"">+</div>","null","delaylearn","learning","ITI","5c4d8d706b23ab0001a34af2","gh3zrOYqFHNPpCujDw5iAagyjio2","","","","","","","","","","","","","","","","","","","2466","",""
"html-keyboard-response","7","13214","0.0-4.0-0.0","","549.3000001907349","<div style=""display: flex; flex-direction: column; align-items: center; margin-top: -40px;""><img src=""images/demo_images/pattern_1.png"" style=""width: 234px; height: 230px; margin-top: -50px;""><div style=""display: flex; justify-content: space-between; margin-top: 33px;""><img src=""images/demo_images/choice_trial_2.png"" style=""width: 408px; height: 417px; margin-right: 200px;""><img src=""images/demo_images/choice_trial_1.png"" style=""width: 408px; height: 417px;""></div></div>","j","delaylearn","learning","trial","5c4d8d706b23ab0001a34af2","gh3zrOYqFHNPpCujDw5iAagyjio2","1","images/demo_images/choice_trial_2.png","images/demo_images/choice_trial_1.png","images/demo_images/pattern_1.png","j","j","3000","2","1","20","1","2","1","1","1","10","","","","",""
"html-keyboard-response","8","14230","0.0-4.0-1.0","","null","<div style=""display: flex; flex-direction: column; align-items: center; margin-top: -40px;""><img src=""images/demo_images/pattern_1.png"" style=""width: 234px; height: 230px; margin-top: -50px;""><div style=""display: flex; justify-content: space-between; margin-top: 33px;""><img src=""images/demo_images/choice_trial_1.png"" style=""width: 408px; height: 417px; margin-left:608px;""></div></div>","null","delaylearn","learning","display_response","5c4d8d706b23ab0001a34af2","gh3zrOYqFHNPpCujDw5iAagyjio2","","","","","","","","","","","","","","","","","chosen stimuli: images/demo_images/choice_trial_1.png","","","",""
"html-keyboard-response","9","17248","0.0-4.0-2.0","","null","","null","delaylearn","learning","feedback_duration_window","5c4d8d706b23ab0001a34af2","gh3zrOYqFHNPpCujDw5iAagyjio2","","","","","","","","","","","","","","","","","","3000","","",""
"html-keyboard-response","10","18757","0.0-4.0-3.0","","null","<div style='margin:auto;width: auto; font-size: 150%'><span style='font-weight: bold; font-size: 100px; color: green;'>+10 points!</span><br><br></div>","null","delaylearn","learning","feedback_image_window","5c4d8d706b23ab0001a34af2","gh3zrOYqFHNPpCujDw5iAagyjio2","","","","","","","","","","","","","","","","","","","","",""
"html-keyboard-response","11","20430","0.0-5.0","","null","<div style=""font-size:100px;"">+</div>","null","delaylearn","learning","ITI","5c4d8d706b23ab0001a34af2","gh3zrOYqFHNPpCujDw5iAagyjio2","","","","","","","","","","","","","","","","","","","1667","",""
"html-keyboard-response","12","21309","0.0-6.0-0.0","","871.0999999046326","<div style=""display: flex; flex-direction: column; align-items: center; margin-top: -40px;""><img src=""images/demo_images/pattern_1.png"" style=""width: 234px; height: 230px; margin-top: -50px;""><div style=""display: flex; justify-content: space-between; margin-top: 33px;""><img src=""images/demo_images/choice_trial_1.png"" style=""width: 408px; height: 417px; margin-right: 200px;""><img src=""images/demo_images/choice_trial_2.png"" style=""width: 408px; height: 417px;""></div></div>","f","delaylearn","learning","trial","5c4d8d706b23ab0001a34af2","gh3zrOYqFHNPpCujDw5iAagyjio2","1","images/demo_images/choice_trial_1.png","images/demo_images/choice_trial_2.png","images/demo_images/pattern_1.png","j","f","3000","1","2","20","0","3","1","0","1","10","","","","",""
"html-keyboard-response","13","22326","0.0-6.0-1.0","","null","<div style=""display: flex; flex-direction: column; align-items: center; margin-top: -40px;""><img src=""images/demo_images/pattern_1.png"" style=""width: 234px; height: 230px; margin-top: -50px;""><div style=""display: flex; justify-content: space-between; margin-top: 33px;""><img src=""images/demo_images/choice_trial_1.png"" style=""width: 408px; height: 417px; margin-right: 608px;""></div></div>","null","delaylearn","learning","display_response","5c4d8d706b23ab0001a34af2","gh3zrOYqFHNPpCujDw5iAagyjio2","","","","","","","","","","","","","","","","","chosen stimuli: images/demo_images/choice_trial_1.png","","","",""
"html-keyboard-response","14","25334","0.0-6.0-2.0","","null","","null","delaylearn","learning","feedback_duration_window","5c4d8d706b23ab0001a34af2","gh3zrOYqFHNPpCujDw5iAagyjio2","","","","","","","","","","","","","","","","","","3000","","",""
"html-keyboard-response","15","26854","0.0-6.0-3.0","","null","<div style='margin:auto;width: auto; font-size: 150%'><span style='font-weight: bold; font-size: 100px; color: red;'>0 points!</span><br><br></div>","null","delaylearn","learning","feedback_image_window","5c4d8d706b23ab0001a34af2","gh3zrOYqFHNPpCujDw5iAagyjio2","","","","","","","","","","","","","","","","","","","","",""
"html-keyboard-response","16","29021","0.0-7.0","","null","<div style=""font-size:100px;"">+</div>","null","delaylearn","learning","ITI","5c4d8d706b23ab0001a34af2","gh3zrOYqFHNPpCujDw5iAagyjio2","","","","","","","","","","","","","","","","","","","2157","",""
"html-keyboard-response","17","30141","0.0-8.0-0.0","","1112.5999999046326","<div style=""display: flex; flex-direction: column; align-items: center; margin-top: -40px;""><img src=""images/demo_images/pattern_1.png"" style=""width: 234px; height: 230px; margin-top: -50px;""><div style=""display: flex; justify-content: space-between; margin-top: 33px;""><img src=""images/demo_images/choice_trial_1.png"" style=""width: 408px; height: 417px; margin-right: 200px;""><img src=""images/demo_images/choice_trial_2.png"" style=""width: 408px; height: 417px;""></div></div>","f","delaylearn","learning","trial","5c4d8d706b23ab0001a34af2","gh3zrOYqFHNPpCujDw5iAagyjio2","1","images/demo_images/choice_trial_1.png","images/demo_images/choice_trial_2.png","images/demo_images/pattern_1.png","f","f","3000","1","2","20","0","4","1","1","1","20","","","","",""
"html-keyboard-response","18","31154","0.0-8.0-1.0","","null","<div style=""display: flex; flex-direction: column; align-items: center; margin-top: -40px;""><img src=""images/demo_images/pattern_1.png"" style=""width: 234px; height: 230px; margin-top: -50px;""><div style=""display: flex; justify-content: space-between; margin-top: 33px;""><img src=""images/demo_images/choice_trial_1.png"" style=""width: 408px; height: 417px; margin-right: 608px;""></div></div>","null","delaylearn","learning","display_response","5c4d8d706b23ab0001a34af2","gh3zrOYqFHNPpCujDw5iAagyjio2","","","","","","","","","","","","","","","","","chosen stimuli: images/demo_images/choice_trial_1.png","","","",""
"html-keyboard-response","19","34170","0.0-8.0-2.0","","null","","null","delaylearn","learning","feedback_duration_window","5c4d8d706b23ab0001a34af2","gh3zrOYqFHNPpCujDw5iAagyjio2","","","","","","","","","","","","","","","","","","3000","","",""
"html-keyboard-response","20","35690","0.0-8.0-3.0","","null","<div style='margin:auto;width: auto; font-size: 150%'><span style='font-weight: bold; font-size: 100px; color: green;'>+10 points!</span><br><br></div>","null","delaylearn","learning","feedback_image_window","5c4d8d706b23ab0001a34af2","gh3zrOYqFHNPpCujDw5iAagyjio2","","","","","","","","","","","","","","","","","","","","",""
"html-keyboard-response","21","36207","0.0-9.0-0.0","","null","","null","","","mood_trial_fixation","","","","","","","","","","","","","","","","","","","","","","",""
"lmdlab-html-vas-response","22","42209","0.0-9.0-1.0","","4941","How happy are you right now?","0.5152080295683429","delaylearn","learning","mood_trial","5c4d8d706b23ab0001a34af2","gh3zrOYqFHNPpCujDw5iAagyjio2","","","","","","","","","","","","","","","","","","","","[""Very unhappy"",""Very happy""]",""
"html-keyboard-response","23","43851","0.0-10.0","","null","<div style=""font-size:100px;"">+</div>","null","delaylearn","learning","ITI","5c4d8d706b23ab0001a34af2","gh3zrOYqFHNPpCujDw5iAagyjio2","","","","","","","","","","","","","","","","","","","1634","",""
"html-keyboard-response","24","44593","0.0-11.0-0.0","","736.0999999046326","<div style=""display: flex; flex-direction: column; align-items: center; margin-top: -40px;""><img src=""images/demo_images/pattern_1.png"" style=""width: 234px; height: 230px; margin-top: -50px;""><div style=""display: flex; justify-content: space-between; margin-top: 33px;""><img src=""images/demo_images/choice_trial_2.png"" style=""width: 408px; height: 417px; margin-right: 200px;""><img src=""images/demo_images/choice_trial_1.png"" style=""width: 408px; height: 417px;""></div></div>","j","delaylearn","learning","trial","5c4d8d706b23ab0001a34af2","gh3zrOYqFHNPpCujDw5iAagyjio2","1","images/demo_images/choice_trial_2.png","images/demo_images/choice_trial_1.png","images/demo_images/pattern_1.png","j","j","3000","2","1","20","1","5","1","1","1","30","","","","",""
"html-keyboard-response","25","45614","0.0-11.0-1.0","","null","<div style=""display: flex; flex-direction: column; align-items: center; margin-top: -40px;""><img src=""images/demo_images/pattern_1.png"" style=""width: 234px; height: 230px; margin-top: -50px;""><div style=""display: flex; justify-content: space-between; margin-top: 33px;""><img src=""images/demo_images/choice_trial_1.png"" style=""width: 408px; height: 417px; margin-left:608px;""></div></div>","null","delaylearn","learning","display_response","5c4d8d706b23ab0001a34af2","gh3zrOYqFHNPpCujDw5iAagyjio2","","","","","","","","","","","","","","","","","chosen stimuli: images/demo_images/choice_trial_1.png","","","",""
"html-keyboard-response","26","48618","0.0-11.0-2.0","","null","","null","delaylearn","learning","feedback_duration_window","5c4d8d706b23ab0001a34af2","gh3zrOYqFHNPpCujDw5iAagyjio2","","","","","","","","","","","","","","","","","","3000","","",""
"html-keyboard-response","27","50128","0.0-11.0-3.0","","null","<div style='margin:auto;width: auto; font-size: 150%'><span style='font-weight: bold; font-size: 100px; color: green;'>+10 points!</span><br><br></div>","null","delaylearn","learning","feedback_image_window","5c4d8d706b23ab0001a34af2","gh3zrOYqFHNPpCujDw5iAagyjio2","","","","","","","","","","","","","","","","","","","","",""
"html-keyboard-response","28","52053","0.0-12.0","","null","<div style=""font-size:100px;"">+</div>","null","delaylearn","learning","ITI","5c4d8d706b23ab0001a34af2","gh3zrOYqFHNPpCujDw5iAagyjio2","","","","","","","","","","","","","","","","","","","1918","",""
"html-keyboard-response","29","53048","0.0-13.0-0.0","","989.2999997138977","<div style=""display: flex; flex-direction: column; align-items: center; margin-top: -40px;""><img src=""images/demo_images/pattern_1.png"" style=""width: 234px; height: 230px; margin-top: -50px;""><div style=""display: flex; justify-content: space-between; margin-top: 33px;""><img src=""images/demo_images/choice_trial_1.png"" style=""width: 408px; height: 417px; margin-right: 200px;""><img src=""images/demo_images/choice_trial_2.png"" style=""width: 408px; height: 417px;""></div></div>","f","delaylearn","learning","trial","5c4d8d706b23ab0001a34af2","gh3zrOYqFHNPpCujDw5iAagyjio2","1","images/demo_images/choice_trial_1.png","images/demo_images/choice_trial_2.png","images/demo_images/pattern_1.png","f","f","3000","1","2","20","0","6","1","1","1","40","","","","",""
"html-keyboard-response","30","54055","0.0-13.0-1.0","","null","<div style=""display: flex; flex-direction: column; align-items: center; margin-top: -40px;""><img src=""images/demo_images/pattern_1.png"" style=""width: 234px; height: 230px; margin-top: -50px;""><div style=""display: flex; justify-content: space-between; margin-top: 33px;""><img src=""images/demo_images/choice_trial_1.png"" style=""width: 408px; height: 417px; margin-right: 608px;""></div></div>","null","delaylearn","learning","display_response","5c4d8d706b23ab0001a34af2","gh3zrOYqFHNPpCujDw5iAagyjio2","","","","","","","","","","","","","","","","","chosen stimuli: images/demo_images/choice_trial_1.png","","","",""
"html-keyboard-response","31","57060","0.0-13.0-2.0","","null","","null","delaylearn","learning","feedback_duration_window","5c4d8d706b23ab0001a34af2","gh3zrOYqFHNPpCujDw5iAagyjio2","","","","","","","","","","","","","","","","","","3000","","",""
"html-keyboard-response","32","58570","0.0-13.0-3.0","","null","<div style='margin:auto;width: auto; font-size: 150%'><span style='font-weight: bold; font-size: 100px; color: green;'>+10 points!</span><br><br></div>","null","delaylearn","learning","feedback_image_window","5c4d8d706b23ab0001a34af2","gh3zrOYqFHNPpCujDw5iAagyjio2","","","","","","","","","","","","","","","","","","","","",""
"html-keyboard-response","33","60382","0.0-14.0","","null","<div style=""font-size:100px;"">+</div>","null","delaylearn","learning","ITI","5c4d8d706b23ab0001a34af2","gh3zrOYqFHNPpCujDw5iAagyjio2","","","","","","","","","","","","","","","","","","","1799","",""
"html-keyboard-response","34","60999","0.0-15.0-0.0","","611.6999998092651","<div style=""display: flex; flex-direction: column; align-items: center; margin-top: -40px;""><img src=""images/demo_images/pattern_1.png"" style=""width: 234px; height: 230px; margin-top: -50px;""><div style=""display: flex; justify-content: space-between; margin-top: 33px;""><img src=""images/demo_images/choice_trial_2.png"" style=""width: 408px; height: 417px; margin-right: 200px;""><img src=""images/demo_images/choice_trial_1.png"" style=""width: 408px; height: 417px;""></div></div>","j","delaylearn","learning","trial","5c4d8d706b23ab0001a34af2","gh3zrOYqFHNPpCujDw5iAagyjio2","1","images/demo_images/choice_trial_2.png","images/demo_images/choice_trial_1.png","images/demo_images/pattern_1.png","j","j","3000","2","1","20","1","7","1","1","1","50","","","","",""
"html-keyboard-response","35","62018","0.0-15.0-1.0","","null","<div style=""display: flex; flex-direction: column; align-items: center; margin-top: -40px;""><img src=""images/demo_images/pattern_1.png"" style=""width: 234px; height: 230px; margin-top: -50px;""><div style=""display: flex; justify-content: space-between; margin-top: 33px;""><img src=""images/demo_images/choice_trial_1.png"" style=""width: 408px; height: 417px; margin-left:608px;""></div></div>","null","delaylearn","learning","display_response","5c4d8d706b23ab0001a34af2","gh3zrOYqFHNPpCujDw5iAagyjio2","","","","","","","","","","","","","","","","","chosen stimuli: images/demo_images/choice_trial_1.png","","","",""
"html-keyboard-response","36","65023","0.0-15.0-2.0","","null","","null","delaylearn","learning","feedback_duration_window","5c4d8d706b23ab0001a34af2","gh3zrOYqFHNPpCujDw5iAagyjio2","","","","","","","","","","","","","","","","","","3000","","",""
"html-keyboard-response","37","66528","0.0-15.0-3.0","","null","<div style='margin:auto;width: auto; font-size: 150%'><span style='font-weight: bold; font-size: 100px; color: green;'>+10 points!</span><br><br></div>","null","delaylearn","learning","feedback_image_window","5c4d8d706b23ab0001a34af2","gh3zrOYqFHNPpCujDw5iAagyjio2","","","","","","","","","","","","","","","","","","","","",""
"html-keyboard-response","38","68891","0.0-16.0","","null","<div style=""font-size:100px;"">+</div>","null","delaylearn","learning","ITI","5c4d8d706b23ab0001a34af2","gh3zrOYqFHNPpCujDw5iAagyjio2","","","","","","","","","","","","","","","","","","","2349","",""
"html-keyboard-response","39","69474","0.0-17.0-0.0","","579.5999999046326","<div style=""display: flex; flex-direction: column; align-items: center; margin-top: -40px;""><img src=""images/demo_images/pattern_1.png"" style=""width: 234px; height: 230px; margin-top: -50px;""><div style=""display: flex; justify-content: space-between; margin-top: 33px;""><img src=""images/demo_images/choice_trial_1.png"" style=""width: 408px; height: 417px; margin-right: 200px;""><img src=""images/demo_images/choice_trial_2.png"" style=""width: 408px; height: 417px;""></div></div>","f","delaylearn","learning","trial","5c4d8d706b23ab0001a34af2","gh3zrOYqFHNPpCujDw5iAagyjio2","1","images/demo_images/choice_trial_1.png","images/demo_images/choice_trial_2.png","images/demo_images/pattern_1.png","f","f","3000","1","2","20","0","8","1","1","1","60","","","","",""
"html-keyboard-response","40","70489","0.0-17.0-1.0","","null","<div style=""display: flex; flex-direction: column; align-items: center; margin-top: -40px;""><img src=""images/demo_images/pattern_1.png"" style=""width: 234px; height: 230px; margin-top: -50px;""><div style=""display: flex; justify-content: space-between; margin-top: 33px;""><img src=""images/demo_images/choice_trial_1.png"" style=""width: 408px; height: 417px; margin-right: 608px;""></div></div>","null","delaylearn","learning","display_response","5c4d8d706b23ab0001a34af2","gh3zrOYqFHNPpCujDw5iAagyjio2","","","","","","","","","","","","","","","","","chosen stimuli: images/demo_images/choice_trial_1.png","","","",""
"html-keyboard-response","41","73494","0.0-17.0-2.0","","null","","null","delaylearn","learning","feedback_duration_window","5c4d8d706b23ab0001a34af2","gh3zrOYqFHNPpCujDw5iAagyjio2","","","","","","","","","","","","","","","","","","3000","","",""
"html-keyboard-response","42","75004","0.0-17.0-3.0","","null","<div style='margin:auto;width: auto; font-size: 150%'><span style='font-weight: bold; font-size: 100px; color: green;'>+10 points!</span><br><br></div>","null","delaylearn","learning","feedback_image_window","5c4d8d706b23ab0001a34af2","gh3zrOYqFHNPpCujDw5iAagyjio2","","","","","","","","","","","","","","","","","","","","",""
"html-button-response","43","78240","0.0-18.0","","3231","
  <div style=""display: flex; align-items: center; justify-content: center; height: 80vh;"">
  <div>
          <img src=""images/inst_demo_finish.png"" style=""width: 80vw; height:auto;"">
          <br><br>
      </div>
      <br><br>
  </div>","0","","","","","","","","","","","","","","","","","","","","","","","","","",""
"html-keyboard-response","44","87389","0.0-19.0","","9144.900000095367","
  <div style=""display: flex; align-items: center; justify-content: center; height: 80vh;"">
  <div>
          <img src=""images/inst_6.png"" style=""width: 80vw; height:auto;"">
          <br><br>
      </div>
      <br><br>
  </div>","j","","","","","","","","","","","","","","","","","","","","","","","","","",""
"html-keyboard-response","45","90404","0.0-20.0","","null","<div style=""font-size:100px;"">+</div>","null","delaylearn","learning","pre_fixation","5c4d8d706b23ab0001a34af2","","","","","","","","","","","","","","","","","","","","","",""
"html-keyboard-response","46","91935","0.0-21.0","","null","<div style=""font-size:100px;"">+</div>","null","delaylearn","learning","ITI","5c4d8d706b23ab0001a34af2","gh3zrOYqFHNPpCujDw5iAagyjio2","","","","","","","","","","","","","","","","","","","1525","",""
"html-keyboard-response","47","92902","0.0-22.0-0.0","","961.3000001907349","<div style=""display: flex; flex-direction: column; align-items: center; margin-top: -40px;""><img src=""images/pattern_3.png"" style=""width: 234px; height: 230px; margin-top: -50px;""><div style=""display: flex; justify-content: space-between; margin-top: 33px;""><img src=""images/choice_trial_5.png"" style=""width: 408px; height: 417px; margin-right: 200px;""><img src=""images/choice_trial_6.png"" style=""width: 408px; height: 417px;""></div></div>","f","delaylearn","learning","trial","5c4d8d706b23ab0001a34af2","gh3zrOYqFHNPpCujDw5iAagyjio2","1","images/choice_trial_5.png","images/choice_trial_6.png","images/pattern_3.png","f","f","7000","5","6","2","0","9","1","1","5","70","","","","",""
"html-keyboard-response","48","93918","0.0-22.0-1.0","","null","<div style=""display: flex; flex-direction: column; align-items: center; margin-top: -40px;""><img src=""images/pattern_3.png"" style=""width: 234px; height: 230px; margin-top: -50px;""><div style=""display: flex; justify-content: space-between; margin-top: 33px;""><img src=""images/choice_trial_5.png"" style=""width: 408px; height: 417px; margin-right: 608px;""></div></div>","null","delaylearn","learning","display_response","5c4d8d706b23ab0001a34af2","gh3zrOYqFHNPpCujDw5iAagyjio2","","","","","","","","","","","","","","","","","chosen stimuli: images/choice_trial_5.png","","","",""
"html-keyboard-response","49","100935","0.0-22.0-2.0","","null","","null","delaylearn","learning","feedback_duration_window","5c4d8d706b23ab0001a34af2","gh3zrOYqFHNPpCujDw5iAagyjio2","","","","","","","","","","","","","","","","","","7000","","",""
"html-keyboard-response","50","102444","0.0-22.0-3.0","","null","<div style='margin:auto;width: auto; font-size: 150%'><span style='font-weight: bold; font-size: 100px; color: green;'>+10 points!</span><br><br></div>","null","delaylearn","learning","feedback_image_window","5c4d8d706b23ab0001a34af2","gh3zrOYqFHNPpCujDw5iAagyjio2","","","","","","","","","","","","","","","","","","","","",""
"html-keyboard-response","51","104896","0.0-23.0","","null","<div style=""font-size:100px;"">+</div>","null","delaylearn","learning","ITI","5c4d8d706b23ab0001a34af2","gh3zrOYqFHNPpCujDw5iAagyjio2","","","","","","","","","","","","","","","","","","","2436","",""
"html-keyboard-response","52","106334","0.0-24.0-0.0","","1431.4000000953674","<div style=""display: flex; flex-direction: column; align-items: center; margin-top: -40px;""><img src=""images/pattern_7.png"" style=""width: 234px; height: 230px; margin-top: -50px;""><div style=""display: flex; justify-content: space-between; margin-top: 33px;""><img src=""images/choice_trial_14.png"" style=""width: 408px; height: 417px; margin-right: 200px;""><img src=""images/choice_trial_13.png"" style=""width: 408px; height: 417px;""></div></div>","j","delaylearn","learning","trial","5c4d8d706b23ab0001a34af2","gh3zrOYqFHNPpCujDw5iAagyjio2","1","images/choice_trial_14.png","images/choice_trial_13.png","images/pattern_7.png","j","j","750","14","13","6","1","10","1","1","13","80","","","","",""
"html-keyboard-response","53","107354","0.0-24.0-1.0","","null","<div style=""display: flex; flex-direction: column; align-items: center; margin-top: -40px;""><img src=""images/pattern_7.png"" style=""width: 234px; height: 230px; margin-top: -50px;""><div style=""display: flex; justify-content: space-between; margin-top: 33px;""><img src=""images/choice_trial_13.png"" style=""width: 408px; height: 417px; margin-left:608px;""></div></div>","null","delaylearn","learning","display_response","5c4d8d706b23ab0001a34af2","gh3zrOYqFHNPpCujDw5iAagyjio2","","","","","","","","","","","","","","","","","chosen stimuli: images/choice_trial_13.png","","","",""
"html-keyboard-response","54","108108","0.0-24.0-2.0","","null","","null","delaylearn","learning","feedback_duration_window","5c4d8d706b23ab0001a34af2","gh3zrOYqFHNPpCujDw5iAagyjio2","","","","","","","","","","","","","","","","","","750","","",""
"html-keyboard-response","55","109618","0.0-24.0-3.0","","null","<div style='margin:auto;width: auto; font-size: 150%'><span style='font-weight: bold; font-size: 100px; color: green;'>+10 points!</span><br><br></div>","null","delaylearn","learning","feedback_image_window","5c4d8d706b23ab0001a34af2","gh3zrOYqFHNPpCujDw5iAagyjio2","","","","","","","","","","","","","","","","","","","","",""
"html-keyboard-response","56","111756","0.0-25.0","","null","<div style=""font-size:100px;"">+</div>","null","delaylearn","learning","ITI","5c4d8d706b23ab0001a34af2","gh3zrOYqFHNPpCujDw5iAagyjio2","","","","","","","","","","","","","","","","","","","2129","",""
"html-keyboard-response","57","113106","0.0-26.0-0.0","","1342.3000001907349","<div style=""display: flex; flex-direction: column; align-items: center; margin-top: -40px;""><img src=""images/pattern_4.png"" style=""width: 234px; height: 230px; margin-top: -50px;""><div style=""display: flex; justify-content: space-between; margin-top: 33px;""><img src=""images/choice_trial_7.png"" style=""width: 408px; height: 417px; margin-right: 200px;""><img src=""images/choice_trial_8.png"" style=""width: 408px; height: 417px;""></div></div>","j","delaylearn","learning","trial","5c4d8d706b23ab0001a34af2","gh3zrOYqFHNPpCujDw5iAagyjio2","1","images/choice_trial_7.png","images/choice_trial_8.png","images/pattern_4.png","f","f","7000","7","8","3","0","11","0","0","8","80","","","","",""
"html-keyboard-response","58","114113","0.0-26.0-1.0","","null","<div style=""display: flex; flex-direction: column; align-items: center; margin-top: -40px;""><img src=""images/pattern_4.png"" style=""width: 234px; height: 230px; margin-top: -50px;""><div style=""display: flex; justify-content: space-between; margin-top: 33px;""><img src=""images/choice_trial_8.png"" style=""width: 408px; height: 417px; margin-left:608px;""></div></div>","null","delaylearn","learning","display_response","5c4d8d706b23ab0001a34af2","gh3zrOYqFHNPpCujDw5iAagyjio2","","","","","","","","","","","","","","","","","chosen stimuli: images/choice_trial_8.png","","","",""
"html-keyboard-response","59","121130","0.0-26.0-2.0","","null","","null","delaylearn","learning","feedback_duration_window","5c4d8d706b23ab0001a34af2","gh3zrOYqFHNPpCujDw5iAagyjio2","","","","","","","","","","","","","","","","","","7000","","",""
"html-keyboard-response","60","122638","0.0-26.0-3.0","","null","<div style='margin:auto;width: auto; font-size: 150%'><span style='font-weight: bold; font-size: 100px; color: red;'>0 points!</span><br><br></div>","null","delaylearn","learning","feedback_image_window","5c4d8d706b23ab0001a34af2","gh3zrOYqFHNPpCujDw5iAagyjio2","","","","","","","","","","","","","","","","","","","","",""
"html-keyboard-response","61","125067","0.0-27.0","","null","<div style=""font-size:100px;"">+</div>","null","delaylearn","learning","ITI","5c4d8d706b23ab0001a34af2","gh3zrOYqFHNPpCujDw5iAagyjio2","","","","","","","","","","","","","","","","","","","2414","",""
"html-keyboard-response","62","125871","0.0-28.0-0.0","","797.5","<div style=""display: flex; flex-direction: column; align-items: center; margin-top: -40px;""><img src=""images/pattern_5.png"" style=""width: 234px; height: 230px; margin-top: -50px;""><div style=""display: flex; justify-content: space-between; margin-top: 33px;""><img src=""images/choice_trial_10.png"" style=""width: 408px; height: 417px; margin-right: 200px;""><img src=""images/choice_trial_9.png"" style=""width: 408px; height: 417px;""></div></div>","f","delaylearn","learning","trial","5c4d8d706b23ab0001a34af2","gh3zrOYqFHNPpCujDw5iAagyjio2","1","images/choice_trial_10.png","images/choice_trial_9.png","images/pattern_5.png","j","j","750","10","9","4","1","12","0","0","10","80","","","","",""
"html-keyboard-response","63","126886","0.0-28.0-1.0","","null","<div style=""display: flex; flex-direction: column; align-items: center; margin-top: -40px;""><img src=""images/pattern_5.png"" style=""width: 234px; height: 230px; margin-top: -50px;""><div style=""display: flex; justify-content: space-between; margin-top: 33px;""><img src=""images/choice_trial_10.png"" style=""width: 408px; height: 417px; margin-right: 608px;""></div></div>","null","delaylearn","learning","display_response","5c4d8d706b23ab0001a34af2","gh3zrOYqFHNPpCujDw5iAagyjio2","","","","","","","","","","","","","","","","","chosen stimuli: images/choice_trial_10.png","","","",""
"html-keyboard-response","64","127650","0.0-28.0-2.0","","null","","null","delaylearn","learning","feedback_duration_window","5c4d8d706b23ab0001a34af2","gh3zrOYqFHNPpCujDw5iAagyjio2","","","","","","","","","","","","","","","","","","750","","",""
"html-keyboard-response","65","129169","0.0-28.0-3.0","","null","<div style='margin:auto;width: auto; font-size: 150%'><span style='font-weight: bold; font-size: 100px; color: red;'>0 points!</span><br><br></div>","null","delaylearn","learning","feedback_image_window","5c4d8d706b23ab0001a34af2","gh3zrOYqFHNPpCujDw5iAagyjio2","","","","","","","","","","","","","","","","","","","","",""
"html-keyboard-response","66","131103","0.0-29.0","","null","<div style=""font-size:100px;"">+</div>","null","delaylearn","learning","ITI","5c4d8d706b23ab0001a34af2","gh3zrOYqFHNPpCujDw5iAagyjio2","","","","","","","","","","","","","","","","","","","1929","",""
"html-keyboard-response","67","132347","0.0-30.0-0.0","","1237.1999998092651","<div style=""display: flex; flex-direction: column; align-items: center; margin-top: -40px;""><img src=""images/pattern_6.png"" style=""width: 234px; height: 230px; margin-top: -50px;""><div style=""display: flex; justify-content: space-between; margin-top: 33px;""><img src=""images/choice_trial_11.png"" style=""width: 408px; height: 417px; margin-right: 200px;""><img src=""images/choice_trial_12.png"" style=""width: 408px; height: 417px;""></div></div>","j","delaylearn","learning","trial","5c4d8d706b23ab0001a34af2","gh3zrOYqFHNPpCujDw5iAagyjio2","1","images/choice_trial_11.png","images/choice_trial_12.png","images/pattern_6.png","j","f","750","11","12","5","0","13","0","1","12","90","","","","",""
"html-keyboard-response","68","133365","0.0-30.0-1.0","","null","<div style=""display: flex; flex-direction: column; align-items: center; margin-top: -40px;""><img src=""images/pattern_6.png"" style=""width: 234px; height: 230px; margin-top: -50px;""><div style=""display: flex; justify-content: space-between; margin-top: 33px;""><img src=""images/choice_trial_12.png"" style=""width: 408px; height: 417px; margin-left:608px;""></div></div>","null","delaylearn","learning","display_response","5c4d8d706b23ab0001a34af2","gh3zrOYqFHNPpCujDw5iAagyjio2","","","","","","","","","","","","","","","","","chosen stimuli: images/choice_trial_12.png","","","",""
"html-keyboard-response","69","134126","0.0-30.0-2.0","","null","","null","delaylearn","learning","feedback_duration_window","5c4d8d706b23ab0001a34af2","gh3zrOYqFHNPpCujDw5iAagyjio2","","","","","","","","","","","","","","","","","","750","","",""
"html-keyboard-response","70","135641","0.0-30.0-3.0","","null","<div style='margin:auto;width: auto; font-size: 150%'><span style='font-weight: bold; font-size: 100px; color: green;'>+10 points!</span><br><br></div>","null","delaylearn","learning","feedback_image_window","5c4d8d706b23ab0001a34af2","gh3zrOYqFHNPpCujDw5iAagyjio2","","","","","","","","","","","","","","","","","","","","",""
"html-keyboard-response","71","136158","0.0-31.0-0.0","","null","","null","","","mood_trial_fixation","","","","","","","","","","","","","","","","","","","","","","",""
"lmdlab-html-vas-response","72","142209","0.0-31.0-1.0","","5025","How happy are you right now?","0.38282865959106166","delaylearn","learning","mood_trial","5c4d8d706b23ab0001a34af2","gh3zrOYqFHNPpCujDw5iAagyjio2","","","","","","","","","","","","","","","","","","","","[""Very unhappy"",""Very happy""]",""
"html-keyboard-response","73","144257","0.0-32.0","","null","<div style=""font-size:100px;"">+</div>","null","delaylearn","learning","ITI","5c4d8d706b23ab0001a34af2","gh3zrOYqFHNPpCujDw5iAagyjio2","","","","","","","","","","","","","","","","","","","2029","",""
"html-keyboard-response","74","145001","0.0-33.0-0.0","","736.2999997138977","<div style=""display: flex; flex-direction: column; align-items: center; margin-top: -40px;""><img src=""images/pattern_1.png"" style=""width: 234px; height: 230px; margin-top: -50px;""><div style=""display: flex; justify-content: space-between; margin-top: 33px;""><img src=""images/choice_trial_2.png"" style=""width: 408px; height: 417px; margin-right: 200px;""><img src=""images/choice_trial_1.png"" style=""width: 408px; height: 417px;""></div></div>","f","delaylearn","learning","trial","5c4d8d706b23ab0001a34af2","gh3zrOYqFHNPpCujDw5iAagyjio2","1","images/choice_trial_2.png","images/choice_trial_1.png","images/pattern_1.png","j","j","7000","2","1","1","1","14","0","0","2","90","","","","",""
"html-keyboard-response","75","146015","0.0-33.0-1.0","","null","<div style=""display: flex; flex-direction: column; align-items: center; margin-top: -40px;""><img src=""images/pattern_1.png"" style=""width: 234px; height: 230px; margin-top: -50px;""><div style=""display: flex; justify-content: space-between; margin-top: 33px;""><img src=""images/choice_trial_2.png"" style=""width: 408px; height: 417px; margin-right: 608px;""></div></div>","null","delaylearn","learning","display_response","5c4d8d706b23ab0001a34af2","gh3zrOYqFHNPpCujDw5iAagyjio2","","","","","","","","","","","","","","","","","chosen stimuli: images/choice_trial_2.png","","","",""
"html-keyboard-response","76","153023","0.0-33.0-2.0","","null","","null","delaylearn","learning","feedback_duration_window","5c4d8d706b23ab0001a34af2","gh3zrOYqFHNPpCujDw5iAagyjio2","","","","","","","","","","","","","","","","","","7000","","",""
"html-keyboard-response","77","154542","0.0-33.0-3.0","","null","<div style='margin:auto;width: auto; font-size: 150%'><span style='font-weight: bold; font-size: 100px; color: red;'>0 points!</span><br><br></div>","null","delaylearn","learning","feedback_image_window","5c4d8d706b23ab0001a34af2","gh3zrOYqFHNPpCujDw5iAagyjio2","","","","","","","","","","","","","","","","","","","","",""
"html-keyboard-response","78","156961","0.0-34.0","","null","<div style=""font-size:100px;"">+</div>","null","delaylearn","learning","ITI","5c4d8d706b23ab0001a34af2","gh3zrOYqFHNPpCujDw5iAagyjio2","","","","","","","","","","","","","","","","","","","2405","",""
"html-keyboard-response","79","157891","0.0-35.0-0.0","","923.2000002861023","<div style=""display: flex; flex-direction: column; align-items: center; margin-top: -40px;""><img src=""images/pattern_3.png"" style=""width: 234px; height: 230px; margin-top: -50px;""><div style=""display: flex; justify-content: space-between; margin-top: 33px;""><img src=""images/choice_trial_6.png"" style=""width: 408px; height: 417px; margin-right: 200px;""><img src=""images/choice_trial_5.png"" style=""width: 408px; height: 417px;""></div></div>","j","delaylearn","learning","trial","5c4d8d706b23ab0001a34af2","gh3zrOYqFHNPpCujDw5iAagyjio2","1","images/choice_trial_6.png","images/choice_trial_5.png","images/pattern_3.png","f","j","7000","6","5","2","1","15","1","0","5","90","","","","",""
"html-keyboard-response","80","158908","0.0-35.0-1.0","","null","<div style=""display: flex; flex-direction: column; align-items: center; margin-top: -40px;""><img src=""images/pattern_3.png"" style=""width: 234px; height: 230px; margin-top: -50px;""><div style=""display: flex; justify-content: space-between; margin-top: 33px;""><img src=""images/choice_trial_5.png"" style=""width: 408px; height: 417px; margin-left:608px;""></div></div>","null","delaylearn","learning","display_response","5c4d8d706b23ab0001a34af2","gh3zrOYqFHNPpCujDw5iAagyjio2","","","","","","","","","","","","","","","","","chosen stimuli: images/choice_trial_5.png","","","",""
"html-keyboard-response","81","165916","0.0-35.0-2.0","","null","","null","delaylearn","learning","feedback_duration_window","5c4d8d706b23ab0001a34af2","gh3zrOYqFHNPpCujDw5iAagyjio2","","","","","","","","","","","","","","","","","","7000","","",""
"html-keyboard-response","82","167430","0.0-35.0-3.0","","null","<div style='margin:auto;width: auto; font-size: 150%'><span style='font-weight: bold; font-size: 100px; color: red;'>0 points!</span><br><br></div>","null","delaylearn","learning","feedback_image_window","5c4d8d706b23ab0001a34af2","gh3zrOYqFHNPpCujDw5iAagyjio2","","","","","","","","","","","","","","","","","","","","",""
"html-keyboard-response","83","169682","0.0-36.0","","null","<div style=""font-size:100px;"">+</div>","null","delaylearn","learning","ITI","5c4d8d706b23ab0001a34af2","gh3zrOYqFHNPpCujDw5iAagyjio2","","","","","","","","","","","","","","","","","","","2240","",""
"html-keyboard-response","84","170802","0.0-37.0-0.0","","1112","<div style=""display: flex; flex-direction: column; align-items: center; margin-top: -40px;""><img src=""images/pattern_5.png"" style=""width: 234px; height: 230px; margin-top: -50px;""><div style=""display: flex; justify-content: space-between; margin-top: 33px;""><img src=""images/choice_trial_9.png"" style=""width: 408px; height: 417px; margin-right: 200px;""><img src=""images/choice_trial_10.png"" style=""width: 408px; height: 417px;""></div></div>","j","delaylearn","learning","trial","5c4d8d706b23ab0001a34af2","gh3zrOYqFHNPpCujDw5iAagyjio2","1","images/choice_trial_9.png","images/choice_trial_10.png","images/pattern_5.png","f","f","750","9","10","4","0","16","0","0","10","90","","","","",""
"html-keyboard-response","85","171810","0.0-37.0-1.0","","null","<div style=""display: flex; flex-direction: column; align-items: center; margin-top: -40px;""><img src=""images/pattern_5.png"" style=""width: 234px; height: 230px; margin-top: -50px;""><div style=""display: flex; justify-content: space-between; margin-top: 33px;""><img src=""images/choice_trial_10.png"" style=""width: 408px; height: 417px; margin-left:608px;""></div></div>","null","delaylearn","learning","display_response","5c4d8d706b23ab0001a34af2","gh3zrOYqFHNPpCujDw5iAagyjio2","","","","","","","","","","","","","","","","","chosen stimuli: images/choice_trial_10.png","","","",""
"html-keyboard-response","86","172571","0.0-37.0-2.0","","null","","null","delaylearn","learning","feedback_duration_window","5c4d8d706b23ab0001a34af2","gh3zrOYqFHNPpCujDw5iAagyjio2","","","","","","","","","","","","","","","","","","750","","",""
"html-keyboard-response","87","174091","0.0-37.0-3.0","","null","<div style='margin:auto;width: auto; font-size: 150%'><span style='font-weight: bold; font-size: 100px; color: red;'>0 points!</span><br><br></div>","null","delaylearn","learning","feedback_image_window","5c4d8d706b23ab0001a34af2","gh3zrOYqFHNPpCujDw5iAagyjio2","","","","","","","","","","","","","","","","","","","","",""
"html-keyboard-response","88","174605","0.0-38.0-0.0","","null","","null","","","mood_trial_fixation","","","","","","","","","","","","","","","","","","","","","","",""
"lmdlab-html-vas-response","89","179680","0.0-38.0-1.0","","4052","How happy are you right now?","0.28951205452510936","delaylearn","learning","mood_trial","5c4d8d706b23ab0001a34af2","gh3zrOYqFHNPpCujDw5iAagyjio2","","","","","","","","","","","","","","","","","","","","[""Very unhappy"",""Very happy""]",""
"html-keyboard-response","90","182087","0.0-39.0","","null","<div style=""font-size:100px;"">+</div>","null","delaylearn","learning","ITI","5c4d8d706b23ab0001a34af2","gh3zrOYqFHNPpCujDw5iAagyjio2","","","","","","","","","","","","","","","","","","","2399","",""
"html-keyboard-response","91","183117","0.0-40.0-0.0","","1026.5999999046326","<div style=""display: flex; flex-direction: column; align-items: center; margin-top: -40px;""><img src=""images/pattern_6.png"" style=""width: 234px; height: 230px; margin-top: -50px;""><div style=""display: flex; justify-content: space-between; margin-top: 33px;""><img src=""images/choice_trial_11.png"" style=""width: 408px; height: 417px; margin-right: 200px;""><img src=""images/choice_trial_12.png"" style=""width: 408px; height: 417px;""></div></div>","f","delaylearn","learning","trial","5c4d8d706b23ab0001a34af2","gh3zrOYqFHNPpCujDw5iAagyjio2","1","images/choice_trial_11.png","images/choice_trial_12.png","images/pattern_6.png","f","f","750","11","12","5","0","17","1","1","11","100","","","","",""
"html-keyboard-response","92","184130","0.0-40.0-1.0","","null","<div style=""display: flex; flex-direction: column; align-items: center; margin-top: -40px;""><img src=""images/pattern_6.png"" style=""width: 234px; height: 230px; margin-top: -50px;""><div style=""display: flex; justify-content: space-between; margin-top: 33px;""><img src=""images/choice_trial_11.png"" style=""width: 408px; height: 417px; margin-right: 608px;""></div></div>","null","delaylearn","learning","display_response","5c4d8d706b23ab0001a34af2","gh3zrOYqFHNPpCujDw5iAagyjio2","","","","","","","","","","","","","","","","","chosen stimuli: images/choice_trial_11.png","","","",""
"html-keyboard-response","93","184893","0.0-40.0-2.0","","null","","null","delaylearn","learning","feedback_duration_window","5c4d8d706b23ab0001a34af2","gh3zrOYqFHNPpCujDw5iAagyjio2","","","","","","","","","","","","","","","","","","750","","",""
"html-keyboard-response","94","186410","0.0-40.0-3.0","","null","<div style='margin:auto;width: auto; font-size: 150%'><span style='font-weight: bold; font-size: 100px; color: green;'>+10 points!</span><br><br></div>","null","delaylearn","learning","feedback_image_window","5c4d8d706b23ab0001a34af2","gh3zrOYqFHNPpCujDw5iAagyjio2","","","","","","","","","","","","","","","","","","","","",""
"html-keyboard-response","95","188599","0.0-41.0","","null","<div style=""font-size:100px;"">+</div>","null","delaylearn","learning","ITI","5c4d8d706b23ab0001a34af2","gh3zrOYqFHNPpCujDw5iAagyjio2","","","","","","","","","","","","","","","","","","","2178","",""
"html-keyboard-response","96","190062","0.0-42.0-0.0","","1456","<div style=""display: flex; flex-direction: column; align-items: center; margin-top: -40px;""><img src=""images/pattern_4.png"" style=""width: 234px; height: 230px; margin-top: -50px;""><div style=""display: flex; justify-content: space-between; margin-top: 33px;""><img src=""images/choice_trial_8.png"" style=""width: 408px; height: 417px; margin-right: 200px;""><img src=""images/choice_trial_7.png"" style=""width: 408px; height: 417px;""></div></div>","f","delaylearn","learning","trial","5c4d8d706b23ab0001a34af2","gh3zrOYqFHNPpCujDw5iAagyjio2","1","images/choice_trial_8.png","images/choice_trial_7.png","images/pattern_4.png","j","j","7000","8","7","3","1","18","0","0","8","100","","","","",""
"html-keyboard-response","97","191073","0.0-42.0-1.0","","null","<div style=""display: flex; flex-direction: column; align-items: center; margin-top: -40px;""><img src=""images/pattern_4.png"" style=""width: 234px; height: 230px; margin-top: -50px;""><div style=""display: flex; justify-content: space-between; margin-top: 33px;""><img src=""images/choice_trial_8.png"" style=""width: 408px; height: 417px; margin-right: 608px;""></div></div>","null","delaylearn","learning","display_response","5c4d8d706b23ab0001a34af2","gh3zrOYqFHNPpCujDw5iAagyjio2","","","","","","","","","","","","","","","","","chosen stimuli: images/choice_trial_8.png","","","",""
"html-keyboard-response","98","198089","0.0-42.0-2.0","","null","","null","delaylearn","learning","feedback_duration_window","5c4d8d706b23ab0001a34af2","gh3zrOYqFHNPpCujDw5iAagyjio2","","","","","","","","","","","","","","","","","","7000","","",""
"html-keyboard-response","99","199603","0.0-42.0-3.0","","null","<div style='margin:auto;width: auto; font-size: 150%'><span style='font-weight: bold; font-size: 100px; color: red;'>0 points!</span><br><br></div>","null","delaylearn","learning","feedback_image_window","5c4d8d706b23ab0001a34af2","gh3zrOYqFHNPpCujDw5iAagyjio2","","","","","","","","","","","","","","","","","","","","",""
"html-keyboard-response","100","202085","0.0-43.0","","null","<div style=""font-size:100px;"">+</div>","null","delaylearn","learning","ITI","5c4d8d706b23ab0001a34af2","gh3zrOYqFHNPpCujDw5iAagyjio2","","","","","","","","","","","","","","","","","","","2472","",""
"html-keyboard-response","101","203754","0.0-44.0-0.0","","1661.4000000953674","<div style=""display: flex; flex-direction: column; align-items: center; margin-top: -40px;""><img src=""images/pattern_7.png"" style=""width: 234px; height: 230px; margin-top: -50px;""><div style=""display: flex; justify-content: space-between; margin-top: 33px;""><img src=""images/choice_trial_13.png"" style=""width: 408px; height: 417px; margin-right: 200px;""><img src=""images/choice_trial_14.png"" style=""width: 408px; height: 417px;""></div></div>","f","delaylearn","learning","trial","5c4d8d706b23ab0001a34af2","gh3zrOYqFHNPpCujDw5iAagyjio2","1","images/choice_trial_13.png","images/choice_trial_14.png","images/pattern_7.png","j","f","750","13","14","6","0","19","1","0","13","100","","","","",""
"html-keyboard-response","102","204773","0.0-44.0-1.0","","null","<div style=""display: flex; flex-direction: column; align-items: center; margin-top: -40px;""><img src=""images/pattern_7.png"" style=""width: 234px; height: 230px; margin-top: -50px;""><div style=""display: flex; justify-content: space-between; margin-top: 33px;""><img src=""images/choice_trial_13.png"" style=""width: 408px; height: 417px; margin-right: 608px;""></div></div>","null","delaylearn","learning","display_response","5c4d8d706b23ab0001a34af2","gh3zrOYqFHNPpCujDw5iAagyjio2","","","","","","","","","","","","","","","","","chosen stimuli: images/choice_trial_13.png","","","",""
"html-keyboard-response","103","205541","0.0-44.0-2.0","","null","","null","delaylearn","learning","feedback_duration_window","5c4d8d706b23ab0001a34af2","gh3zrOYqFHNPpCujDw5iAagyjio2","","","","","","","","","","","","","","","","","","750","","",""
"html-keyboard-response","104","207058","0.0-44.0-3.0","","null","<div style='margin:auto;width: auto; font-size: 150%'><span style='font-weight: bold; font-size: 100px; color: red;'>0 points!</span><br><br></div>","null","delaylearn","learning","feedback_image_window","5c4d8d706b23ab0001a34af2","gh3zrOYqFHNPpCujDw5iAagyjio2","","","","","","","","","","","","","","","","","","","","",""
"html-keyboard-response","105","209092","0.0-45.0","","null","<div style=""font-size:100px;"">+</div>","null","delaylearn","learning","ITI","5c4d8d706b23ab0001a34af2","gh3zrOYqFHNPpCujDw5iAagyjio2","","","","","","","","","","","","","","","","","","","2028","",""
"html-keyboard-response","106","210298","0.0-46.0-0.0","","1197.5","<div style=""display: flex; flex-direction: column; align-items: center; margin-top: -40px;""><img src=""images/pattern_1.png"" style=""width: 234px; height: 230px; margin-top: -50px;""><div style=""display: flex; justify-content: space-between; margin-top: 33px;""><img src=""images/choice_trial_1.png"" style=""width: 408px; height: 417px; margin-right: 200px;""><img src=""images/choice_trial_2.png"" style=""width: 408px; height: 417px;""></div></div>","j","delaylearn","learning","trial","5c4d8d706b23ab0001a34af2","gh3zrOYqFHNPpCujDw5iAagyjio2","1","images/choice_trial_1.png","images/choice_trial_2.png","images/pattern_1.png","f","f","7000","1","2","1","0","20","0","0","2","100","","","","",""
"html-keyboard-response","107","211317","0.0-46.0-1.0","","null","<div style=""display: flex; flex-direction: column; align-items: center; margin-top: -40px;""><img src=""images/pattern_1.png"" style=""width: 234px; height: 230px; margin-top: -50px;""><div style=""display: flex; justify-content: space-between; margin-top: 33px;""><img src=""images/choice_trial_2.png"" style=""width: 408px; height: 417px; margin-left:608px;""></div></div>","null","delaylearn","learning","display_response","5c4d8d706b23ab0001a34af2","gh3zrOYqFHNPpCujDw5iAagyjio2","","","","","","","","","","","","","","","","","chosen stimuli: images/choice_trial_2.png","","","",""
"html-keyboard-response","108","218336","0.0-46.0-2.0","","null","","null","delaylearn","learning","feedback_duration_window","5c4d8d706b23ab0001a34af2","gh3zrOYqFHNPpCujDw5iAagyjio2","","","","","","","","","","","","","","","","","","7000","","",""
"html-keyboard-response","109","219848","0.0-46.0-3.0","","null","<div style='margin:auto;width: auto; font-size: 150%'><span style='font-weight: bold; font-size: 100px; color: red;'>0 points!</span><br><br></div>","null","delaylearn","learning","feedback_image_window","5c4d8d706b23ab0001a34af2","gh3zrOYqFHNPpCujDw5iAagyjio2","","","","","","","","","","","","","","","","","","","","",""
"html-keyboard-response","110","221375","0.0-47.0","","null","<div style=""font-size:100px;"">+</div>","null","delaylearn","learning","ITI","5c4d8d706b23ab0001a34af2","gh3zrOYqFHNPpCujDw5iAagyjio2","","","","","","","","","","","","","","","","","","","1518","",""
"html-keyboard-response","111","223053","0.0-48.0-0.0","","1670.7000002861023","<div style=""display: flex; flex-direction: column; align-items: center; margin-top: -40px;""><img src=""images/pattern_6.png"" style=""width: 234px; height: 230px; margin-top: -50px;""><div style=""display: flex; justify-content: space-between; margin-top: 33px;""><img src=""images/choice_trial_12.png"" style=""width: 408px; height: 417px; margin-right: 200px;""><img src=""images/choice_trial_11.png"" style=""width: 408px; height: 417px;""></div></div>","j","delaylearn","learning","trial","5c4d8d706b23ab0001a34af2","gh3zrOYqFHNPpCujDw5iAagyjio2","1","images/choice_trial_12.png","images/choice_trial_11.png","images/pattern_6.png","j","j","750","12","11","5","1","21","1","1","11","110","","","","",""
"html-keyboard-response","112","224060","0.0-48.0-1.0","","null","<div style=""display: flex; flex-direction: column; align-items: center; margin-top: -40px;""><img src=""images/pattern_6.png"" style=""width: 234px; height: 230px; margin-top: -50px;""><div style=""display: flex; justify-content: space-between; margin-top: 33px;""><img src=""images/choice_trial_11.png"" style=""width: 408px; height: 417px; margin-left:608px;""></div></div>","null","delaylearn","learning","display_response","5c4d8d706b23ab0001a34af2","gh3zrOYqFHNPpCujDw5iAagyjio2","","","","","","","","","","","","","","","","","chosen stimuli: images/choice_trial_11.png","","","",""
"html-keyboard-response","113","224820","0.0-48.0-2.0","","null","","null","delaylearn","learning","feedback_duration_window","5c4d8d706b23ab0001a34af2","gh3zrOYqFHNPpCujDw5iAagyjio2","","","","","","","","","","","","","","","","","","750","","",""
"html-keyboard-response","114","226337","0.0-48.0-3.0","","null","<div style='margin:auto;width: auto; font-size: 150%'><span style='font-weight: bold; font-size: 100px; color: green;'>+10 points!</span><br><br></div>","null","delaylearn","learning","feedback_image_window","5c4d8d706b23ab0001a34af2","gh3zrOYqFHNPpCujDw5iAagyjio2","","","","","","","","","","","","","","","","","","","","",""
"html-keyboard-response","115","228071","0.0-49.0","","null","<div style=""font-size:100px;"">+</div>","null","delaylearn","learning","ITI","5c4d8d706b23ab0001a34af2","gh3zrOYqFHNPpCujDw5iAagyjio2","","","","","","","","","","","","","","","","","","","1724","",""
"html-keyboard-response","116","229221","0.0-50.0-0.0","","1143.5999999046326","<div style=""display: flex; flex-direction: column; align-items: center; margin-top: -40px;""><img src=""images/pattern_4.png"" style=""width: 234px; height: 230px; margin-top: -50px;""><div style=""display: flex; justify-content: space-between; margin-top: 33px;""><img src=""images/choice_trial_7.png"" style=""width: 408px; height: 417px; margin-right: 200px;""><img src=""images/choice_trial_8.png"" style=""width: 408px; height: 417px;""></div></div>","f","delaylearn","learning","trial","5c4d8d706b23ab0001a34af2","gh3zrOYqFHNPpCujDw5iAagyjio2","1","images/choice_trial_7.png","images/choice_trial_8.png","images/pattern_4.png","f","f","7000","7","8","3","0","22","1","1","7","120","","","","",""
"html-keyboard-response","117","230234","0.0-50.0-1.0","","null","<div style=""display: flex; flex-direction: column; align-items: center; margin-top: -40px;""><img src=""images/pattern_4.png"" style=""width: 234px; height: 230px; margin-top: -50px;""><div style=""display: flex; justify-content: space-between; margin-top: 33px;""><img src=""images/choice_trial_7.png"" style=""width: 408px; height: 417px; margin-right: 608px;""></div></div>","null","delaylearn","learning","display_response","5c4d8d706b23ab0001a34af2","gh3zrOYqFHNPpCujDw5iAagyjio2","","","","","","","","","","","","","","","","","chosen stimuli: images/choice_trial_7.png","","","",""
"html-keyboard-response","118","237251","0.0-50.0-2.0","","null","","null","delaylearn","learning","feedback_duration_window","5c4d8d706b23ab0001a34af2","gh3zrOYqFHNPpCujDw5iAagyjio2","","","","","","","","","","","","","","","","","","7000","","",""
"html-keyboard-response","119","238759","0.0-50.0-3.0","","null","<div style='margin:auto;width: auto; font-size: 150%'><span style='font-weight: bold; font-size: 100px; color: green;'>+10 points!</span><br><br></div>","null","delaylearn","learning","feedback_image_window","5c4d8d706b23ab0001a34af2","gh3zrOYqFHNPpCujDw5iAagyjio2","","","","","","","","","","","","","","","","","","","","",""
"html-keyboard-response","120","239262","0.0-51.0-0.0","","null","","null","","","mood_trial_fixation","","","","","","","","","","","","","","","","","","","","","","",""
"lmdlab-html-vas-response","121","244023","0.0-51.0-1.0","","3739","How happy are you right now?","0.5043572615374182","delaylearn","learning","mood_trial","5c4d8d706b23ab0001a34af2","gh3zrOYqFHNPpCujDw5iAagyjio2","","","","","","","","","","","","","","","","","","","","[""Very unhappy"",""Very happy""]",""
"html-keyboard-response","122","245756","0.0-52.0","","null","<div style=""font-size:100px;"">+</div>","null","delaylearn","learning","ITI","5c4d8d706b23ab0001a34af2","gh3zrOYqFHNPpCujDw5iAagyjio2","","","","","","","","","","","","","","","","","","","1722","",""
"html-keyboard-response","123","247076","0.0-53.0-0.0","","1313.3000001907349","<div style=""display: flex; flex-direction: column; align-items: center; margin-top: -40px;""><img src=""images/pattern_7.png"" style=""width: 234px; height: 230px; margin-top: -50px;""><div style=""display: flex; justify-content: space-between; margin-top: 33px;""><img src=""images/choice_trial_14.png"" style=""width: 408px; height: 417px; margin-right: 200px;""><img src=""images/choice_trial_13.png"" style=""width: 408px; height: 417px;""></div></div>","f","delaylearn","learning","trial","5c4d8d706b23ab0001a34af2","gh3zrOYqFHNPpCujDw5iAagyjio2","1","images/choice_trial_14.png","images/choice_trial_13.png","images/pattern_7.png","j","j","750","14","13","6","1","23","0","0","14","120","","","","",""
"html-keyboard-response","124","248087","0.0-53.0-1.0","","null","<div style=""display: flex; flex-direction: column; align-items: center; margin-top: -40px;""><img src=""images/pattern_7.png"" style=""width: 234px; height: 230px; margin-top: -50px;""><div style=""display: flex; justify-content: space-between; margin-top: 33px;""><img src=""images/choice_trial_14.png"" style=""width: 408px; height: 417px; margin-right: 608px;""></div></div>","null","delaylearn","learning","display_response","5c4d8d706b23ab0001a34af2","gh3zrOYqFHNPpCujDw5iAagyjio2","","","","","","","","","","","","","","","","","chosen stimuli: images/choice_trial_14.png","","","",""
"html-keyboard-response","125","248849","0.0-53.0-2.0","","null","","null","delaylearn","learning","feedback_duration_window","5c4d8d706b23ab0001a34af2","gh3zrOYqFHNPpCujDw5iAagyjio2","","","","","","","","","","","","","","","","","","750","","",""
"html-keyboard-response","126","250366","0.0-53.0-3.0","","null","<div style='margin:auto;width: auto; font-size: 150%'><span style='font-weight: bold; font-size: 100px; color: red;'>0 points!</span><br><br></div>","null","delaylearn","learning","feedback_image_window","5c4d8d706b23ab0001a34af2","gh3zrOYqFHNPpCujDw5iAagyjio2","","","","","","","","","","","","","","","","","","","","",""
"html-keyboard-response","127","252597","0.0-54.0","","null","<div style=""font-size:100px;"">+</div>","null","delaylearn","learning","ITI","5c4d8d706b23ab0001a34af2","gh3zrOYqFHNPpCujDw5iAagyjio2","","","","","","","","","","","","","","","","","","","2215","",""
"html-keyboard-response","128","254051","0.0-55.0-0.0","","1446.1999998092651","<div style=""display: flex; flex-direction: column; align-items: center; margin-top: -40px;""><img src=""images/pattern_1.png"" style=""width: 234px; height: 230px; margin-top: -50px;""><div style=""display: flex; justify-content: space-between; margin-top: 33px;""><img src=""images/choice_trial_2.png"" style=""width: 408px; height: 417px; margin-right: 200px;""><img src=""images/choice_trial_1.png"" style=""width: 408px; height: 417px;""></div></div>","j","delaylearn","learning","trial","5c4d8d706b23ab0001a34af2","gh3zrOYqFHNPpCujDw5iAagyjio2","1","images/choice_trial_2.png","images/choice_trial_1.png","images/pattern_1.png","f","j","7000","2","1","1","1","24","1","0","1","120","","","","",""
"html-keyboard-response","129","255060","0.0-55.0-1.0","","null","<div style=""display: flex; flex-direction: column; align-items: center; margin-top: -40px;""><img src=""images/pattern_1.png"" style=""width: 234px; height: 230px; margin-top: -50px;""><div style=""display: flex; justify-content: space-between; margin-top: 33px;""><img src=""images/choice_trial_1.png"" style=""width: 408px; height: 417px; margin-left:608px;""></div></div>","null","delaylearn","learning","display_response","5c4d8d706b23ab0001a34af2","gh3zrOYqFHNPpCujDw5iAagyjio2","","","","","","","","","","","","","","","","","chosen stimuli: images/choice_trial_1.png","","","",""
"html-keyboard-response","130","262066","0.0-55.0-2.0","","null","","null","delaylearn","learning","feedback_duration_window","5c4d8d706b23ab0001a34af2","gh3zrOYqFHNPpCujDw5iAagyjio2","","","","","","","","","","","","","","","","","","7000","","",""
"html-keyboard-response","131","263585","0.0-55.0-3.0","","null","<div style='margin:auto;width: auto; font-size: 150%'><span style='font-weight: bold; font-size: 100px; color: red;'>0 points!</span><br><br></div>","null","delaylearn","learning","feedback_image_window","5c4d8d706b23ab0001a34af2","gh3zrOYqFHNPpCujDw5iAagyjio2","","","","","","","","","","","","","","","","","","","","",""
"html-keyboard-response","132","265493","0.0-56.0","","null","<div style=""font-size:100px;"">+</div>","null","delaylearn","learning","ITI","5c4d8d706b23ab0001a34af2","gh3zrOYqFHNPpCujDw5iAagyjio2","","","","","","","","","","","","","","","","","","","1900","",""
"html-keyboard-response","133","266500","0.0-57.0-0.0","","999.3000001907349","<div style=""display: flex; flex-direction: column; align-items: center; margin-top: -40px;""><img src=""images/pattern_5.png"" style=""width: 234px; height: 230px; margin-top: -50px;""><div style=""display: flex; justify-content: space-between; margin-top: 33px;""><img src=""images/choice_trial_10.png"" style=""width: 408px; height: 417px; margin-right: 200px;""><img src=""images/choice_trial_9.png"" style=""width: 408px; height: 417px;""></div></div>","j","delaylearn","learning","trial","5c4d8d706b23ab0001a34af2","gh3zrOYqFHNPpCujDw5iAagyjio2","1","images/choice_trial_10.png","images/choice_trial_9.png","images/pattern_5.png","j","j","750","10","9","4","1","25","1","1","9","130","","","","",""
"html-keyboard-response","134","267515","0.0-57.0-1.0","","null","<div style=""display: flex; flex-direction: column; align-items: center; margin-top: -40px;""><img src=""images/pattern_5.png"" style=""width: 234px; height: 230px; margin-top: -50px;""><div style=""display: flex; justify-content: space-between; margin-top: 33px;""><img src=""images/choice_trial_9.png"" style=""width: 408px; height: 417px; margin-left:608px;""></div></div>","null","delaylearn","learning","display_response","5c4d8d706b23ab0001a34af2","gh3zrOYqFHNPpCujDw5iAagyjio2","","","","","","","","","","","","","","","","","chosen stimuli: images/choice_trial_9.png","","","",""
"html-keyboard-response","135","268277","0.0-57.0-2.0","","null","","null","delaylearn","learning","feedback_duration_window","5c4d8d706b23ab0001a34af2","gh3zrOYqFHNPpCujDw5iAagyjio2","","","","","","","","","","","","","","","","","","750","","",""
"html-keyboard-response","136","269782","0.0-57.0-3.0","","null","<div style='margin:auto;width: auto; font-size: 150%'><span style='font-weight: bold; font-size: 100px; color: green;'>+10 points!</span><br><br></div>","null","delaylearn","learning","feedback_image_window","5c4d8d706b23ab0001a34af2","gh3zrOYqFHNPpCujDw5iAagyjio2","","","","","","","","","","","","","","","","","","","","",""
"html-keyboard-response","137","271903","0.0-58.0","","null","<div style=""font-size:100px;"">+</div>","null","delaylearn","learning","ITI","5c4d8d706b23ab0001a34af2","gh3zrOYqFHNPpCujDw5iAagyjio2","","","","","","","","","","","","","","","","","","","2107","",""
"html-keyboard-response","138","272612","0.0-59.0-0.0","","702.0999999046326","<div style=""display: flex; flex-direction: column; align-items: center; margin-top: -40px;""><img src=""images/pattern_3.png"" style=""width: 234px; height: 230px; margin-top: -50px;""><div style=""display: flex; justify-content: space-between; margin-top: 33px;""><img src=""images/choice_trial_6.png"" style=""width: 408px; height: 417px; margin-right: 200px;""><img src=""images/choice_trial_5.png"" style=""width: 408px; height: 417px;""></div></div>","j","delaylearn","learning","trial","5c4d8d706b23ab0001a34af2","gh3zrOYqFHNPpCujDw5iAagyjio2","1","images/choice_trial_6.png","images/choice_trial_5.png","images/pattern_3.png","j","j","7000","6","5","2","1","26","1","1","5","140","","","","",""
"html-keyboard-response","139","273625","0.0-59.0-1.0","","null","<div style=""display: flex; flex-direction: column; align-items: center; margin-top: -40px;""><img src=""images/pattern_3.png"" style=""width: 234px; height: 230px; margin-top: -50px;""><div style=""display: flex; justify-content: space-between; margin-top: 33px;""><img src=""images/choice_trial_5.png"" style=""width: 408px; height: 417px; margin-left:608px;""></div></div>","null","delaylearn","learning","display_response","5c4d8d706b23ab0001a34af2","gh3zrOYqFHNPpCujDw5iAagyjio2","","","","","","","","","","","","","","","","","chosen stimuli: images/choice_trial_5.png","","","",""
"html-keyboard-response","140","280631","0.0-59.0-2.0","","null","","null","delaylearn","learning","feedback_duration_window","5c4d8d706b23ab0001a34af2","gh3zrOYqFHNPpCujDw5iAagyjio2","","","","","","","","","","","","","","","","","","7000","","",""
"html-keyboard-response","141","282148","0.0-59.0-3.0","","null","<div style='margin:auto;width: auto; font-size: 150%'><span style='font-weight: bold; font-size: 100px; color: green;'>+10 points!</span><br><br></div>","null","delaylearn","learning","feedback_image_window","5c4d8d706b23ab0001a34af2","gh3zrOYqFHNPpCujDw5iAagyjio2","","","","","","","","","","","","","","","","","","","","",""
"lmdlab-html-vas-response","142","292156","0.0-60.0-0.0","","8465","*How <b><u>confident</u></b> are you feeling about your answers at this moment?*","0.3936794276219864","rewlearn","rate_confidence","","5c4d8d706b23ab0001a34af2","gh3zrOYqFHNPpCujDw5iAagyjio2","","","","","","","","","","","","","","","","","","","","[""No confidence"",""Complete confidence""]",""
"lmdlab-rest-trial-limit","143","364136","0.0-60.0-1.0","","70456.60000038147","<div style=""font-size:40px;""><b>Please take a break!</b><br><br><br><br><p>Great work: you earned 140 points.<br><br><br><p>You have completed part(s) 1 of 5.<br><br><br><br>When you are ready to continue<br><br><br>please click the button.</p><br><br>","0","delaylearn","learning","break","5c4d8d706b23ab0001a34af2","gh3zrOYqFHNPpCujDw5iAagyjio2","","","","","","","","","","","","","","","","","","","","","0"
"html-keyboard-response","144","367155","0.0-60.0-2.0","","null","<div style=""font-size:100px;"">+</div>","null","delaylearn","learning","pre_fixation","5c4d8d706b23ab0001a34af2","","","","","","","","","","","","","","","","","","","","","",""
"lmdlab-html-vas-response","145","373453","0.0-60.0-3.0-0.0","","5275","How happy are you right now?","0.4479332677766098","delaylearn","learning","mood_baseline","5c4d8d706b23ab0001a34af2","gh3zrOYqFHNPpCujDw5iAagyjio2","","","","","","","","","","","","","","","","","","","","[""Very unhappy"",""Very happy""]",""
"html-keyboard-response","146","374973","0.0-60.0-3.0-1.0","","null","","null","","","mood_baseline_fixation","","","","","","","","","","","","","","","","","","","","","","",""
"html-keyboard-response","147","376727","0.0-61.0","","null","<div style=""font-size:100px;"">+</div>","null","delaylearn","learning","ITI","5c4d8d706b23ab0001a34af2","gh3zrOYqFHNPpCujDw5iAagyjio2","","","","","","","","","","","","","","","","","","","1743","",""
"html-keyboard-response","148","378090","0.0-62.0-0.0","","1354.8000001907349","<div style=""display: flex; flex-direction: column; align-items: center; margin-top: -40px;""><img src=""images/pattern_7.png"" style=""width: 234px; height: 230px; margin-top: -50px;""><div style=""display: flex; justify-content: space-between; margin-top: 33px;""><img src=""images/choice_trial_14.png"" style=""width: 408px; height: 417px; margin-right: 200px;""><img src=""images/choice_trial_13.png"" style=""width: 408px; height: 417px;""></div></div>","f","delaylearn","learning","trial","5c4d8d706b23ab0001a34af2","gh3zrOYqFHNPpCujDw5iAagyjio2","1","images/choice_trial_14.png","images/choice_trial_13.png","images/pattern_7.png","j","j","750","14","13","6","1","27","0","0","14","140","","","","",""
"html-keyboard-response","149","379105","0.0-62.0-1.0","","null","<div style=""display: flex; flex-direction: column; align-items: center; margin-top: -40px;""><img src=""images/pattern_7.png"" style=""width: 234px; height: 230px; margin-top: -50px;""><div style=""display: flex; justify-content: space-between; margin-top: 33px;""><img src=""images/choice_trial_14.png"" style=""width: 408px; height: 417px; margin-right: 608px;""></div></div>","null","delaylearn","learning","display_response","5c4d8d706b23ab0001a34af2","gh3zrOYqFHNPpCujDw5iAagyjio2","","","","","","","","","","","","","","","","","chosen stimuli: images/choice_trial_14.png","","","",""
"html-keyboard-response","150","379870","0.0-62.0-2.0","","null","","null","delaylearn","learning","feedback_duration_window","5c4d8d706b23ab0001a34af2","gh3zrOYqFHNPpCujDw5iAagyjio2","","","","","","","","","","","","","","","","","","750","","",""
"html-keyboard-response","151","381390","0.0-62.0-3.0","","null","<div style='margin:auto;width: auto; font-size: 150%'><span style='font-weight: bold; font-size: 100px; color: red;'>0 points!</span><br><br></div>","null","delaylearn","learning","feedback_image_window","5c4d8d706b23ab0001a34af2","gh3zrOYqFHNPpCujDw5iAagyjio2","","","","","","","","","","","","","","","","","","","","",""
"html-keyboard-response","152","381900","0.0-63.0-0.0","","null","","null","","","mood_trial_fixation","","","","","","","","","","","","","","","","","","","","","","",""
"lmdlab-html-vas-response","153","387232","0.0-63.0-1.0","","4306","How happy are you right now?","0.45444372859516463","delaylearn","learning","mood_trial","5c4d8d706b23ab0001a34af2","gh3zrOYqFHNPpCujDw5iAagyjio2","","","","","","","","","","","","","","","","","","","","[""Very unhappy"",""Very happy""]",""
"html-keyboard-response","154","389543","0.0-64.0","","null","<div style=""font-size:100px;"">+</div>","null","delaylearn","learning","ITI","5c4d8d706b23ab0001a34af2","gh3zrOYqFHNPpCujDw5iAagyjio2","","","","","","","","","","","","","","","","","","","2305","",""
"html-keyboard-response","155","391022","0.0-65.0-0.0","","1471.7999997138977","<div style=""display: flex; flex-direction: column; align-items: center; margin-top: -40px;""><img src=""images/pattern_1.png"" style=""width: 234px; height: 230px; margin-top: -50px;""><div style=""display: flex; justify-content: space-between; margin-top: 33px;""><img src=""images/choice_trial_1.png"" style=""width: 408px; height: 417px; margin-right: 200px;""><img src=""images/choice_trial_2.png"" style=""width: 408px; height: 417px;""></div></div>","f","delaylearn","learning","trial","5c4d8d706b23ab0001a34af2","gh3zrOYqFHNPpCujDw5iAagyjio2","1","images/choice_trial_1.png","images/choice_trial_2.png","images/pattern_1.png","f","f","7000","1","2","1","0","28","1","1","1","150","","","","",""
"html-keyboard-response","156","392040","0.0-65.0-1.0","","null","<div style=""display: flex; flex-direction: column; align-items: center; margin-top: -40px;""><img src=""images/pattern_1.png"" style=""width: 234px; height: 230px; margin-top: -50px;""><div style=""display: flex; justify-content: space-between; margin-top: 33px;""><img src=""images/choice_trial_1.png"" style=""width: 408px; height: 417px; margin-right: 608px;""></div></div>","null","delaylearn","learning","display_response","5c4d8d706b23ab0001a34af2","gh3zrOYqFHNPpCujDw5iAagyjio2","","","","","","","","","","","","","","","","","chosen stimuli: images/choice_trial_1.png","","","",""
"html-keyboard-response","157","399059","0.0-65.0-2.0","","null","","null","delaylearn","learning","feedback_duration_window","5c4d8d706b23ab0001a34af2","gh3zrOYqFHNPpCujDw5iAagyjio2","","","","","","","","","","","","","","","","","","7000","","",""
"html-keyboard-response","158","400566","0.0-65.0-3.0","","null","<div style='margin:auto;width: auto; font-size: 150%'><span style='font-weight: bold; font-size: 100px; color: green;'>+10 points!</span><br><br></div>","null","delaylearn","learning","feedback_image_window","5c4d8d706b23ab0001a34af2","gh3zrOYqFHNPpCujDw5iAagyjio2","","","","","","","","","","","","","","","","","","","","",""
"html-keyboard-response","159","402860","0.0-66.0","","null","<div style=""font-size:100px;"">+</div>","null","delaylearn","learning","ITI","5c4d8d706b23ab0001a34af2","gh3zrOYqFHNPpCujDw5iAagyjio2","","","","","","","","","","","","","","","","","","","2286","",""
"html-keyboard-response","160","404244","0.0-67.0-0.0","","1379.3000001907349","<div style=""display: flex; flex-direction: column; align-items: center; margin-top: -40px;""><img src=""images/pattern_5.png"" style=""width: 234px; height: 230px; margin-top: -50px;""><div style=""display: flex; justify-content: space-between; margin-top: 33px;""><img src=""images/choice_trial_9.png"" style=""width: 408px; height: 417px; margin-right: 200px;""><img src=""images/choice_trial_10.png"" style=""width: 408px; height: 417px;""></div></div>","f","delaylearn","learning","trial","5c4d8d706b23ab0001a34af2","gh3zrOYqFHNPpCujDw5iAagyjio2","1","images/choice_trial_9.png","images/choice_trial_10.png","images/pattern_5.png","f","f","750","9","10","4","0","29","1","1","9","160","","","","",""
"html-keyboard-response","161","405260","0.0-67.0-1.0","","null","<div style=""display: flex; flex-direction: column; align-items: center; margin-top: -40px;""><img src=""images/pattern_5.png"" style=""width: 234px; height: 230px; margin-top: -50px;""><div style=""display: flex; justify-content: space-between; margin-top: 33px;""><img src=""images/choice_trial_9.png"" style=""width: 408px; height: 417px; margin-right: 608px;""></div></div>","null","delaylearn","learning","display_response","5c4d8d706b23ab0001a34af2","gh3zrOYqFHNPpCujDw5iAagyjio2","","","","","","","","","","","","","","","","","chosen stimuli: images/choice_trial_9.png","","","",""
"html-keyboard-response","162","406016","0.0-67.0-2.0","","null","","null","delaylearn","learning","feedback_duration_window","5c4d8d706b23ab0001a34af2","gh3zrOYqFHNPpCujDw5iAagyjio2","","","","","","","","","","","","","","","","","","750","","",""
"html-keyboard-response","163","407527","0.0-67.0-3.0","","null","<div style='margin:auto;width: auto; font-size: 150%'><span style='font-weight: bold; font-size: 100px; color: green;'>+10 points!</span><br><br></div>","null","delaylearn","learning","feedback_image_window","5c4d8d706b23ab0001a34af2","gh3zrOYqFHNPpCujDw5iAagyjio2","","","","","","","","","","","","","","","","","","","","",""
"html-keyboard-response","164","409743","0.0-68.0","","null","<div style=""font-size:100px;"">+</div>","null","delaylearn","learning","ITI","5c4d8d706b23ab0001a34af2","gh3zrOYqFHNPpCujDw5iAagyjio2","","","","","","","","","","","","","","","","","","","2211","",""
"html-keyboard-response","165","411456","0.0-69.0-0.0","","1703.5999999046326","<div style=""display: flex; flex-direction: column; align-items: center; margin-top: -40px;""><img src=""images/pattern_6.png"" style=""width: 234px; height: 230px; margin-top: -50px;""><div style=""display: flex; justify-content: space-between; margin-top: 33px;""><img src=""images/choice_trial_12.png"" style=""width: 408px; height: 417px; margin-right: 200px;""><img src=""images/choice_trial_11.png"" style=""width: 408px; height: 417px;""></div></div>","j","delaylearn","learning","trial","5c4d8d706b23ab0001a34af2","gh3zrOYqFHNPpCujDw5iAagyjio2","1","images/choice_trial_12.png","images/choice_trial_11.png","images/pattern_6.png","j","j","750","12","11","5","1","30","1","1","11","170","","","","",""
"html-keyboard-response","166","412472","0.0-69.0-1.0","","null","<div style=""display: flex; flex-direction: column; align-items: center; margin-top: -40px;""><img src=""images/pattern_6.png"" style=""width: 234px; height: 230px; margin-top: -50px;""><div style=""display: flex; justify-content: space-between; margin-top: 33px;""><img src=""images/choice_trial_11.png"" style=""width: 408px; height: 417px; margin-left:608px;""></div></div>","null","delaylearn","learning","display_response","5c4d8d706b23ab0001a34af2","gh3zrOYqFHNPpCujDw5iAagyjio2","","","","","","","","","","","","","","","","","chosen stimuli: images/choice_trial_11.png","","","",""
"html-keyboard-response","167","413236","0.0-69.0-2.0","","null","","null","delaylearn","learning","feedback_duration_window","5c4d8d706b23ab0001a34af2","gh3zrOYqFHNPpCujDw5iAagyjio2","","","","","","","","","","","","","","","","","","750","","",""
"html-keyboard-response","168","414751","0.0-69.0-3.0","","null","<div style='margin:auto;width: auto; font-size: 150%'><span style='font-weight: bold; font-size: 100px; color: green;'>+10 points!</span><br><br></div>","null","delaylearn","learning","feedback_image_window","5c4d8d706b23ab0001a34af2","gh3zrOYqFHNPpCujDw5iAagyjio2","","","","","","","","","","","","","","","","","","","","",""
"html-keyboard-response","169","415268","0.0-70.0-0.0","","null","","null","","","mood_trial_fixation","","","","","","","","","","","","","","","","","","","","","","",""
"lmdlab-html-vas-response","170","420422","0.0-70.0-1.0","","4124","How happy are you right now?","0.5716320233291513","delaylearn","learning","mood_trial","5c4d8d706b23ab0001a34af2","gh3zrOYqFHNPpCujDw5iAagyjio2","","","","","","","","","","","","","","","","","","","","[""Very unhappy"",""Very happy""]",""
"html-keyboard-response","171","422683","0.0-71.0","","null","<div style=""font-size:100px;"">+</div>","null","delaylearn","learning","ITI","5c4d8d706b23ab0001a34af2","gh3zrOYqFHNPpCujDw5iAagyjio2","","","","","","","","","","","","","","","","","","","2246","",""
"html-keyboard-response","172","423880","0.0-72.0-0.0","","1189","<div style=""display: flex; flex-direction: column; align-items: center; margin-top: -40px;""><img src=""images/pattern_4.png"" style=""width: 234px; height: 230px; margin-top: -50px;""><div style=""display: flex; justify-content: space-between; margin-top: 33px;""><img src=""images/choice_trial_8.png"" style=""width: 408px; height: 417px; margin-right: 200px;""><img src=""images/choice_trial_7.png"" style=""width: 408px; height: 417px;""></div></div>","j","delaylearn","learning","trial","5c4d8d706b23ab0001a34af2","gh3zrOYqFHNPpCujDw5iAagyjio2","1","images/choice_trial_8.png","images/choice_trial_7.png","images/pattern_4.png","j","j","7000","8","7","3","1","31","1","1","7","180","","","","",""
"html-keyboard-response","173","424893","0.0-72.0-1.0","","null","<div style=""display: flex; flex-direction: column; align-items: center; margin-top: -40px;""><img src=""images/pattern_4.png"" style=""width: 234px; height: 230px; margin-top: -50px;""><div style=""display: flex; justify-content: space-between; margin-top: 33px;""><img src=""images/choice_trial_7.png"" style=""width: 408px; height: 417px; margin-left:608px;""></div></div>","null","delaylearn","learning","display_response","5c4d8d706b23ab0001a34af2","gh3zrOYqFHNPpCujDw5iAagyjio2","","","","","","","","","","","","","","","","","chosen stimuli: images/choice_trial_7.png","","","",""
"html-keyboard-response","174","431898","0.0-72.0-2.0","","null","","null","delaylearn","learning","feedback_duration_window","5c4d8d706b23ab0001a34af2","gh3zrOYqFHNPpCujDw5iAagyjio2","","","","","","","","","","","","","","","","","","7000","","",""
"html-keyboard-response","175","433416","0.0-72.0-3.0","","null","<div style='margin:auto;width: auto; font-size: 150%'><span style='font-weight: bold; font-size: 100px; color: green;'>+10 points!</span><br><br></div>","null","delaylearn","learning","feedback_image_window","5c4d8d706b23ab0001a34af2","gh3zrOYqFHNPpCujDw5iAagyjio2","","","","","","","","","","","","","","","","","","","","",""
"html-keyboard-response","176","434946","0.0-73.0","","null","<div style=""font-size:100px;"">+</div>","null","delaylearn","learning","ITI","5c4d8d706b23ab0001a34af2","gh3zrOYqFHNPpCujDw5iAagyjio2","","","","","","","","","","","","","","","","","","","1522","",""
"html-keyboard-response","177","436466","0.0-74.0-0.0","","1512.3000001907349","<div style=""display: flex; flex-direction: column; align-items: center; margin-top: -40px;""><img src=""images/pattern_3.png"" style=""width: 234px; height: 230px; margin-top: -50px;""><div style=""display: flex; justify-content: space-between; margin-top: 33px;""><img src=""images/choice_trial_6.png"" style=""width: 408px; height: 417px; margin-right: 200px;""><img src=""images/choice_trial_5.png"" style=""width: 408px; height: 417px;""></div></div>","j","delaylearn","learning","trial","5c4d8d706b23ab0001a34af2","gh3zrOYqFHNPpCujDw5iAagyjio2","1","images/choice_trial_6.png","images/choice_trial_5.png","images/pattern_3.png","j","j","7000","6","5","2","1","32","1","1","5","190","","","","",""
"html-keyboard-response","178","437482","0.0-74.0-1.0","","null","<div style=""display: flex; flex-direction: column; align-items: center; margin-top: -40px;""><img src=""images/pattern_3.png"" style=""width: 234px; height: 230px; margin-top: -50px;""><div style=""display: flex; justify-content: space-between; margin-top: 33px;""><img src=""images/choice_trial_5.png"" style=""width: 408px; height: 417px; margin-left:608px;""></div></div>","null","delaylearn","learning","display_response","5c4d8d706b23ab0001a34af2","gh3zrOYqFHNPpCujDw5iAagyjio2","","","","","","","","","","","","","","","","","chosen stimuli: images/choice_trial_5.png","","","",""
"html-keyboard-response","179","444497","0.0-74.0-2.0","","null","","null","delaylearn","learning","feedback_duration_window","5c4d8d706b23ab0001a34af2","gh3zrOYqFHNPpCujDw5iAagyjio2","","","","","","","","","","","","","","","","","","7000","","",""
"html-keyboard-response","180","446004","0.0-74.0-3.0","","null","<div style='margin:auto;width: auto; font-size: 150%'><span style='font-weight: bold; font-size: 100px; color: green;'>+10 points!</span><br><br></div>","null","delaylearn","learning","feedback_image_window","5c4d8d706b23ab0001a34af2","gh3zrOYqFHNPpCujDw5iAagyjio2","","","","","","","","","","","","","","","","","","","","",""
"html-keyboard-response","181","448460","0.0-75.0","","null","<div style=""font-size:100px;"">+</div>","null","delaylearn","learning","ITI","5c4d8d706b23ab0001a34af2","gh3zrOYqFHNPpCujDw5iAagyjio2","","","","","","","","","","","","","","","","","","","2439","",""
"html-keyboard-response","182","449679","0.0-76.0-0.0","","1210.1999998092651","<div style=""display: flex; flex-direction: column; align-items: center; margin-top: -40px;""><img src=""images/pattern_5.png"" style=""width: 234px; height: 230px; margin-top: -50px;""><div style=""display: flex; justify-content: space-between; margin-top: 33px;""><img src=""images/choice_trial_9.png"" style=""width: 408px; height: 417px; margin-right: 200px;""><img src=""images/choice_trial_10.png"" style=""width: 408px; height: 417px;""></div></div>","f","delaylearn","learning","trial","5c4d8d706b23ab0001a34af2","gh3zrOYqFHNPpCujDw5iAagyjio2","1","images/choice_trial_9.png","images/choice_trial_10.png","images/pattern_5.png","j","f","750","9","10","4","0","33","1","0","9","190","","","","",""
"html-keyboard-response","183","450698","0.0-76.0-1.0","","null","<div style=""display: flex; flex-direction: column; align-items: center; margin-top: -40px;""><img src=""images/pattern_5.png"" style=""width: 234px; height: 230px; margin-top: -50px;""><div style=""display: flex; justify-content: space-between; margin-top: 33px;""><img src=""images/choice_trial_9.png"" style=""width: 408px; height: 417px; margin-right: 608px;""></div></div>","null","delaylearn","learning","display_response","5c4d8d706b23ab0001a34af2","gh3zrOYqFHNPpCujDw5iAagyjio2","","","","","","","","","","","","","","","","","chosen stimuli: images/choice_trial_9.png","","","",""
"html-keyboard-response","184","451466","0.0-76.0-2.0","","null","","null","delaylearn","learning","feedback_duration_window","5c4d8d706b23ab0001a34af2","gh3zrOYqFHNPpCujDw5iAagyjio2","","","","","","","","","","","","","","","","","","750","","",""
"html-keyboard-response","185","452980","0.0-76.0-3.0","","null","<div style='margin:auto;width: auto; font-size: 150%'><span style='font-weight: bold; font-size: 100px; color: red;'>0 points!</span><br><br></div>","null","delaylearn","learning","feedback_image_window","5c4d8d706b23ab0001a34af2","gh3zrOYqFHNPpCujDw5iAagyjio2","","","","","","","","","","","","","","","","","","","","",""
"html-keyboard-response","186","454777","0.0-77.0","","null","<div style=""font-size:100px;"">+</div>","null","delaylearn","learning","ITI","5c4d8d706b23ab0001a34af2","gh3zrOYqFHNPpCujDw5iAagyjio2","","","","","","","","","","","","","","","","","","","1792","",""
"html-keyboard-response","187","456401","0.0-78.0-0.0","","1616.5999999046326","<div style=""display: flex; flex-direction: column; align-items: center; margin-top: -40px;""><img src=""images/pattern_1.png"" style=""width: 234px; height: 230px; margin-top: -50px;""><div style=""display: flex; justify-content: space-between; margin-top: 33px;""><img src=""images/choice_trial_1.png"" style=""width: 408px; height: 417px; margin-right: 200px;""><img src=""images/choice_trial_2.png"" style=""width: 408px; height: 417px;""></div></div>","j","delaylearn","learning","trial","5c4d8d706b23ab0001a34af2","gh3zrOYqFHNPpCujDw5iAagyjio2","1","images/choice_trial_1.png","images/choice_trial_2.png","images/pattern_1.png","f","f","7000","1","2","1","0","34","0","0","2","190","","","","",""
"html-keyboard-response","188","457416","0.0-78.0-1.0","","null","<div style=""display: flex; flex-direction: column; align-items: center; margin-top: -40px;""><img src=""images/pattern_1.png"" style=""width: 234px; height: 230px; margin-top: -50px;""><div style=""display: flex; justify-content: space-between; margin-top: 33px;""><img src=""images/choice_trial_2.png"" style=""width: 408px; height: 417px; margin-left:608px;""></div></div>","null","delaylearn","learning","display_response","5c4d8d706b23ab0001a34af2","gh3zrOYqFHNPpCujDw5iAagyjio2","","","","","","","","","","","","","","","","","chosen stimuli: images/choice_trial_2.png","","","",""
"html-keyboard-response","189","464433","0.0-78.0-2.0","","null","","null","delaylearn","learning","feedback_duration_window","5c4d8d706b23ab0001a34af2","gh3zrOYqFHNPpCujDw5iAagyjio2","","","","","","","","","","","","","","","","","","7000","","",""
"html-keyboard-response","190","465952","0.0-78.0-3.0","","null","<div style='margin:auto;width: auto; font-size: 150%'><span style='font-weight: bold; font-size: 100px; color: red;'>0 points!</span><br><br></div>","null","delaylearn","learning","feedback_image_window","5c4d8d706b23ab0001a34af2","gh3zrOYqFHNPpCujDw5iAagyjio2","","","","","","","","","","","","","","","","","","","","",""
"html-keyboard-response","191","466468","0.0-79.0-0.0","","null","","null","","","mood_trial_fixation","","","","","","","","","","","","","","","","","","","","","","",""
"lmdlab-html-vas-response","192","472012","0.0-79.0-1.0","","4518","How happy are you right now?","0.5043572615374182","delaylearn","learning","mood_trial","5c4d8d706b23ab0001a34af2","gh3zrOYqFHNPpCujDw5iAagyjio2","","","","","","","","","","","","","","","","","","","","[""Very unhappy"",""Very happy""]",""
"html-keyboard-response","193","473794","0.0-80.0","","null","<div style=""font-size:100px;"">+</div>","null","delaylearn","learning","ITI","5c4d8d706b23ab0001a34af2","gh3zrOYqFHNPpCujDw5iAagyjio2","","","","","","","","","","","","","","","","","","","1774","",""
"html-keyboard-response","194","475089","0.0-81.0-0.0","","1290.4000000953674","<div style=""display: flex; flex-direction: column; align-items: center; margin-top: -40px;""><img src=""images/pattern_6.png"" style=""width: 234px; height: 230px; margin-top: -50px;""><div style=""display: flex; justify-content: space-between; margin-top: 33px;""><img src=""images/choice_trial_11.png"" style=""width: 408px; height: 417px; margin-right: 200px;""><img src=""images/choice_trial_12.png"" style=""width: 408px; height: 417px;""></div></div>","f","delaylearn","learning","trial","5c4d8d706b23ab0001a34af2","gh3zrOYqFHNPpCujDw5iAagyjio2","1","images/choice_trial_11.png","images/choice_trial_12.png","images/pattern_6.png","j","f","750","11","12","5","0","35","1","0","11","190","","","","",""
"html-keyboard-response","195","476108","0.0-81.0-1.0","","null","<div style=""display: flex; flex-direction: column; align-items: center; margin-top: -40px;""><img src=""images/pattern_6.png"" style=""width: 234px; height: 230px; margin-top: -50px;""><div style=""display: flex; justify-content: space-between; margin-top: 33px;""><img src=""images/choice_trial_11.png"" style=""width: 408px; height: 417px; margin-right: 608px;""></div></div>","null","delaylearn","learning","display_response","5c4d8d706b23ab0001a34af2","gh3zrOYqFHNPpCujDw5iAagyjio2","","","","","","","","","","","","","","","","","chosen stimuli: images/choice_trial_11.png","","","",""
"html-keyboard-response","196","476865","0.0-81.0-2.0","","null","","null","delaylearn","learning","feedback_duration_window","5c4d8d706b23ab0001a34af2","gh3zrOYqFHNPpCujDw5iAagyjio2","","","","","","","","","","","","","","","","","","750","","",""
"html-keyboard-response","197","478375","0.0-81.0-3.0","","null","<div style='margin:auto;width: auto; font-size: 150%'><span style='font-weight: bold; font-size: 100px; color: red;'>0 points!</span><br><br></div>","null","delaylearn","learning","feedback_image_window","5c4d8d706b23ab0001a34af2","gh3zrOYqFHNPpCujDw5iAagyjio2","","","","","","","","","","","","","","","","","","","","",""
"html-keyboard-response","198","480279","0.0-82.0","","null","<div style=""font-size:100px;"">+</div>","null","delaylearn","learning","ITI","5c4d8d706b23ab0001a34af2","gh3zrOYqFHNPpCujDw5iAagyjio2","","","","","","","","","","","","","","","","","","","1893","",""
"html-keyboard-response","199","481578","0.0-83.0-0.0","","1289.5","<div style=""display: flex; flex-direction: column; align-items: center; margin-top: -40px;""><img src=""images/pattern_3.png"" style=""width: 234px; height: 230px; margin-top: -50px;""><div style=""display: flex; justify-content: space-between; margin-top: 33px;""><img src=""images/choice_trial_6.png"" style=""width: 408px; height: 417px; margin-right: 200px;""><img src=""images/choice_trial_5.png"" style=""width: 408px; height: 417px;""></div></div>","j","delaylearn","learning","trial","5c4d8d706b23ab0001a34af2","gh3zrOYqFHNPpCujDw5iAagyjio2","1","images/choice_trial_6.png","images/choice_trial_5.png","images/pattern_3.png","j","j","7000","6","5","2","1","36","1","1","5","200","","","","",""
"html-keyboard-response","200","482589","0.0-83.0-1.0","","null","<div style=""display: flex; flex-direction: column; align-items: center; margin-top: -40px;""><img src=""images/pattern_3.png"" style=""width: 234px; height: 230px; margin-top: -50px;""><div style=""display: flex; justify-content: space-between; margin-top: 33px;""><img src=""images/choice_trial_5.png"" style=""width: 408px; height: 417px; margin-left:608px;""></div></div>","null","delaylearn","learning","display_response","5c4d8d706b23ab0001a34af2","gh3zrOYqFHNPpCujDw5iAagyjio2","","","","","","","","","","","","","","","","","chosen stimuli: images/choice_trial_5.png","","","",""
"html-keyboard-response","201","489599","0.0-83.0-2.0","","null","","null","delaylearn","learning","feedback_duration_window","5c4d8d706b23ab0001a34af2","gh3zrOYqFHNPpCujDw5iAagyjio2","","","","","","","","","","","","","","","","","","7000","","",""
"html-keyboard-response","202","491111","0.0-83.0-3.0","","null","<div style='margin:auto;width: auto; font-size: 150%'><span style='font-weight: bold; font-size: 100px; color: green;'>+10 points!</span><br><br></div>","null","delaylearn","learning","feedback_image_window","5c4d8d706b23ab0001a34af2","gh3zrOYqFHNPpCujDw5iAagyjio2","","","","","","","","","","","","","","","","","","","","",""
"html-keyboard-response","203","493254","0.0-84.0","","null","<div style=""font-size:100px;"">+</div>","null","delaylearn","learning","ITI","5c4d8d706b23ab0001a34af2","gh3zrOYqFHNPpCujDw5iAagyjio2","","","","","","","","","","","","","","","","","","","2125","",""
"html-keyboard-response","204","494274","0.0-85.0-0.0","","1011.8000001907349","<div style=""display: flex; flex-direction: column; align-items: center; margin-top: -40px;""><img src=""images/pattern_4.png"" style=""width: 234px; height: 230px; margin-top: -50px;""><div style=""display: flex; justify-content: space-between; margin-top: 33px;""><img src=""images/choice_trial_8.png"" style=""width: 408px; height: 417px; margin-right: 200px;""><img src=""images/choice_trial_7.png"" style=""width: 408px; height: 417px;""></div></div>","j","delaylearn","learning","trial","5c4d8d706b23ab0001a34af2","gh3zrOYqFHNPpCujDw5iAagyjio2","1","images/choice_trial_8.png","images/choice_trial_7.png","images/pattern_4.png","f","j","7000","8","7","3","1","37","1","0","7","200","","","","",""
"html-keyboard-response","205","495290","0.0-85.0-1.0","","null","<div style=""display: flex; flex-direction: column; align-items: center; margin-top: -40px;""><img src=""images/pattern_4.png"" style=""width: 234px; height: 230px; margin-top: -50px;""><div style=""display: flex; justify-content: space-between; margin-top: 33px;""><img src=""images/choice_trial_7.png"" style=""width: 408px; height: 417px; margin-left:608px;""></div></div>","null","delaylearn","learning","display_response","5c4d8d706b23ab0001a34af2","gh3zrOYqFHNPpCujDw5iAagyjio2","","","","","","","","","","","","","","","","","chosen stimuli: images/choice_trial_7.png","","","",""
"html-keyboard-response","206","502295","0.0-85.0-2.0","","null","","null","delaylearn","learning","feedback_duration_window","5c4d8d706b23ab0001a34af2","gh3zrOYqFHNPpCujDw5iAagyjio2","","","","","","","","","","","","","","","","","","7000","","",""
"html-keyboard-response","207","503814","0.0-85.0-3.0","","null","<div style='margin:auto;width: auto; font-size: 150%'><span style='font-weight: bold; font-size: 100px; color: red;'>0 points!</span><br><br></div>","null","delaylearn","learning","feedback_image_window","5c4d8d706b23ab0001a34af2","gh3zrOYqFHNPpCujDw5iAagyjio2","","","","","","","","","","","","","","","","","","","","",""
"html-keyboard-response","208","505453","0.0-86.0","","null","<div style=""font-size:100px;"">+</div>","null","delaylearn","learning","ITI","5c4d8d706b23ab0001a34af2","gh3zrOYqFHNPpCujDw5iAagyjio2","","","","","","","","","","","","","","","","","","","1624","",""
"html-keyboard-response","209","507435","0.0-87.0-0.0","","1973.1000003814697","<div style=""display: flex; flex-direction: column; align-items: center; margin-top: -40px;""><img src=""images/pattern_7.png"" style=""width: 234px; height: 230px; margin-top: -50px;""><div style=""display: flex; justify-content: space-between; margin-top: 33px;""><img src=""images/choice_trial_13.png"" style=""width: 408px; height: 417px; margin-right: 200px;""><img src=""images/choice_trial_14.png"" style=""width: 408px; height: 417px;""></div></div>","j","delaylearn","learning","trial","5c4d8d706b23ab0001a34af2","gh3zrOYqFHNPpCujDw5iAagyjio2","1","images/choice_trial_13.png","images/choice_trial_14.png","images/pattern_7.png","f","f","750","13","14","6","0","38","0","0","14","200","","","","",""
"html-keyboard-response","210","508445","0.0-87.0-1.0","","null","<div style=""display: flex; flex-direction: column; align-items: center; margin-top: -40px;""><img src=""images/pattern_7.png"" style=""width: 234px; height: 230px; margin-top: -50px;""><div style=""display: flex; justify-content: space-between; margin-top: 33px;""><img src=""images/choice_trial_14.png"" style=""width: 408px; height: 417px; margin-left:608px;""></div></div>","null","delaylearn","learning","display_response","5c4d8d706b23ab0001a34af2","gh3zrOYqFHNPpCujDw5iAagyjio2","","","","","","","","","","","","","","","","","chosen stimuli: images/choice_trial_14.png","","","",""
"html-keyboard-response","211","509209","0.0-87.0-2.0","","null","","null","delaylearn","learning","feedback_duration_window","5c4d8d706b23ab0001a34af2","gh3zrOYqFHNPpCujDw5iAagyjio2","","","","","","","","","","","","","","","","","","750","","",""
"html-keyboard-response","212","510724","0.0-87.0-3.0","","null","<div style='margin:auto;width: auto; font-size: 150%'><span style='font-weight: bold; font-size: 100px; color: red;'>0 points!</span><br><br></div>","null","delaylearn","learning","feedback_image_window","5c4d8d706b23ab0001a34af2","gh3zrOYqFHNPpCujDw5iAagyjio2","","","","","","","","","","","","","","","","","","","","",""
"html-keyboard-response","213","512572","0.0-88.0","","null","<div style=""font-size:100px;"">+</div>","null","delaylearn","learning","ITI","5c4d8d706b23ab0001a34af2","gh3zrOYqFHNPpCujDw5iAagyjio2","","","","","","","","","","","","","","","","","","","1832","",""
"html-keyboard-response","214","514297","0.0-89.0-0.0","","1715","<div style=""display: flex; flex-direction: column; align-items: center; margin-top: -40px;""><img src=""images/pattern_1.png"" style=""width: 234px; height: 230px; margin-top: -50px;""><div style=""display: flex; justify-content: space-between; margin-top: 33px;""><img src=""images/choice_trial_1.png"" style=""width: 408px; height: 417px; margin-right: 200px;""><img src=""images/choice_trial_2.png"" style=""width: 408px; height: 417px;""></div></div>","j","delaylearn","learning","trial","5c4d8d706b23ab0001a34af2","gh3zrOYqFHNPpCujDw5iAagyjio2","1","images/choice_trial_1.png","images/choice_trial_2.png","images/pattern_1.png","f","f","7000","1","2","1","0","39","0","0","2","200","","","","",""
"html-keyboard-response","215","515306","0.0-89.0-1.0","","null","<div style=""display: flex; flex-direction: column; align-items: center; margin-top: -40px;""><img src=""images/pattern_1.png"" style=""width: 234px; height: 230px; margin-top: -50px;""><div style=""display: flex; justify-content: space-between; margin-top: 33px;""><img src=""images/choice_trial_2.png"" style=""width: 408px; height: 417px; margin-left:608px;""></div></div>","null","delaylearn","learning","display_response","5c4d8d706b23ab0001a34af2","gh3zrOYqFHNPpCujDw5iAagyjio2","","","","","","","","","","","","","","","","","chosen stimuli: images/choice_trial_2.png","","","",""
"html-keyboard-response","216","522325","0.0-89.0-2.0","","null","","null","delaylearn","learning","feedback_duration_window","5c4d8d706b23ab0001a34af2","gh3zrOYqFHNPpCujDw5iAagyjio2","","","","","","","","","","","","","","","","","","7000","","",""
"html-keyboard-response","217","523831","0.0-89.0-3.0","","null","<div style='margin:auto;width: auto; font-size: 150%'><span style='font-weight: bold; font-size: 100px; color: red;'>0 points!</span><br><br></div>","null","delaylearn","learning","feedback_image_window","5c4d8d706b23ab0001a34af2","gh3zrOYqFHNPpCujDw5iAagyjio2","","","","","","","","","","","","","","","","","","","","",""
"html-keyboard-response","218","524343","0.0-90.0-0.0","","null","","null","","","mood_trial_fixation","","","","","","","","","","","","","","","","","","","","","","",""
"lmdlab-html-vas-response","219","528615","0.0-90.0-1.0","","3245","How happy are you right now?","0.3502763554982876","delaylearn","learning","mood_trial","5c4d8d706b23ab0001a34af2","gh3zrOYqFHNPpCujDw5iAagyjio2","","","","","","","","","","","","","","","","","","","","[""Very unhappy"",""Very happy""]",""
"html-keyboard-response","220","530234","0.0-91.0","","null","<div style=""font-size:100px;"">+</div>","null","delaylearn","learning","ITI","5c4d8d706b23ab0001a34af2","gh3zrOYqFHNPpCujDw5iAagyjio2","","","","","","","","","","","","","","","","","","","1600","",""
