"trial_type","trial_index","time_elapsed","internal_node_id","participant","rt","stimulus","response","exp_name","exp_stage","test_part","subjectID","databaseID","counterbal","choice_stimuli_1","choice_stimuli_2","pattern_stimuli","rewarded_answer","correct_answer","feedback_duration_times","stim_left","stim_right","pair","leftright_counter","trial","response_correct","response_rewarded","chosen_stim","counter","displayed_choice","feedback_durations","ITI_duration","labels","rest_warning"
"pavlovia","0","595","0.0-0.0","","","","","","","","","","","","","","","","","","","","","","","","","","","","","",""
"html-keyboard-response","1","3596","0.0-1.0","","null","<div style=""font-size:100px;"">+</div>","null","delaylearn","learning","pre_fixation","64137069043a6e0150c4beae","","","","","","","","","","","","","","","","","","","","","",""
"html-keyboard-response","2","4317","0.0-2.0-0.0","","718.0000000000291","<div style=""display: flex; flex-direction: column; align-items: center; margin-top: -40px;""><img src=""images/demo_images/pattern_1.png"" style=""width: 234px; height: 230px; margin-top: -50px;""><div style=""display: flex; justify-content: space-between; margin-top: 33px;""><img src=""images/demo_images/choice_trial_2.png"" style=""width: 408px; height: 417px; margin-right: 200px;""><img src=""images/demo_images/choice_trial_1.png"" style=""width: 408px; height: 417px;""></div></div>","f","delaylearn","learning","trial","64137069043a6e0150c4beae","tjo6pUVGfIhMwOnVwE1HnD3HsmE3","2","images/demo_images/choice_trial_2.png","images/demo_images/choice_trial_1.png","images/demo_images/pattern_1.png","j","j","3000","2","1","20","1","1","0","0","2","0","","","","",""
"html-keyboard-response","3","5320","0.0-2.0-1.0","","null","<div style=""display: flex; flex-direction: column; align-items: center; margin-top: -40px;""><img src=""images/demo_images/pattern_1.png"" style=""width: 234px; height: 230px; margin-top: -50px;""><div style=""display: flex; justify-content: space-between; margin-top: 33px;""><img src=""images/demo_images/choice_trial_2.png"" style=""width: 408px; height: 417px; margin-right: 608px;""></div></div>","null","delaylearn","learning","display_response","64137069043a6e0150c4beae","tjo6pUVGfIhMwOnVwE1HnD3HsmE3","","","","","","","","","","","","","","","","","chosen stimuli: images/demo_images/choice_trial_2.png","","","",""
"html-keyboard-response","4","8322","0.0-2.0-2.0","","null","","null","delaylearn","learning","feedback_duration_window","64137069043a6e0150c4beae","tjo6pUVGfIhMwOnVwE1HnD3HsmE3","","","","","","","","","","","","","","","","","","3000","","",""
"html-keyboard-response","5","9824","0.0-2.0-3.0","","null","<div style='margin:auto;width: auto; font-size: 150%'><span style='font-weight: bold; font-size: 100px; color: red;'>0 points!</span><br><br></div>","null","delaylearn","learning","feedback_image_window","64137069043a6e0150c4beae","tjo6pUVGfIhMwOnVwE1HnD3HsmE3","","","","","","","","","","","","","","","","","","","","",""
"html-keyboard-response","6","12139","0.0-3.0","","null","<div style=""font-size:100px;"">+</div>","null","delaylearn","learning","ITI","64137069043a6e0150c4beae","tjo6pUVGfIhMwOnVwE1HnD3HsmE3","","","","","","","","","","","","","","","","","","","2314","",""
"html-keyboard-response","7","12926","0.0-4.0-0.0","","782","<div style=""display: flex; flex-direction: column; align-items: center; margin-top: -40px;""><img src=""images/demo_images/pattern_1.png"" style=""width: 234px; height: 230px; margin-top: -50px;""><div style=""display: flex; justify-content: space-between; margin-top: 33px;""><img src=""images/demo_images/choice_trial_2.png"" style=""width: 408px; height: 417px; margin-right: 200px;""><img src=""images/demo_images/choice_trial_1.png"" style=""width: 408px; height: 417px;""></div></div>","j","delaylearn","learning","trial","64137069043a6e0150c4beae","tjo6pUVGfIhMwOnVwE1HnD3HsmE3","2","images/demo_images/choice_trial_2.png","images/demo_images/choice_trial_1.png","images/demo_images/pattern_1.png","j","j","3000","2","1","20","1","2","1","1","1","10","","","","",""
"html-keyboard-response","8","13929","0.0-4.0-1.0","","null","<div style=""display: flex; flex-direction: column; align-items: center; margin-top: -40px;""><img src=""images/demo_images/pattern_1.png"" style=""width: 234px; height: 230px; margin-top: -50px;""><div style=""display: flex; justify-content: space-between; margin-top: 33px;""><img src=""images/demo_images/choice_trial_1.png"" style=""width: 408px; height: 417px; margin-left:608px;""></div></div>","null","delaylearn","learning","display_response","64137069043a6e0150c4beae","tjo6pUVGfIhMwOnVwE1HnD3HsmE3","","","","","","","","","","","","","","","","","chosen stimuli: images/demo_images/choice_trial_1.png","","","",""
"html-keyboard-response","9","16930","0.0-4.0-2.0","","null","","null","delaylearn","learning","feedback_duration_window","64137069043a6e0150c4beae","tjo6pUVGfIhMwOnVwE1HnD3HsmE3","","","","","","","","","","","","","","","","","","3000","","",""
"html-keyboard-response","10","18432","0.0-4.0-3.0","","null","<div style='margin:auto;width: auto; font-size: 150%'><span style='font-weight: bold; font-size: 100px; color: green;'>+10 points!</span><br><br></div>","null","delaylearn","learning","feedback_image_window","64137069043a6e0150c4beae","tjo6pUVGfIhMwOnVwE1HnD3HsmE3","","","","","","","","","","","","","","","","","","","","",""
"html-keyboard-response","11","20424","0.0-5.0","","null","<div style=""font-size:100px;"">+</div>","null","delaylearn","learning","ITI","64137069043a6e0150c4beae","tjo6pUVGfIhMwOnVwE1HnD3HsmE3","","","","","","","","","","","","","","","","","","","1989","",""
"html-keyboard-response","12","21320","0.0-6.0-0.0","","893","<div style=""display: flex; flex-direction: column; align-items: center; margin-top: -40px;""><img src=""images/demo_images/pattern_1.png"" style=""width: 234px; height: 230px; margin-top: -50px;""><div style=""display: flex; justify-content: space-between; margin-top: 33px;""><img src=""images/demo_images/choice_trial_1.png"" style=""width: 408px; height: 417px; margin-right: 200px;""><img src=""images/demo_images/choice_trial_2.png"" style=""width: 408px; height: 417px;""></div></div>","f","delaylearn","learning","trial","64137069043a6e0150c4beae","tjo6pUVGfIhMwOnVwE1HnD3HsmE3","2","images/demo_images/choice_trial_1.png","images/demo_images/choice_trial_2.png","images/demo_images/pattern_1.png","j","f","3000","1","2","20","0","3","1","0","1","10","","","","",""
"html-keyboard-response","13","22323","0.0-6.0-1.0","","null","<div style=""display: flex; flex-direction: column; align-items: center; margin-top: -40px;""><img src=""images/demo_images/pattern_1.png"" style=""width: 234px; height: 230px; margin-top: -50px;""><div style=""display: flex; justify-content: space-between; margin-top: 33px;""><img src=""images/demo_images/choice_trial_1.png"" style=""width: 408px; height: 417px; margin-right: 608px;""></div></div>","null","delaylearn","learning","display_response","64137069043a6e0150c4beae","tjo6pUVGfIhMwOnVwE1HnD3HsmE3","","","","","","","","","","","","","","","","","chosen stimuli: images/demo_images/choice_trial_1.png","","","",""
"html-keyboard-response","14","25324","0.0-6.0-2.0","","null","","null","delaylearn","learning","feedback_duration_window","64137069043a6e0150c4beae","tjo6pUVGfIhMwOnVwE1HnD3HsmE3","","","","","","","","","","","","","","","","","","3000","","",""
"html-keyboard-response","15","26827","0.0-6.0-3.0","","null","<div style='margin:auto;width: auto; font-size: 150%'><span style='font-weight: bold; font-size: 100px; color: red;'>0 points!</span><br><br></div>","null","delaylearn","learning","feedback_image_window","64137069043a6e0150c4beae","tjo6pUVGfIhMwOnVwE1HnD3HsmE3","","","","","","","","","","","","","","","","","","","","",""
"html-keyboard-response","16","29307","0.0-7.0","","null","<div style=""font-size:100px;"">+</div>","null","delaylearn","learning","ITI","64137069043a6e0150c4beae","tjo6pUVGfIhMwOnVwE1HnD3HsmE3","","","","","","","","","","","","","","","","","","","2478","",""
"html-keyboard-response","17","30276","0.0-8.0-0.0","","967","<div style=""display: flex; flex-direction: column; align-items: center; margin-top: -40px;""><img src=""images/demo_images/pattern_1.png"" style=""width: 234px; height: 230px; margin-top: -50px;""><div style=""display: flex; justify-content: space-between; margin-top: 33px;""><img src=""images/demo_images/choice_trial_1.png"" style=""width: 408px; height: 417px; margin-right: 200px;""><img src=""images/demo_images/choice_trial_2.png"" style=""width: 408px; height: 417px;""></div></div>","f","delaylearn","learning","trial","64137069043a6e0150c4beae","tjo6pUVGfIhMwOnVwE1HnD3HsmE3","2","images/demo_images/choice_trial_1.png","images/demo_images/choice_trial_2.png","images/demo_images/pattern_1.png","f","f","3000","1","2","20","0","4","1","1","1","20","","","","",""
"html-keyboard-response","18","31279","0.0-8.0-1.0","","null","<div style=""display: flex; flex-direction: column; align-items: center; margin-top: -40px;""><img src=""images/demo_images/pattern_1.png"" style=""width: 234px; height: 230px; margin-top: -50px;""><div style=""display: flex; justify-content: space-between; margin-top: 33px;""><img src=""images/demo_images/choice_trial_1.png"" style=""width: 408px; height: 417px; margin-right: 608px;""></div></div>","null","delaylearn","learning","display_response","64137069043a6e0150c4beae","tjo6pUVGfIhMwOnVwE1HnD3HsmE3","","","","","","","","","","","","","","","","","chosen stimuli: images/demo_images/choice_trial_1.png","","","",""
"html-keyboard-response","19","34281","0.0-8.0-2.0","","null","","null","delaylearn","learning","feedback_duration_window","64137069043a6e0150c4beae","tjo6pUVGfIhMwOnVwE1HnD3HsmE3","","","","","","","","","","","","","","","","","","3000","","",""
"html-keyboard-response","20","35783","0.0-8.0-3.0","","null","<div style='margin:auto;width: auto; font-size: 150%'><span style='font-weight: bold; font-size: 100px; color: green;'>+10 points!</span><br><br></div>","null","delaylearn","learning","feedback_image_window","64137069043a6e0150c4beae","tjo6pUVGfIhMwOnVwE1HnD3HsmE3","","","","","","","","","","","","","","","","","","","","",""
"html-keyboard-response","21","36284","0.0-9.0-0.0","","null","","null","","","mood_trial_fixation","","","","","","","","","","","","","","","","","","","","","","",""
"lmdlab-html-vas-response","22","42978","0.0-9.0-1.0","","5684","How happy are you right now?","0.53544921875","delaylearn","learning","mood_trial","64137069043a6e0150c4beae","tjo6pUVGfIhMwOnVwE1HnD3HsmE3","","","","","","","","","","","","","","","","","","","","[""Very unhappy"",""Very happy""]",""
"html-keyboard-response","23","45305","0.0-10.0","","null","<div style=""font-size:100px;"">+</div>","null","delaylearn","learning","ITI","64137069043a6e0150c4beae","tjo6pUVGfIhMwOnVwE1HnD3HsmE3","","","","","","","","","","","","","","","","","","","2325","",""
"html-keyboard-response","24","46445","0.0-11.0-0.0","","1136","<div style=""display: flex; flex-direction: column; align-items: center; margin-top: -40px;""><img src=""images/demo_images/pattern_1.png"" style=""width: 234px; height: 230px; margin-top: -50px;""><div style=""display: flex; justify-content: space-between; margin-top: 33px;""><img src=""images/demo_images/choice_trial_2.png"" style=""width: 408px; height: 417px; margin-right: 200px;""><img src=""images/demo_images/choice_trial_1.png"" style=""width: 408px; height: 417px;""></div></div>","j","delaylearn","learning","trial","64137069043a6e0150c4beae","tjo6pUVGfIhMwOnVwE1HnD3HsmE3","2","images/demo_images/choice_trial_2.png","images/demo_images/choice_trial_1.png","images/demo_images/pattern_1.png","j","j","3000","2","1","20","1","5","1","1","1","30","","","","",""
"html-keyboard-response","25","47448","0.0-11.0-1.0","","null","<div style=""display: flex; flex-direction: column; align-items: center; margin-top: -40px;""><img src=""images/demo_images/pattern_1.png"" style=""width: 234px; height: 230px; margin-top: -50px;""><div style=""display: flex; justify-content: space-between; margin-top: 33px;""><img src=""images/demo_images/choice_trial_1.png"" style=""width: 408px; height: 417px; margin-left:608px;""></div></div>","null","delaylearn","learning","display_response","64137069043a6e0150c4beae","tjo6pUVGfIhMwOnVwE1HnD3HsmE3","","","","","","","","","","","","","","","","","chosen stimuli: images/demo_images/choice_trial_1.png","","","",""
"html-keyboard-response","26","50450","0.0-11.0-2.0","","null","","null","delaylearn","learning","feedback_duration_window","64137069043a6e0150c4beae","tjo6pUVGfIhMwOnVwE1HnD3HsmE3","","","","","","","","","","","","","","","","","","3000","","",""
"html-keyboard-response","27","51952","0.0-11.0-3.0","","null","<div style='margin:auto;width: auto; font-size: 150%'><span style='font-weight: bold; font-size: 100px; color: green;'>+10 points!</span><br><br></div>","null","delaylearn","learning","feedback_image_window","64137069043a6e0150c4beae","tjo6pUVGfIhMwOnVwE1HnD3HsmE3","","","","","","","","","","","","","","","","","","","","",""
"html-keyboard-response","28","54094","0.0-12.0","","null","<div style=""font-size:100px;"">+</div>","null","delaylearn","learning","ITI","64137069043a6e0150c4beae","tjo6pUVGfIhMwOnVwE1HnD3HsmE3","","","","","","","","","","","","","","","","","","","2140","",""
"html-keyboard-response","29","54788","0.0-13.0-0.0","","691","<div style=""display: flex; flex-direction: column; align-items: center; margin-top: -40px;""><img src=""images/demo_images/pattern_1.png"" style=""width: 234px; height: 230px; margin-top: -50px;""><div style=""display: flex; justify-content: space-between; margin-top: 33px;""><img src=""images/demo_images/choice_trial_1.png"" style=""width: 408px; height: 417px; margin-right: 200px;""><img src=""images/demo_images/choice_trial_2.png"" style=""width: 408px; height: 417px;""></div></div>","f","delaylearn","learning","trial","64137069043a6e0150c4beae","tjo6pUVGfIhMwOnVwE1HnD3HsmE3","2","images/demo_images/choice_trial_1.png","images/demo_images/choice_trial_2.png","images/demo_images/pattern_1.png","f","f","3000","1","2","20","0","6","1","1","1","40","","","","",""
"html-keyboard-response","30","55790","0.0-13.0-1.0","","null","<div style=""display: flex; flex-direction: column; align-items: center; margin-top: -40px;""><img src=""images/demo_images/pattern_1.png"" style=""width: 234px; height: 230px; margin-top: -50px;""><div style=""display: flex; justify-content: space-between; margin-top: 33px;""><img src=""images/demo_images/choice_trial_1.png"" style=""width: 408px; height: 417px; margin-right: 608px;""></div></div>","null","delaylearn","learning","display_response","64137069043a6e0150c4beae","tjo6pUVGfIhMwOnVwE1HnD3HsmE3","","","","","","","","","","","","","","","","","chosen stimuli: images/demo_images/choice_trial_1.png","","","",""
"html-keyboard-response","31","58791","0.0-13.0-2.0","","null","","null","delaylearn","learning","feedback_duration_window","64137069043a6e0150c4beae","tjo6pUVGfIhMwOnVwE1HnD3HsmE3","","","","","","","","","","","","","","","","","","3000","","",""
"html-keyboard-response","32","60297","0.0-13.0-3.0","","null","<div style='margin:auto;width: auto; font-size: 150%'><span style='font-weight: bold; font-size: 100px; color: green;'>+10 points!</span><br><br></div>","null","delaylearn","learning","feedback_image_window","64137069043a6e0150c4beae","tjo6pUVGfIhMwOnVwE1HnD3HsmE3","","","","","","","","","","","","","","","","","","","","",""
"html-keyboard-response","33","62313","0.0-14.0","","null","<div style=""font-size:100px;"">+</div>","null","delaylearn","learning","ITI","64137069043a6e0150c4beae","tjo6pUVGfIhMwOnVwE1HnD3HsmE3","","","","","","","","","","","","","","","","","","","2014","",""
"html-keyboard-response","34","62928","0.0-15.0-0.0","","611.9999999999709","<div style=""display: flex; flex-direction: column; align-items: center; margin-top: -40px;""><img src=""images/demo_images/pattern_1.png"" style=""width: 234px; height: 230px; margin-top: -50px;""><div style=""display: flex; justify-content: space-between; margin-top: 33px;""><img src=""images/demo_images/choice_trial_2.png"" style=""width: 408px; height: 417px; margin-right: 200px;""><img src=""images/demo_images/choice_trial_1.png"" style=""width: 408px; height: 417px;""></div></div>","j","delaylearn","learning","trial","64137069043a6e0150c4beae","tjo6pUVGfIhMwOnVwE1HnD3HsmE3","2","images/demo_images/choice_trial_2.png","images/demo_images/choice_trial_1.png","images/demo_images/pattern_1.png","j","j","3000","2","1","20","1","7","1","1","1","50","","","","",""
"html-keyboard-response","35","63931","0.0-15.0-1.0","","null","<div style=""display: flex; flex-direction: column; align-items: center; margin-top: -40px;""><img src=""images/demo_images/pattern_1.png"" style=""width: 234px; height: 230px; margin-top: -50px;""><div style=""display: flex; justify-content: space-between; margin-top: 33px;""><img src=""images/demo_images/choice_trial_1.png"" style=""width: 408px; height: 417px; margin-left:608px;""></div></div>","null","delaylearn","learning","display_response","64137069043a6e0150c4beae","tjo6pUVGfIhMwOnVwE1HnD3HsmE3","","","","","","","","","","","","","","","","","chosen stimuli: images/demo_images/choice_trial_1.png","","","",""
"html-keyboard-response","36","66933","0.0-15.0-2.0","","null","","null","delaylearn","learning","feedback_duration_window","64137069043a6e0150c4beae","tjo6pUVGfIhMwOnVwE1HnD3HsmE3","","","","","","","","","","","","","","","","","","3000","","",""
"html-keyboard-response","37","68435","0.0-15.0-3.0","","null","<div style='margin:auto;width: auto; font-size: 150%'><span style='font-weight: bold; font-size: 100px; color: green;'>+10 points!</span><br><br></div>","null","delaylearn","learning","feedback_image_window","64137069043a6e0150c4beae","tjo6pUVGfIhMwOnVwE1HnD3HsmE3","","","","","","","","","","","","","","","","","","","","",""
"html-keyboard-response","38","70789","0.0-16.0","","null","<div style=""font-size:100px;"">+</div>","null","delaylearn","learning","ITI","64137069043a6e0150c4beae","tjo6pUVGfIhMwOnVwE1HnD3HsmE3","","","","","","","","","","","","","","","","","","","2352","",""
"html-keyboard-response","39","71319","0.0-17.0-0.0","","527","<div style=""display: flex; flex-direction: column; align-items: center; margin-top: -40px;""><img src=""images/demo_images/pattern_1.png"" style=""width: 234px; height: 230px; margin-top: -50px;""><div style=""display: flex; justify-content: space-between; margin-top: 33px;""><img src=""images/demo_images/choice_trial_1.png"" style=""width: 408px; height: 417px; margin-right: 200px;""><img src=""images/demo_images/choice_trial_2.png"" style=""width: 408px; height: 417px;""></div></div>","f","delaylearn","learning","trial","64137069043a6e0150c4beae","tjo6pUVGfIhMwOnVwE1HnD3HsmE3","2","images/demo_images/choice_trial_1.png","images/demo_images/choice_trial_2.png","images/demo_images/pattern_1.png","f","f","3000","1","2","20","0","8","1","1","1","60","","","","",""
"html-keyboard-response","40","72322","0.0-17.0-1.0","","null","<div style=""display: flex; flex-direction: column; align-items: center; margin-top: -40px;""><img src=""images/demo_images/pattern_1.png"" style=""width: 234px; height: 230px; margin-top: -50px;""><div style=""display: flex; justify-content: space-between; margin-top: 33px;""><img src=""images/demo_images/choice_trial_1.png"" style=""width: 408px; height: 417px; margin-right: 608px;""></div></div>","null","delaylearn","learning","display_response","64137069043a6e0150c4beae","tjo6pUVGfIhMwOnVwE1HnD3HsmE3","","","","","","","","","","","","","","","","","chosen stimuli: images/demo_images/choice_trial_1.png","","","",""
"html-keyboard-response","41","75325","0.0-17.0-2.0","","null","","null","delaylearn","learning","feedback_duration_window","64137069043a6e0150c4beae","tjo6pUVGfIhMwOnVwE1HnD3HsmE3","","","","","","","","","","","","","","","","","","3000","","",""
"html-keyboard-response","42","76827","0.0-17.0-3.0","","null","<div style='margin:auto;width: auto; font-size: 150%'><span style='font-weight: bold; font-size: 100px; color: green;'>+10 points!</span><br><br></div>","null","delaylearn","learning","feedback_image_window","64137069043a6e0150c4beae","tjo6pUVGfIhMwOnVwE1HnD3HsmE3","","","","","","","","","","","","","","","","","","","","",""
"html-button-response","43","79448","0.0-18.0","","2619","
  <div style=""display: flex; align-items: center; justify-content: center; height: 80vh;"">
  <div>
          <img src=""images/inst_demo_finish.png"" style=""width: 80vw; height:auto;"">
          <br><br>
      </div>
      <br><br>
  </div>","0","","","","","","","","","","","","","","","","","","","","","","","","","",""
"html-keyboard-response","44","82941","0.0-19.0","","3492","
  <div style=""display: flex; align-items: center; justify-content: center; height: 80vh;"">
  <div>
          <img src=""images/inst_6.png"" style=""width: 80vw; height:auto;"">
          <br><br>
      </div>
      <br><br>
  </div>","j","","","","","","","","","","","","","","","","","","","","","","","","","",""
"html-keyboard-response","45","85944","0.0-20.0","","null","<div style=""font-size:100px;"">+</div>","null","delaylearn","learning","pre_fixation","64137069043a6e0150c4beae","","","","","","","","","","","","","","","","","","","","","",""
"html-keyboard-response","46","87654","0.0-21.0","","null","<div style=""font-size:100px;"">+</div>","null","delaylearn","learning","ITI","64137069043a6e0150c4beae","tjo6pUVGfIhMwOnVwE1HnD3HsmE3","","","","","","","","","","","","","","","","","","","1707","",""
"html-keyboard-response","47","88570","0.0-22.0-0.0","","913","<div style=""display: flex; flex-direction: column; align-items: center; margin-top: -40px;""><img src=""images/pattern_3.png"" style=""width: 234px; height: 230px; margin-top: -50px;""><div style=""display: flex; justify-content: space-between; margin-top: 33px;""><img src=""images/choice_trial_12.png"" style=""width: 408px; height: 417px; margin-right: 200px;""><img src=""images/choice_trial_14.png"" style=""width: 408px; height: 417px;""></div></div>","j","delaylearn","learning","trial","64137069043a6e0150c4beae","tjo6pUVGfIhMwOnVwE1HnD3HsmE3","2","images/choice_trial_12.png","images/choice_trial_14.png","images/pattern_3.png","f","f","7000","12","14","2","0","9","0","0","14","60","","","","",""
"html-keyboard-response","48","89573","0.0-22.0-1.0","","null","<div style=""display: flex; flex-direction: column; align-items: center; margin-top: -40px;""><img src=""images/pattern_3.png"" style=""width: 234px; height: 230px; margin-top: -50px;""><div style=""display: flex; justify-content: space-between; margin-top: 33px;""><img src=""images/choice_trial_14.png"" style=""width: 408px; height: 417px; margin-left:608px;""></div></div>","null","delaylearn","learning","display_response","64137069043a6e0150c4beae","tjo6pUVGfIhMwOnVwE1HnD3HsmE3","","","","","","","","","","","","","","","","","chosen stimuli: images/choice_trial_14.png","","","",""
"html-keyboard-response","49","96574","0.0-22.0-2.0","","null","","null","delaylearn","learning","feedback_duration_window","64137069043a6e0150c4beae","tjo6pUVGfIhMwOnVwE1HnD3HsmE3","","","","","","","","","","","","","","","","","","7000","","",""
"html-keyboard-response","50","98077","0.0-22.0-3.0","","null","<div style='margin:auto;width: auto; font-size: 150%'><span style='font-weight: bold; font-size: 100px; color: red;'>0 points!</span><br><br></div>","null","delaylearn","learning","feedback_image_window","64137069043a6e0150c4beae","tjo6pUVGfIhMwOnVwE1HnD3HsmE3","","","","","","","","","","","","","","","","","","","","",""
"html-keyboard-response","51","99735","0.0-23.0","","null","<div style=""font-size:100px;"">+</div>","null","delaylearn","learning","ITI","64137069043a6e0150c4beae","tjo6pUVGfIhMwOnVwE1HnD3HsmE3","","","","","","","","","","","","","","","","","","","1655","",""
"html-keyboard-response","52","101059","0.0-24.0-0.0","","1321.999999999971","<div style=""display: flex; flex-direction: column; align-items: center; margin-top: -40px;""><img src=""images/pattern_7.png"" style=""width: 234px; height: 230px; margin-top: -50px;""><div style=""display: flex; justify-content: space-between; margin-top: 33px;""><img src=""images/choice_trial_15.png"" style=""width: 408px; height: 417px; margin-right: 200px;""><img src=""images/choice_trial_8.png"" style=""width: 408px; height: 417px;""></div></div>","f","delaylearn","learning","trial","64137069043a6e0150c4beae","tjo6pUVGfIhMwOnVwE1HnD3HsmE3","2","images/choice_trial_15.png","images/choice_trial_8.png","images/pattern_7.png","j","j","750","15","8","6","1","10","0","0","15","60","","","","",""
"html-keyboard-response","53","102062","0.0-24.0-1.0","","null","<div style=""display: flex; flex-direction: column; align-items: center; margin-top: -40px;""><img src=""images/pattern_7.png"" style=""width: 234px; height: 230px; margin-top: -50px;""><div style=""display: flex; justify-content: space-between; margin-top: 33px;""><img src=""images/choice_trial_15.png"" style=""width: 408px; height: 417px; margin-right: 608px;""></div></div>","null","delaylearn","learning","display_response","64137069043a6e0150c4beae","tjo6pUVGfIhMwOnVwE1HnD3HsmE3","","","","","","","","","","","","","","","","","chosen stimuli: images/choice_trial_15.png","","","",""
"html-keyboard-response","54","102813","0.0-24.0-2.0","","null","","null","delaylearn","learning","feedback_duration_window","64137069043a6e0150c4beae","tjo6pUVGfIhMwOnVwE1HnD3HsmE3","","","","","","","","","","","","","","","","","","750","","",""
"html-keyboard-response","55","104315","0.0-24.0-3.0","","null","<div style='margin:auto;width: auto; font-size: 150%'><span style='font-weight: bold; font-size: 100px; color: red;'>0 points!</span><br><br></div>","null","delaylearn","learning","feedback_image_window","64137069043a6e0150c4beae","tjo6pUVGfIhMwOnVwE1HnD3HsmE3","","","","","","","","","","","","","","","","","","","","",""
"html-keyboard-response","56","106793","0.0-25.0","","null","<div style=""font-size:100px;"">+</div>","null","delaylearn","learning","ITI","64137069043a6e0150c4beae","tjo6pUVGfIhMwOnVwE1HnD3HsmE3","","","","","","","","","","","","","","","","","","","2477","",""
"html-keyboard-response","57","108262","0.0-26.0-0.0","","1465.999999999971","<div style=""display: flex; flex-direction: column; align-items: center; margin-top: -40px;""><img src=""images/pattern_4.png"" style=""width: 234px; height: 230px; margin-top: -50px;""><div style=""display: flex; justify-content: space-between; margin-top: 33px;""><img src=""images/choice_trial_4.png"" style=""width: 408px; height: 417px; margin-right: 200px;""><img src=""images/choice_trial_16.png"" style=""width: 408px; height: 417px;""></div></div>","f","delaylearn","learning","trial","64137069043a6e0150c4beae","tjo6pUVGfIhMwOnVwE1HnD3HsmE3","2","images/choice_trial_4.png","images/choice_trial_16.png","images/pattern_4.png","f","f","7000","4","16","3","0","11","1","1","4","70","","","","",""
"html-keyboard-response","58","109265","0.0-26.0-1.0","","null","<div style=""display: flex; flex-direction: column; align-items: center; margin-top: -40px;""><img src=""images/pattern_4.png"" style=""width: 234px; height: 230px; margin-top: -50px;""><div style=""display: flex; justify-content: space-between; margin-top: 33px;""><img src=""images/choice_trial_4.png"" style=""width: 408px; height: 417px; margin-right: 608px;""></div></div>","null","delaylearn","learning","display_response","64137069043a6e0150c4beae","tjo6pUVGfIhMwOnVwE1HnD3HsmE3","","","","","","","","","","","","","","","","","chosen stimuli: images/choice_trial_4.png","","","",""
"html-keyboard-response","59","116270","0.0-26.0-2.0","","null","","null","delaylearn","learning","feedback_duration_window","64137069043a6e0150c4beae","tjo6pUVGfIhMwOnVwE1HnD3HsmE3","","","","","","","","","","","","","","","","","","7000","","",""
"html-keyboard-response","60","117772","0.0-26.0-3.0","","null","<div style='margin:auto;width: auto; font-size: 150%'><span style='font-weight: bold; font-size: 100px; color: green;'>+10 points!</span><br><br></div>","null","delaylearn","learning","feedback_image_window","64137069043a6e0150c4beae","tjo6pUVGfIhMwOnVwE1HnD3HsmE3","","","","","","","","","","","","","","","","","","","","",""
"html-keyboard-response","61","119338","0.0-27.0","","null","<div style=""font-size:100px;"">+</div>","null","delaylearn","learning","ITI","64137069043a6e0150c4beae","tjo6pUVGfIhMwOnVwE1HnD3HsmE3","","","","","","","","","","","","","","","","","","","1565","",""
"html-keyboard-response","62","120989","0.0-28.0-0.0","","1647.9999999999418","<div style=""display: flex; flex-direction: column; align-items: center; margin-top: -40px;""><img src=""images/pattern_5.png"" style=""width: 234px; height: 230px; margin-top: -50px;""><div style=""display: flex; justify-content: space-between; margin-top: 33px;""><img src=""images/choice_trial_9.png"" style=""width: 408px; height: 417px; margin-right: 200px;""><img src=""images/choice_trial_2.png"" style=""width: 408px; height: 417px;""></div></div>","j","delaylearn","learning","trial","64137069043a6e0150c4beae","tjo6pUVGfIhMwOnVwE1HnD3HsmE3","2","images/choice_trial_9.png","images/choice_trial_2.png","images/pattern_5.png","j","j","750","9","2","4","1","12","1","1","2","80","","","","",""
"html-keyboard-response","63","121992","0.0-28.0-1.0","","null","<div style=""display: flex; flex-direction: column; align-items: center; margin-top: -40px;""><img src=""images/pattern_5.png"" style=""width: 234px; height: 230px; margin-top: -50px;""><div style=""display: flex; justify-content: space-between; margin-top: 33px;""><img src=""images/choice_trial_2.png"" style=""width: 408px; height: 417px; margin-left:608px;""></div></div>","null","delaylearn","learning","display_response","64137069043a6e0150c4beae","tjo6pUVGfIhMwOnVwE1HnD3HsmE3","","","","","","","","","","","","","","","","","chosen stimuli: images/choice_trial_2.png","","","",""
"html-keyboard-response","64","122744","0.0-28.0-2.0","","null","","null","delaylearn","learning","feedback_duration_window","64137069043a6e0150c4beae","tjo6pUVGfIhMwOnVwE1HnD3HsmE3","","","","","","","","","","","","","","","","","","750","","",""
"html-keyboard-response","65","124247","0.0-28.0-3.0","","null","<div style='margin:auto;width: auto; font-size: 150%'><span style='font-weight: bold; font-size: 100px; color: green;'>+10 points!</span><br><br></div>","null","delaylearn","learning","feedback_image_window","64137069043a6e0150c4beae","tjo6pUVGfIhMwOnVwE1HnD3HsmE3","","","","","","","","","","","","","","","","","","","","",""
"html-keyboard-response","66","125908","0.0-29.0","","null","<div style=""font-size:100px;"">+</div>","null","delaylearn","learning","ITI","64137069043a6e0150c4beae","tjo6pUVGfIhMwOnVwE1HnD3HsmE3","","","","","","","","","","","","","","","","","","","1659","",""
"html-keyboard-response","67","127230","0.0-30.0-0.0","","1318","<div style=""display: flex; flex-direction: column; align-items: center; margin-top: -40px;""><img src=""images/pattern_6.png"" style=""width: 234px; height: 230px; margin-top: -50px;""><div style=""display: flex; justify-content: space-between; margin-top: 33px;""><img src=""images/choice_trial_11.png"" style=""width: 408px; height: 417px; margin-right: 200px;""><img src=""images/choice_trial_5.png"" style=""width: 408px; height: 417px;""></div></div>","j","delaylearn","learning","trial","64137069043a6e0150c4beae","tjo6pUVGfIhMwOnVwE1HnD3HsmE3","2","images/choice_trial_11.png","images/choice_trial_5.png","images/pattern_6.png","j","f","750","11","5","5","0","13","0","1","5","90","","","","",""
"html-keyboard-response","68","128232","0.0-30.0-1.0","","null","<div style=""display: flex; flex-direction: column; align-items: center; margin-top: -40px;""><img src=""images/pattern_6.png"" style=""width: 234px; height: 230px; margin-top: -50px;""><div style=""display: flex; justify-content: space-between; margin-top: 33px;""><img src=""images/choice_trial_5.png"" style=""width: 408px; height: 417px; margin-left:608px;""></div></div>","null","delaylearn","learning","display_response","64137069043a6e0150c4beae","tjo6pUVGfIhMwOnVwE1HnD3HsmE3","","","","","","","","","","","","","","","","","chosen stimuli: images/choice_trial_5.png","","","",""
"html-keyboard-response","69","128985","0.0-30.0-2.0","","null","","null","delaylearn","learning","feedback_duration_window","64137069043a6e0150c4beae","tjo6pUVGfIhMwOnVwE1HnD3HsmE3","","","","","","","","","","","","","","","","","","750","","",""
"html-keyboard-response","70","130487","0.0-30.0-3.0","","null","<div style='margin:auto;width: auto; font-size: 150%'><span style='font-weight: bold; font-size: 100px; color: green;'>+10 points!</span><br><br></div>","null","delaylearn","learning","feedback_image_window","64137069043a6e0150c4beae","tjo6pUVGfIhMwOnVwE1HnD3HsmE3","","","","","","","","","","","","","","","","","","","","",""
"html-keyboard-response","71","130989","0.0-31.0-0.0","","null","","null","","","mood_trial_fixation","","","","","","","","","","","","","","","","","","","","","","",""
"lmdlab-html-vas-response","72","135112","0.0-31.0-1.0","","3119","How happy are you right now?","0.78544921875","delaylearn","learning","mood_trial","64137069043a6e0150c4beae","tjo6pUVGfIhMwOnVwE1HnD3HsmE3","","","","","","","","","","","","","","","","","","","","[""Very unhappy"",""Very happy""]",""
"html-keyboard-response","73","136767","0.0-32.0","","null","<div style=""font-size:100px;"">+</div>","null","delaylearn","learning","ITI","64137069043a6e0150c4beae","tjo6pUVGfIhMwOnVwE1HnD3HsmE3","","","","","","","","","","","","","","","","","","","1654","",""
"html-keyboard-response","74","138017","0.0-33.0-0.0","","1247","<div style=""display: flex; flex-direction: column; align-items: center; margin-top: -40px;""><img src=""images/pattern_1.png"" style=""width: 234px; height: 230px; margin-top: -50px;""><div style=""display: flex; justify-content: space-between; margin-top: 33px;""><img src=""images/choice_trial_10.png"" style=""width: 408px; height: 417px; margin-right: 200px;""><img src=""images/choice_trial_3.png"" style=""width: 408px; height: 417px;""></div></div>","f","delaylearn","learning","trial","64137069043a6e0150c4beae","tjo6pUVGfIhMwOnVwE1HnD3HsmE3","2","images/choice_trial_10.png","images/choice_trial_3.png","images/pattern_1.png","j","j","7000","10","3","1","1","14","0","0","10","90","","","","",""
"html-keyboard-response","75","139020","0.0-33.0-1.0","","null","<div style=""display: flex; flex-direction: column; align-items: center; margin-top: -40px;""><img src=""images/pattern_1.png"" style=""width: 234px; height: 230px; margin-top: -50px;""><div style=""display: flex; justify-content: space-between; margin-top: 33px;""><img src=""images/choice_trial_10.png"" style=""width: 408px; height: 417px; margin-right: 608px;""></div></div>","null","delaylearn","learning","display_response","64137069043a6e0150c4beae","tjo6pUVGfIhMwOnVwE1HnD3HsmE3","","","","","","","","","","","","","","","","","chosen stimuli: images/choice_trial_10.png","","","",""
"html-keyboard-response","76","146022","0.0-33.0-2.0","","null","","null","delaylearn","learning","feedback_duration_window","64137069043a6e0150c4beae","tjo6pUVGfIhMwOnVwE1HnD3HsmE3","","","","","","","","","","","","","","","","","","7000","","",""
"html-keyboard-response","77","147525","0.0-33.0-3.0","","null","<div style='margin:auto;width: auto; font-size: 150%'><span style='font-weight: bold; font-size: 100px; color: red;'>0 points!</span><br><br></div>","null","delaylearn","learning","feedback_image_window","64137069043a6e0150c4beae","tjo6pUVGfIhMwOnVwE1HnD3HsmE3","","","","","","","","","","","","","","","","","","","","",""
"html-keyboard-response","78","149620","0.0-34.0","","null","<div style=""font-size:100px;"">+</div>","null","delaylearn","learning","ITI","64137069043a6e0150c4beae","tjo6pUVGfIhMwOnVwE1HnD3HsmE3","","","","","","","","","","","","","","","","","","","2094","",""
"html-keyboard-response","79","150873","0.0-35.0-0.0","","1250","<div style=""display: flex; flex-direction: column; align-items: center; margin-top: -40px;""><img src=""images/pattern_3.png"" style=""width: 234px; height: 230px; margin-top: -50px;""><div style=""display: flex; justify-content: space-between; margin-top: 33px;""><img src=""images/choice_trial_14.png"" style=""width: 408px; height: 417px; margin-right: 200px;""><img src=""images/choice_trial_12.png"" style=""width: 408px; height: 417px;""></div></div>","j","delaylearn","learning","trial","64137069043a6e0150c4beae","tjo6pUVGfIhMwOnVwE1HnD3HsmE3","2","images/choice_trial_14.png","images/choice_trial_12.png","images/pattern_3.png","f","j","7000","14","12","2","1","15","1","0","12","90","","","","",""
"html-keyboard-response","80","151876","0.0-35.0-1.0","","null","<div style=""display: flex; flex-direction: column; align-items: center; margin-top: -40px;""><img src=""images/pattern_3.png"" style=""width: 234px; height: 230px; margin-top: -50px;""><div style=""display: flex; justify-content: space-between; margin-top: 33px;""><img src=""images/choice_trial_12.png"" style=""width: 408px; height: 417px; margin-left:608px;""></div></div>","null","delaylearn","learning","display_response","64137069043a6e0150c4beae","tjo6pUVGfIhMwOnVwE1HnD3HsmE3","","","","","","","","","","","","","","","","","chosen stimuli: images/choice_trial_12.png","","","",""
"html-keyboard-response","81","158877","0.0-35.0-2.0","","null","","null","delaylearn","learning","feedback_duration_window","64137069043a6e0150c4beae","tjo6pUVGfIhMwOnVwE1HnD3HsmE3","","","","","","","","","","","","","","","","","","7000","","",""
"html-keyboard-response","82","160380","0.0-35.0-3.0","","null","<div style='margin:auto;width: auto; font-size: 150%'><span style='font-weight: bold; font-size: 100px; color: red;'>0 points!</span><br><br></div>","null","delaylearn","learning","feedback_image_window","64137069043a6e0150c4beae","tjo6pUVGfIhMwOnVwE1HnD3HsmE3","","","","","","","","","","","","","","","","","","","","",""
"html-keyboard-response","83","162708","0.0-36.0","","null","<div style=""font-size:100px;"">+</div>","null","delaylearn","learning","ITI","64137069043a6e0150c4beae","tjo6pUVGfIhMwOnVwE1HnD3HsmE3","","","","","","","","","","","","","","","","","","","2326","",""
"html-keyboard-response","84","164127","0.0-37.0-0.0","","1416.0000000000582","<div style=""display: flex; flex-direction: column; align-items: center; margin-top: -40px;""><img src=""images/pattern_5.png"" style=""width: 234px; height: 230px; margin-top: -50px;""><div style=""display: flex; justify-content: space-between; margin-top: 33px;""><img src=""images/choice_trial_2.png"" style=""width: 408px; height: 417px; margin-right: 200px;""><img src=""images/choice_trial_9.png"" style=""width: 408px; height: 417px;""></div></div>","f","delaylearn","learning","trial","64137069043a6e0150c4beae","tjo6pUVGfIhMwOnVwE1HnD3HsmE3","2","images/choice_trial_2.png","images/choice_trial_9.png","images/pattern_5.png","f","f","750","2","9","4","0","16","1","1","2","100","","","","",""
"html-keyboard-response","85","165130","0.0-37.0-1.0","","null","<div style=""display: flex; flex-direction: column; align-items: center; margin-top: -40px;""><img src=""images/pattern_5.png"" style=""width: 234px; height: 230px; margin-top: -50px;""><div style=""display: flex; justify-content: space-between; margin-top: 33px;""><img src=""images/choice_trial_2.png"" style=""width: 408px; height: 417px; margin-right: 608px;""></div></div>","null","delaylearn","learning","display_response","64137069043a6e0150c4beae","tjo6pUVGfIhMwOnVwE1HnD3HsmE3","","","","","","","","","","","","","","","","","chosen stimuli: images/choice_trial_2.png","","","",""
"html-keyboard-response","86","165882","0.0-37.0-2.0","","null","","null","delaylearn","learning","feedback_duration_window","64137069043a6e0150c4beae","tjo6pUVGfIhMwOnVwE1HnD3HsmE3","","","","","","","","","","","","","","","","","","750","","",""
"html-keyboard-response","87","167384","0.0-37.0-3.0","","null","<div style='margin:auto;width: auto; font-size: 150%'><span style='font-weight: bold; font-size: 100px; color: green;'>+10 points!</span><br><br></div>","null","delaylearn","learning","feedback_image_window","64137069043a6e0150c4beae","tjo6pUVGfIhMwOnVwE1HnD3HsmE3","","","","","","","","","","","","","","","","","","","","",""
"html-keyboard-response","88","167886","0.0-38.0-0.0","","null","","null","","","mood_trial_fixation","","","","","","","","","","","","","","","","","","","","","","",""
"lmdlab-html-vas-response","89","171727","0.0-38.0-1.0","","2836","How happy are you right now?","0.6396158854166667","delaylearn","learning","mood_trial","64137069043a6e0150c4beae","tjo6pUVGfIhMwOnVwE1HnD3HsmE3","","","","","","","","","","","","","","","","","","","","[""Very unhappy"",""Very happy""]",""
"html-keyboard-response","90","174167","0.0-39.0","","null","<div style=""font-size:100px;"">+</div>","null","delaylearn","learning","ITI","64137069043a6e0150c4beae","tjo6pUVGfIhMwOnVwE1HnD3HsmE3","","","","","","","","","","","","","","","","","","","2438","",""
"html-keyboard-response","91","175205","0.0-40.0-0.0","","1034","<div style=""display: flex; flex-direction: column; align-items: center; margin-top: -40px;""><img src=""images/pattern_6.png"" style=""width: 234px; height: 230px; margin-top: -50px;""><div style=""display: flex; justify-content: space-between; margin-top: 33px;""><img src=""images/choice_trial_11.png"" style=""width: 408px; height: 417px; margin-right: 200px;""><img src=""images/choice_trial_5.png"" style=""width: 408px; height: 417px;""></div></div>","j","delaylearn","learning","trial","64137069043a6e0150c4beae","tjo6pUVGfIhMwOnVwE1HnD3HsmE3","2","images/choice_trial_11.png","images/choice_trial_5.png","images/pattern_6.png","f","f","750","11","5","5","0","17","0","0","5","100","","","","",""
"html-keyboard-response","92","176208","0.0-40.0-1.0","","null","<div style=""display: flex; flex-direction: column; align-items: center; margin-top: -40px;""><img src=""images/pattern_6.png"" style=""width: 234px; height: 230px; margin-top: -50px;""><div style=""display: flex; justify-content: space-between; margin-top: 33px;""><img src=""images/choice_trial_5.png"" style=""width: 408px; height: 417px; margin-left:608px;""></div></div>","null","delaylearn","learning","display_response","64137069043a6e0150c4beae","tjo6pUVGfIhMwOnVwE1HnD3HsmE3","","","","","","","","","","","","","","","","","chosen stimuli: images/choice_trial_5.png","","","",""
"html-keyboard-response","93","176960","0.0-40.0-2.0","","null","","null","delaylearn","learning","feedback_duration_window","64137069043a6e0150c4beae","tjo6pUVGfIhMwOnVwE1HnD3HsmE3","","","","","","","","","","","","","","","","","","750","","",""
"html-keyboard-response","94","178461","0.0-40.0-3.0","","null","<div style='margin:auto;width: auto; font-size: 150%'><span style='font-weight: bold; font-size: 100px; color: red;'>0 points!</span><br><br></div>","null","delaylearn","learning","feedback_image_window","64137069043a6e0150c4beae","tjo6pUVGfIhMwOnVwE1HnD3HsmE3","","","","","","","","","","","","","","","","","","","","",""
"html-keyboard-response","95","180141","0.0-41.0","","null","<div style=""font-size:100px;"">+</div>","null","delaylearn","learning","ITI","64137069043a6e0150c4beae","tjo6pUVGfIhMwOnVwE1HnD3HsmE3","","","","","","","","","","","","","","","","","","","1678","",""
"html-keyboard-response","96","181365","0.0-42.0-0.0","","1220","<div style=""display: flex; flex-direction: column; align-items: center; margin-top: -40px;""><img src=""images/pattern_4.png"" style=""width: 234px; height: 230px; margin-top: -50px;""><div style=""display: flex; justify-content: space-between; margin-top: 33px;""><img src=""images/choice_trial_16.png"" style=""width: 408px; height: 417px; margin-right: 200px;""><img src=""images/choice_trial_4.png"" style=""width: 408px; height: 417px;""></div></div>","j","delaylearn","learning","trial","64137069043a6e0150c4beae","tjo6pUVGfIhMwOnVwE1HnD3HsmE3","2","images/choice_trial_16.png","images/choice_trial_4.png","images/pattern_4.png","j","j","7000","16","4","3","1","18","1","1","4","110","","","","",""
"html-keyboard-response","97","182368","0.0-42.0-1.0","","null","<div style=""display: flex; flex-direction: column; align-items: center; margin-top: -40px;""><img src=""images/pattern_4.png"" style=""width: 234px; height: 230px; margin-top: -50px;""><div style=""display: flex; justify-content: space-between; margin-top: 33px;""><img src=""images/choice_trial_4.png"" style=""width: 408px; height: 417px; margin-left:608px;""></div></div>","null","delaylearn","learning","display_response","64137069043a6e0150c4beae","tjo6pUVGfIhMwOnVwE1HnD3HsmE3","","","","","","","","","","","","","","","","","chosen stimuli: images/choice_trial_4.png","","","",""
"html-keyboard-response","98","189370","0.0-42.0-2.0","","null","","null","delaylearn","learning","feedback_duration_window","64137069043a6e0150c4beae","tjo6pUVGfIhMwOnVwE1HnD3HsmE3","","","","","","","","","","","","","","","","","","7000","","",""
"html-keyboard-response","99","190873","0.0-42.0-3.0","","null","<div style='margin:auto;width: auto; font-size: 150%'><span style='font-weight: bold; font-size: 100px; color: green;'>+10 points!</span><br><br></div>","null","delaylearn","learning","feedback_image_window","64137069043a6e0150c4beae","tjo6pUVGfIhMwOnVwE1HnD3HsmE3","","","","","","","","","","","","","","","","","","","","",""
"html-keyboard-response","100","192601","0.0-43.0","","null","<div style=""font-size:100px;"">+</div>","null","delaylearn","learning","ITI","64137069043a6e0150c4beae","tjo6pUVGfIhMwOnVwE1HnD3HsmE3","","","","","","","","","","","","","","","","","","","1726","",""
"html-keyboard-response","101","194000","0.0-44.0-0.0","","1396.0000000000582","<div style=""display: flex; flex-direction: column; align-items: center; margin-top: -40px;""><img src=""images/pattern_7.png"" style=""width: 234px; height: 230px; margin-top: -50px;""><div style=""display: flex; justify-content: space-between; margin-top: 33px;""><img src=""images/choice_trial_8.png"" style=""width: 408px; height: 417px; margin-right: 200px;""><img src=""images/choice_trial_15.png"" style=""width: 408px; height: 417px;""></div></div>","f","delaylearn","learning","trial","64137069043a6e0150c4beae","tjo6pUVGfIhMwOnVwE1HnD3HsmE3","2","images/choice_trial_8.png","images/choice_trial_15.png","images/pattern_7.png","j","f","750","8","15","6","0","19","1","0","8","110","","","","",""
"html-keyboard-response","102","195003","0.0-44.0-1.0","","null","<div style=""display: flex; flex-direction: column; align-items: center; margin-top: -40px;""><img src=""images/pattern_7.png"" style=""width: 234px; height: 230px; margin-top: -50px;""><div style=""display: flex; justify-content: space-between; margin-top: 33px;""><img src=""images/choice_trial_8.png"" style=""width: 408px; height: 417px; margin-right: 608px;""></div></div>","null","delaylearn","learning","display_response","64137069043a6e0150c4beae","tjo6pUVGfIhMwOnVwE1HnD3HsmE3","","","","","","","","","","","","","","","","","chosen stimuli: images/choice_trial_8.png","","","",""
"html-keyboard-response","103","195755","0.0-44.0-2.0","","null","","null","delaylearn","learning","feedback_duration_window","64137069043a6e0150c4beae","tjo6pUVGfIhMwOnVwE1HnD3HsmE3","","","","","","","","","","","","","","","","","","750","","",""
"html-keyboard-response","104","197257","0.0-44.0-3.0","","null","<div style='margin:auto;width: auto; font-size: 150%'><span style='font-weight: bold; font-size: 100px; color: red;'>0 points!</span><br><br></div>","null","delaylearn","learning","feedback_image_window","64137069043a6e0150c4beae","tjo6pUVGfIhMwOnVwE1HnD3HsmE3","","","","","","","","","","","","","","","","","","","","",""
"html-keyboard-response","105","199718","0.0-45.0","","null","<div style=""font-size:100px;"">+</div>","null","delaylearn","learning","ITI","64137069043a6e0150c4beae","tjo6pUVGfIhMwOnVwE1HnD3HsmE3","","","","","","","","","","","","","","","","","","","2458","",""
"html-keyboard-response","106","201354","0.0-46.0-0.0","","1634","<div style=""display: flex; flex-direction: column; align-items: center; margin-top: -40px;""><img src=""images/pattern_1.png"" style=""width: 234px; height: 230px; margin-top: -50px;""><div style=""display: flex; justify-content: space-between; margin-top: 33px;""><img src=""images/choice_trial_3.png"" style=""width: 408px; height: 417px; margin-right: 200px;""><img src=""images/choice_trial_10.png"" style=""width: 408px; height: 417px;""></div></div>","f","delaylearn","learning","trial","64137069043a6e0150c4beae","tjo6pUVGfIhMwOnVwE1HnD3HsmE3","2","images/choice_trial_3.png","images/choice_trial_10.png","images/pattern_1.png","f","f","7000","3","10","1","0","20","1","1","3","120","","","","",""
"html-keyboard-response","107","202356","0.0-46.0-1.0","","null","<div style=""display: flex; flex-direction: column; align-items: center; margin-top: -40px;""><img src=""images/pattern_1.png"" style=""width: 234px; height: 230px; margin-top: -50px;""><div style=""display: flex; justify-content: space-between; margin-top: 33px;""><img src=""images/choice_trial_3.png"" style=""width: 408px; height: 417px; margin-right: 608px;""></div></div>","null","delaylearn","learning","display_response","64137069043a6e0150c4beae","tjo6pUVGfIhMwOnVwE1HnD3HsmE3","","","","","","","","","","","","","","","","","chosen stimuli: images/choice_trial_3.png","","","",""
"html-keyboard-response","108","209358","0.0-46.0-2.0","","null","","null","delaylearn","learning","feedback_duration_window","64137069043a6e0150c4beae","tjo6pUVGfIhMwOnVwE1HnD3HsmE3","","","","","","","","","","","","","","","","","","7000","","",""
"html-keyboard-response","109","210860","0.0-46.0-3.0","","null","<div style='margin:auto;width: auto; font-size: 150%'><span style='font-weight: bold; font-size: 100px; color: green;'>+10 points!</span><br><br></div>","null","delaylearn","learning","feedback_image_window","64137069043a6e0150c4beae","tjo6pUVGfIhMwOnVwE1HnD3HsmE3","","","","","","","","","","","","","","","","","","","","",""
"html-keyboard-response","110","212705","0.0-47.0","","null","<div style=""font-size:100px;"">+</div>","null","delaylearn","learning","ITI","64137069043a6e0150c4beae","tjo6pUVGfIhMwOnVwE1HnD3HsmE3","","","","","","","","","","","","","","","","","","","1843","",""
"html-keyboard-response","111","215566","0.0-48.0-0.0","","2858.000000000058","<div style=""display: flex; flex-direction: column; align-items: center; margin-top: -40px;""><img src=""images/pattern_6.png"" style=""width: 234px; height: 230px; margin-top: -50px;""><div style=""display: flex; justify-content: space-between; margin-top: 33px;""><img src=""images/choice_trial_5.png"" style=""width: 408px; height: 417px; margin-right: 200px;""><img src=""images/choice_trial_11.png"" style=""width: 408px; height: 417px;""></div></div>","f","delaylearn","learning","trial","64137069043a6e0150c4beae","tjo6pUVGfIhMwOnVwE1HnD3HsmE3","2","images/choice_trial_5.png","images/choice_trial_11.png","images/pattern_6.png","j","j","750","5","11","5","1","21","0","0","5","120","","","","",""
"html-keyboard-response","112","216569","0.0-48.0-1.0","","null","<div style=""display: flex; flex-direction: column; align-items: center; margin-top: -40px;""><img src=""images/pattern_6.png"" style=""width: 234px; height: 230px; margin-top: -50px;""><div style=""display: flex; justify-content: space-between; margin-top: 33px;""><img src=""images/choice_trial_5.png"" style=""width: 408px; height: 417px; margin-right: 608px;""></div></div>","null","delaylearn","learning","display_response","64137069043a6e0150c4beae","tjo6pUVGfIhMwOnVwE1HnD3HsmE3","","","","","","","","","","","","","","","","","chosen stimuli: images/choice_trial_5.png","","","",""
"html-keyboard-response","113","217320","0.0-48.0-2.0","","null","","null","delaylearn","learning","feedback_duration_window","64137069043a6e0150c4beae","tjo6pUVGfIhMwOnVwE1HnD3HsmE3","","","","","","","","","","","","","","","","","","750","","",""
"html-keyboard-response","114","218822","0.0-48.0-3.0","","null","<div style='margin:auto;width: auto; font-size: 150%'><span style='font-weight: bold; font-size: 100px; color: red;'>0 points!</span><br><br></div>","null","delaylearn","learning","feedback_image_window","64137069043a6e0150c4beae","tjo6pUVGfIhMwOnVwE1HnD3HsmE3","","","","","","","","","","","","","","","","","","","","",""
"html-keyboard-response","115","220671","0.0-49.0","","null","<div style=""font-size:100px;"">+</div>","null","delaylearn","learning","ITI","64137069043a6e0150c4beae","tjo6pUVGfIhMwOnVwE1HnD3HsmE3","","","","","","","","","","","","","","","","","","","1847","",""
"html-keyboard-response","116","221413","0.0-50.0-0.0","","739","<div style=""display: flex; flex-direction: column; align-items: center; margin-top: -40px;""><img src=""images/pattern_4.png"" style=""width: 234px; height: 230px; margin-top: -50px;""><div style=""display: flex; justify-content: space-between; margin-top: 33px;""><img src=""images/choice_trial_4.png"" style=""width: 408px; height: 417px; margin-right: 200px;""><img src=""images/choice_trial_16.png"" style=""width: 408px; height: 417px;""></div></div>","f","delaylearn","learning","trial","64137069043a6e0150c4beae","tjo6pUVGfIhMwOnVwE1HnD3HsmE3","2","images/choice_trial_4.png","images/choice_trial_16.png","images/pattern_4.png","f","f","7000","4","16","3","0","22","1","1","4","130","","","","",""
"html-keyboard-response","117","222416","0.0-50.0-1.0","","null","<div style=""display: flex; flex-direction: column; align-items: center; margin-top: -40px;""><img src=""images/pattern_4.png"" style=""width: 234px; height: 230px; margin-top: -50px;""><div style=""display: flex; justify-content: space-between; margin-top: 33px;""><img src=""images/choice_trial_4.png"" style=""width: 408px; height: 417px; margin-right: 608px;""></div></div>","null","delaylearn","learning","display_response","64137069043a6e0150c4beae","tjo6pUVGfIhMwOnVwE1HnD3HsmE3","","","","","","","","","","","","","","","","","chosen stimuli: images/choice_trial_4.png","","","",""
"html-keyboard-response","118","229419","0.0-50.0-2.0","","null","","null","delaylearn","learning","feedback_duration_window","64137069043a6e0150c4beae","tjo6pUVGfIhMwOnVwE1HnD3HsmE3","","","","","","","","","","","","","","","","","","7000","","",""
"html-keyboard-response","119","230921","0.0-50.0-3.0","","null","<div style='margin:auto;width: auto; font-size: 150%'><span style='font-weight: bold; font-size: 100px; color: green;'>+10 points!</span><br><br></div>","null","delaylearn","learning","feedback_image_window","64137069043a6e0150c4beae","tjo6pUVGfIhMwOnVwE1HnD3HsmE3","","","","","","","","","","","","","","","","","","","","",""
"html-keyboard-response","120","231423","0.0-51.0-0.0","","null","","null","","","mood_trial_fixation","","","","","","","","","","","","","","","","","","","","","","",""
"lmdlab-html-vas-response","121","235587","0.0-51.0-1.0","","3157","How happy are you right now?","0.5458658854166667","delaylearn","learning","mood_trial","64137069043a6e0150c4beae","tjo6pUVGfIhMwOnVwE1HnD3HsmE3","","","","","","","","","","","","","","","","","","","","[""Very unhappy"",""Very happy""]",""
"html-keyboard-response","122","237987","0.0-52.0","","null","<div style=""font-size:100px;"">+</div>","null","delaylearn","learning","ITI","64137069043a6e0150c4beae","tjo6pUVGfIhMwOnVwE1HnD3HsmE3","","","","","","","","","","","","","","","","","","","2398","",""
"html-keyboard-response","123","240557","0.0-53.0-0.0","","2566","<div style=""display: flex; flex-direction: column; align-items: center; margin-top: -40px;""><img src=""images/pattern_7.png"" style=""width: 234px; height: 230px; margin-top: -50px;""><div style=""display: flex; justify-content: space-between; margin-top: 33px;""><img src=""images/choice_trial_15.png"" style=""width: 408px; height: 417px; margin-right: 200px;""><img src=""images/choice_trial_8.png"" style=""width: 408px; height: 417px;""></div></div>","f","delaylearn","learning","trial","64137069043a6e0150c4beae","tjo6pUVGfIhMwOnVwE1HnD3HsmE3","2","images/choice_trial_15.png","images/choice_trial_8.png","images/pattern_7.png","j","j","750","15","8","6","1","23","0","0","15","130","","","","",""
"html-keyboard-response","124","241559","0.0-53.0-1.0","","null","<div style=""display: flex; flex-direction: column; align-items: center; margin-top: -40px;""><img src=""images/pattern_7.png"" style=""width: 234px; height: 230px; margin-top: -50px;""><div style=""display: flex; justify-content: space-between; margin-top: 33px;""><img src=""images/choice_trial_15.png"" style=""width: 408px; height: 417px; margin-right: 608px;""></div></div>","null","delaylearn","learning","display_response","64137069043a6e0150c4beae","tjo6pUVGfIhMwOnVwE1HnD3HsmE3","","","","","","","","","","","","","","","","","chosen stimuli: images/choice_trial_15.png","","","",""
"html-keyboard-response","125","242311","0.0-53.0-2.0","","null","","null","delaylearn","learning","feedback_duration_window","64137069043a6e0150c4beae","tjo6pUVGfIhMwOnVwE1HnD3HsmE3","","","","","","","","","","","","","","","","","","750","","",""
"html-keyboard-response","126","243813","0.0-53.0-3.0","","null","<div style='margin:auto;width: auto; font-size: 150%'><span style='font-weight: bold; font-size: 100px; color: red;'>0 points!</span><br><br></div>","null","delaylearn","learning","feedback_image_window","64137069043a6e0150c4beae","tjo6pUVGfIhMwOnVwE1HnD3HsmE3","","","","","","","","","","","","","","","","","","","","",""
"html-keyboard-response","127","246169","0.0-54.0","","null","<div style=""font-size:100px;"">+</div>","null","delaylearn","learning","ITI","64137069043a6e0150c4beae","tjo6pUVGfIhMwOnVwE1HnD3HsmE3","","","","","","","","","","","","","","","","","","","2354","",""
"html-keyboard-response","128","248639","0.0-55.0-0.0","","2467","<div style=""display: flex; flex-direction: column; align-items: center; margin-top: -40px;""><img src=""images/pattern_1.png"" style=""width: 234px; height: 230px; margin-top: -50px;""><div style=""display: flex; justify-content: space-between; margin-top: 33px;""><img src=""images/choice_trial_10.png"" style=""width: 408px; height: 417px; margin-right: 200px;""><img src=""images/choice_trial_3.png"" style=""width: 408px; height: 417px;""></div></div>","f","delaylearn","learning","trial","64137069043a6e0150c4beae","tjo6pUVGfIhMwOnVwE1HnD3HsmE3","2","images/choice_trial_10.png","images/choice_trial_3.png","images/pattern_1.png","f","j","7000","10","3","1","1","24","0","1","10","140","","","","",""
"html-keyboard-response","129","249642","0.0-55.0-1.0","","null","<div style=""display: flex; flex-direction: column; align-items: center; margin-top: -40px;""><img src=""images/pattern_1.png"" style=""width: 234px; height: 230px; margin-top: -50px;""><div style=""display: flex; justify-content: space-between; margin-top: 33px;""><img src=""images/choice_trial_10.png"" style=""width: 408px; height: 417px; margin-right: 608px;""></div></div>","null","delaylearn","learning","display_response","64137069043a6e0150c4beae","tjo6pUVGfIhMwOnVwE1HnD3HsmE3","","","","","","","","","","","","","","","","","chosen stimuli: images/choice_trial_10.png","","","",""
"html-keyboard-response","130","256644","0.0-55.0-2.0","","null","","null","delaylearn","learning","feedback_duration_window","64137069043a6e0150c4beae","tjo6pUVGfIhMwOnVwE1HnD3HsmE3","","","","","","","","","","","","","","","","","","7000","","",""
"html-keyboard-response","131","258146","0.0-55.0-3.0","","null","<div style='margin:auto;width: auto; font-size: 150%'><span style='font-weight: bold; font-size: 100px; color: green;'>+10 points!</span><br><br></div>","null","delaylearn","learning","feedback_image_window","64137069043a6e0150c4beae","tjo6pUVGfIhMwOnVwE1HnD3HsmE3","","","","","","","","","","","","","","","","","","","","",""
"html-keyboard-response","132","259889","0.0-56.0","","null","<div style=""font-size:100px;"">+</div>","null","delaylearn","learning","ITI","64137069043a6e0150c4beae","tjo6pUVGfIhMwOnVwE1HnD3HsmE3","","","","","","","","","","","","","","","","","","","1741","",""
"html-keyboard-response","133","261221","0.0-57.0-0.0","","1329","<div style=""display: flex; flex-direction: column; align-items: center; margin-top: -40px;""><img src=""images/pattern_5.png"" style=""width: 234px; height: 230px; margin-top: -50px;""><div style=""display: flex; justify-content: space-between; margin-top: 33px;""><img src=""images/choice_trial_9.png"" style=""width: 408px; height: 417px; margin-right: 200px;""><img src=""images/choice_trial_2.png"" style=""width: 408px; height: 417px;""></div></div>","j","delaylearn","learning","trial","64137069043a6e0150c4beae","tjo6pUVGfIhMwOnVwE1HnD3HsmE3","2","images/choice_trial_9.png","images/choice_trial_2.png","images/pattern_5.png","j","j","750","9","2","4","1","25","1","1","2","150","","","","",""
"html-keyboard-response","134","262224","0.0-57.0-1.0","","null","<div style=""display: flex; flex-direction: column; align-items: center; margin-top: -40px;""><img src=""images/pattern_5.png"" style=""width: 234px; height: 230px; margin-top: -50px;""><div style=""display: flex; justify-content: space-between; margin-top: 33px;""><img src=""images/choice_trial_2.png"" style=""width: 408px; height: 417px; margin-left:608px;""></div></div>","null","delaylearn","learning","display_response","64137069043a6e0150c4beae","tjo6pUVGfIhMwOnVwE1HnD3HsmE3","","","","","","","","","","","","","","","","","chosen stimuli: images/choice_trial_2.png","","","",""
"html-keyboard-response","135","262976","0.0-57.0-2.0","","null","","null","delaylearn","learning","feedback_duration_window","64137069043a6e0150c4beae","tjo6pUVGfIhMwOnVwE1HnD3HsmE3","","","","","","","","","","","","","","","","","","750","","",""
"html-keyboard-response","136","264479","0.0-57.0-3.0","","null","<div style='margin:auto;width: auto; font-size: 150%'><span style='font-weight: bold; font-size: 100px; color: green;'>+10 points!</span><br><br></div>","null","delaylearn","learning","feedback_image_window","64137069043a6e0150c4beae","tjo6pUVGfIhMwOnVwE1HnD3HsmE3","","","","","","","","","","","","","","","","","","","","",""
"html-keyboard-response","137","266059","0.0-58.0","","null","<div style=""font-size:100px;"">+</div>","null","delaylearn","learning","ITI","64137069043a6e0150c4beae","tjo6pUVGfIhMwOnVwE1HnD3HsmE3","","","","","","","","","","","","","","","","","","","1579","",""
"html-keyboard-response","138","268110","0.0-59.0-0.0","","2048","<div style=""display: flex; flex-direction: column; align-items: center; margin-top: -40px;""><img src=""images/pattern_3.png"" style=""width: 234px; height: 230px; margin-top: -50px;""><div style=""display: flex; justify-content: space-between; margin-top: 33px;""><img src=""images/choice_trial_14.png"" style=""width: 408px; height: 417px; margin-right: 200px;""><img src=""images/choice_trial_12.png"" style=""width: 408px; height: 417px;""></div></div>","f","delaylearn","learning","trial","64137069043a6e0150c4beae","tjo6pUVGfIhMwOnVwE1HnD3HsmE3","2","images/choice_trial_14.png","images/choice_trial_12.png","images/pattern_3.png","j","j","7000","14","12","2","1","26","0","0","14","150","","","","",""
"html-keyboard-response","139","269113","0.0-59.0-1.0","","null","<div style=""display: flex; flex-direction: column; align-items: center; margin-top: -40px;""><img src=""images/pattern_3.png"" style=""width: 234px; height: 230px; margin-top: -50px;""><div style=""display: flex; justify-content: space-between; margin-top: 33px;""><img src=""images/choice_trial_14.png"" style=""width: 408px; height: 417px; margin-right: 608px;""></div></div>","null","delaylearn","learning","display_response","64137069043a6e0150c4beae","tjo6pUVGfIhMwOnVwE1HnD3HsmE3","","","","","","","","","","","","","","","","","chosen stimuli: images/choice_trial_14.png","","","",""
"html-keyboard-response","140","276114","0.0-59.0-2.0","","null","","null","delaylearn","learning","feedback_duration_window","64137069043a6e0150c4beae","tjo6pUVGfIhMwOnVwE1HnD3HsmE3","","","","","","","","","","","","","","","","","","7000","","",""
"html-keyboard-response","141","277619","0.0-59.0-3.0","","null","<div style='margin:auto;width: auto; font-size: 150%'><span style='font-weight: bold; font-size: 100px; color: red;'>0 points!</span><br><br></div>","null","delaylearn","learning","feedback_image_window","64137069043a6e0150c4beae","tjo6pUVGfIhMwOnVwE1HnD3HsmE3","","","","","","","","","","","","","","","","","","","","",""
"lmdlab-html-vas-response","142","282345","0.0-60.0-0.0","","3219","*How <b><u>confident</u></b> are you feeling about your answers at this moment?*","0.24375","rewlearn","rate_confidence","","64137069043a6e0150c4beae","tjo6pUVGfIhMwOnVwE1HnD3HsmE3","","","","","","","","","","","","","","","","","","","","[""No confidence"",""Complete confidence""]",""
"lmdlab-rest-trial-limit","143","288389","0.0-60.0-1.0","","4542","<div style=""font-size:40px;""><b>Please take a break!</b><br><br><br><br><p>Great work: you earned 150 points.<br><br><br><p>You have completed part(s) 1 of 5.<br><br><br><br>When you are ready to continue<br><br><br>please click the button.</p><br><br>","0","delaylearn","learning","break","64137069043a6e0150c4beae","tjo6pUVGfIhMwOnVwE1HnD3HsmE3","","","","","","","","","","","","","","","","","","","","","0"
"html-keyboard-response","144","291391","0.0-60.0-2.0","","null","<div style=""font-size:100px;"">+</div>","null","delaylearn","learning","pre_fixation","64137069043a6e0150c4beae","","","","","","","","","","","","","","","","","","","","","",""
"lmdlab-html-vas-response","145","294882","0.0-60.0-3.0-0.0","","2485","How happy are you right now?","0.59169921875","delaylearn","learning","mood_baseline","64137069043a6e0150c4beae","tjo6pUVGfIhMwOnVwE1HnD3HsmE3","","","","","","","","","","","","","","","","","","","","[""Very unhappy"",""Very happy""]",""
"html-keyboard-response","146","296384","0.0-60.0-3.0-1.0","","null","","null","","","mood_baseline_fixation","","","","","","","","","","","","","","","","","","","","","","",""
"html-keyboard-response","147","298257","0.0-61.0","","null","<div style=""font-size:100px;"">+</div>","null","delaylearn","learning","ITI","64137069043a6e0150c4beae","tjo6pUVGfIhMwOnVwE1HnD3HsmE3","","","","","","","","","","","","","","","","","","","1871","",""
"html-keyboard-response","148","300266","0.0-62.0-0.0","","2006.0000000000582","<div style=""display: flex; flex-direction: column; align-items: center; margin-top: -40px;""><img src=""images/pattern_7.png"" style=""width: 234px; height: 230px; margin-top: -50px;""><div style=""display: flex; justify-content: space-between; margin-top: 33px;""><img src=""images/choice_trial_15.png"" style=""width: 408px; height: 417px; margin-right: 200px;""><img src=""images/choice_trial_8.png"" style=""width: 408px; height: 417px;""></div></div>","j","delaylearn","learning","trial","64137069043a6e0150c4beae","tjo6pUVGfIhMwOnVwE1HnD3HsmE3","2","images/choice_trial_15.png","images/choice_trial_8.png","images/pattern_7.png","j","j","750","15","8","6","1","27","1","1","8","160","","","","",""
"html-keyboard-response","149","301268","0.0-62.0-1.0","","null","<div style=""display: flex; flex-direction: column; align-items: center; margin-top: -40px;""><img src=""images/pattern_7.png"" style=""width: 234px; height: 230px; margin-top: -50px;""><div style=""display: flex; justify-content: space-between; margin-top: 33px;""><img src=""images/choice_trial_8.png"" style=""width: 408px; height: 417px; margin-left:608px;""></div></div>","null","delaylearn","learning","display_response","64137069043a6e0150c4beae","tjo6pUVGfIhMwOnVwE1HnD3HsmE3","","","","","","","","","","","","","","","","","chosen stimuli: images/choice_trial_8.png","","","",""
"html-keyboard-response","150","302020","0.0-62.0-2.0","","null","","null","delaylearn","learning","feedback_duration_window","64137069043a6e0150c4beae","tjo6pUVGfIhMwOnVwE1HnD3HsmE3","","","","","","","","","","","","","","","","","","750","","",""
"html-keyboard-response","151","303522","0.0-62.0-3.0","","null","<div style='margin:auto;width: auto; font-size: 150%'><span style='font-weight: bold; font-size: 100px; color: green;'>+10 points!</span><br><br></div>","null","delaylearn","learning","feedback_image_window","64137069043a6e0150c4beae","tjo6pUVGfIhMwOnVwE1HnD3HsmE3","","","","","","","","","","","","","","","","","","","","",""
"html-keyboard-response","152","304024","0.0-63.0-0.0","","null","","null","","","mood_trial_fixation","","","","","","","","","","","","","","","","","","","","","","",""
"lmdlab-html-vas-response","153","307742","0.0-63.0-1.0","","2713","How happy are you right now?","0.68544921875","delaylearn","learning","mood_trial","64137069043a6e0150c4beae","tjo6pUVGfIhMwOnVwE1HnD3HsmE3","","","","","","","","","","","","","","","","","","","","[""Very unhappy"",""Very happy""]",""
"html-keyboard-response","154","310032","0.0-64.0","","null","<div style=""font-size:100px;"">+</div>","null","delaylearn","learning","ITI","64137069043a6e0150c4beae","tjo6pUVGfIhMwOnVwE1HnD3HsmE3","","","","","","","","","","","","","","","","","","","2289","",""
"html-keyboard-response","155","311438","0.0-65.0-0.0","","1402","<div style=""display: flex; flex-direction: column; align-items: center; margin-top: -40px;""><img src=""images/pattern_1.png"" style=""width: 234px; height: 230px; margin-top: -50px;""><div style=""display: flex; justify-content: space-between; margin-top: 33px;""><img src=""images/choice_trial_3.png"" style=""width: 408px; height: 417px; margin-right: 200px;""><img src=""images/choice_trial_10.png"" style=""width: 408px; height: 417px;""></div></div>","j","delaylearn","learning","trial","64137069043a6e0150c4beae","tjo6pUVGfIhMwOnVwE1HnD3HsmE3","2","images/choice_trial_3.png","images/choice_trial_10.png","images/pattern_1.png","f","f","7000","3","10","1","0","28","0","0","10","160","","","","",""
"html-keyboard-response","156","312441","0.0-65.0-1.0","","null","<div style=""display: flex; flex-direction: column; align-items: center; margin-top: -40px;""><img src=""images/pattern_1.png"" style=""width: 234px; height: 230px; margin-top: -50px;""><div style=""display: flex; justify-content: space-between; margin-top: 33px;""><img src=""images/choice_trial_10.png"" style=""width: 408px; height: 417px; margin-left:608px;""></div></div>","null","delaylearn","learning","display_response","64137069043a6e0150c4beae","tjo6pUVGfIhMwOnVwE1HnD3HsmE3","","","","","","","","","","","","","","","","","chosen stimuli: images/choice_trial_10.png","","","",""
"html-keyboard-response","157","319443","0.0-65.0-2.0","","null","","null","delaylearn","learning","feedback_duration_window","64137069043a6e0150c4beae","tjo6pUVGfIhMwOnVwE1HnD3HsmE3","","","","","","","","","","","","","","","","","","7000","","",""
"html-keyboard-response","158","320945","0.0-65.0-3.0","","null","<div style='margin:auto;width: auto; font-size: 150%'><span style='font-weight: bold; font-size: 100px; color: red;'>0 points!</span><br><br></div>","null","delaylearn","learning","feedback_image_window","64137069043a6e0150c4beae","tjo6pUVGfIhMwOnVwE1HnD3HsmE3","","","","","","","","","","","","","","","","","","","","",""
"html-keyboard-response","159","323329","0.0-66.0","","null","<div style=""font-size:100px;"">+</div>","null","delaylearn","learning","ITI","64137069043a6e0150c4beae","tjo6pUVGfIhMwOnVwE1HnD3HsmE3","","","","","","","","","","","","","","","","","","","2382","",""
"html-keyboard-response","160","324521","0.0-67.0-0.0","","1188.9999999999418","<div style=""display: flex; flex-direction: column; align-items: center; margin-top: -40px;""><img src=""images/pattern_5.png"" style=""width: 234px; height: 230px; margin-top: -50px;""><div style=""display: flex; justify-content: space-between; margin-top: 33px;""><img src=""images/choice_trial_2.png"" style=""width: 408px; height: 417px; margin-right: 200px;""><img src=""images/choice_trial_9.png"" style=""width: 408px; height: 417px;""></div></div>","f","delaylearn","learning","trial","64137069043a6e0150c4beae","tjo6pUVGfIhMwOnVwE1HnD3HsmE3","2","images/choice_trial_2.png","images/choice_trial_9.png","images/pattern_5.png","f","f","750","2","9","4","0","29","1","1","2","170","","","","",""
"html-keyboard-response","161","325524","0.0-67.0-1.0","","null","<div style=""display: flex; flex-direction: column; align-items: center; margin-top: -40px;""><img src=""images/pattern_5.png"" style=""width: 234px; height: 230px; margin-top: -50px;""><div style=""display: flex; justify-content: space-between; margin-top: 33px;""><img src=""images/choice_trial_2.png"" style=""width: 408px; height: 417px; margin-right: 608px;""></div></div>","null","delaylearn","learning","display_response","64137069043a6e0150c4beae","tjo6pUVGfIhMwOnVwE1HnD3HsmE3","","","","","","","","","","","","","","","","","chosen stimuli: images/choice_trial_2.png","","","",""
"html-keyboard-response","162","326276","0.0-67.0-2.0","","null","","null","delaylearn","learning","feedback_duration_window","64137069043a6e0150c4beae","tjo6pUVGfIhMwOnVwE1HnD3HsmE3","","","","","","","","","","","","","","","","","","750","","",""
"html-keyboard-response","163","327777","0.0-67.0-3.0","","null","<div style='margin:auto;width: auto; font-size: 150%'><span style='font-weight: bold; font-size: 100px; color: green;'>+10 points!</span><br><br></div>","null","delaylearn","learning","feedback_image_window","64137069043a6e0150c4beae","tjo6pUVGfIhMwOnVwE1HnD3HsmE3","","","","","","","","","","","","","","","","","","","","",""
"html-keyboard-response","164","330249","0.0-68.0","","null","<div style=""font-size:100px;"">+</div>","null","delaylearn","learning","ITI","64137069043a6e0150c4beae","tjo6pUVGfIhMwOnVwE1HnD3HsmE3","","","","","","","","","","","","","","","","","","","2470","",""
"html-keyboard-response","165","331828","0.0-69.0-0.0","","1576","<div style=""display: flex; flex-direction: column; align-items: center; margin-top: -40px;""><img src=""images/pattern_6.png"" style=""width: 234px; height: 230px; margin-top: -50px;""><div style=""display: flex; justify-content: space-between; margin-top: 33px;""><img src=""images/choice_trial_5.png"" style=""width: 408px; height: 417px; margin-right: 200px;""><img src=""images/choice_trial_11.png"" style=""width: 408px; height: 417px;""></div></div>","j","delaylearn","learning","trial","64137069043a6e0150c4beae","tjo6pUVGfIhMwOnVwE1HnD3HsmE3","2","images/choice_trial_5.png","images/choice_trial_11.png","images/pattern_6.png","j","j","750","5","11","5","1","30","1","1","11","180","","","","",""
"html-keyboard-response","166","332831","0.0-69.0-1.0","","null","<div style=""display: flex; flex-direction: column; align-items: center; margin-top: -40px;""><img src=""images/pattern_6.png"" style=""width: 234px; height: 230px; margin-top: -50px;""><div style=""display: flex; justify-content: space-between; margin-top: 33px;""><img src=""images/choice_trial_11.png"" style=""width: 408px; height: 417px; margin-left:608px;""></div></div>","null","delaylearn","learning","display_response","64137069043a6e0150c4beae","tjo6pUVGfIhMwOnVwE1HnD3HsmE3","","","","","","","","","","","","","","","","","chosen stimuli: images/choice_trial_11.png","","","",""
"html-keyboard-response","167","333582","0.0-69.0-2.0","","null","","null","delaylearn","learning","feedback_duration_window","64137069043a6e0150c4beae","tjo6pUVGfIhMwOnVwE1HnD3HsmE3","","","","","","","","","","","","","","","","","","750","","",""
"html-keyboard-response","168","335084","0.0-69.0-3.0","","null","<div style='margin:auto;width: auto; font-size: 150%'><span style='font-weight: bold; font-size: 100px; color: green;'>+10 points!</span><br><br></div>","null","delaylearn","learning","feedback_image_window","64137069043a6e0150c4beae","tjo6pUVGfIhMwOnVwE1HnD3HsmE3","","","","","","","","","","","","","","","","","","","","",""
"html-keyboard-response","169","335587","0.0-70.0-0.0","","null","","null","","","mood_trial_fixation","","","","","","","","","","","","","","","","","","","","","","",""
"lmdlab-html-vas-response","170","339378","0.0-70.0-1.0","","2786","How happy are you right now?","0.7312825520833334","delaylearn","learning","mood_trial","64137069043a6e0150c4beae","tjo6pUVGfIhMwOnVwE1HnD3HsmE3","","","","","","","","","","","","","","","","","","","","[""Very unhappy"",""Very happy""]",""
"html-keyboard-response","171","341143","0.0-71.0","","null","<div style=""font-size:100px;"">+</div>","null","delaylearn","learning","ITI","64137069043a6e0150c4beae","tjo6pUVGfIhMwOnVwE1HnD3HsmE3","","","","","","","","","","","","","","","","","","","1763","",""
"html-keyboard-response","172","342097","0.0-72.0-0.0","","947","<div style=""display: flex; flex-direction: column; align-items: center; margin-top: -40px;""><img src=""images/pattern_4.png"" style=""width: 234px; height: 230px; margin-top: -50px;""><div style=""display: flex; justify-content: space-between; margin-top: 33px;""><img src=""images/choice_trial_16.png"" style=""width: 408px; height: 417px; margin-right: 200px;""><img src=""images/choice_trial_4.png"" style=""width: 408px; height: 417px;""></div></div>","j","delaylearn","learning","trial","64137069043a6e0150c4beae","tjo6pUVGfIhMwOnVwE1HnD3HsmE3","2","images/choice_trial_16.png","images/choice_trial_4.png","images/pattern_4.png","j","j","7000","16","4","3","1","31","1","1","4","190","","","","",""
"html-keyboard-response","173","343100","0.0-72.0-1.0","","null","<div style=""display: flex; flex-direction: column; align-items: center; margin-top: -40px;""><img src=""images/pattern_4.png"" style=""width: 234px; height: 230px; margin-top: -50px;""><div style=""display: flex; justify-content: space-between; margin-top: 33px;""><img src=""images/choice_trial_4.png"" style=""width: 408px; height: 417px; margin-left:608px;""></div></div>","null","delaylearn","learning","display_response","64137069043a6e0150c4beae","tjo6pUVGfIhMwOnVwE1HnD3HsmE3","","","","","","","","","","","","","","","","","chosen stimuli: images/choice_trial_4.png","","","",""
"html-keyboard-response","174","350102","0.0-72.0-2.0","","null","","null","delaylearn","learning","feedback_duration_window","64137069043a6e0150c4beae","tjo6pUVGfIhMwOnVwE1HnD3HsmE3","","","","","","","","","","","","","","","","","","7000","","",""
"html-keyboard-response","175","351604","0.0-72.0-3.0","","null","<div style='margin:auto;width: auto; font-size: 150%'><span style='font-weight: bold; font-size: 100px; color: green;'>+10 points!</span><br><br></div>","null","delaylearn","learning","feedback_image_window","64137069043a6e0150c4beae","tjo6pUVGfIhMwOnVwE1HnD3HsmE3","","","","","","","","","","","","","","","","","","","","",""
"html-keyboard-response","176","353644","0.0-73.0","","null","<div style=""font-size:100px;"">+</div>","null","delaylearn","learning","ITI","64137069043a6e0150c4beae","tjo6pUVGfIhMwOnVwE1HnD3HsmE3","","","","","","","","","","","","","","","","","","","2038","",""
"html-keyboard-response","177","355176","0.0-74.0-0.0","","1529","<div style=""display: flex; flex-direction: column; align-items: center; margin-top: -40px;""><img src=""images/pattern_3.png"" style=""width: 234px; height: 230px; margin-top: -50px;""><div style=""display: flex; justify-content: space-between; margin-top: 33px;""><img src=""images/choice_trial_14.png"" style=""width: 408px; height: 417px; margin-right: 200px;""><img src=""images/choice_trial_12.png"" style=""width: 408px; height: 417px;""></div></div>","j","delaylearn","learning","trial","64137069043a6e0150c4beae","tjo6pUVGfIhMwOnVwE1HnD3HsmE3","2","images/choice_trial_14.png","images/choice_trial_12.png","images/pattern_3.png","j","j","7000","14","12","2","1","32","1","1","12","200","","","","",""
"html-keyboard-response","178","356179","0.0-74.0-1.0","","null","<div style=""display: flex; flex-direction: column; align-items: center; margin-top: -40px;""><img src=""images/pattern_3.png"" style=""width: 234px; height: 230px; margin-top: -50px;""><div style=""display: flex; justify-content: space-between; margin-top: 33px;""><img src=""images/choice_trial_12.png"" style=""width: 408px; height: 417px; margin-left:608px;""></div></div>","null","delaylearn","learning","display_response","64137069043a6e0150c4beae","tjo6pUVGfIhMwOnVwE1HnD3HsmE3","","","","","","","","","","","","","","","","","chosen stimuli: images/choice_trial_12.png","","","",""
"html-keyboard-response","179","363182","0.0-74.0-2.0","","null","","null","delaylearn","learning","feedback_duration_window","64137069043a6e0150c4beae","tjo6pUVGfIhMwOnVwE1HnD3HsmE3","","","","","","","","","","","","","","","","","","7000","","",""
"html-keyboard-response","180","364684","0.0-74.0-3.0","","null","<div style='margin:auto;width: auto; font-size: 150%'><span style='font-weight: bold; font-size: 100px; color: green;'>+10 points!</span><br><br></div>","null","delaylearn","learning","feedback_image_window","64137069043a6e0150c4beae","tjo6pUVGfIhMwOnVwE1HnD3HsmE3","","","","","","","","","","","","","","","","","","","","",""
"html-keyboard-response","181","366323","0.0-75.0","","null","<div style=""font-size:100px;"">+</div>","null","delaylearn","learning","ITI","64137069043a6e0150c4beae","tjo6pUVGfIhMwOnVwE1HnD3HsmE3","","","","","","","","","","","","","","","","","","","1636","",""
"html-keyboard-response","182","367168","0.0-76.0-0.0","","841.9999999999418","<div style=""display: flex; flex-direction: column; align-items: center; margin-top: -40px;""><img src=""images/pattern_5.png"" style=""width: 234px; height: 230px; margin-top: -50px;""><div style=""display: flex; justify-content: space-between; margin-top: 33px;""><img src=""images/choice_trial_2.png"" style=""width: 408px; height: 417px; margin-right: 200px;""><img src=""images/choice_trial_9.png"" style=""width: 408px; height: 417px;""></div></div>","f","delaylearn","learning","trial","64137069043a6e0150c4beae","tjo6pUVGfIhMwOnVwE1HnD3HsmE3","2","images/choice_trial_2.png","images/choice_trial_9.png","images/pattern_5.png","j","f","750","2","9","4","0","33","1","0","2","200","","","","",""
"html-keyboard-response","183","368171","0.0-76.0-1.0","","null","<div style=""display: flex; flex-direction: column; align-items: center; margin-top: -40px;""><img src=""images/pattern_5.png"" style=""width: 234px; height: 230px; margin-top: -50px;""><div style=""display: flex; justify-content: space-between; margin-top: 33px;""><img src=""images/choice_trial_2.png"" style=""width: 408px; height: 417px; margin-right: 608px;""></div></div>","null","delaylearn","learning","display_response","64137069043a6e0150c4beae","tjo6pUVGfIhMwOnVwE1HnD3HsmE3","","","","","","","","","","","","","","","","","chosen stimuli: images/choice_trial_2.png","","","",""
"html-keyboard-response","184","368923","0.0-76.0-2.0","","null","","null","delaylearn","learning","feedback_duration_window","64137069043a6e0150c4beae","tjo6pUVGfIhMwOnVwE1HnD3HsmE3","","","","","","","","","","","","","","","","","","750","","",""
"html-keyboard-response","185","370425","0.0-76.0-3.0","","null","<div style='margin:auto;width: auto; font-size: 150%'><span style='font-weight: bold; font-size: 100px; color: red;'>0 points!</span><br><br></div>","null","delaylearn","learning","feedback_image_window","64137069043a6e0150c4beae","tjo6pUVGfIhMwOnVwE1HnD3HsmE3","","","","","","","","","","","","","","","","","","","","",""
"html-keyboard-response","186","372629","0.0-77.0","","null","<div style=""font-size:100px;"">+</div>","null","delaylearn","learning","ITI","64137069043a6e0150c4beae","tjo6pUVGfIhMwOnVwE1HnD3HsmE3","","","","","","","","","","","","","","","","","","","2203","",""
"html-keyboard-response","187","374685","0.0-78.0-0.0","","2048","<div style=""display: flex; flex-direction: column; align-items: center; margin-top: -40px;""><img src=""images/pattern_1.png"" style=""width: 234px; height: 230px; margin-top: -50px;""><div style=""display: flex; justify-content: space-between; margin-top: 33px;""><img src=""images/choice_trial_3.png"" style=""width: 408px; height: 417px; margin-right: 200px;""><img src=""images/choice_trial_10.png"" style=""width: 408px; height: 417px;""></div></div>","f","delaylearn","learning","trial","64137069043a6e0150c4beae","tjo6pUVGfIhMwOnVwE1HnD3HsmE3","2","images/choice_trial_3.png","images/choice_trial_10.png","images/pattern_1.png","f","f","7000","3","10","1","0","34","1","1","3","210","","","","",""
"html-keyboard-response","188","375688","0.0-78.0-1.0","","null","<div style=""display: flex; flex-direction: column; align-items: center; margin-top: -40px;""><img src=""images/pattern_1.png"" style=""width: 234px; height: 230px; margin-top: -50px;""><div style=""display: flex; justify-content: space-between; margin-top: 33px;""><img src=""images/choice_trial_3.png"" style=""width: 408px; height: 417px; margin-right: 608px;""></div></div>","null","delaylearn","learning","display_response","64137069043a6e0150c4beae","tjo6pUVGfIhMwOnVwE1HnD3HsmE3","","","","","","","","","","","","","","","","","chosen stimuli: images/choice_trial_3.png","","","",""
"html-keyboard-response","189","382690","0.0-78.0-2.0","","null","","null","delaylearn","learning","feedback_duration_window","64137069043a6e0150c4beae","tjo6pUVGfIhMwOnVwE1HnD3HsmE3","","","","","","","","","","","","","","","","","","7000","","",""
"html-keyboard-response","190","384192","0.0-78.0-3.0","","null","<div style='margin:auto;width: auto; font-size: 150%'><span style='font-weight: bold; font-size: 100px; color: green;'>+10 points!</span><br><br></div>","null","delaylearn","learning","feedback_image_window","64137069043a6e0150c4beae","tjo6pUVGfIhMwOnVwE1HnD3HsmE3","","","","","","","","","","","","","","","","","","","","",""
"html-keyboard-response","191","384694","0.0-79.0-0.0","","null","","null","","","mood_trial_fixation","","","","","","","","","","","","","","","","","","","","","","",""
"lmdlab-html-vas-response","192","389993","0.0-79.0-1.0","","4292","How happy are you right now?","0.7125325520833333","delaylearn","learning","mood_trial","64137069043a6e0150c4beae","tjo6pUVGfIhMwOnVwE1HnD3HsmE3","","","","","","","","","","","","","","","","","","","","[""Very unhappy"",""Very happy""]",""
"html-keyboard-response","193","391792","0.0-80.0","","null","<div style=""font-size:100px;"">+</div>","null","delaylearn","learning","ITI","64137069043a6e0150c4beae","tjo6pUVGfIhMwOnVwE1HnD3HsmE3","","","","","","","","","","","","","","","","","","","1798","",""
"html-keyboard-response","194","392935","0.0-81.0-0.0","","1140","<div style=""display: flex; flex-direction: column; align-items: center; margin-top: -40px;""><img src=""images/pattern_6.png"" style=""width: 234px; height: 230px; margin-top: -50px;""><div style=""display: flex; justify-content: space-between; margin-top: 33px;""><img src=""images/choice_trial_11.png"" style=""width: 408px; height: 417px; margin-right: 200px;""><img src=""images/choice_trial_5.png"" style=""width: 408px; height: 417px;""></div></div>","f","delaylearn","learning","trial","64137069043a6e0150c4beae","tjo6pUVGfIhMwOnVwE1HnD3HsmE3","2","images/choice_trial_11.png","images/choice_trial_5.png","images/pattern_6.png","j","f","750","11","5","5","0","35","1","0","11","210","","","","",""
"html-keyboard-response","195","393938","0.0-81.0-1.0","","null","<div style=""display: flex; flex-direction: column; align-items: center; margin-top: -40px;""><img src=""images/pattern_6.png"" style=""width: 234px; height: 230px; margin-top: -50px;""><div style=""display: flex; justify-content: space-between; margin-top: 33px;""><img src=""images/choice_trial_11.png"" style=""width: 408px; height: 417px; margin-right: 608px;""></div></div>","null","delaylearn","learning","display_response","64137069043a6e0150c4beae","tjo6pUVGfIhMwOnVwE1HnD3HsmE3","","","","","","","","","","","","","","","","","chosen stimuli: images/choice_trial_11.png","","","",""
"html-keyboard-response","196","394690","0.0-81.0-2.0","","null","","null","delaylearn","learning","feedback_duration_window","64137069043a6e0150c4beae","tjo6pUVGfIhMwOnVwE1HnD3HsmE3","","","","","","","","","","","","","","","","","","750","","",""
"html-keyboard-response","197","396191","0.0-81.0-3.0","","null","<div style='margin:auto;width: auto; font-size: 150%'><span style='font-weight: bold; font-size: 100px; color: red;'>0 points!</span><br><br></div>","null","delaylearn","learning","feedback_image_window","64137069043a6e0150c4beae","tjo6pUVGfIhMwOnVwE1HnD3HsmE3","","","","","","","","","","","","","","","","","","","","",""
"html-keyboard-response","198","397792","0.0-82.0","","null","<div style=""font-size:100px;"">+</div>","null","delaylearn","learning","ITI","64137069043a6e0150c4beae","tjo6pUVGfIhMwOnVwE1HnD3HsmE3","","","","","","","","","","","","","","","","","","","1598","",""
"html-keyboard-response","199","399693","0.0-83.0-0.0","","1897.0000000001164","<div style=""display: flex; flex-direction: column; align-items: center; margin-top: -40px;""><img src=""images/pattern_3.png"" style=""width: 234px; height: 230px; margin-top: -50px;""><div style=""display: flex; justify-content: space-between; margin-top: 33px;""><img src=""images/choice_trial_14.png"" style=""width: 408px; height: 417px; margin-right: 200px;""><img src=""images/choice_trial_12.png"" style=""width: 408px; height: 417px;""></div></div>","j","delaylearn","learning","trial","64137069043a6e0150c4beae","tjo6pUVGfIhMwOnVwE1HnD3HsmE3","2","images/choice_trial_14.png","images/choice_trial_12.png","images/pattern_3.png","j","j","7000","14","12","2","1","36","1","1","12","220","","","","",""
"html-keyboard-response","200","400695","0.0-83.0-1.0","","null","<div style=""display: flex; flex-direction: column; align-items: center; margin-top: -40px;""><img src=""images/pattern_3.png"" style=""width: 234px; height: 230px; margin-top: -50px;""><div style=""display: flex; justify-content: space-between; margin-top: 33px;""><img src=""images/choice_trial_12.png"" style=""width: 408px; height: 417px; margin-left:608px;""></div></div>","null","delaylearn","learning","display_response","64137069043a6e0150c4beae","tjo6pUVGfIhMwOnVwE1HnD3HsmE3","","","","","","","","","","","","","","","","","chosen stimuli: images/choice_trial_12.png","","","",""
"html-keyboard-response","201","407697","0.0-83.0-2.0","","null","","null","delaylearn","learning","feedback_duration_window","64137069043a6e0150c4beae","tjo6pUVGfIhMwOnVwE1HnD3HsmE3","","","","","","","","","","","","","","","","","","7000","","",""
"html-keyboard-response","202","409199","0.0-83.0-3.0","","null","<div style='margin:auto;width: auto; font-size: 150%'><span style='font-weight: bold; font-size: 100px; color: green;'>+10 points!</span><br><br></div>","null","delaylearn","learning","feedback_image_window","64137069043a6e0150c4beae","tjo6pUVGfIhMwOnVwE1HnD3HsmE3","","","","","","","","","","","","","","","","","","","","",""
"html-keyboard-response","203","411380","0.0-84.0","","null","<div style=""font-size:100px;"">+</div>","null","delaylearn","learning","ITI","64137069043a6e0150c4beae","tjo6pUVGfIhMwOnVwE1HnD3HsmE3","","","","","","","","","","","","","","","","","","","2180","",""
"html-keyboard-response","204","412280","0.0-85.0-0.0","","894.9999999998836","<div style=""display: flex; flex-direction: column; align-items: center; margin-top: -40px;""><img src=""images/pattern_4.png"" style=""width: 234px; height: 230px; margin-top: -50px;""><div style=""display: flex; justify-content: space-between; margin-top: 33px;""><img src=""images/choice_trial_16.png"" style=""width: 408px; height: 417px; margin-right: 200px;""><img src=""images/choice_trial_4.png"" style=""width: 408px; height: 417px;""></div></div>","j","delaylearn","learning","trial","64137069043a6e0150c4beae","tjo6pUVGfIhMwOnVwE1HnD3HsmE3","2","images/choice_trial_16.png","images/choice_trial_4.png","images/pattern_4.png","f","j","7000","16","4","3","1","37","1","0","4","220","","","","",""
"html-keyboard-response","205","413283","0.0-85.0-1.0","","null","<div style=""display: flex; flex-direction: column; align-items: center; margin-top: -40px;""><img src=""images/pattern_4.png"" style=""width: 234px; height: 230px; margin-top: -50px;""><div style=""display: flex; justify-content: space-between; margin-top: 33px;""><img src=""images/choice_trial_4.png"" style=""width: 408px; height: 417px; margin-left:608px;""></div></div>","null","delaylearn","learning","display_response","64137069043a6e0150c4beae","tjo6pUVGfIhMwOnVwE1HnD3HsmE3","","","","","","","","","","","","","","","","","chosen stimuli: images/choice_trial_4.png","","","",""
"html-keyboard-response","206","420284","0.0-85.0-2.0","","null","","null","delaylearn","learning","feedback_duration_window","64137069043a6e0150c4beae","tjo6pUVGfIhMwOnVwE1HnD3HsmE3","","","","","","","","","","","","","","","","","","7000","","",""
"html-keyboard-response","207","421786","0.0-85.0-3.0","","null","<div style='margin:auto;width: auto; font-size: 150%'><span style='font-weight: bold; font-size: 100px; color: red;'>0 points!</span><br><br></div>","null","delaylearn","learning","feedback_image_window","64137069043a6e0150c4beae","tjo6pUVGfIhMwOnVwE1HnD3HsmE3","","","","","","","","","","","","","","","","","","","","",""
"html-keyboard-response","208","423810","0.0-86.0","","null","<div style=""font-size:100px;"">+</div>","null","delaylearn","learning","ITI","64137069043a6e0150c4beae","tjo6pUVGfIhMwOnVwE1HnD3HsmE3","","","","","","","","","","","","","","","","","","","2023","",""
"html-keyboard-response","209","424923","0.0-87.0-0.0","","1110","<div style=""display: flex; flex-direction: column; align-items: center; margin-top: -40px;""><img src=""images/pattern_7.png"" style=""width: 234px; height: 230px; margin-top: -50px;""><div style=""display: flex; justify-content: space-between; margin-top: 33px;""><img src=""images/choice_trial_8.png"" style=""width: 408px; height: 417px; margin-right: 200px;""><img src=""images/choice_trial_15.png"" style=""width: 408px; height: 417px;""></div></div>","j","delaylearn","learning","trial","64137069043a6e0150c4beae","tjo6pUVGfIhMwOnVwE1HnD3HsmE3","2","images/choice_trial_8.png","images/choice_trial_15.png","images/pattern_7.png","f","f","750","8","15","6","0","38","0","0","15","220","","","","",""
"html-keyboard-response","210","425927","0.0-87.0-1.0","","null","<div style=""display: flex; flex-direction: column; align-items: center; margin-top: -40px;""><img src=""images/pattern_7.png"" style=""width: 234px; height: 230px; margin-top: -50px;""><div style=""display: flex; justify-content: space-between; margin-top: 33px;""><img src=""images/choice_trial_15.png"" style=""width: 408px; height: 417px; margin-left:608px;""></div></div>","null","delaylearn","learning","display_response","64137069043a6e0150c4beae","tjo6pUVGfIhMwOnVwE1HnD3HsmE3","","","","","","","","","","","","","","","","","chosen stimuli: images/choice_trial_15.png","","","",""
"html-keyboard-response","211","426679","0.0-87.0-2.0","","null","","null","delaylearn","learning","feedback_duration_window","64137069043a6e0150c4beae","tjo6pUVGfIhMwOnVwE1HnD3HsmE3","","","","","","","","","","","","","","","","","","750","","",""
"html-keyboard-response","212","428181","0.0-87.0-3.0","","null","<div style='margin:auto;width: auto; font-size: 150%'><span style='font-weight: bold; font-size: 100px; color: red;'>0 points!</span><br><br></div>","null","delaylearn","learning","feedback_image_window","64137069043a6e0150c4beae","tjo6pUVGfIhMwOnVwE1HnD3HsmE3","","","","","","","","","","","","","","","","","","","","",""
"html-keyboard-response","213","430282","0.0-88.0","","null","<div style=""font-size:100px;"">+</div>","null","delaylearn","learning","ITI","64137069043a6e0150c4beae","tjo6pUVGfIhMwOnVwE1HnD3HsmE3","","","","","","","","","","","","","","","","","","","2099","",""
"html-keyboard-response","214","431699","0.0-89.0-0.0","","1413","<div style=""display: flex; flex-direction: column; align-items: center; margin-top: -40px;""><img src=""images/pattern_1.png"" style=""width: 234px; height: 230px; margin-top: -50px;""><div style=""display: flex; justify-content: space-between; margin-top: 33px;""><img src=""images/choice_trial_3.png"" style=""width: 408px; height: 417px; margin-right: 200px;""><img src=""images/choice_trial_10.png"" style=""width: 408px; height: 417px;""></div></div>","j","delaylearn","learning","trial","64137069043a6e0150c4beae","tjo6pUVGfIhMwOnVwE1HnD3HsmE3","2","images/choice_trial_3.png","images/choice_trial_10.png","images/pattern_1.png","f","f","7000","3","10","1","0","39","0","0","10","220","","","","",""
"html-keyboard-response","215","432702","0.0-89.0-1.0","","null","<div style=""display: flex; flex-direction: column; align-items: center; margin-top: -40px;""><img src=""images/pattern_1.png"" style=""width: 234px; height: 230px; margin-top: -50px;""><div style=""display: flex; justify-content: space-between; margin-top: 33px;""><img src=""images/choice_trial_10.png"" style=""width: 408px; height: 417px; margin-left:608px;""></div></div>","null","delaylearn","learning","display_response","64137069043a6e0150c4beae","tjo6pUVGfIhMwOnVwE1HnD3HsmE3","","","","","","","","","","","","","","","","","chosen stimuli: images/choice_trial_10.png","","","",""
"html-keyboard-response","216","439703","0.0-89.0-2.0","","null","","null","delaylearn","learning","feedback_duration_window","64137069043a6e0150c4beae","tjo6pUVGfIhMwOnVwE1HnD3HsmE3","","","","","","","","","","","","","","","","","","7000","","",""
"html-keyboard-response","217","441205","0.0-89.0-3.0","","null","<div style='margin:auto;width: auto; font-size: 150%'><span style='font-weight: bold; font-size: 100px; color: red;'>0 points!</span><br><br></div>","null","delaylearn","learning","feedback_image_window","64137069043a6e0150c4beae","tjo6pUVGfIhMwOnVwE1HnD3HsmE3","","","","","","","","","","","","","","","","","","","","",""
"html-keyboard-response","218","441706","0.0-90.0-0.0","","null","","null","","","mood_trial_fixation","","","","","","","","","","","","","","","","","","","","","","",""
"lmdlab-html-vas-response","219","447979","0.0-90.0-1.0","","5267","How happy are you right now?","0.2625325520833333","delaylearn","learning","mood_trial","64137069043a6e0150c4beae","tjo6pUVGfIhMwOnVwE1HnD3HsmE3","","","","","","","","","","","","","","","","","","","","[""Very unhappy"",""Very happy""]",""
"html-keyboard-response","220","449717","0.0-91.0","","null","<div style=""font-size:100px;"">+</div>","null","delaylearn","learning","ITI","64137069043a6e0150c4beae","tjo6pUVGfIhMwOnVwE1HnD3HsmE3","","","","","","","","","","","","","","","","","","","1736","",""
