"trial_type","trial_index","time_elapsed","internal_node_id","participant","rt","stimulus","response","exp_name","exp_stage","test_part","subjectID","databaseID","counterbal","choice_stimuli_1","choice_stimuli_2","pattern_stimuli","rewarded_answer","correct_answer","feedback_duration_times","stim_left","stim_right","pair","leftright_counter","trial","response_correct","response_rewarded","chosen_stim","counter","displayed_choice","feedback_durations","ITI_duration","labels","rest_warning"
"pavlovia","0","503","0.0-0.0","","","","","","","","","","","","","","","","","","","","","","","","","","","","","",""
"html-keyboard-response","1","3515","0.0-1.0","","null","<div style=""font-size:100px;"">+</div>","null","delaylearn","learning","pre_fixation","5e80b109ca1800791e1ca40c","","","","","","","","","","","","","","","","","","","","","",""
"html-keyboard-response","2","4918","0.0-2.0-0.0","","1400.7999999523163","<div style=""display: flex; flex-direction: column; align-items: center; margin-top: -40px;""><img src=""images/demo_images/pattern_1.png"" style=""width: 234px; height: 230px; margin-top: -50px;""><div style=""display: flex; justify-content: space-between; margin-top: 33px;""><img src=""images/demo_images/choice_trial_2.png"" style=""width: 408px; height: 417px; margin-right: 200px;""><img src=""images/demo_images/choice_trial_1.png"" style=""width: 408px; height: 417px;""></div></div>","f","delaylearn","learning","trial","5e80b109ca1800791e1ca40c","D9fpXvBlJSQiR1QRKmZavfbe4tk1","5","images/demo_images/choice_trial_2.png","images/demo_images/choice_trial_1.png","images/demo_images/pattern_1.png","j","j","3000","2","1","20","1","1","0","0","2","0","","","","",""
"html-keyboard-response","3","5928","0.0-2.0-1.0","","null","<div style=""display: flex; flex-direction: column; align-items: center; margin-top: -40px;""><img src=""images/demo_images/pattern_1.png"" style=""width: 234px; height: 230px; margin-top: -50px;""><div style=""display: flex; justify-content: space-between; margin-top: 33px;""><img src=""images/demo_images/choice_trial_2.png"" style=""width: 408px; height: 417px; margin-right: 608px;""></div></div>","null","delaylearn","learning","display_response","5e80b109ca1800791e1ca40c","D9fpXvBlJSQiR1QRKmZavfbe4tk1","","","","","","","","","","","","","","","","","chosen stimuli: images/demo_images/choice_trial_2.png","","","",""
"html-keyboard-response","4","8941","0.0-2.0-2.0","","null","","null","delaylearn","learning","feedback_duration_window","5e80b109ca1800791e1ca40c","D9fpXvBlJSQiR1QRKmZavfbe4tk1","","","","","","","","","","","","","","","","","","3000","","",""
"html-keyboard-response","5","10449","0.0-2.0-3.0","","null","<div style='margin:auto;width: auto; font-size: 150%'><span style='font-weight: bold; font-size: 100px; color: red;'>0 points!</span><br><br></div>","null","delaylearn","learning","feedback_image_window","5e80b109ca1800791e1ca40c","D9fpXvBlJSQiR1QRKmZavfbe4tk1","","","","","","","","","","","","","","","","","","","","",""
"html-keyboard-response","6","12358","0.0-3.0","","null","<div style=""font-size:100px;"">+</div>","null","delaylearn","learning","ITI","5e80b109ca1800791e1ca40c","D9fpXvBlJSQiR1QRKmZavfbe4tk1","","","","","","","","","","","","","","","","","","","1902","",""
"html-keyboard-response","7","13065","0.0-4.0-0.0","","704.7000000476837","<div style=""display: flex; flex-direction: column; align-items: center; margin-top: -40px;""><img src=""images/demo_images/pattern_1.png"" style=""width: 234px; height: 230px; margin-top: -50px;""><div style=""display: flex; justify-content: space-between; margin-top: 33px;""><img src=""images/demo_images/choice_trial_2.png"" style=""width: 408px; height: 417px; margin-right: 200px;""><img src=""images/demo_images/choice_trial_1.png"" style=""width: 408px; height: 417px;""></div></div>","j","delaylearn","learning","trial","5e80b109ca1800791e1ca40c","D9fpXvBlJSQiR1QRKmZavfbe4tk1","5","images/demo_images/choice_trial_2.png","images/demo_images/choice_trial_1.png","images/demo_images/pattern_1.png","j","j","3000","2","1","20","1","2","1","1","1","10","","","","",""
"html-keyboard-response","8","14077","0.0-4.0-1.0","","null","<div style=""display: flex; flex-direction: column; align-items: center; margin-top: -40px;""><img src=""images/demo_images/pattern_1.png"" style=""width: 234px; height: 230px; margin-top: -50px;""><div style=""display: flex; justify-content: space-between; margin-top: 33px;""><img src=""images/demo_images/choice_trial_1.png"" style=""width: 408px; height: 417px; margin-left:608px;""></div></div>","null","delaylearn","learning","display_response","5e80b109ca1800791e1ca40c","D9fpXvBlJSQiR1QRKmZavfbe4tk1","","","","","","","","","","","","","","","","","chosen stimuli: images/demo_images/choice_trial_1.png","","","",""
"html-keyboard-response","9","17085","0.0-4.0-2.0","","null","","null","delaylearn","learning","feedback_duration_window","5e80b109ca1800791e1ca40c","D9fpXvBlJSQiR1QRKmZavfbe4tk1","","","","","","","","","","","","","","","","","","3000","","",""
"html-keyboard-response","10","18594","0.0-4.0-3.0","","null","<div style='margin:auto;width: auto; font-size: 150%'><span style='font-weight: bold; font-size: 100px; color: green;'>+10 points!</span><br><br></div>","null","delaylearn","learning","feedback_image_window","5e80b109ca1800791e1ca40c","D9fpXvBlJSQiR1QRKmZavfbe4tk1","","","","","","","","","","","","","","","","","","","","",""
"html-keyboard-response","11","20833","0.0-5.0","","null","<div style=""font-size:100px;"">+</div>","null","delaylearn","learning","ITI","5e80b109ca1800791e1ca40c","D9fpXvBlJSQiR1QRKmZavfbe4tk1","","","","","","","","","","","","","","","","","","","2228","",""
"html-keyboard-response","12","21804","0.0-6.0-0.0","","969.5","<div style=""display: flex; flex-direction: column; align-items: center; margin-top: -40px;""><img src=""images/demo_images/pattern_1.png"" style=""width: 234px; height: 230px; margin-top: -50px;""><div style=""display: flex; justify-content: space-between; margin-top: 33px;""><img src=""images/demo_images/choice_trial_1.png"" style=""width: 408px; height: 417px; margin-right: 200px;""><img src=""images/demo_images/choice_trial_2.png"" style=""width: 408px; height: 417px;""></div></div>","f","delaylearn","learning","trial","5e80b109ca1800791e1ca40c","D9fpXvBlJSQiR1QRKmZavfbe4tk1","5","images/demo_images/choice_trial_1.png","images/demo_images/choice_trial_2.png","images/demo_images/pattern_1.png","j","f","3000","1","2","20","0","3","1","0","1","10","","","","",""
"html-keyboard-response","13","22818","0.0-6.0-1.0","","null","<div style=""display: flex; flex-direction: column; align-items: center; margin-top: -40px;""><img src=""images/demo_images/pattern_1.png"" style=""width: 234px; height: 230px; margin-top: -50px;""><div style=""display: flex; justify-content: space-between; margin-top: 33px;""><img src=""images/demo_images/choice_trial_1.png"" style=""width: 408px; height: 417px; margin-right: 608px;""></div></div>","null","delaylearn","learning","display_response","5e80b109ca1800791e1ca40c","D9fpXvBlJSQiR1QRKmZavfbe4tk1","","","","","","","","","","","","","","","","","chosen stimuli: images/demo_images/choice_trial_1.png","","","",""
"html-keyboard-response","14","25824","0.0-6.0-2.0","","null","","null","delaylearn","learning","feedback_duration_window","5e80b109ca1800791e1ca40c","D9fpXvBlJSQiR1QRKmZavfbe4tk1","","","","","","","","","","","","","","","","","","3000","","",""
"html-keyboard-response","15","27326","0.0-6.0-3.0","","null","<div style='margin:auto;width: auto; font-size: 150%'><span style='font-weight: bold; font-size: 100px; color: red;'>0 points!</span><br><br></div>","null","delaylearn","learning","feedback_image_window","5e80b109ca1800791e1ca40c","D9fpXvBlJSQiR1QRKmZavfbe4tk1","","","","","","","","","","","","","","","","","","","","",""
"html-keyboard-response","16","29037","0.0-7.0","","null","<div style=""font-size:100px;"">+</div>","null","delaylearn","learning","ITI","5e80b109ca1800791e1ca40c","D9fpXvBlJSQiR1QRKmZavfbe4tk1","","","","","","","","","","","","","","","","","","","1709","",""
"html-keyboard-response","17","30294","0.0-8.0-0.0","","1255.1000001430511","<div style=""display: flex; flex-direction: column; align-items: center; margin-top: -40px;""><img src=""images/demo_images/pattern_1.png"" style=""width: 234px; height: 230px; margin-top: -50px;""><div style=""display: flex; justify-content: space-between; margin-top: 33px;""><img src=""images/demo_images/choice_trial_1.png"" style=""width: 408px; height: 417px; margin-right: 200px;""><img src=""images/demo_images/choice_trial_2.png"" style=""width: 408px; height: 417px;""></div></div>","j","delaylearn","learning","trial","5e80b109ca1800791e1ca40c","D9fpXvBlJSQiR1QRKmZavfbe4tk1","5","images/demo_images/choice_trial_1.png","images/demo_images/choice_trial_2.png","images/demo_images/pattern_1.png","f","f","3000","1","2","20","0","4","0","0","2","10","","","","",""
"html-keyboard-response","18","31305","0.0-8.0-1.0","","null","<div style=""display: flex; flex-direction: column; align-items: center; margin-top: -40px;""><img src=""images/demo_images/pattern_1.png"" style=""width: 234px; height: 230px; margin-top: -50px;""><div style=""display: flex; justify-content: space-between; margin-top: 33px;""><img src=""images/demo_images/choice_trial_2.png"" style=""width: 408px; height: 417px; margin-left:608px;""></div></div>","null","delaylearn","learning","display_response","5e80b109ca1800791e1ca40c","D9fpXvBlJSQiR1QRKmZavfbe4tk1","","","","","","","","","","","","","","","","","chosen stimuli: images/demo_images/choice_trial_2.png","","","",""
"html-keyboard-response","19","34314","0.0-8.0-2.0","","null","","null","delaylearn","learning","feedback_duration_window","5e80b109ca1800791e1ca40c","D9fpXvBlJSQiR1QRKmZavfbe4tk1","","","","","","","","","","","","","","","","","","3000","","",""
"html-keyboard-response","20","35824","0.0-8.0-3.0","","null","<div style='margin:auto;width: auto; font-size: 150%'><span style='font-weight: bold; font-size: 100px; color: red;'>0 points!</span><br><br></div>","null","delaylearn","learning","feedback_image_window","5e80b109ca1800791e1ca40c","D9fpXvBlJSQiR1QRKmZavfbe4tk1","","","","","","","","","","","","","","","","","","","","",""
"html-keyboard-response","21","36329","0.0-9.0-0.0","","null","","null","","","mood_trial_fixation","","","","","","","","","","","","","","","","","","","","","","",""
"lmdlab-html-vas-response","22","41302","0.0-9.0-1.0","","3960","How happy are you right now?","0.5856481481481481","delaylearn","learning","mood_trial","5e80b109ca1800791e1ca40c","D9fpXvBlJSQiR1QRKmZavfbe4tk1","","","","","","","","","","","","","","","","","","","","[""Very unhappy"",""Very happy""]",""
"html-keyboard-response","23","43553","0.0-10.0","","null","<div style=""font-size:100px;"">+</div>","null","delaylearn","learning","ITI","5e80b109ca1800791e1ca40c","D9fpXvBlJSQiR1QRKmZavfbe4tk1","","","","","","","","","","","","","","","","","","","2237","",""
"html-keyboard-response","24","46558","0.0-11.0-0.0","","null","<div style=""display: flex; flex-direction: column; align-items: center; margin-top: -40px;""><img src=""images/demo_images/pattern_1.png"" style=""width: 234px; height: 230px; margin-top: -50px;""><div style=""display: flex; justify-content: space-between; margin-top: 33px;""><img src=""images/demo_images/choice_trial_2.png"" style=""width: 408px; height: 417px; margin-right: 200px;""><img src=""images/demo_images/choice_trial_1.png"" style=""width: 408px; height: 417px;""></div></div>","null","delaylearn","learning","trial","5e80b109ca1800791e1ca40c","D9fpXvBlJSQiR1QRKmZavfbe4tk1","5","images/demo_images/choice_trial_2.png","images/demo_images/choice_trial_1.png","images/demo_images/pattern_1.png","j","j","3000","2","1","20","1","5","0","0","0","10","","","","",""
"html-keyboard-response","25","47564","0.0-11.0-1.0","","null","<div style='font-weight: bold; font-size: 75px; color: red;'>Missed Trial <br><br><br><br> Please respond faster</div>","null","delaylearn","learning","display_response","5e80b109ca1800791e1ca40c","D9fpXvBlJSQiR1QRKmZavfbe4tk1","","","","","","","","","","","","","","","","","Missed trial","","","",""
"html-keyboard-response","26","47569","0.0-11.0-2.0","","null","","null","delaylearn","learning","feedback_duration_window","5e80b109ca1800791e1ca40c","D9fpXvBlJSQiR1QRKmZavfbe4tk1","","","","","","","","","","","","","","","","","","0","","",""
"html-keyboard-response","27","47574","0.0-11.0-3.0","","null","","null","delaylearn","learning","feedback_image_window","5e80b109ca1800791e1ca40c","D9fpXvBlJSQiR1QRKmZavfbe4tk1","","","","","","","","","","","","","","","","","","","","",""
"html-keyboard-response","28","49863","0.0-12.0","","null","<div style=""font-size:100px;"">+</div>","null","delaylearn","learning","ITI","5e80b109ca1800791e1ca40c","D9fpXvBlJSQiR1QRKmZavfbe4tk1","","","","","","","","","","","","","","","","","","","2276","",""
"html-keyboard-response","29","50889","0.0-13.0-0.0","","1024.5","<div style=""display: flex; flex-direction: column; align-items: center; margin-top: -40px;""><img src=""images/demo_images/pattern_1.png"" style=""width: 234px; height: 230px; margin-top: -50px;""><div style=""display: flex; justify-content: space-between; margin-top: 33px;""><img src=""images/demo_images/choice_trial_1.png"" style=""width: 408px; height: 417px; margin-right: 200px;""><img src=""images/demo_images/choice_trial_2.png"" style=""width: 408px; height: 417px;""></div></div>","f","delaylearn","learning","trial","5e80b109ca1800791e1ca40c","D9fpXvBlJSQiR1QRKmZavfbe4tk1","5","images/demo_images/choice_trial_1.png","images/demo_images/choice_trial_2.png","images/demo_images/pattern_1.png","f","f","3000","1","2","20","0","6","1","1","1","20","","","","",""
"html-keyboard-response","30","51904","0.0-13.0-1.0","","null","<div style=""display: flex; flex-direction: column; align-items: center; margin-top: -40px;""><img src=""images/demo_images/pattern_1.png"" style=""width: 234px; height: 230px; margin-top: -50px;""><div style=""display: flex; justify-content: space-between; margin-top: 33px;""><img src=""images/demo_images/choice_trial_1.png"" style=""width: 408px; height: 417px; margin-right: 608px;""></div></div>","null","delaylearn","learning","display_response","5e80b109ca1800791e1ca40c","D9fpXvBlJSQiR1QRKmZavfbe4tk1","","","","","","","","","","","","","","","","","chosen stimuli: images/demo_images/choice_trial_1.png","","","",""
"html-keyboard-response","31","54907","0.0-13.0-2.0","","null","","null","delaylearn","learning","feedback_duration_window","5e80b109ca1800791e1ca40c","D9fpXvBlJSQiR1QRKmZavfbe4tk1","","","","","","","","","","","","","","","","","","3000","","",""
"html-keyboard-response","32","56412","0.0-13.0-3.0","","null","<div style='margin:auto;width: auto; font-size: 150%'><span style='font-weight: bold; font-size: 100px; color: green;'>+10 points!</span><br><br></div>","null","delaylearn","learning","feedback_image_window","5e80b109ca1800791e1ca40c","D9fpXvBlJSQiR1QRKmZavfbe4tk1","","","","","","","","","","","","","","","","","","","","",""
"html-keyboard-response","33","58009","0.0-14.0","","null","<div style=""font-size:100px;"">+</div>","null","delaylearn","learning","ITI","5e80b109ca1800791e1ca40c","D9fpXvBlJSQiR1QRKmZavfbe4tk1","","","","","","","","","","","","","","","","","","","1589","",""
"html-keyboard-response","34","59444","0.0-15.0-0.0","","1433.0999999046326","<div style=""display: flex; flex-direction: column; align-items: center; margin-top: -40px;""><img src=""images/demo_images/pattern_1.png"" style=""width: 234px; height: 230px; margin-top: -50px;""><div style=""display: flex; justify-content: space-between; margin-top: 33px;""><img src=""images/demo_images/choice_trial_2.png"" style=""width: 408px; height: 417px; margin-right: 200px;""><img src=""images/demo_images/choice_trial_1.png"" style=""width: 408px; height: 417px;""></div></div>","j","delaylearn","learning","trial","5e80b109ca1800791e1ca40c","D9fpXvBlJSQiR1QRKmZavfbe4tk1","5","images/demo_images/choice_trial_2.png","images/demo_images/choice_trial_1.png","images/demo_images/pattern_1.png","j","j","3000","2","1","20","1","7","1","1","1","30","","","","",""
"html-keyboard-response","35","60456","0.0-15.0-1.0","","null","<div style=""display: flex; flex-direction: column; align-items: center; margin-top: -40px;""><img src=""images/demo_images/pattern_1.png"" style=""width: 234px; height: 230px; margin-top: -50px;""><div style=""display: flex; justify-content: space-between; margin-top: 33px;""><img src=""images/demo_images/choice_trial_1.png"" style=""width: 408px; height: 417px; margin-left:608px;""></div></div>","null","delaylearn","learning","display_response","5e80b109ca1800791e1ca40c","D9fpXvBlJSQiR1QRKmZavfbe4tk1","","","","","","","","","","","","","","","","","chosen stimuli: images/demo_images/choice_trial_1.png","","","",""
"html-keyboard-response","36","63464","0.0-15.0-2.0","","null","","null","delaylearn","learning","feedback_duration_window","5e80b109ca1800791e1ca40c","D9fpXvBlJSQiR1QRKmZavfbe4tk1","","","","","","","","","","","","","","","","","","3000","","",""
"html-keyboard-response","37","64980","0.0-15.0-3.0","","null","<div style='margin:auto;width: auto; font-size: 150%'><span style='font-weight: bold; font-size: 100px; color: green;'>+10 points!</span><br><br></div>","null","delaylearn","learning","feedback_image_window","5e80b109ca1800791e1ca40c","D9fpXvBlJSQiR1QRKmZavfbe4tk1","","","","","","","","","","","","","","","","","","","","",""
"html-keyboard-response","38","67196","0.0-16.0","","null","<div style=""font-size:100px;"">+</div>","null","delaylearn","learning","ITI","5e80b109ca1800791e1ca40c","D9fpXvBlJSQiR1QRKmZavfbe4tk1","","","","","","","","","","","","","","","","","","","2199","",""
"html-keyboard-response","39","68217","0.0-17.0-0.0","","1018.7999999523163","<div style=""display: flex; flex-direction: column; align-items: center; margin-top: -40px;""><img src=""images/demo_images/pattern_1.png"" style=""width: 234px; height: 230px; margin-top: -50px;""><div style=""display: flex; justify-content: space-between; margin-top: 33px;""><img src=""images/demo_images/choice_trial_1.png"" style=""width: 408px; height: 417px; margin-right: 200px;""><img src=""images/demo_images/choice_trial_2.png"" style=""width: 408px; height: 417px;""></div></div>","f","delaylearn","learning","trial","5e80b109ca1800791e1ca40c","D9fpXvBlJSQiR1QRKmZavfbe4tk1","5","images/demo_images/choice_trial_1.png","images/demo_images/choice_trial_2.png","images/demo_images/pattern_1.png","f","f","3000","1","2","20","0","8","1","1","1","40","","","","",""
"html-keyboard-response","40","69225","0.0-17.0-1.0","","null","<div style=""display: flex; flex-direction: column; align-items: center; margin-top: -40px;""><img src=""images/demo_images/pattern_1.png"" style=""width: 234px; height: 230px; margin-top: -50px;""><div style=""display: flex; justify-content: space-between; margin-top: 33px;""><img src=""images/demo_images/choice_trial_1.png"" style=""width: 408px; height: 417px; margin-right: 608px;""></div></div>","null","delaylearn","learning","display_response","5e80b109ca1800791e1ca40c","D9fpXvBlJSQiR1QRKmZavfbe4tk1","","","","","","","","","","","","","","","","","chosen stimuli: images/demo_images/choice_trial_1.png","","","",""
"html-keyboard-response","41","72234","0.0-17.0-2.0","","null","","null","delaylearn","learning","feedback_duration_window","5e80b109ca1800791e1ca40c","D9fpXvBlJSQiR1QRKmZavfbe4tk1","","","","","","","","","","","","","","","","","","3000","","",""
"html-keyboard-response","42","73742","0.0-17.0-3.0","","null","<div style='margin:auto;width: auto; font-size: 150%'><span style='font-weight: bold; font-size: 100px; color: green;'>+10 points!</span><br><br></div>","null","delaylearn","learning","feedback_image_window","5e80b109ca1800791e1ca40c","D9fpXvBlJSQiR1QRKmZavfbe4tk1","","","","","","","","","","","","","","","","","","","","",""
"html-button-response","43","76297","0.0-18.0","","2553.4000000953674","
  <div style=""display: flex; align-items: center; justify-content: center; height: 80vh;"">
  <div>
          <img src=""images/inst_demo_finish.png"" style=""width: 80vw; height:auto;"">
          <br><br>
      </div>
      <br><br>
  </div>","0","","","","","","","","","","","","","","","","","","","","","","","","","",""
"html-keyboard-response","44","83511","0.0-19.0","","7212.800000190735","
  <div style=""display: flex; align-items: center; justify-content: center; height: 80vh;"">
  <div>
          <img src=""images/inst_6.png"" style=""width: 80vw; height:auto;"">
          <br><br>
      </div>
      <br><br>
  </div>","f","","","","","","","","","","","","","","","","","","","","","","","","","",""
"html-keyboard-response","45","86516","0.0-20.0","","null","<div style=""font-size:100px;"">+</div>","null","delaylearn","learning","pre_fixation","5e80b109ca1800791e1ca40c","","","","","","","","","","","","","","","","","","","","","",""
"html-keyboard-response","46","88443","0.0-21.0","","null","<div style=""font-size:100px;"">+</div>","null","delaylearn","learning","ITI","5e80b109ca1800791e1ca40c","D9fpXvBlJSQiR1QRKmZavfbe4tk1","","","","","","","","","","","","","","","","","","","1920","",""
"html-keyboard-response","47","89871","0.0-22.0-0.0","","1426","<div style=""display: flex; flex-direction: column; align-items: center; margin-top: -40px;""><img src=""images/pattern_3.png"" style=""width: 234px; height: 230px; margin-top: -50px;""><div style=""display: flex; justify-content: space-between; margin-top: 33px;""><img src=""images/choice_trial_16.png"" style=""width: 408px; height: 417px; margin-right: 200px;""><img src=""images/choice_trial_2.png"" style=""width: 408px; height: 417px;""></div></div>","f","delaylearn","learning","trial","5e80b109ca1800791e1ca40c","D9fpXvBlJSQiR1QRKmZavfbe4tk1","5","images/choice_trial_16.png","images/choice_trial_2.png","images/pattern_3.png","f","f","7000","16","2","2","0","9","1","1","16","50","","","","",""
"html-keyboard-response","48","90881","0.0-22.0-1.0","","null","<div style=""display: flex; flex-direction: column; align-items: center; margin-top: -40px;""><img src=""images/pattern_3.png"" style=""width: 234px; height: 230px; margin-top: -50px;""><div style=""display: flex; justify-content: space-between; margin-top: 33px;""><img src=""images/choice_trial_16.png"" style=""width: 408px; height: 417px; margin-right: 608px;""></div></div>","null","delaylearn","learning","display_response","5e80b109ca1800791e1ca40c","D9fpXvBlJSQiR1QRKmZavfbe4tk1","","","","","","","","","","","","","","","","","chosen stimuli: images/choice_trial_16.png","","","",""
"html-keyboard-response","49","97882","0.0-22.0-2.0","","null","","null","delaylearn","learning","feedback_duration_window","5e80b109ca1800791e1ca40c","D9fpXvBlJSQiR1QRKmZavfbe4tk1","","","","","","","","","","","","","","","","","","7000","","",""
"html-keyboard-response","50","99399","0.0-22.0-3.0","","null","<div style='margin:auto;width: auto; font-size: 150%'><span style='font-weight: bold; font-size: 100px; color: green;'>+10 points!</span><br><br></div>","null","delaylearn","learning","feedback_image_window","5e80b109ca1800791e1ca40c","D9fpXvBlJSQiR1QRKmZavfbe4tk1","","","","","","","","","","","","","","","","","","","","",""
"html-keyboard-response","51","101385","0.0-23.0","","null","<div style=""font-size:100px;"">+</div>","null","delaylearn","learning","ITI","5e80b109ca1800791e1ca40c","D9fpXvBlJSQiR1QRKmZavfbe4tk1","","","","","","","","","","","","","","","","","","","1978","",""
"html-keyboard-response","52","103640","0.0-24.0-0.0","","2253.7000000476837","<div style=""display: flex; flex-direction: column; align-items: center; margin-top: -40px;""><img src=""images/pattern_7.png"" style=""width: 234px; height: 230px; margin-top: -50px;""><div style=""display: flex; justify-content: space-between; margin-top: 33px;""><img src=""images/choice_trial_10.png"" style=""width: 408px; height: 417px; margin-right: 200px;""><img src=""images/choice_trial_8.png"" style=""width: 408px; height: 417px;""></div></div>","f","delaylearn","learning","trial","5e80b109ca1800791e1ca40c","D9fpXvBlJSQiR1QRKmZavfbe4tk1","5","images/choice_trial_10.png","images/choice_trial_8.png","images/pattern_7.png","j","j","750","10","8","6","1","10","0","0","10","50","","","","",""
"html-keyboard-response","53","104656","0.0-24.0-1.0","","null","<div style=""display: flex; flex-direction: column; align-items: center; margin-top: -40px;""><img src=""images/pattern_7.png"" style=""width: 234px; height: 230px; margin-top: -50px;""><div style=""display: flex; justify-content: space-between; margin-top: 33px;""><img src=""images/choice_trial_10.png"" style=""width: 408px; height: 417px; margin-right: 608px;""></div></div>","null","delaylearn","learning","display_response","5e80b109ca1800791e1ca40c","D9fpXvBlJSQiR1QRKmZavfbe4tk1","","","","","","","","","","","","","","","","","chosen stimuli: images/choice_trial_10.png","","","",""
"html-keyboard-response","54","105410","0.0-24.0-2.0","","null","","null","delaylearn","learning","feedback_duration_window","5e80b109ca1800791e1ca40c","D9fpXvBlJSQiR1QRKmZavfbe4tk1","","","","","","","","","","","","","","","","","","750","","",""
"html-keyboard-response","55","106927","0.0-24.0-3.0","","null","<div style='margin:auto;width: auto; font-size: 150%'><span style='font-weight: bold; font-size: 100px; color: red;'>0 points!</span><br><br></div>","null","delaylearn","learning","feedback_image_window","5e80b109ca1800791e1ca40c","D9fpXvBlJSQiR1QRKmZavfbe4tk1","","","","","","","","","","","","","","","","","","","","",""
"html-keyboard-response","56","108634","0.0-25.0","","null","<div style=""font-size:100px;"">+</div>","null","delaylearn","learning","ITI","5e80b109ca1800791e1ca40c","D9fpXvBlJSQiR1QRKmZavfbe4tk1","","","","","","","","","","","","","","","","","","","1705","",""
"html-keyboard-response","57","110443","0.0-26.0-0.0","","1806.6000001430511","<div style=""display: flex; flex-direction: column; align-items: center; margin-top: -40px;""><img src=""images/pattern_4.png"" style=""width: 234px; height: 230px; margin-top: -50px;""><div style=""display: flex; justify-content: space-between; margin-top: 33px;""><img src=""images/choice_trial_11.png"" style=""width: 408px; height: 417px; margin-right: 200px;""><img src=""images/choice_trial_4.png"" style=""width: 408px; height: 417px;""></div></div>","j","delaylearn","learning","trial","5e80b109ca1800791e1ca40c","D9fpXvBlJSQiR1QRKmZavfbe4tk1","5","images/choice_trial_11.png","images/choice_trial_4.png","images/pattern_4.png","f","f","7000","11","4","3","0","11","0","0","4","50","","","","",""
"html-keyboard-response","58","111448","0.0-26.0-1.0","","null","<div style=""display: flex; flex-direction: column; align-items: center; margin-top: -40px;""><img src=""images/pattern_4.png"" style=""width: 234px; height: 230px; margin-top: -50px;""><div style=""display: flex; justify-content: space-between; margin-top: 33px;""><img src=""images/choice_trial_4.png"" style=""width: 408px; height: 417px; margin-left:608px;""></div></div>","null","delaylearn","learning","display_response","5e80b109ca1800791e1ca40c","D9fpXvBlJSQiR1QRKmZavfbe4tk1","","","","","","","","","","","","","","","","","chosen stimuli: images/choice_trial_4.png","","","",""
"html-keyboard-response","59","118449","0.0-26.0-2.0","","null","","null","delaylearn","learning","feedback_duration_window","5e80b109ca1800791e1ca40c","D9fpXvBlJSQiR1QRKmZavfbe4tk1","","","","","","","","","","","","","","","","","","7000","","",""
"html-keyboard-response","60","119960","0.0-26.0-3.0","","null","<div style='margin:auto;width: auto; font-size: 150%'><span style='font-weight: bold; font-size: 100px; color: red;'>0 points!</span><br><br></div>","null","delaylearn","learning","feedback_image_window","5e80b109ca1800791e1ca40c","D9fpXvBlJSQiR1QRKmZavfbe4tk1","","","","","","","","","","","","","","","","","","","","",""
"html-keyboard-response","61","122068","0.0-27.0","","null","<div style=""font-size:100px;"">+</div>","null","delaylearn","learning","ITI","5e80b109ca1800791e1ca40c","D9fpXvBlJSQiR1QRKmZavfbe4tk1","","","","","","","","","","","","","","","","","","","2103","",""
"html-keyboard-response","62","124055","0.0-28.0-0.0","","1984.3999998569489","<div style=""display: flex; flex-direction: column; align-items: center; margin-top: -40px;""><img src=""images/pattern_5.png"" style=""width: 234px; height: 230px; margin-top: -50px;""><div style=""display: flex; justify-content: space-between; margin-top: 33px;""><img src=""images/choice_trial_13.png"" style=""width: 408px; height: 417px; margin-right: 200px;""><img src=""images/choice_trial_7.png"" style=""width: 408px; height: 417px;""></div></div>","j","delaylearn","learning","trial","5e80b109ca1800791e1ca40c","D9fpXvBlJSQiR1QRKmZavfbe4tk1","5","images/choice_trial_13.png","images/choice_trial_7.png","images/pattern_5.png","j","j","750","13","7","4","1","12","1","1","7","60","","","","",""
"html-keyboard-response","63","125068","0.0-28.0-1.0","","null","<div style=""display: flex; flex-direction: column; align-items: center; margin-top: -40px;""><img src=""images/pattern_5.png"" style=""width: 234px; height: 230px; margin-top: -50px;""><div style=""display: flex; justify-content: space-between; margin-top: 33px;""><img src=""images/choice_trial_7.png"" style=""width: 408px; height: 417px; margin-left:608px;""></div></div>","null","delaylearn","learning","display_response","5e80b109ca1800791e1ca40c","D9fpXvBlJSQiR1QRKmZavfbe4tk1","","","","","","","","","","","","","","","","","chosen stimuli: images/choice_trial_7.png","","","",""
"html-keyboard-response","64","125822","0.0-28.0-2.0","","null","","null","delaylearn","learning","feedback_duration_window","5e80b109ca1800791e1ca40c","D9fpXvBlJSQiR1QRKmZavfbe4tk1","","","","","","","","","","","","","","","","","","750","","",""
"html-keyboard-response","65","127324","0.0-28.0-3.0","","null","<div style='margin:auto;width: auto; font-size: 150%'><span style='font-weight: bold; font-size: 100px; color: green;'>+10 points!</span><br><br></div>","null","delaylearn","learning","feedback_image_window","5e80b109ca1800791e1ca40c","D9fpXvBlJSQiR1QRKmZavfbe4tk1","","","","","","","","","","","","","","","","","","","","",""
"html-keyboard-response","66","129463","0.0-29.0","","null","<div style=""font-size:100px;"">+</div>","null","delaylearn","learning","ITI","5e80b109ca1800791e1ca40c","D9fpXvBlJSQiR1QRKmZavfbe4tk1","","","","","","","","","","","","","","","","","","","2123","",""
"html-keyboard-response","67","130573","0.0-30.0-0.0","","1107.7000000476837","<div style=""display: flex; flex-direction: column; align-items: center; margin-top: -40px;""><img src=""images/pattern_6.png"" style=""width: 234px; height: 230px; margin-top: -50px;""><div style=""display: flex; justify-content: space-between; margin-top: 33px;""><img src=""images/choice_trial_14.png"" style=""width: 408px; height: 417px; margin-right: 200px;""><img src=""images/choice_trial_9.png"" style=""width: 408px; height: 417px;""></div></div>","f","delaylearn","learning","trial","5e80b109ca1800791e1ca40c","D9fpXvBlJSQiR1QRKmZavfbe4tk1","5","images/choice_trial_14.png","images/choice_trial_9.png","images/pattern_6.png","j","f","750","14","9","5","0","13","1","0","14","60","","","","",""
"html-keyboard-response","68","131586","0.0-30.0-1.0","","null","<div style=""display: flex; flex-direction: column; align-items: center; margin-top: -40px;""><img src=""images/pattern_6.png"" style=""width: 234px; height: 230px; margin-top: -50px;""><div style=""display: flex; justify-content: space-between; margin-top: 33px;""><img src=""images/choice_trial_14.png"" style=""width: 408px; height: 417px; margin-right: 608px;""></div></div>","null","delaylearn","learning","display_response","5e80b109ca1800791e1ca40c","D9fpXvBlJSQiR1QRKmZavfbe4tk1","","","","","","","","","","","","","","","","","chosen stimuli: images/choice_trial_14.png","","","",""
"html-keyboard-response","69","132345","0.0-30.0-2.0","","null","","null","delaylearn","learning","feedback_duration_window","5e80b109ca1800791e1ca40c","D9fpXvBlJSQiR1QRKmZavfbe4tk1","","","","","","","","","","","","","","","","","","750","","",""
"html-keyboard-response","70","133852","0.0-30.0-3.0","","null","<div style='margin:auto;width: auto; font-size: 150%'><span style='font-weight: bold; font-size: 100px; color: red;'>0 points!</span><br><br></div>","null","delaylearn","learning","feedback_image_window","5e80b109ca1800791e1ca40c","D9fpXvBlJSQiR1QRKmZavfbe4tk1","","","","","","","","","","","","","","","","","","","","",""
"html-keyboard-response","71","134360","0.0-31.0-0.0","","null","","null","","","mood_trial_fixation","","","","","","","","","","","","","","","","","","","","","","",""
"lmdlab-html-vas-response","72","139534","0.0-31.0-1.0","","4166","How happy are you right now?","0.6157407407407407","delaylearn","learning","mood_trial","5e80b109ca1800791e1ca40c","D9fpXvBlJSQiR1QRKmZavfbe4tk1","","","","","","","","","","","","","","","","","","","","[""Very unhappy"",""Very happy""]",""
"html-keyboard-response","73","142006","0.0-32.0","","null","<div style=""font-size:100px;"">+</div>","null","delaylearn","learning","ITI","5e80b109ca1800791e1ca40c","D9fpXvBlJSQiR1QRKmZavfbe4tk1","","","","","","","","","","","","","","","","","","","2468","",""
"html-keyboard-response","74","143734","0.0-33.0-0.0","","1726.8000001907349","<div style=""display: flex; flex-direction: column; align-items: center; margin-top: -40px;""><img src=""images/pattern_1.png"" style=""width: 234px; height: 230px; margin-top: -50px;""><div style=""display: flex; justify-content: space-between; margin-top: 33px;""><img src=""images/choice_trial_15.png"" style=""width: 408px; height: 417px; margin-right: 200px;""><img src=""images/choice_trial_6.png"" style=""width: 408px; height: 417px;""></div></div>","f","delaylearn","learning","trial","5e80b109ca1800791e1ca40c","D9fpXvBlJSQiR1QRKmZavfbe4tk1","5","images/choice_trial_15.png","images/choice_trial_6.png","images/pattern_1.png","j","j","7000","15","6","1","1","14","0","0","15","60","","","","",""
"html-keyboard-response","75","144744","0.0-33.0-1.0","","null","<div style=""display: flex; flex-direction: column; align-items: center; margin-top: -40px;""><img src=""images/pattern_1.png"" style=""width: 234px; height: 230px; margin-top: -50px;""><div style=""display: flex; justify-content: space-between; margin-top: 33px;""><img src=""images/choice_trial_15.png"" style=""width: 408px; height: 417px; margin-right: 608px;""></div></div>","null","delaylearn","learning","display_response","5e80b109ca1800791e1ca40c","D9fpXvBlJSQiR1QRKmZavfbe4tk1","","","","","","","","","","","","","","","","","chosen stimuli: images/choice_trial_15.png","","","",""
"html-keyboard-response","76","151760","0.0-33.0-2.0","","null","","null","delaylearn","learning","feedback_duration_window","5e80b109ca1800791e1ca40c","D9fpXvBlJSQiR1QRKmZavfbe4tk1","","","","","","","","","","","","","","","","","","7000","","",""
"html-keyboard-response","77","153264","0.0-33.0-3.0","","null","<div style='margin:auto;width: auto; font-size: 150%'><span style='font-weight: bold; font-size: 100px; color: red;'>0 points!</span><br><br></div>","null","delaylearn","learning","feedback_image_window","5e80b109ca1800791e1ca40c","D9fpXvBlJSQiR1QRKmZavfbe4tk1","","","","","","","","","","","","","","","","","","","","",""
"html-keyboard-response","78","155550","0.0-34.0","","null","<div style=""font-size:100px;"">+</div>","null","delaylearn","learning","ITI","5e80b109ca1800791e1ca40c","D9fpXvBlJSQiR1QRKmZavfbe4tk1","","","","","","","","","","","","","","","","","","","2272","",""
"html-keyboard-response","79","156705","0.0-35.0-0.0","","1153.4000000953674","<div style=""display: flex; flex-direction: column; align-items: center; margin-top: -40px;""><img src=""images/pattern_3.png"" style=""width: 234px; height: 230px; margin-top: -50px;""><div style=""display: flex; justify-content: space-between; margin-top: 33px;""><img src=""images/choice_trial_2.png"" style=""width: 408px; height: 417px; margin-right: 200px;""><img src=""images/choice_trial_16.png"" style=""width: 408px; height: 417px;""></div></div>","j","delaylearn","learning","trial","5e80b109ca1800791e1ca40c","D9fpXvBlJSQiR1QRKmZavfbe4tk1","5","images/choice_trial_2.png","images/choice_trial_16.png","images/pattern_3.png","f","j","7000","2","16","2","1","15","1","0","16","60","","","","",""
"html-keyboard-response","80","157710","0.0-35.0-1.0","","null","<div style=""display: flex; flex-direction: column; align-items: center; margin-top: -40px;""><img src=""images/pattern_3.png"" style=""width: 234px; height: 230px; margin-top: -50px;""><div style=""display: flex; justify-content: space-between; margin-top: 33px;""><img src=""images/choice_trial_16.png"" style=""width: 408px; height: 417px; margin-left:608px;""></div></div>","null","delaylearn","learning","display_response","5e80b109ca1800791e1ca40c","D9fpXvBlJSQiR1QRKmZavfbe4tk1","","","","","","","","","","","","","","","","","chosen stimuli: images/choice_trial_16.png","","","",""
"html-keyboard-response","81","164715","0.0-35.0-2.0","","null","","null","delaylearn","learning","feedback_duration_window","5e80b109ca1800791e1ca40c","D9fpXvBlJSQiR1QRKmZavfbe4tk1","","","","","","","","","","","","","","","","","","7000","","",""
"html-keyboard-response","82","166226","0.0-35.0-3.0","","null","<div style='margin:auto;width: auto; font-size: 150%'><span style='font-weight: bold; font-size: 100px; color: red;'>0 points!</span><br><br></div>","null","delaylearn","learning","feedback_image_window","5e80b109ca1800791e1ca40c","D9fpXvBlJSQiR1QRKmZavfbe4tk1","","","","","","","","","","","","","","","","","","","","",""
"html-keyboard-response","83","168388","0.0-36.0","","null","<div style=""font-size:100px;"">+</div>","null","delaylearn","learning","ITI","5e80b109ca1800791e1ca40c","D9fpXvBlJSQiR1QRKmZavfbe4tk1","","","","","","","","","","","","","","","","","","","2153","",""
"html-keyboard-response","84","169648","0.0-37.0-0.0","","1258.3999998569489","<div style=""display: flex; flex-direction: column; align-items: center; margin-top: -40px;""><img src=""images/pattern_5.png"" style=""width: 234px; height: 230px; margin-top: -50px;""><div style=""display: flex; justify-content: space-between; margin-top: 33px;""><img src=""images/choice_trial_7.png"" style=""width: 408px; height: 417px; margin-right: 200px;""><img src=""images/choice_trial_13.png"" style=""width: 408px; height: 417px;""></div></div>","f","delaylearn","learning","trial","5e80b109ca1800791e1ca40c","D9fpXvBlJSQiR1QRKmZavfbe4tk1","5","images/choice_trial_7.png","images/choice_trial_13.png","images/pattern_5.png","f","f","750","7","13","4","0","16","1","1","7","70","","","","",""
"html-keyboard-response","85","170652","0.0-37.0-1.0","","null","<div style=""display: flex; flex-direction: column; align-items: center; margin-top: -40px;""><img src=""images/pattern_5.png"" style=""width: 234px; height: 230px; margin-top: -50px;""><div style=""display: flex; justify-content: space-between; margin-top: 33px;""><img src=""images/choice_trial_7.png"" style=""width: 408px; height: 417px; margin-right: 608px;""></div></div>","null","delaylearn","learning","display_response","5e80b109ca1800791e1ca40c","D9fpXvBlJSQiR1QRKmZavfbe4tk1","","","","","","","","","","","","","","","","","chosen stimuli: images/choice_trial_7.png","","","",""
"html-keyboard-response","86","171411","0.0-37.0-2.0","","null","","null","delaylearn","learning","feedback_duration_window","5e80b109ca1800791e1ca40c","D9fpXvBlJSQiR1QRKmZavfbe4tk1","","","","","","","","","","","","","","","","","","750","","",""
"html-keyboard-response","87","172920","0.0-37.0-3.0","","null","<div style='margin:auto;width: auto; font-size: 150%'><span style='font-weight: bold; font-size: 100px; color: green;'>+10 points!</span><br><br></div>","null","delaylearn","learning","feedback_image_window","5e80b109ca1800791e1ca40c","D9fpXvBlJSQiR1QRKmZavfbe4tk1","","","","","","","","","","","","","","","","","","","","",""
"html-keyboard-response","88","173436","0.0-38.0-0.0","","null","","null","","","mood_trial_fixation","","","","","","","","","","","","","","","","","","","","","","",""
"lmdlab-html-vas-response","89","178352","0.0-38.0-1.0","","3901","How happy are you right now?","0.6018518518518519","delaylearn","learning","mood_trial","5e80b109ca1800791e1ca40c","D9fpXvBlJSQiR1QRKmZavfbe4tk1","","","","","","","","","","","","","","","","","","","","[""Very unhappy"",""Very happy""]",""
"html-keyboard-response","90","179920","0.0-39.0","","null","<div style=""font-size:100px;"">+</div>","null","delaylearn","learning","ITI","5e80b109ca1800791e1ca40c","D9fpXvBlJSQiR1QRKmZavfbe4tk1","","","","","","","","","","","","","","","","","","","1563","",""
"html-keyboard-response","91","181188","0.0-40.0-0.0","","1266.4000000953674","<div style=""display: flex; flex-direction: column; align-items: center; margin-top: -40px;""><img src=""images/pattern_6.png"" style=""width: 234px; height: 230px; margin-top: -50px;""><div style=""display: flex; justify-content: space-between; margin-top: 33px;""><img src=""images/choice_trial_14.png"" style=""width: 408px; height: 417px; margin-right: 200px;""><img src=""images/choice_trial_9.png"" style=""width: 408px; height: 417px;""></div></div>","j","delaylearn","learning","trial","5e80b109ca1800791e1ca40c","D9fpXvBlJSQiR1QRKmZavfbe4tk1","5","images/choice_trial_14.png","images/choice_trial_9.png","images/pattern_6.png","f","f","750","14","9","5","0","17","0","0","9","70","","","","",""
"html-keyboard-response","92","182199","0.0-40.0-1.0","","null","<div style=""display: flex; flex-direction: column; align-items: center; margin-top: -40px;""><img src=""images/pattern_6.png"" style=""width: 234px; height: 230px; margin-top: -50px;""><div style=""display: flex; justify-content: space-between; margin-top: 33px;""><img src=""images/choice_trial_9.png"" style=""width: 408px; height: 417px; margin-left:608px;""></div></div>","null","delaylearn","learning","display_response","5e80b109ca1800791e1ca40c","D9fpXvBlJSQiR1QRKmZavfbe4tk1","","","","","","","","","","","","","","","","","chosen stimuli: images/choice_trial_9.png","","","",""
"html-keyboard-response","93","182954","0.0-40.0-2.0","","null","","null","delaylearn","learning","feedback_duration_window","5e80b109ca1800791e1ca40c","D9fpXvBlJSQiR1QRKmZavfbe4tk1","","","","","","","","","","","","","","","","","","750","","",""
"html-keyboard-response","94","184465","0.0-40.0-3.0","","null","<div style='margin:auto;width: auto; font-size: 150%'><span style='font-weight: bold; font-size: 100px; color: red;'>0 points!</span><br><br></div>","null","delaylearn","learning","feedback_image_window","5e80b109ca1800791e1ca40c","D9fpXvBlJSQiR1QRKmZavfbe4tk1","","","","","","","","","","","","","","","","","","","","",""
"html-keyboard-response","95","186866","0.0-41.0","","null","<div style=""font-size:100px;"">+</div>","null","delaylearn","learning","ITI","5e80b109ca1800791e1ca40c","D9fpXvBlJSQiR1QRKmZavfbe4tk1","","","","","","","","","","","","","","","","","","","2397","",""
"html-keyboard-response","96","189386","0.0-42.0-0.0","","2517.5","<div style=""display: flex; flex-direction: column; align-items: center; margin-top: -40px;""><img src=""images/pattern_4.png"" style=""width: 234px; height: 230px; margin-top: -50px;""><div style=""display: flex; justify-content: space-between; margin-top: 33px;""><img src=""images/choice_trial_4.png"" style=""width: 408px; height: 417px; margin-right: 200px;""><img src=""images/choice_trial_11.png"" style=""width: 408px; height: 417px;""></div></div>","j","delaylearn","learning","trial","5e80b109ca1800791e1ca40c","D9fpXvBlJSQiR1QRKmZavfbe4tk1","5","images/choice_trial_4.png","images/choice_trial_11.png","images/pattern_4.png","j","j","7000","4","11","3","1","18","1","1","11","80","","","","",""
"html-keyboard-response","97","190396","0.0-42.0-1.0","","null","<div style=""display: flex; flex-direction: column; align-items: center; margin-top: -40px;""><img src=""images/pattern_4.png"" style=""width: 234px; height: 230px; margin-top: -50px;""><div style=""display: flex; justify-content: space-between; margin-top: 33px;""><img src=""images/choice_trial_11.png"" style=""width: 408px; height: 417px; margin-left:608px;""></div></div>","null","delaylearn","learning","display_response","5e80b109ca1800791e1ca40c","D9fpXvBlJSQiR1QRKmZavfbe4tk1","","","","","","","","","","","","","","","","","chosen stimuli: images/choice_trial_11.png","","","",""
"html-keyboard-response","98","197411","0.0-42.0-2.0","","null","","null","delaylearn","learning","feedback_duration_window","5e80b109ca1800791e1ca40c","D9fpXvBlJSQiR1QRKmZavfbe4tk1","","","","","","","","","","","","","","","","","","7000","","",""
"html-keyboard-response","99","198928","0.0-42.0-3.0","","null","<div style='margin:auto;width: auto; font-size: 150%'><span style='font-weight: bold; font-size: 100px; color: green;'>+10 points!</span><br><br></div>","null","delaylearn","learning","feedback_image_window","5e80b109ca1800791e1ca40c","D9fpXvBlJSQiR1QRKmZavfbe4tk1","","","","","","","","","","","","","","","","","","","","",""
"html-keyboard-response","100","201112","0.0-43.0","","null","<div style=""font-size:100px;"">+</div>","null","delaylearn","learning","ITI","5e80b109ca1800791e1ca40c","D9fpXvBlJSQiR1QRKmZavfbe4tk1","","","","","","","","","","","","","","","","","","","2170","",""
"html-keyboard-response","101","202318","0.0-44.0-0.0","","1203.9000000953674","<div style=""display: flex; flex-direction: column; align-items: center; margin-top: -40px;""><img src=""images/pattern_7.png"" style=""width: 234px; height: 230px; margin-top: -50px;""><div style=""display: flex; justify-content: space-between; margin-top: 33px;""><img src=""images/choice_trial_8.png"" style=""width: 408px; height: 417px; margin-right: 200px;""><img src=""images/choice_trial_10.png"" style=""width: 408px; height: 417px;""></div></div>","f","delaylearn","learning","trial","5e80b109ca1800791e1ca40c","D9fpXvBlJSQiR1QRKmZavfbe4tk1","5","images/choice_trial_8.png","images/choice_trial_10.png","images/pattern_7.png","j","f","750","8","10","6","0","19","1","0","8","80","","","","",""
"html-keyboard-response","102","203329","0.0-44.0-1.0","","null","<div style=""display: flex; flex-direction: column; align-items: center; margin-top: -40px;""><img src=""images/pattern_7.png"" style=""width: 234px; height: 230px; margin-top: -50px;""><div style=""display: flex; justify-content: space-between; margin-top: 33px;""><img src=""images/choice_trial_8.png"" style=""width: 408px; height: 417px; margin-right: 608px;""></div></div>","null","delaylearn","learning","display_response","5e80b109ca1800791e1ca40c","D9fpXvBlJSQiR1QRKmZavfbe4tk1","","","","","","","","","","","","","","","","","chosen stimuli: images/choice_trial_8.png","","","",""
"html-keyboard-response","103","204089","0.0-44.0-2.0","","null","","null","delaylearn","learning","feedback_duration_window","5e80b109ca1800791e1ca40c","D9fpXvBlJSQiR1QRKmZavfbe4tk1","","","","","","","","","","","","","","","","","","750","","",""
"html-keyboard-response","104","205597","0.0-44.0-3.0","","null","<div style='margin:auto;width: auto; font-size: 150%'><span style='font-weight: bold; font-size: 100px; color: red;'>0 points!</span><br><br></div>","null","delaylearn","learning","feedback_image_window","5e80b109ca1800791e1ca40c","D9fpXvBlJSQiR1QRKmZavfbe4tk1","","","","","","","","","","","","","","","","","","","","",""
"html-keyboard-response","105","208077","0.0-45.0","","null","<div style=""font-size:100px;"">+</div>","null","delaylearn","learning","ITI","5e80b109ca1800791e1ca40c","D9fpXvBlJSQiR1QRKmZavfbe4tk1","","","","","","","","","","","","","","","","","","","2475","",""
"html-keyboard-response","106","210141","0.0-46.0-0.0","","2062.0999999046326","<div style=""display: flex; flex-direction: column; align-items: center; margin-top: -40px;""><img src=""images/pattern_1.png"" style=""width: 234px; height: 230px; margin-top: -50px;""><div style=""display: flex; justify-content: space-between; margin-top: 33px;""><img src=""images/choice_trial_6.png"" style=""width: 408px; height: 417px; margin-right: 200px;""><img src=""images/choice_trial_15.png"" style=""width: 408px; height: 417px;""></div></div>","f","delaylearn","learning","trial","5e80b109ca1800791e1ca40c","D9fpXvBlJSQiR1QRKmZavfbe4tk1","5","images/choice_trial_6.png","images/choice_trial_15.png","images/pattern_1.png","f","f","7000","6","15","1","0","20","1","1","6","90","","","","",""
"html-keyboard-response","107","211147","0.0-46.0-1.0","","null","<div style=""display: flex; flex-direction: column; align-items: center; margin-top: -40px;""><img src=""images/pattern_1.png"" style=""width: 234px; height: 230px; margin-top: -50px;""><div style=""display: flex; justify-content: space-between; margin-top: 33px;""><img src=""images/choice_trial_6.png"" style=""width: 408px; height: 417px; margin-right: 608px;""></div></div>","null","delaylearn","learning","display_response","5e80b109ca1800791e1ca40c","D9fpXvBlJSQiR1QRKmZavfbe4tk1","","","","","","","","","","","","","","","","","chosen stimuli: images/choice_trial_6.png","","","",""
"html-keyboard-response","108","218159","0.0-46.0-2.0","","null","","null","delaylearn","learning","feedback_duration_window","5e80b109ca1800791e1ca40c","D9fpXvBlJSQiR1QRKmZavfbe4tk1","","","","","","","","","","","","","","","","","","7000","","",""
"html-keyboard-response","109","219661","0.0-46.0-3.0","","null","<div style='margin:auto;width: auto; font-size: 150%'><span style='font-weight: bold; font-size: 100px; color: green;'>+10 points!</span><br><br></div>","null","delaylearn","learning","feedback_image_window","5e80b109ca1800791e1ca40c","D9fpXvBlJSQiR1QRKmZavfbe4tk1","","","","","","","","","","","","","","","","","","","","",""
"html-keyboard-response","110","222132","0.0-47.0","","null","<div style=""font-size:100px;"">+</div>","null","delaylearn","learning","ITI","5e80b109ca1800791e1ca40c","D9fpXvBlJSQiR1QRKmZavfbe4tk1","","","","","","","","","","","","","","","","","","","2466","",""
"html-keyboard-response","111","223744","0.0-48.0-0.0","","1610.3999998569489","<div style=""display: flex; flex-direction: column; align-items: center; margin-top: -40px;""><img src=""images/pattern_6.png"" style=""width: 234px; height: 230px; margin-top: -50px;""><div style=""display: flex; justify-content: space-between; margin-top: 33px;""><img src=""images/choice_trial_9.png"" style=""width: 408px; height: 417px; margin-right: 200px;""><img src=""images/choice_trial_14.png"" style=""width: 408px; height: 417px;""></div></div>","j","delaylearn","learning","trial","5e80b109ca1800791e1ca40c","D9fpXvBlJSQiR1QRKmZavfbe4tk1","5","images/choice_trial_9.png","images/choice_trial_14.png","images/pattern_6.png","j","j","750","9","14","5","1","21","1","1","14","100","","","","",""
"html-keyboard-response","112","224752","0.0-48.0-1.0","","null","<div style=""display: flex; flex-direction: column; align-items: center; margin-top: -40px;""><img src=""images/pattern_6.png"" style=""width: 234px; height: 230px; margin-top: -50px;""><div style=""display: flex; justify-content: space-between; margin-top: 33px;""><img src=""images/choice_trial_14.png"" style=""width: 408px; height: 417px; margin-left:608px;""></div></div>","null","delaylearn","learning","display_response","5e80b109ca1800791e1ca40c","D9fpXvBlJSQiR1QRKmZavfbe4tk1","","","","","","","","","","","","","","","","","chosen stimuli: images/choice_trial_14.png","","","",""
"html-keyboard-response","113","225503","0.0-48.0-2.0","","null","","null","delaylearn","learning","feedback_duration_window","5e80b109ca1800791e1ca40c","D9fpXvBlJSQiR1QRKmZavfbe4tk1","","","","","","","","","","","","","","","","","","750","","",""
"html-keyboard-response","114","227018","0.0-48.0-3.0","","null","<div style='margin:auto;width: auto; font-size: 150%'><span style='font-weight: bold; font-size: 100px; color: green;'>+10 points!</span><br><br></div>","null","delaylearn","learning","feedback_image_window","5e80b109ca1800791e1ca40c","D9fpXvBlJSQiR1QRKmZavfbe4tk1","","","","","","","","","","","","","","","","","","","","",""
"html-keyboard-response","115","228773","0.0-49.0","","null","<div style=""font-size:100px;"">+</div>","null","delaylearn","learning","ITI","5e80b109ca1800791e1ca40c","D9fpXvBlJSQiR1QRKmZavfbe4tk1","","","","","","","","","","","","","","","","","","","1748","",""
"html-keyboard-response","116","230598","0.0-50.0-0.0","","1822.4000000953674","<div style=""display: flex; flex-direction: column; align-items: center; margin-top: -40px;""><img src=""images/pattern_4.png"" style=""width: 234px; height: 230px; margin-top: -50px;""><div style=""display: flex; justify-content: space-between; margin-top: 33px;""><img src=""images/choice_trial_11.png"" style=""width: 408px; height: 417px; margin-right: 200px;""><img src=""images/choice_trial_4.png"" style=""width: 408px; height: 417px;""></div></div>","f","delaylearn","learning","trial","5e80b109ca1800791e1ca40c","D9fpXvBlJSQiR1QRKmZavfbe4tk1","5","images/choice_trial_11.png","images/choice_trial_4.png","images/pattern_4.png","f","f","7000","11","4","3","0","22","1","1","11","110","","","","",""
"html-keyboard-response","117","231608","0.0-50.0-1.0","","null","<div style=""display: flex; flex-direction: column; align-items: center; margin-top: -40px;""><img src=""images/pattern_4.png"" style=""width: 234px; height: 230px; margin-top: -50px;""><div style=""display: flex; justify-content: space-between; margin-top: 33px;""><img src=""images/choice_trial_11.png"" style=""width: 408px; height: 417px; margin-right: 608px;""></div></div>","null","delaylearn","learning","display_response","5e80b109ca1800791e1ca40c","D9fpXvBlJSQiR1QRKmZavfbe4tk1","","","","","","","","","","","","","","","","","chosen stimuli: images/choice_trial_11.png","","","",""
"html-keyboard-response","118","238612","0.0-50.0-2.0","","null","","null","delaylearn","learning","feedback_duration_window","5e80b109ca1800791e1ca40c","D9fpXvBlJSQiR1QRKmZavfbe4tk1","","","","","","","","","","","","","","","","","","7000","","",""
"html-keyboard-response","119","240128","0.0-50.0-3.0","","null","<div style='margin:auto;width: auto; font-size: 150%'><span style='font-weight: bold; font-size: 100px; color: green;'>+10 points!</span><br><br></div>","null","delaylearn","learning","feedback_image_window","5e80b109ca1800791e1ca40c","D9fpXvBlJSQiR1QRKmZavfbe4tk1","","","","","","","","","","","","","","","","","","","","",""
"html-keyboard-response","120","240641","0.0-51.0-0.0","","null","","null","","","mood_trial_fixation","","","","","","","","","","","","","","","","","","","","","","",""
"lmdlab-html-vas-response","121","244978","0.0-51.0-1.0","","3321","How happy are you right now?","0.6388888888888888","delaylearn","learning","mood_trial","5e80b109ca1800791e1ca40c","D9fpXvBlJSQiR1QRKmZavfbe4tk1","","","","","","","","","","","","","","","","","","","","[""Very unhappy"",""Very happy""]",""
"html-keyboard-response","122","246719","0.0-52.0","","null","<div style=""font-size:100px;"">+</div>","null","delaylearn","learning","ITI","5e80b109ca1800791e1ca40c","D9fpXvBlJSQiR1QRKmZavfbe4tk1","","","","","","","","","","","","","","","","","","","1727","",""
"html-keyboard-response","123","248581","0.0-53.0-0.0","","1860.3999998569489","<div style=""display: flex; flex-direction: column; align-items: center; margin-top: -40px;""><img src=""images/pattern_7.png"" style=""width: 234px; height: 230px; margin-top: -50px;""><div style=""display: flex; justify-content: space-between; margin-top: 33px;""><img src=""images/choice_trial_10.png"" style=""width: 408px; height: 417px; margin-right: 200px;""><img src=""images/choice_trial_8.png"" style=""width: 408px; height: 417px;""></div></div>","j","delaylearn","learning","trial","5e80b109ca1800791e1ca40c","D9fpXvBlJSQiR1QRKmZavfbe4tk1","5","images/choice_trial_10.png","images/choice_trial_8.png","images/pattern_7.png","j","j","750","10","8","6","1","23","1","1","8","120","","","","",""
"html-keyboard-response","124","249597","0.0-53.0-1.0","","null","<div style=""display: flex; flex-direction: column; align-items: center; margin-top: -40px;""><img src=""images/pattern_7.png"" style=""width: 234px; height: 230px; margin-top: -50px;""><div style=""display: flex; justify-content: space-between; margin-top: 33px;""><img src=""images/choice_trial_8.png"" style=""width: 408px; height: 417px; margin-left:608px;""></div></div>","null","delaylearn","learning","display_response","5e80b109ca1800791e1ca40c","D9fpXvBlJSQiR1QRKmZavfbe4tk1","","","","","","","","","","","","","","","","","chosen stimuli: images/choice_trial_8.png","","","",""
"html-keyboard-response","125","250358","0.0-53.0-2.0","","null","","null","delaylearn","learning","feedback_duration_window","5e80b109ca1800791e1ca40c","D9fpXvBlJSQiR1QRKmZavfbe4tk1","","","","","","","","","","","","","","","","","","750","","",""
"html-keyboard-response","126","251866","0.0-53.0-3.0","","null","<div style='margin:auto;width: auto; font-size: 150%'><span style='font-weight: bold; font-size: 100px; color: green;'>+10 points!</span><br><br></div>","null","delaylearn","learning","feedback_image_window","5e80b109ca1800791e1ca40c","D9fpXvBlJSQiR1QRKmZavfbe4tk1","","","","","","","","","","","","","","","","","","","","",""
"html-keyboard-response","127","253775","0.0-54.0","","null","<div style=""font-size:100px;"">+</div>","null","delaylearn","learning","ITI","5e80b109ca1800791e1ca40c","D9fpXvBlJSQiR1QRKmZavfbe4tk1","","","","","","","","","","","","","","","","","","","1903","",""
"html-keyboard-response","128","255526","0.0-55.0-0.0","","1748.5999999046326","<div style=""display: flex; flex-direction: column; align-items: center; margin-top: -40px;""><img src=""images/pattern_1.png"" style=""width: 234px; height: 230px; margin-top: -50px;""><div style=""display: flex; justify-content: space-between; margin-top: 33px;""><img src=""images/choice_trial_15.png"" style=""width: 408px; height: 417px; margin-right: 200px;""><img src=""images/choice_trial_6.png"" style=""width: 408px; height: 417px;""></div></div>","j","delaylearn","learning","trial","5e80b109ca1800791e1ca40c","D9fpXvBlJSQiR1QRKmZavfbe4tk1","5","images/choice_trial_15.png","images/choice_trial_6.png","images/pattern_1.png","f","j","7000","15","6","1","1","24","1","0","6","120","","","","",""
"html-keyboard-response","129","256540","0.0-55.0-1.0","","null","<div style=""display: flex; flex-direction: column; align-items: center; margin-top: -40px;""><img src=""images/pattern_1.png"" style=""width: 234px; height: 230px; margin-top: -50px;""><div style=""display: flex; justify-content: space-between; margin-top: 33px;""><img src=""images/choice_trial_6.png"" style=""width: 408px; height: 417px; margin-left:608px;""></div></div>","null","delaylearn","learning","display_response","5e80b109ca1800791e1ca40c","D9fpXvBlJSQiR1QRKmZavfbe4tk1","","","","","","","","","","","","","","","","","chosen stimuli: images/choice_trial_6.png","","","",""
"html-keyboard-response","130","263551","0.0-55.0-2.0","","null","","null","delaylearn","learning","feedback_duration_window","5e80b109ca1800791e1ca40c","D9fpXvBlJSQiR1QRKmZavfbe4tk1","","","","","","","","","","","","","","","","","","7000","","",""
"html-keyboard-response","131","265068","0.0-55.0-3.0","","null","<div style='margin:auto;width: auto; font-size: 150%'><span style='font-weight: bold; font-size: 100px; color: red;'>0 points!</span><br><br></div>","null","delaylearn","learning","feedback_image_window","5e80b109ca1800791e1ca40c","D9fpXvBlJSQiR1QRKmZavfbe4tk1","","","","","","","","","","","","","","","","","","","","",""
"html-keyboard-response","132","267125","0.0-56.0","","null","<div style=""font-size:100px;"">+</div>","null","delaylearn","learning","ITI","5e80b109ca1800791e1ca40c","D9fpXvBlJSQiR1QRKmZavfbe4tk1","","","","","","","","","","","","","","","","","","","2043","",""
"html-keyboard-response","133","268046","0.0-57.0-0.0","","919.3000001907349","<div style=""display: flex; flex-direction: column; align-items: center; margin-top: -40px;""><img src=""images/pattern_5.png"" style=""width: 234px; height: 230px; margin-top: -50px;""><div style=""display: flex; justify-content: space-between; margin-top: 33px;""><img src=""images/choice_trial_13.png"" style=""width: 408px; height: 417px; margin-right: 200px;""><img src=""images/choice_trial_7.png"" style=""width: 408px; height: 417px;""></div></div>","j","delaylearn","learning","trial","5e80b109ca1800791e1ca40c","D9fpXvBlJSQiR1QRKmZavfbe4tk1","5","images/choice_trial_13.png","images/choice_trial_7.png","images/pattern_5.png","j","j","750","13","7","4","1","25","1","1","7","130","","","","",""
"html-keyboard-response","134","269050","0.0-57.0-1.0","","null","<div style=""display: flex; flex-direction: column; align-items: center; margin-top: -40px;""><img src=""images/pattern_5.png"" style=""width: 234px; height: 230px; margin-top: -50px;""><div style=""display: flex; justify-content: space-between; margin-top: 33px;""><img src=""images/choice_trial_7.png"" style=""width: 408px; height: 417px; margin-left:608px;""></div></div>","null","delaylearn","learning","display_response","5e80b109ca1800791e1ca40c","D9fpXvBlJSQiR1QRKmZavfbe4tk1","","","","","","","","","","","","","","","","","chosen stimuli: images/choice_trial_7.png","","","",""
"html-keyboard-response","135","269806","0.0-57.0-2.0","","null","","null","delaylearn","learning","feedback_duration_window","5e80b109ca1800791e1ca40c","D9fpXvBlJSQiR1QRKmZavfbe4tk1","","","","","","","","","","","","","","","","","","750","","",""
"html-keyboard-response","136","271307","0.0-57.0-3.0","","null","<div style='margin:auto;width: auto; font-size: 150%'><span style='font-weight: bold; font-size: 100px; color: green;'>+10 points!</span><br><br></div>","null","delaylearn","learning","feedback_image_window","5e80b109ca1800791e1ca40c","D9fpXvBlJSQiR1QRKmZavfbe4tk1","","","","","","","","","","","","","","","","","","","","",""
"html-keyboard-response","137","272830","0.0-58.0","","null","<div style=""font-size:100px;"">+</div>","null","delaylearn","learning","ITI","5e80b109ca1800791e1ca40c","D9fpXvBlJSQiR1QRKmZavfbe4tk1","","","","","","","","","","","","","","","","","","","1510","",""
"html-keyboard-response","138","274390","0.0-59.0-0.0","","1557.6000001430511","<div style=""display: flex; flex-direction: column; align-items: center; margin-top: -40px;""><img src=""images/pattern_3.png"" style=""width: 234px; height: 230px; margin-top: -50px;""><div style=""display: flex; justify-content: space-between; margin-top: 33px;""><img src=""images/choice_trial_2.png"" style=""width: 408px; height: 417px; margin-right: 200px;""><img src=""images/choice_trial_16.png"" style=""width: 408px; height: 417px;""></div></div>","f","delaylearn","learning","trial","5e80b109ca1800791e1ca40c","D9fpXvBlJSQiR1QRKmZavfbe4tk1","5","images/choice_trial_2.png","images/choice_trial_16.png","images/pattern_3.png","j","j","7000","2","16","2","1","26","0","0","2","130","","","","",""
"html-keyboard-response","139","275403","0.0-59.0-1.0","","null","<div style=""display: flex; flex-direction: column; align-items: center; margin-top: -40px;""><img src=""images/pattern_3.png"" style=""width: 234px; height: 230px; margin-top: -50px;""><div style=""display: flex; justify-content: space-between; margin-top: 33px;""><img src=""images/choice_trial_2.png"" style=""width: 408px; height: 417px; margin-right: 608px;""></div></div>","null","delaylearn","learning","display_response","5e80b109ca1800791e1ca40c","D9fpXvBlJSQiR1QRKmZavfbe4tk1","","","","","","","","","","","","","","","","","chosen stimuli: images/choice_trial_2.png","","","",""
"html-keyboard-response","140","282405","0.0-59.0-2.0","","null","","null","delaylearn","learning","feedback_duration_window","5e80b109ca1800791e1ca40c","D9fpXvBlJSQiR1QRKmZavfbe4tk1","","","","","","","","","","","","","","","","","","7000","","",""
"html-keyboard-response","141","283920","0.0-59.0-3.0","","null","<div style='margin:auto;width: auto; font-size: 150%'><span style='font-weight: bold; font-size: 100px; color: red;'>0 points!</span><br><br></div>","null","delaylearn","learning","feedback_image_window","5e80b109ca1800791e1ca40c","D9fpXvBlJSQiR1QRKmZavfbe4tk1","","","","","","","","","","","","","","","","","","","","",""
"lmdlab-html-vas-response","142","290712","0.0-60.0-0.0","","5269","*How <b><u>confident</u></b> are you feeling about your answers at this moment?*","0.2824074074074074","rewlearn","rate_confidence","","5e80b109ca1800791e1ca40c","D9fpXvBlJSQiR1QRKmZavfbe4tk1","","","","","","","","","","","","","","","","","","","","[""No confidence"",""Complete confidence""]",""
"lmdlab-rest-trial-limit","143","305667","0.0-60.0-1.0","","13448.600000143051","<div style=""font-size:40px;""><b>Please take a break!</b><br><br><br><br><p>Great work: you earned 130 points.<br><br><br><p>You have completed part(s) 1 of 5.<br><br><br><br>When you are ready to continue<br><br><br>please click the button.</p><br><br>","0","delaylearn","learning","break","5e80b109ca1800791e1ca40c","D9fpXvBlJSQiR1QRKmZavfbe4tk1","","","","","","","","","","","","","","","","","","","","","0"
"html-keyboard-response","144","308673","0.0-60.0-2.0","","null","<div style=""font-size:100px;"">+</div>","null","delaylearn","learning","pre_fixation","5e80b109ca1800791e1ca40c","","","","","","","","","","","","","","","","","","","","","",""
"lmdlab-html-vas-response","145","313170","0.0-60.0-3.0-0.0","","3490","How happy are you right now?","0.5879629629629629","delaylearn","learning","mood_baseline","5e80b109ca1800791e1ca40c","D9fpXvBlJSQiR1QRKmZavfbe4tk1","","","","","","","","","","","","","","","","","","","","[""Very unhappy"",""Very happy""]",""
"html-keyboard-response","146","314672","0.0-60.0-3.0-1.0","","null","","null","","","mood_baseline_fixation","","","","","","","","","","","","","","","","","","","","","","",""
"html-keyboard-response","147","316505","0.0-61.0","","null","<div style=""font-size:100px;"">+</div>","null","delaylearn","learning","ITI","5e80b109ca1800791e1ca40c","D9fpXvBlJSQiR1QRKmZavfbe4tk1","","","","","","","","","","","","","","","","","","","1818","",""
"html-keyboard-response","148","317985","0.0-62.0-0.0","","1477","<div style=""display: flex; flex-direction: column; align-items: center; margin-top: -40px;""><img src=""images/pattern_7.png"" style=""width: 234px; height: 230px; margin-top: -50px;""><div style=""display: flex; justify-content: space-between; margin-top: 33px;""><img src=""images/choice_trial_10.png"" style=""width: 408px; height: 417px; margin-right: 200px;""><img src=""images/choice_trial_8.png"" style=""width: 408px; height: 417px;""></div></div>","j","delaylearn","learning","trial","5e80b109ca1800791e1ca40c","D9fpXvBlJSQiR1QRKmZavfbe4tk1","5","images/choice_trial_10.png","images/choice_trial_8.png","images/pattern_7.png","j","j","750","10","8","6","1","27","1","1","8","140","","","","",""
"html-keyboard-response","149","318992","0.0-62.0-1.0","","null","<div style=""display: flex; flex-direction: column; align-items: center; margin-top: -40px;""><img src=""images/pattern_7.png"" style=""width: 234px; height: 230px; margin-top: -50px;""><div style=""display: flex; justify-content: space-between; margin-top: 33px;""><img src=""images/choice_trial_8.png"" style=""width: 408px; height: 417px; margin-left:608px;""></div></div>","null","delaylearn","learning","display_response","5e80b109ca1800791e1ca40c","D9fpXvBlJSQiR1QRKmZavfbe4tk1","","","","","","","","","","","","","","","","","chosen stimuli: images/choice_trial_8.png","","","",""
"html-keyboard-response","150","319757","0.0-62.0-2.0","","null","","null","delaylearn","learning","feedback_duration_window","5e80b109ca1800791e1ca40c","D9fpXvBlJSQiR1QRKmZavfbe4tk1","","","","","","","","","","","","","","","","","","750","","",""
"html-keyboard-response","151","321266","0.0-62.0-3.0","","null","<div style='margin:auto;width: auto; font-size: 150%'><span style='font-weight: bold; font-size: 100px; color: green;'>+10 points!</span><br><br></div>","null","delaylearn","learning","feedback_image_window","5e80b109ca1800791e1ca40c","D9fpXvBlJSQiR1QRKmZavfbe4tk1","","","","","","","","","","","","","","","","","","","","",""
"html-keyboard-response","152","321781","0.0-63.0-0.0","","null","","null","","","mood_trial_fixation","","","","","","","","","","","","","","","","","","","","","","",""
"lmdlab-html-vas-response","153","326267","0.0-63.0-1.0","","3483","How happy are you right now?","0.6527777777777778","delaylearn","learning","mood_trial","5e80b109ca1800791e1ca40c","D9fpXvBlJSQiR1QRKmZavfbe4tk1","","","","","","","","","","","","","","","","","","","","[""Very unhappy"",""Very happy""]",""
"html-keyboard-response","154","328417","0.0-64.0","","null","<div style=""font-size:100px;"">+</div>","null","delaylearn","learning","ITI","5e80b109ca1800791e1ca40c","D9fpXvBlJSQiR1QRKmZavfbe4tk1","","","","","","","","","","","","","","","","","","","2147","",""
"html-keyboard-response","155","329524","0.0-65.0-0.0","","1104.6000001430511","<div style=""display: flex; flex-direction: column; align-items: center; margin-top: -40px;""><img src=""images/pattern_1.png"" style=""width: 234px; height: 230px; margin-top: -50px;""><div style=""display: flex; justify-content: space-between; margin-top: 33px;""><img src=""images/choice_trial_6.png"" style=""width: 408px; height: 417px; margin-right: 200px;""><img src=""images/choice_trial_15.png"" style=""width: 408px; height: 417px;""></div></div>","f","delaylearn","learning","trial","5e80b109ca1800791e1ca40c","D9fpXvBlJSQiR1QRKmZavfbe4tk1","5","images/choice_trial_6.png","images/choice_trial_15.png","images/pattern_1.png","f","f","7000","6","15","1","0","28","1","1","6","150","","","","",""
"html-keyboard-response","156","330533","0.0-65.0-1.0","","null","<div style=""display: flex; flex-direction: column; align-items: center; margin-top: -40px;""><img src=""images/pattern_1.png"" style=""width: 234px; height: 230px; margin-top: -50px;""><div style=""display: flex; justify-content: space-between; margin-top: 33px;""><img src=""images/choice_trial_6.png"" style=""width: 408px; height: 417px; margin-right: 608px;""></div></div>","null","delaylearn","learning","display_response","5e80b109ca1800791e1ca40c","D9fpXvBlJSQiR1QRKmZavfbe4tk1","","","","","","","","","","","","","","","","","chosen stimuli: images/choice_trial_6.png","","","",""
"html-keyboard-response","157","337538","0.0-65.0-2.0","","null","","null","delaylearn","learning","feedback_duration_window","5e80b109ca1800791e1ca40c","D9fpXvBlJSQiR1QRKmZavfbe4tk1","","","","","","","","","","","","","","","","","","7000","","",""
"html-keyboard-response","158","339050","0.0-65.0-3.0","","null","<div style='margin:auto;width: auto; font-size: 150%'><span style='font-weight: bold; font-size: 100px; color: green;'>+10 points!</span><br><br></div>","null","delaylearn","learning","feedback_image_window","5e80b109ca1800791e1ca40c","D9fpXvBlJSQiR1QRKmZavfbe4tk1","","","","","","","","","","","","","","","","","","","","",""
"html-keyboard-response","159","341137","0.0-66.0","","null","<div style=""font-size:100px;"">+</div>","null","delaylearn","learning","ITI","5e80b109ca1800791e1ca40c","D9fpXvBlJSQiR1QRKmZavfbe4tk1","","","","","","","","","","","","","","","","","","","2084","",""
"html-keyboard-response","160","341952","0.0-67.0-0.0","","813.6000001430511","<div style=""display: flex; flex-direction: column; align-items: center; margin-top: -40px;""><img src=""images/pattern_5.png"" style=""width: 234px; height: 230px; margin-top: -50px;""><div style=""display: flex; justify-content: space-between; margin-top: 33px;""><img src=""images/choice_trial_7.png"" style=""width: 408px; height: 417px; margin-right: 200px;""><img src=""images/choice_trial_13.png"" style=""width: 408px; height: 417px;""></div></div>","f","delaylearn","learning","trial","5e80b109ca1800791e1ca40c","D9fpXvBlJSQiR1QRKmZavfbe4tk1","5","images/choice_trial_7.png","images/choice_trial_13.png","images/pattern_5.png","f","f","750","7","13","4","0","29","1","1","7","160","","","","",""
"html-keyboard-response","161","342960","0.0-67.0-1.0","","null","<div style=""display: flex; flex-direction: column; align-items: center; margin-top: -40px;""><img src=""images/pattern_5.png"" style=""width: 234px; height: 230px; margin-top: -50px;""><div style=""display: flex; justify-content: space-between; margin-top: 33px;""><img src=""images/choice_trial_7.png"" style=""width: 408px; height: 417px; margin-right: 608px;""></div></div>","null","delaylearn","learning","display_response","5e80b109ca1800791e1ca40c","D9fpXvBlJSQiR1QRKmZavfbe4tk1","","","","","","","","","","","","","","","","","chosen stimuli: images/choice_trial_7.png","","","",""
"html-keyboard-response","162","343713","0.0-67.0-2.0","","null","","null","delaylearn","learning","feedback_duration_window","5e80b109ca1800791e1ca40c","D9fpXvBlJSQiR1QRKmZavfbe4tk1","","","","","","","","","","","","","","","","","","750","","",""
"html-keyboard-response","163","345220","0.0-67.0-3.0","","null","<div style='margin:auto;width: auto; font-size: 150%'><span style='font-weight: bold; font-size: 100px; color: green;'>+10 points!</span><br><br></div>","null","delaylearn","learning","feedback_image_window","5e80b109ca1800791e1ca40c","D9fpXvBlJSQiR1QRKmZavfbe4tk1","","","","","","","","","","","","","","","","","","","","",""
"html-keyboard-response","164","347579","0.0-68.0","","null","<div style=""font-size:100px;"">+</div>","null","delaylearn","learning","ITI","5e80b109ca1800791e1ca40c","D9fpXvBlJSQiR1QRKmZavfbe4tk1","","","","","","","","","","","","","","","","","","","2350","",""
"html-keyboard-response","165","348680","0.0-69.0-0.0","","1098.0999999046326","<div style=""display: flex; flex-direction: column; align-items: center; margin-top: -40px;""><img src=""images/pattern_6.png"" style=""width: 234px; height: 230px; margin-top: -50px;""><div style=""display: flex; justify-content: space-between; margin-top: 33px;""><img src=""images/choice_trial_9.png"" style=""width: 408px; height: 417px; margin-right: 200px;""><img src=""images/choice_trial_14.png"" style=""width: 408px; height: 417px;""></div></div>","f","delaylearn","learning","trial","5e80b109ca1800791e1ca40c","D9fpXvBlJSQiR1QRKmZavfbe4tk1","5","images/choice_trial_9.png","images/choice_trial_14.png","images/pattern_6.png","j","j","750","9","14","5","1","30","0","0","9","160","","","","",""
"html-keyboard-response","166","349683","0.0-69.0-1.0","","null","<div style=""display: flex; flex-direction: column; align-items: center; margin-top: -40px;""><img src=""images/pattern_6.png"" style=""width: 234px; height: 230px; margin-top: -50px;""><div style=""display: flex; justify-content: space-between; margin-top: 33px;""><img src=""images/choice_trial_9.png"" style=""width: 408px; height: 417px; margin-right: 608px;""></div></div>","null","delaylearn","learning","display_response","5e80b109ca1800791e1ca40c","D9fpXvBlJSQiR1QRKmZavfbe4tk1","","","","","","","","","","","","","","","","","chosen stimuli: images/choice_trial_9.png","","","",""
"html-keyboard-response","167","350440","0.0-69.0-2.0","","null","","null","delaylearn","learning","feedback_duration_window","5e80b109ca1800791e1ca40c","D9fpXvBlJSQiR1QRKmZavfbe4tk1","","","","","","","","","","","","","","","","","","750","","",""
"html-keyboard-response","168","351951","0.0-69.0-3.0","","null","<div style='margin:auto;width: auto; font-size: 150%'><span style='font-weight: bold; font-size: 100px; color: red;'>0 points!</span><br><br></div>","null","delaylearn","learning","feedback_image_window","5e80b109ca1800791e1ca40c","D9fpXvBlJSQiR1QRKmZavfbe4tk1","","","","","","","","","","","","","","","","","","","","",""
"html-keyboard-response","169","352453","0.0-70.0-0.0","","null","","null","","","mood_trial_fixation","","","","","","","","","","","","","","","","","","","","","","",""
"lmdlab-html-vas-response","170","356404","0.0-70.0-1.0","","2941","How happy are you right now?","0.5555555555555556","delaylearn","learning","mood_trial","5e80b109ca1800791e1ca40c","D9fpXvBlJSQiR1QRKmZavfbe4tk1","","","","","","","","","","","","","","","","","","","","[""Very unhappy"",""Very happy""]",""
"html-keyboard-response","171","358400","0.0-71.0","","null","<div style=""font-size:100px;"">+</div>","null","delaylearn","learning","ITI","5e80b109ca1800791e1ca40c","D9fpXvBlJSQiR1QRKmZavfbe4tk1","","","","","","","","","","","","","","","","","","","1993","",""
"html-keyboard-response","172","359284","0.0-72.0-0.0","","881.7000000476837","<div style=""display: flex; flex-direction: column; align-items: center; margin-top: -40px;""><img src=""images/pattern_4.png"" style=""width: 234px; height: 230px; margin-top: -50px;""><div style=""display: flex; justify-content: space-between; margin-top: 33px;""><img src=""images/choice_trial_4.png"" style=""width: 408px; height: 417px; margin-right: 200px;""><img src=""images/choice_trial_11.png"" style=""width: 408px; height: 417px;""></div></div>","j","delaylearn","learning","trial","5e80b109ca1800791e1ca40c","D9fpXvBlJSQiR1QRKmZavfbe4tk1","5","images/choice_trial_4.png","images/choice_trial_11.png","images/pattern_4.png","j","j","7000","4","11","3","1","31","1","1","11","170","","","","",""
"html-keyboard-response","173","360287","0.0-72.0-1.0","","null","<div style=""display: flex; flex-direction: column; align-items: center; margin-top: -40px;""><img src=""images/pattern_4.png"" style=""width: 234px; height: 230px; margin-top: -50px;""><div style=""display: flex; justify-content: space-between; margin-top: 33px;""><img src=""images/choice_trial_11.png"" style=""width: 408px; height: 417px; margin-left:608px;""></div></div>","null","delaylearn","learning","display_response","5e80b109ca1800791e1ca40c","D9fpXvBlJSQiR1QRKmZavfbe4tk1","","","","","","","","","","","","","","","","","chosen stimuli: images/choice_trial_11.png","","","",""
"html-keyboard-response","174","367293","0.0-72.0-2.0","","null","","null","delaylearn","learning","feedback_duration_window","5e80b109ca1800791e1ca40c","D9fpXvBlJSQiR1QRKmZavfbe4tk1","","","","","","","","","","","","","","","","","","7000","","",""
"html-keyboard-response","175","368804","0.0-72.0-3.0","","null","<div style='margin:auto;width: auto; font-size: 150%'><span style='font-weight: bold; font-size: 100px; color: green;'>+10 points!</span><br><br></div>","null","delaylearn","learning","feedback_image_window","5e80b109ca1800791e1ca40c","D9fpXvBlJSQiR1QRKmZavfbe4tk1","","","","","","","","","","","","","","","","","","","","",""
"html-keyboard-response","176","370982","0.0-73.0","","null","<div style=""font-size:100px;"">+</div>","null","delaylearn","learning","ITI","5e80b109ca1800791e1ca40c","D9fpXvBlJSQiR1QRKmZavfbe4tk1","","","","","","","","","","","","","","","","","","","2166","",""
"html-keyboard-response","177","373193","0.0-74.0-0.0","","2208.399999856949","<div style=""display: flex; flex-direction: column; align-items: center; margin-top: -40px;""><img src=""images/pattern_3.png"" style=""width: 234px; height: 230px; margin-top: -50px;""><div style=""display: flex; justify-content: space-between; margin-top: 33px;""><img src=""images/choice_trial_2.png"" style=""width: 408px; height: 417px; margin-right: 200px;""><img src=""images/choice_trial_16.png"" style=""width: 408px; height: 417px;""></div></div>","f","delaylearn","learning","trial","5e80b109ca1800791e1ca40c","D9fpXvBlJSQiR1QRKmZavfbe4tk1","5","images/choice_trial_2.png","images/choice_trial_16.png","images/pattern_3.png","j","j","7000","2","16","2","1","32","0","0","2","170","","","","",""
"html-keyboard-response","178","374198","0.0-74.0-1.0","","null","<div style=""display: flex; flex-direction: column; align-items: center; margin-top: -40px;""><img src=""images/pattern_3.png"" style=""width: 234px; height: 230px; margin-top: -50px;""><div style=""display: flex; justify-content: space-between; margin-top: 33px;""><img src=""images/choice_trial_2.png"" style=""width: 408px; height: 417px; margin-right: 608px;""></div></div>","null","delaylearn","learning","display_response","5e80b109ca1800791e1ca40c","D9fpXvBlJSQiR1QRKmZavfbe4tk1","","","","","","","","","","","","","","","","","chosen stimuli: images/choice_trial_2.png","","","",""
"html-keyboard-response","179","381207","0.0-74.0-2.0","","null","","null","delaylearn","learning","feedback_duration_window","5e80b109ca1800791e1ca40c","D9fpXvBlJSQiR1QRKmZavfbe4tk1","","","","","","","","","","","","","","","","","","7000","","",""
"html-keyboard-response","180","382715","0.0-74.0-3.0","","null","<div style='margin:auto;width: auto; font-size: 150%'><span style='font-weight: bold; font-size: 100px; color: red;'>0 points!</span><br><br></div>","null","delaylearn","learning","feedback_image_window","5e80b109ca1800791e1ca40c","D9fpXvBlJSQiR1QRKmZavfbe4tk1","","","","","","","","","","","","","","","","","","","","",""
"html-keyboard-response","181","384566","0.0-75.0","","null","<div style=""font-size:100px;"">+</div>","null","delaylearn","learning","ITI","5e80b109ca1800791e1ca40c","D9fpXvBlJSQiR1QRKmZavfbe4tk1","","","","","","","","","","","","","","","","","","","1840","",""
"html-keyboard-response","182","385499","0.0-76.0-0.0","","930.5999999046326","<div style=""display: flex; flex-direction: column; align-items: center; margin-top: -40px;""><img src=""images/pattern_5.png"" style=""width: 234px; height: 230px; margin-top: -50px;""><div style=""display: flex; justify-content: space-between; margin-top: 33px;""><img src=""images/choice_trial_7.png"" style=""width: 408px; height: 417px; margin-right: 200px;""><img src=""images/choice_trial_13.png"" style=""width: 408px; height: 417px;""></div></div>","f","delaylearn","learning","trial","5e80b109ca1800791e1ca40c","D9fpXvBlJSQiR1QRKmZavfbe4tk1","5","images/choice_trial_7.png","images/choice_trial_13.png","images/pattern_5.png","j","f","750","7","13","4","0","33","1","0","7","170","","","","",""
"html-keyboard-response","183","386513","0.0-76.0-1.0","","null","<div style=""display: flex; flex-direction: column; align-items: center; margin-top: -40px;""><img src=""images/pattern_5.png"" style=""width: 234px; height: 230px; margin-top: -50px;""><div style=""display: flex; justify-content: space-between; margin-top: 33px;""><img src=""images/choice_trial_7.png"" style=""width: 408px; height: 417px; margin-right: 608px;""></div></div>","null","delaylearn","learning","display_response","5e80b109ca1800791e1ca40c","D9fpXvBlJSQiR1QRKmZavfbe4tk1","","","","","","","","","","","","","","","","","chosen stimuli: images/choice_trial_7.png","","","",""
"html-keyboard-response","184","387279","0.0-76.0-2.0","","null","","null","delaylearn","learning","feedback_duration_window","5e80b109ca1800791e1ca40c","D9fpXvBlJSQiR1QRKmZavfbe4tk1","","","","","","","","","","","","","","","","","","750","","",""
"html-keyboard-response","185","388793","0.0-76.0-3.0","","null","<div style='margin:auto;width: auto; font-size: 150%'><span style='font-weight: bold; font-size: 100px; color: red;'>0 points!</span><br><br></div>","null","delaylearn","learning","feedback_image_window","5e80b109ca1800791e1ca40c","D9fpXvBlJSQiR1QRKmZavfbe4tk1","","","","","","","","","","","","","","","","","","","","",""
"html-keyboard-response","186","390565","0.0-77.0","","null","<div style=""font-size:100px;"">+</div>","null","delaylearn","learning","ITI","5e80b109ca1800791e1ca40c","D9fpXvBlJSQiR1QRKmZavfbe4tk1","","","","","","","","","","","","","","","","","","","1764","",""
"html-keyboard-response","187","392271","0.0-78.0-0.0","","1702.7999999523163","<div style=""display: flex; flex-direction: column; align-items: center; margin-top: -40px;""><img src=""images/pattern_1.png"" style=""width: 234px; height: 230px; margin-top: -50px;""><div style=""display: flex; justify-content: space-between; margin-top: 33px;""><img src=""images/choice_trial_6.png"" style=""width: 408px; height: 417px; margin-right: 200px;""><img src=""images/choice_trial_15.png"" style=""width: 408px; height: 417px;""></div></div>","f","delaylearn","learning","trial","5e80b109ca1800791e1ca40c","D9fpXvBlJSQiR1QRKmZavfbe4tk1","5","images/choice_trial_6.png","images/choice_trial_15.png","images/pattern_1.png","f","f","7000","6","15","1","0","34","1","1","6","180","","","","",""
"html-keyboard-response","188","393280","0.0-78.0-1.0","","null","<div style=""display: flex; flex-direction: column; align-items: center; margin-top: -40px;""><img src=""images/pattern_1.png"" style=""width: 234px; height: 230px; margin-top: -50px;""><div style=""display: flex; justify-content: space-between; margin-top: 33px;""><img src=""images/choice_trial_6.png"" style=""width: 408px; height: 417px; margin-right: 608px;""></div></div>","null","delaylearn","learning","display_response","5e80b109ca1800791e1ca40c","D9fpXvBlJSQiR1QRKmZavfbe4tk1","","","","","","","","","","","","","","","","","chosen stimuli: images/choice_trial_6.png","","","",""
"html-keyboard-response","189","400289","0.0-78.0-2.0","","null","","null","delaylearn","learning","feedback_duration_window","5e80b109ca1800791e1ca40c","D9fpXvBlJSQiR1QRKmZavfbe4tk1","","","","","","","","","","","","","","","","","","7000","","",""
"html-keyboard-response","190","401795","0.0-78.0-3.0","","null","<div style='margin:auto;width: auto; font-size: 150%'><span style='font-weight: bold; font-size: 100px; color: green;'>+10 points!</span><br><br></div>","null","delaylearn","learning","feedback_image_window","5e80b109ca1800791e1ca40c","D9fpXvBlJSQiR1QRKmZavfbe4tk1","","","","","","","","","","","","","","","","","","","","",""
"html-keyboard-response","191","402305","0.0-79.0-0.0","","null","","null","","","mood_trial_fixation","","","","","","","","","","","","","","","","","","","","","","",""
"lmdlab-html-vas-response","192","406556","0.0-79.0-1.0","","3245","How happy are you right now?","0.5763888888888888","delaylearn","learning","mood_trial","5e80b109ca1800791e1ca40c","D9fpXvBlJSQiR1QRKmZavfbe4tk1","","","","","","","","","","","","","","","","","","","","[""Very unhappy"",""Very happy""]",""
"html-keyboard-response","193","408301","0.0-80.0","","null","<div style=""font-size:100px;"">+</div>","null","delaylearn","learning","ITI","5e80b109ca1800791e1ca40c","D9fpXvBlJSQiR1QRKmZavfbe4tk1","","","","","","","","","","","","","","","","","","","1739","",""
"html-keyboard-response","194","409920","0.0-81.0-0.0","","1617.1000001430511","<div style=""display: flex; flex-direction: column; align-items: center; margin-top: -40px;""><img src=""images/pattern_6.png"" style=""width: 234px; height: 230px; margin-top: -50px;""><div style=""display: flex; justify-content: space-between; margin-top: 33px;""><img src=""images/choice_trial_14.png"" style=""width: 408px; height: 417px; margin-right: 200px;""><img src=""images/choice_trial_9.png"" style=""width: 408px; height: 417px;""></div></div>","f","delaylearn","learning","trial","5e80b109ca1800791e1ca40c","D9fpXvBlJSQiR1QRKmZavfbe4tk1","5","images/choice_trial_14.png","images/choice_trial_9.png","images/pattern_6.png","j","f","750","14","9","5","0","35","1","0","14","180","","","","",""
"html-keyboard-response","195","410922","0.0-81.0-1.0","","null","<div style=""display: flex; flex-direction: column; align-items: center; margin-top: -40px;""><img src=""images/pattern_6.png"" style=""width: 234px; height: 230px; margin-top: -50px;""><div style=""display: flex; justify-content: space-between; margin-top: 33px;""><img src=""images/choice_trial_14.png"" style=""width: 408px; height: 417px; margin-right: 608px;""></div></div>","null","delaylearn","learning","display_response","5e80b109ca1800791e1ca40c","D9fpXvBlJSQiR1QRKmZavfbe4tk1","","","","","","","","","","","","","","","","","chosen stimuli: images/choice_trial_14.png","","","",""
"html-keyboard-response","196","411677","0.0-81.0-2.0","","null","","null","delaylearn","learning","feedback_duration_window","5e80b109ca1800791e1ca40c","D9fpXvBlJSQiR1QRKmZavfbe4tk1","","","","","","","","","","","","","","","","","","750","","",""
"html-keyboard-response","197","413194","0.0-81.0-3.0","","null","<div style='margin:auto;width: auto; font-size: 150%'><span style='font-weight: bold; font-size: 100px; color: red;'>0 points!</span><br><br></div>","null","delaylearn","learning","feedback_image_window","5e80b109ca1800791e1ca40c","D9fpXvBlJSQiR1QRKmZavfbe4tk1","","","","","","","","","","","","","","","","","","","","",""
"html-keyboard-response","198","415194","0.0-82.0","","null","<div style=""font-size:100px;"">+</div>","null","delaylearn","learning","ITI","5e80b109ca1800791e1ca40c","D9fpXvBlJSQiR1QRKmZavfbe4tk1","","","","","","","","","","","","","","","","","","","1996","",""
"html-keyboard-response","199","416184","0.0-83.0-0.0","","987.2000000476837","<div style=""display: flex; flex-direction: column; align-items: center; margin-top: -40px;""><img src=""images/pattern_3.png"" style=""width: 234px; height: 230px; margin-top: -50px;""><div style=""display: flex; justify-content: space-between; margin-top: 33px;""><img src=""images/choice_trial_2.png"" style=""width: 408px; height: 417px; margin-right: 200px;""><img src=""images/choice_trial_16.png"" style=""width: 408px; height: 417px;""></div></div>","j","delaylearn","learning","trial","5e80b109ca1800791e1ca40c","D9fpXvBlJSQiR1QRKmZavfbe4tk1","5","images/choice_trial_2.png","images/choice_trial_16.png","images/pattern_3.png","j","j","7000","2","16","2","1","36","1","1","16","190","","","","",""
"html-keyboard-response","200","417198","0.0-83.0-1.0","","null","<div style=""display: flex; flex-direction: column; align-items: center; margin-top: -40px;""><img src=""images/pattern_3.png"" style=""width: 234px; height: 230px; margin-top: -50px;""><div style=""display: flex; justify-content: space-between; margin-top: 33px;""><img src=""images/choice_trial_16.png"" style=""width: 408px; height: 417px; margin-left:608px;""></div></div>","null","delaylearn","learning","display_response","5e80b109ca1800791e1ca40c","D9fpXvBlJSQiR1QRKmZavfbe4tk1","","","","","","","","","","","","","","","","","chosen stimuli: images/choice_trial_16.png","","","",""
"html-keyboard-response","201","424210","0.0-83.0-2.0","","null","","null","delaylearn","learning","feedback_duration_window","5e80b109ca1800791e1ca40c","D9fpXvBlJSQiR1QRKmZavfbe4tk1","","","","","","","","","","","","","","","","","","7000","","",""
"html-keyboard-response","202","425722","0.0-83.0-3.0","","null","<div style='margin:auto;width: auto; font-size: 150%'><span style='font-weight: bold; font-size: 100px; color: green;'>+10 points!</span><br><br></div>","null","delaylearn","learning","feedback_image_window","5e80b109ca1800791e1ca40c","D9fpXvBlJSQiR1QRKmZavfbe4tk1","","","","","","","","","","","","","","","","","","","","",""
"html-keyboard-response","203","427679","0.0-84.0","","null","<div style=""font-size:100px;"">+</div>","null","delaylearn","learning","ITI","5e80b109ca1800791e1ca40c","D9fpXvBlJSQiR1QRKmZavfbe4tk1","","","","","","","","","","","","","","","","","","","1954","",""
"html-keyboard-response","204","428818","0.0-85.0-0.0","","1135.6999998092651","<div style=""display: flex; flex-direction: column; align-items: center; margin-top: -40px;""><img src=""images/pattern_4.png"" style=""width: 234px; height: 230px; margin-top: -50px;""><div style=""display: flex; justify-content: space-between; margin-top: 33px;""><img src=""images/choice_trial_4.png"" style=""width: 408px; height: 417px; margin-right: 200px;""><img src=""images/choice_trial_11.png"" style=""width: 408px; height: 417px;""></div></div>","j","delaylearn","learning","trial","5e80b109ca1800791e1ca40c","D9fpXvBlJSQiR1QRKmZavfbe4tk1","5","images/choice_trial_4.png","images/choice_trial_11.png","images/pattern_4.png","f","j","7000","4","11","3","1","37","1","0","11","190","","","","",""
"html-keyboard-response","205","429834","0.0-85.0-1.0","","null","<div style=""display: flex; flex-direction: column; align-items: center; margin-top: -40px;""><img src=""images/pattern_4.png"" style=""width: 234px; height: 230px; margin-top: -50px;""><div style=""display: flex; justify-content: space-between; margin-top: 33px;""><img src=""images/choice_trial_11.png"" style=""width: 408px; height: 417px; margin-left:608px;""></div></div>","null","delaylearn","learning","display_response","5e80b109ca1800791e1ca40c","D9fpXvBlJSQiR1QRKmZavfbe4tk1","","","","","","","","","","","","","","","","","chosen stimuli: images/choice_trial_11.png","","","",""
"html-keyboard-response","206","436844","0.0-85.0-2.0","","null","","null","delaylearn","learning","feedback_duration_window","5e80b109ca1800791e1ca40c","D9fpXvBlJSQiR1QRKmZavfbe4tk1","","","","","","","","","","","","","","","","","","7000","","",""
"html-keyboard-response","207","438351","0.0-85.0-3.0","","null","<div style='margin:auto;width: auto; font-size: 150%'><span style='font-weight: bold; font-size: 100px; color: red;'>0 points!</span><br><br></div>","null","delaylearn","learning","feedback_image_window","5e80b109ca1800791e1ca40c","D9fpXvBlJSQiR1QRKmZavfbe4tk1","","","","","","","","","","","","","","","","","","","","",""
"html-keyboard-response","208","440322","0.0-86.0","","null","<div style=""font-size:100px;"">+</div>","null","delaylearn","learning","ITI","5e80b109ca1800791e1ca40c","D9fpXvBlJSQiR1QRKmZavfbe4tk1","","","","","","","","","","","","","","","","","","","1966","",""
"html-keyboard-response","209","441315","0.0-87.0-0.0","","990.6000001430511","<div style=""display: flex; flex-direction: column; align-items: center; margin-top: -40px;""><img src=""images/pattern_7.png"" style=""width: 234px; height: 230px; margin-top: -50px;""><div style=""display: flex; justify-content: space-between; margin-top: 33px;""><img src=""images/choice_trial_8.png"" style=""width: 408px; height: 417px; margin-right: 200px;""><img src=""images/choice_trial_10.png"" style=""width: 408px; height: 417px;""></div></div>","f","delaylearn","learning","trial","5e80b109ca1800791e1ca40c","D9fpXvBlJSQiR1QRKmZavfbe4tk1","5","images/choice_trial_8.png","images/choice_trial_10.png","images/pattern_7.png","f","f","750","8","10","6","0","38","1","1","8","200","","","","",""
"html-keyboard-response","210","442327","0.0-87.0-1.0","","null","<div style=""display: flex; flex-direction: column; align-items: center; margin-top: -40px;""><img src=""images/pattern_7.png"" style=""width: 234px; height: 230px; margin-top: -50px;""><div style=""display: flex; justify-content: space-between; margin-top: 33px;""><img src=""images/choice_trial_8.png"" style=""width: 408px; height: 417px; margin-right: 608px;""></div></div>","null","delaylearn","learning","display_response","5e80b109ca1800791e1ca40c","D9fpXvBlJSQiR1QRKmZavfbe4tk1","","","","","","","","","","","","","","","","","chosen stimuli: images/choice_trial_8.png","","","",""
"html-keyboard-response","211","443091","0.0-87.0-2.0","","null","","null","delaylearn","learning","feedback_duration_window","5e80b109ca1800791e1ca40c","D9fpXvBlJSQiR1QRKmZavfbe4tk1","","","","","","","","","","","","","","","","","","750","","",""
"html-keyboard-response","212","444599","0.0-87.0-3.0","","null","<div style='margin:auto;width: auto; font-size: 150%'><span style='font-weight: bold; font-size: 100px; color: green;'>+10 points!</span><br><br></div>","null","delaylearn","learning","feedback_image_window","5e80b109ca1800791e1ca40c","D9fpXvBlJSQiR1QRKmZavfbe4tk1","","","","","","","","","","","","","","","","","","","","",""
"html-keyboard-response","213","446366","0.0-88.0","","null","<div style=""font-size:100px;"">+</div>","null","delaylearn","learning","ITI","5e80b109ca1800791e1ca40c","D9fpXvBlJSQiR1QRKmZavfbe4tk1","","","","","","","","","","","","","","","","","","","1757","",""
"html-keyboard-response","214","447565","0.0-89.0-0.0","","1195.7999999523163","<div style=""display: flex; flex-direction: column; align-items: center; margin-top: -40px;""><img src=""images/pattern_1.png"" style=""width: 234px; height: 230px; margin-top: -50px;""><div style=""display: flex; justify-content: space-between; margin-top: 33px;""><img src=""images/choice_trial_6.png"" style=""width: 408px; height: 417px; margin-right: 200px;""><img src=""images/choice_trial_15.png"" style=""width: 408px; height: 417px;""></div></div>","f","delaylearn","learning","trial","5e80b109ca1800791e1ca40c","D9fpXvBlJSQiR1QRKmZavfbe4tk1","5","images/choice_trial_6.png","images/choice_trial_15.png","images/pattern_1.png","f","f","7000","6","15","1","0","39","1","1","6","210","","","","",""
"html-keyboard-response","215","448572","0.0-89.0-1.0","","null","<div style=""display: flex; flex-direction: column; align-items: center; margin-top: -40px;""><img src=""images/pattern_1.png"" style=""width: 234px; height: 230px; margin-top: -50px;""><div style=""display: flex; justify-content: space-between; margin-top: 33px;""><img src=""images/choice_trial_6.png"" style=""width: 408px; height: 417px; margin-right: 608px;""></div></div>","null","delaylearn","learning","display_response","5e80b109ca1800791e1ca40c","D9fpXvBlJSQiR1QRKmZavfbe4tk1","","","","","","","","","","","","","","","","","chosen stimuli: images/choice_trial_6.png","","","",""
"html-keyboard-response","216","455575","0.0-89.0-2.0","","null","","null","delaylearn","learning","feedback_duration_window","5e80b109ca1800791e1ca40c","D9fpXvBlJSQiR1QRKmZavfbe4tk1","","","","","","","","","","","","","","","","","","7000","","",""
"html-keyboard-response","217","457091","0.0-89.0-3.0","","null","<div style='margin:auto;width: auto; font-size: 150%'><span style='font-weight: bold; font-size: 100px; color: green;'>+10 points!</span><br><br></div>","null","delaylearn","learning","feedback_image_window","5e80b109ca1800791e1ca40c","D9fpXvBlJSQiR1QRKmZavfbe4tk1","","","","","","","","","","","","","","","","","","","","",""
"html-keyboard-response","218","457606","0.0-90.0-0.0","","null","","null","","","mood_trial_fixation","","","","","","","","","","","","","","","","","","","","","","",""
"lmdlab-html-vas-response","219","461656","0.0-90.0-1.0","","3035","How happy are you right now?","0.6296296296296297","delaylearn","learning","mood_trial","5e80b109ca1800791e1ca40c","D9fpXvBlJSQiR1QRKmZavfbe4tk1","","","","","","","","","","","","","","","","","","","","[""Very unhappy"",""Very happy""]",""
"html-keyboard-response","220","463631","0.0-91.0","","null","<div style=""font-size:100px;"">+</div>","null","delaylearn","learning","ITI","5e80b109ca1800791e1ca40c","D9fpXvBlJSQiR1QRKmZavfbe4tk1","","","","","","","","","","","","","","","","","","","1961","",""
