"trial_type","trial_index","time_elapsed","internal_node_id","participant","rt","stimulus","response","exp_name","exp_stage","test_part","subjectID","databaseID","counterbal","choice_stimuli_1","choice_stimuli_2","pattern_stimuli","rewarded_answer","correct_answer","feedback_duration_times","stim_left","stim_right","pair","leftright_counter","trial","response_correct","response_rewarded","chosen_stim","counter","displayed_choice","feedback_durations","ITI_duration","labels","rest_warning"
"pavlovia","0","644","0.0-0.0","","","","","","","","","","","","","","","","","","","","","","","","","","","","","",""
"html-keyboard-response","1","3654","0.0-1.0","","null","<div style=""font-size:100px;"">+</div>","null","delaylearn","learning","pre_fixation","63d9cfec2060a424e3495756","","","","","","","","","","","","","","","","","","","","","",""
"html-keyboard-response","2","4793","0.0-2.0-0.0","","1137.3999998569489","<div style=""display: flex; flex-direction: column; align-items: center; margin-top: -40px;""><img src=""images/demo_images/pattern_1.png"" style=""width: 234px; height: 230px; margin-top: -50px;""><div style=""display: flex; justify-content: space-between; margin-top: 33px;""><img src=""images/demo_images/choice_trial_2.png"" style=""width: 408px; height: 417px; margin-right: 200px;""><img src=""images/demo_images/choice_trial_1.png"" style=""width: 408px; height: 417px;""></div></div>","f","delaylearn","learning","trial","63d9cfec2060a424e3495756","nBde0CLg4pNtltQrsbhTyvsc0Rr1","5","images/demo_images/choice_trial_2.png","images/demo_images/choice_trial_1.png","images/demo_images/pattern_1.png","j","j","3000","2","1","20","1","1","0","0","2","0","","","","",""
"html-keyboard-response","3","5810","0.0-2.0-1.0","","null","<div style=""display: flex; flex-direction: column; align-items: center; margin-top: -40px;""><img src=""images/demo_images/pattern_1.png"" style=""width: 234px; height: 230px; margin-top: -50px;""><div style=""display: flex; justify-content: space-between; margin-top: 33px;""><img src=""images/demo_images/choice_trial_2.png"" style=""width: 408px; height: 417px; margin-right: 608px;""></div></div>","null","delaylearn","learning","display_response","63d9cfec2060a424e3495756","nBde0CLg4pNtltQrsbhTyvsc0Rr1","","","","","","","","","","","","","","","","","chosen stimuli: images/demo_images/choice_trial_2.png","","","",""
"html-keyboard-response","4","8817","0.0-2.0-2.0","","null","","null","delaylearn","learning","feedback_duration_window","63d9cfec2060a424e3495756","nBde0CLg4pNtltQrsbhTyvsc0Rr1","","","","","","","","","","","","","","","","","","3000","","",""
"html-keyboard-response","5","10320","0.0-2.0-3.0","","null","<div style='margin:auto;width: auto; font-size: 150%'><span style='font-weight: bold; font-size: 100px; color: red;'>0 points!</span><br><br></div>","null","delaylearn","learning","feedback_image_window","63d9cfec2060a424e3495756","nBde0CLg4pNtltQrsbhTyvsc0Rr1","","","","","","","","","","","","","","","","","","","","",""
"html-keyboard-response","6","12355","0.0-3.0","","null","<div style=""font-size:100px;"">+</div>","null","delaylearn","learning","ITI","63d9cfec2060a424e3495756","nBde0CLg4pNtltQrsbhTyvsc0Rr1","","","","","","","","","","","","","","","","","","","2031","",""
"html-keyboard-response","7","13966","0.0-4.0-0.0","","1610.1000001430511","<div style=""display: flex; flex-direction: column; align-items: center; margin-top: -40px;""><img src=""images/demo_images/pattern_1.png"" style=""width: 234px; height: 230px; margin-top: -50px;""><div style=""display: flex; justify-content: space-between; margin-top: 33px;""><img src=""images/demo_images/choice_trial_2.png"" style=""width: 408px; height: 417px; margin-right: 200px;""><img src=""images/demo_images/choice_trial_1.png"" style=""width: 408px; height: 417px;""></div></div>","f","delaylearn","learning","trial","63d9cfec2060a424e3495756","nBde0CLg4pNtltQrsbhTyvsc0Rr1","5","images/demo_images/choice_trial_2.png","images/demo_images/choice_trial_1.png","images/demo_images/pattern_1.png","j","j","3000","2","1","20","1","2","0","0","2","0","","","","",""
"html-keyboard-response","8","14981","0.0-4.0-1.0","","null","<div style=""display: flex; flex-direction: column; align-items: center; margin-top: -40px;""><img src=""images/demo_images/pattern_1.png"" style=""width: 234px; height: 230px; margin-top: -50px;""><div style=""display: flex; justify-content: space-between; margin-top: 33px;""><img src=""images/demo_images/choice_trial_2.png"" style=""width: 408px; height: 417px; margin-right: 608px;""></div></div>","null","delaylearn","learning","display_response","63d9cfec2060a424e3495756","nBde0CLg4pNtltQrsbhTyvsc0Rr1","","","","","","","","","","","","","","","","","chosen stimuli: images/demo_images/choice_trial_2.png","","","",""
"html-keyboard-response","9","17985","0.0-4.0-2.0","","null","","null","delaylearn","learning","feedback_duration_window","63d9cfec2060a424e3495756","nBde0CLg4pNtltQrsbhTyvsc0Rr1","","","","","","","","","","","","","","","","","","3000","","",""
"html-keyboard-response","10","19491","0.0-4.0-3.0","","null","<div style='margin:auto;width: auto; font-size: 150%'><span style='font-weight: bold; font-size: 100px; color: red;'>0 points!</span><br><br></div>","null","delaylearn","learning","feedback_image_window","63d9cfec2060a424e3495756","nBde0CLg4pNtltQrsbhTyvsc0Rr1","","","","","","","","","","","","","","","","","","","","",""
"html-keyboard-response","11","21535","0.0-5.0","","null","<div style=""font-size:100px;"">+</div>","null","delaylearn","learning","ITI","63d9cfec2060a424e3495756","nBde0CLg4pNtltQrsbhTyvsc0Rr1","","","","","","","","","","","","","","","","","","","2029","",""
"html-keyboard-response","12","22893","0.0-6.0-0.0","","1356.6000001430511","<div style=""display: flex; flex-direction: column; align-items: center; margin-top: -40px;""><img src=""images/demo_images/pattern_1.png"" style=""width: 234px; height: 230px; margin-top: -50px;""><div style=""display: flex; justify-content: space-between; margin-top: 33px;""><img src=""images/demo_images/choice_trial_1.png"" style=""width: 408px; height: 417px; margin-right: 200px;""><img src=""images/demo_images/choice_trial_2.png"" style=""width: 408px; height: 417px;""></div></div>","f","delaylearn","learning","trial","63d9cfec2060a424e3495756","nBde0CLg4pNtltQrsbhTyvsc0Rr1","5","images/demo_images/choice_trial_1.png","images/demo_images/choice_trial_2.png","images/demo_images/pattern_1.png","j","f","3000","1","2","20","0","3","1","0","1","0","","","","",""
"html-keyboard-response","13","23907","0.0-6.0-1.0","","null","<div style=""display: flex; flex-direction: column; align-items: center; margin-top: -40px;""><img src=""images/demo_images/pattern_1.png"" style=""width: 234px; height: 230px; margin-top: -50px;""><div style=""display: flex; justify-content: space-between; margin-top: 33px;""><img src=""images/demo_images/choice_trial_1.png"" style=""width: 408px; height: 417px; margin-right: 608px;""></div></div>","null","delaylearn","learning","display_response","63d9cfec2060a424e3495756","nBde0CLg4pNtltQrsbhTyvsc0Rr1","","","","","","","","","","","","","","","","","chosen stimuli: images/demo_images/choice_trial_1.png","","","",""
"html-keyboard-response","14","26917","0.0-6.0-2.0","","null","","null","delaylearn","learning","feedback_duration_window","63d9cfec2060a424e3495756","nBde0CLg4pNtltQrsbhTyvsc0Rr1","","","","","","","","","","","","","","","","","","3000","","",""
"html-keyboard-response","15","28432","0.0-6.0-3.0","","null","<div style='margin:auto;width: auto; font-size: 150%'><span style='font-weight: bold; font-size: 100px; color: red;'>0 points!</span><br><br></div>","null","delaylearn","learning","feedback_image_window","63d9cfec2060a424e3495756","nBde0CLg4pNtltQrsbhTyvsc0Rr1","","","","","","","","","","","","","","","","","","","","",""
"html-keyboard-response","16","30498","0.0-7.0","","null","<div style=""font-size:100px;"">+</div>","null","delaylearn","learning","ITI","63d9cfec2060a424e3495756","nBde0CLg4pNtltQrsbhTyvsc0Rr1","","","","","","","","","","","","","","","","","","","2052","",""
"html-keyboard-response","17","32086","0.0-8.0-0.0","","1586.5999999046326","<div style=""display: flex; flex-direction: column; align-items: center; margin-top: -40px;""><img src=""images/demo_images/pattern_1.png"" style=""width: 234px; height: 230px; margin-top: -50px;""><div style=""display: flex; justify-content: space-between; margin-top: 33px;""><img src=""images/demo_images/choice_trial_1.png"" style=""width: 408px; height: 417px; margin-right: 200px;""><img src=""images/demo_images/choice_trial_2.png"" style=""width: 408px; height: 417px;""></div></div>","f","delaylearn","learning","trial","63d9cfec2060a424e3495756","nBde0CLg4pNtltQrsbhTyvsc0Rr1","5","images/demo_images/choice_trial_1.png","images/demo_images/choice_trial_2.png","images/demo_images/pattern_1.png","f","f","3000","1","2","20","0","4","1","1","1","10","","","","",""
"html-keyboard-response","18","33100","0.0-8.0-1.0","","null","<div style=""display: flex; flex-direction: column; align-items: center; margin-top: -40px;""><img src=""images/demo_images/pattern_1.png"" style=""width: 234px; height: 230px; margin-top: -50px;""><div style=""display: flex; justify-content: space-between; margin-top: 33px;""><img src=""images/demo_images/choice_trial_1.png"" style=""width: 408px; height: 417px; margin-right: 608px;""></div></div>","null","delaylearn","learning","display_response","63d9cfec2060a424e3495756","nBde0CLg4pNtltQrsbhTyvsc0Rr1","","","","","","","","","","","","","","","","","chosen stimuli: images/demo_images/choice_trial_1.png","","","",""
"html-keyboard-response","19","36114","0.0-8.0-2.0","","null","","null","delaylearn","learning","feedback_duration_window","63d9cfec2060a424e3495756","nBde0CLg4pNtltQrsbhTyvsc0Rr1","","","","","","","","","","","","","","","","","","3000","","",""
"html-keyboard-response","20","37617","0.0-8.0-3.0","","null","<div style='margin:auto;width: auto; font-size: 150%'><span style='font-weight: bold; font-size: 100px; color: green;'>+10 points!</span><br><br></div>","null","delaylearn","learning","feedback_image_window","63d9cfec2060a424e3495756","nBde0CLg4pNtltQrsbhTyvsc0Rr1","","","","","","","","","","","","","","","","","","","","",""
"html-keyboard-response","21","38128","0.0-9.0-0.0","","null","","null","","","mood_trial_fixation","","","","","","","","","","","","","","","","","","","","","","",""
"lmdlab-html-vas-response","22","42571","0.0-9.0-1.0","","3425","How happy are you right now?","0.407431489099974","delaylearn","learning","mood_trial","63d9cfec2060a424e3495756","nBde0CLg4pNtltQrsbhTyvsc0Rr1","","","","","","","","","","","","","","","","","","","","[""Very unhappy"",""Very happy""]",""
"html-keyboard-response","23","44152","0.0-10.0","","null","<div style=""font-size:100px;"">+</div>","null","delaylearn","learning","ITI","63d9cfec2060a424e3495756","nBde0CLg4pNtltQrsbhTyvsc0Rr1","","","","","","","","","","","","","","","","","","","1566","",""
"html-keyboard-response","24","45809","0.0-11.0-0.0","","1654.5999999046326","<div style=""display: flex; flex-direction: column; align-items: center; margin-top: -40px;""><img src=""images/demo_images/pattern_1.png"" style=""width: 234px; height: 230px; margin-top: -50px;""><div style=""display: flex; justify-content: space-between; margin-top: 33px;""><img src=""images/demo_images/choice_trial_2.png"" style=""width: 408px; height: 417px; margin-right: 200px;""><img src=""images/demo_images/choice_trial_1.png"" style=""width: 408px; height: 417px;""></div></div>","j","delaylearn","learning","trial","63d9cfec2060a424e3495756","nBde0CLg4pNtltQrsbhTyvsc0Rr1","5","images/demo_images/choice_trial_2.png","images/demo_images/choice_trial_1.png","images/demo_images/pattern_1.png","j","j","3000","2","1","20","1","5","1","1","1","20","","","","",""
"html-keyboard-response","25","46816","0.0-11.0-1.0","","null","<div style=""display: flex; flex-direction: column; align-items: center; margin-top: -40px;""><img src=""images/demo_images/pattern_1.png"" style=""width: 234px; height: 230px; margin-top: -50px;""><div style=""display: flex; justify-content: space-between; margin-top: 33px;""><img src=""images/demo_images/choice_trial_1.png"" style=""width: 408px; height: 417px; margin-left:608px;""></div></div>","null","delaylearn","learning","display_response","63d9cfec2060a424e3495756","nBde0CLg4pNtltQrsbhTyvsc0Rr1","","","","","","","","","","","","","","","","","chosen stimuli: images/demo_images/choice_trial_1.png","","","",""
"html-keyboard-response","26","49828","0.0-11.0-2.0","","null","","null","delaylearn","learning","feedback_duration_window","63d9cfec2060a424e3495756","nBde0CLg4pNtltQrsbhTyvsc0Rr1","","","","","","","","","","","","","","","","","","3000","","",""
"html-keyboard-response","27","51333","0.0-11.0-3.0","","null","<div style='margin:auto;width: auto; font-size: 150%'><span style='font-weight: bold; font-size: 100px; color: green;'>+10 points!</span><br><br></div>","null","delaylearn","learning","feedback_image_window","63d9cfec2060a424e3495756","nBde0CLg4pNtltQrsbhTyvsc0Rr1","","","","","","","","","","","","","","","","","","","","",""
"html-keyboard-response","28","53653","0.0-12.0","","null","<div style=""font-size:100px;"">+</div>","null","delaylearn","learning","ITI","63d9cfec2060a424e3495756","nBde0CLg4pNtltQrsbhTyvsc0Rr1","","","","","","","","","","","","","","","","","","","2311","",""
"html-keyboard-response","29","55245","0.0-13.0-0.0","","1589","<div style=""display: flex; flex-direction: column; align-items: center; margin-top: -40px;""><img src=""images/demo_images/pattern_1.png"" style=""width: 234px; height: 230px; margin-top: -50px;""><div style=""display: flex; justify-content: space-between; margin-top: 33px;""><img src=""images/demo_images/choice_trial_1.png"" style=""width: 408px; height: 417px; margin-right: 200px;""><img src=""images/demo_images/choice_trial_2.png"" style=""width: 408px; height: 417px;""></div></div>","f","delaylearn","learning","trial","63d9cfec2060a424e3495756","nBde0CLg4pNtltQrsbhTyvsc0Rr1","5","images/demo_images/choice_trial_1.png","images/demo_images/choice_trial_2.png","images/demo_images/pattern_1.png","f","f","3000","1","2","20","0","6","1","1","1","30","","","","",""
"html-keyboard-response","30","56260","0.0-13.0-1.0","","null","<div style=""display: flex; flex-direction: column; align-items: center; margin-top: -40px;""><img src=""images/demo_images/pattern_1.png"" style=""width: 234px; height: 230px; margin-top: -50px;""><div style=""display: flex; justify-content: space-between; margin-top: 33px;""><img src=""images/demo_images/choice_trial_1.png"" style=""width: 408px; height: 417px; margin-right: 608px;""></div></div>","null","delaylearn","learning","display_response","63d9cfec2060a424e3495756","nBde0CLg4pNtltQrsbhTyvsc0Rr1","","","","","","","","","","","","","","","","","chosen stimuli: images/demo_images/choice_trial_1.png","","","",""
"html-keyboard-response","31","59263","0.0-13.0-2.0","","null","","null","delaylearn","learning","feedback_duration_window","63d9cfec2060a424e3495756","nBde0CLg4pNtltQrsbhTyvsc0Rr1","","","","","","","","","","","","","","","","","","3000","","",""
"html-keyboard-response","32","60770","0.0-13.0-3.0","","null","<div style='margin:auto;width: auto; font-size: 150%'><span style='font-weight: bold; font-size: 100px; color: green;'>+10 points!</span><br><br></div>","null","delaylearn","learning","feedback_image_window","63d9cfec2060a424e3495756","nBde0CLg4pNtltQrsbhTyvsc0Rr1","","","","","","","","","","","","","","","","","","","","",""
"html-keyboard-response","33","62964","0.0-14.0","","null","<div style=""font-size:100px;"">+</div>","null","delaylearn","learning","ITI","63d9cfec2060a424e3495756","nBde0CLg4pNtltQrsbhTyvsc0Rr1","","","","","","","","","","","","","","","","","","","2183","",""
"html-keyboard-response","34","65258","0.0-15.0-0.0","","2291.4000000953674","<div style=""display: flex; flex-direction: column; align-items: center; margin-top: -40px;""><img src=""images/demo_images/pattern_1.png"" style=""width: 234px; height: 230px; margin-top: -50px;""><div style=""display: flex; justify-content: space-between; margin-top: 33px;""><img src=""images/demo_images/choice_trial_2.png"" style=""width: 408px; height: 417px; margin-right: 200px;""><img src=""images/demo_images/choice_trial_1.png"" style=""width: 408px; height: 417px;""></div></div>","j","delaylearn","learning","trial","63d9cfec2060a424e3495756","nBde0CLg4pNtltQrsbhTyvsc0Rr1","5","images/demo_images/choice_trial_2.png","images/demo_images/choice_trial_1.png","images/demo_images/pattern_1.png","j","j","3000","2","1","20","1","7","1","1","1","40","","","","",""
"html-keyboard-response","35","66268","0.0-15.0-1.0","","null","<div style=""display: flex; flex-direction: column; align-items: center; margin-top: -40px;""><img src=""images/demo_images/pattern_1.png"" style=""width: 234px; height: 230px; margin-top: -50px;""><div style=""display: flex; justify-content: space-between; margin-top: 33px;""><img src=""images/demo_images/choice_trial_1.png"" style=""width: 408px; height: 417px; margin-left:608px;""></div></div>","null","delaylearn","learning","display_response","63d9cfec2060a424e3495756","nBde0CLg4pNtltQrsbhTyvsc0Rr1","","","","","","","","","","","","","","","","","chosen stimuli: images/demo_images/choice_trial_1.png","","","",""
"html-keyboard-response","36","69272","0.0-15.0-2.0","","null","","null","delaylearn","learning","feedback_duration_window","63d9cfec2060a424e3495756","nBde0CLg4pNtltQrsbhTyvsc0Rr1","","","","","","","","","","","","","","","","","","3000","","",""
"html-keyboard-response","37","70776","0.0-15.0-3.0","","null","<div style='margin:auto;width: auto; font-size: 150%'><span style='font-weight: bold; font-size: 100px; color: green;'>+10 points!</span><br><br></div>","null","delaylearn","learning","feedback_image_window","63d9cfec2060a424e3495756","nBde0CLg4pNtltQrsbhTyvsc0Rr1","","","","","","","","","","","","","","","","","","","","",""
"html-keyboard-response","38","73060","0.0-16.0","","null","<div style=""font-size:100px;"">+</div>","null","delaylearn","learning","ITI","63d9cfec2060a424e3495756","nBde0CLg4pNtltQrsbhTyvsc0Rr1","","","","","","","","","","","","","","","","","","","2279","",""
"html-keyboard-response","39","74677","0.0-17.0-0.0","","1615","<div style=""display: flex; flex-direction: column; align-items: center; margin-top: -40px;""><img src=""images/demo_images/pattern_1.png"" style=""width: 234px; height: 230px; margin-top: -50px;""><div style=""display: flex; justify-content: space-between; margin-top: 33px;""><img src=""images/demo_images/choice_trial_1.png"" style=""width: 408px; height: 417px; margin-right: 200px;""><img src=""images/demo_images/choice_trial_2.png"" style=""width: 408px; height: 417px;""></div></div>","f","delaylearn","learning","trial","63d9cfec2060a424e3495756","nBde0CLg4pNtltQrsbhTyvsc0Rr1","5","images/demo_images/choice_trial_1.png","images/demo_images/choice_trial_2.png","images/demo_images/pattern_1.png","f","f","3000","1","2","20","0","8","1","1","1","50","","","","",""
"html-keyboard-response","40","75688","0.0-17.0-1.0","","null","<div style=""display: flex; flex-direction: column; align-items: center; margin-top: -40px;""><img src=""images/demo_images/pattern_1.png"" style=""width: 234px; height: 230px; margin-top: -50px;""><div style=""display: flex; justify-content: space-between; margin-top: 33px;""><img src=""images/demo_images/choice_trial_1.png"" style=""width: 408px; height: 417px; margin-right: 608px;""></div></div>","null","delaylearn","learning","display_response","63d9cfec2060a424e3495756","nBde0CLg4pNtltQrsbhTyvsc0Rr1","","","","","","","","","","","","","","","","","chosen stimuli: images/demo_images/choice_trial_1.png","","","",""
"html-keyboard-response","41","78699","0.0-17.0-2.0","","null","","null","delaylearn","learning","feedback_duration_window","63d9cfec2060a424e3495756","nBde0CLg4pNtltQrsbhTyvsc0Rr1","","","","","","","","","","","","","","","","","","3000","","",""
"html-keyboard-response","42","80206","0.0-17.0-3.0","","null","<div style='margin:auto;width: auto; font-size: 150%'><span style='font-weight: bold; font-size: 100px; color: green;'>+10 points!</span><br><br></div>","null","delaylearn","learning","feedback_image_window","63d9cfec2060a424e3495756","nBde0CLg4pNtltQrsbhTyvsc0Rr1","","","","","","","","","","","","","","","","","","","","",""
"html-button-response","43","83633","0.0-18.0","","3424.5","
  <div style=""display: flex; align-items: center; justify-content: center; height: 80vh;"">
  <div>
          <img src=""images/inst_demo_finish.png"" style=""width: 80vw; height:auto;"">
          <br><br>
      </div>
      <br><br>
  </div>","0","","","","","","","","","","","","","","","","","","","","","","","","","",""
"html-keyboard-response","44","87295","0.0-19.0","","3661.100000143051","
  <div style=""display: flex; align-items: center; justify-content: center; height: 80vh;"">
  <div>
          <img src=""images/inst_6.png"" style=""width: 80vw; height:auto;"">
          <br><br>
      </div>
      <br><br>
  </div>","f","","","","","","","","","","","","","","","","","","","","","","","","","",""
"html-keyboard-response","45","90302","0.0-20.0","","null","<div style=""font-size:100px;"">+</div>","null","delaylearn","learning","pre_fixation","63d9cfec2060a424e3495756","","","","","","","","","","","","","","","","","","","","","",""
"html-keyboard-response","46","92333","0.0-21.0","","null","<div style=""font-size:100px;"">+</div>","null","delaylearn","learning","ITI","63d9cfec2060a424e3495756","nBde0CLg4pNtltQrsbhTyvsc0Rr1","","","","","","","","","","","","","","","","","","","2018","",""
"html-keyboard-response","47","93919","0.0-22.0-0.0","","1585.4000000953674","<div style=""display: flex; flex-direction: column; align-items: center; margin-top: -40px;""><img src=""images/pattern_3.png"" style=""width: 234px; height: 230px; margin-top: -50px;""><div style=""display: flex; justify-content: space-between; margin-top: 33px;""><img src=""images/choice_trial_16.png"" style=""width: 408px; height: 417px; margin-right: 200px;""><img src=""images/choice_trial_2.png"" style=""width: 408px; height: 417px;""></div></div>","j","delaylearn","learning","trial","63d9cfec2060a424e3495756","nBde0CLg4pNtltQrsbhTyvsc0Rr1","5","images/choice_trial_16.png","images/choice_trial_2.png","images/pattern_3.png","f","f","7000","16","2","2","0","9","0","0","2","50","","","","",""
"html-keyboard-response","48","94923","0.0-22.0-1.0","","null","<div style=""display: flex; flex-direction: column; align-items: center; margin-top: -40px;""><img src=""images/pattern_3.png"" style=""width: 234px; height: 230px; margin-top: -50px;""><div style=""display: flex; justify-content: space-between; margin-top: 33px;""><img src=""images/choice_trial_2.png"" style=""width: 408px; height: 417px; margin-left:608px;""></div></div>","null","delaylearn","learning","display_response","63d9cfec2060a424e3495756","nBde0CLg4pNtltQrsbhTyvsc0Rr1","","","","","","","","","","","","","","","","","chosen stimuli: images/choice_trial_2.png","","","",""
"html-keyboard-response","49","101926","0.0-22.0-2.0","","null","","null","delaylearn","learning","feedback_duration_window","63d9cfec2060a424e3495756","nBde0CLg4pNtltQrsbhTyvsc0Rr1","","","","","","","","","","","","","","","","","","7000","","",""
"html-keyboard-response","50","103431","0.0-22.0-3.0","","null","<div style='margin:auto;width: auto; font-size: 150%'><span style='font-weight: bold; font-size: 100px; color: red;'>0 points!</span><br><br></div>","null","delaylearn","learning","feedback_image_window","63d9cfec2060a424e3495756","nBde0CLg4pNtltQrsbhTyvsc0Rr1","","","","","","","","","","","","","","","","","","","","",""
"html-keyboard-response","51","105370","0.0-23.0","","null","<div style=""font-size:100px;"">+</div>","null","delaylearn","learning","ITI","63d9cfec2060a424e3495756","nBde0CLg4pNtltQrsbhTyvsc0Rr1","","","","","","","","","","","","","","","","","","","1928","",""
"html-keyboard-response","52","108213","0.0-24.0-0.0","","2841.899999856949","<div style=""display: flex; flex-direction: column; align-items: center; margin-top: -40px;""><img src=""images/pattern_7.png"" style=""width: 234px; height: 230px; margin-top: -50px;""><div style=""display: flex; justify-content: space-between; margin-top: 33px;""><img src=""images/choice_trial_10.png"" style=""width: 408px; height: 417px; margin-right: 200px;""><img src=""images/choice_trial_8.png"" style=""width: 408px; height: 417px;""></div></div>","j","delaylearn","learning","trial","63d9cfec2060a424e3495756","nBde0CLg4pNtltQrsbhTyvsc0Rr1","5","images/choice_trial_10.png","images/choice_trial_8.png","images/pattern_7.png","j","j","750","10","8","6","1","10","1","1","8","60","","","","",""
"html-keyboard-response","53","109227","0.0-24.0-1.0","","null","<div style=""display: flex; flex-direction: column; align-items: center; margin-top: -40px;""><img src=""images/pattern_7.png"" style=""width: 234px; height: 230px; margin-top: -50px;""><div style=""display: flex; justify-content: space-between; margin-top: 33px;""><img src=""images/choice_trial_8.png"" style=""width: 408px; height: 417px; margin-left:608px;""></div></div>","null","delaylearn","learning","display_response","63d9cfec2060a424e3495756","nBde0CLg4pNtltQrsbhTyvsc0Rr1","","","","","","","","","","","","","","","","","chosen stimuli: images/choice_trial_8.png","","","",""
"html-keyboard-response","54","109995","0.0-24.0-2.0","","null","","null","delaylearn","learning","feedback_duration_window","63d9cfec2060a424e3495756","nBde0CLg4pNtltQrsbhTyvsc0Rr1","","","","","","","","","","","","","","","","","","750","","",""
"html-keyboard-response","55","111509","0.0-24.0-3.0","","null","<div style='margin:auto;width: auto; font-size: 150%'><span style='font-weight: bold; font-size: 100px; color: green;'>+10 points!</span><br><br></div>","null","delaylearn","learning","feedback_image_window","63d9cfec2060a424e3495756","nBde0CLg4pNtltQrsbhTyvsc0Rr1","","","","","","","","","","","","","","","","","","","","",""
"html-keyboard-response","56","113806","0.0-25.0","","null","<div style=""font-size:100px;"">+</div>","null","delaylearn","learning","ITI","63d9cfec2060a424e3495756","nBde0CLg4pNtltQrsbhTyvsc0Rr1","","","","","","","","","","","","","","","","","","","2282","",""
"html-keyboard-response","57","115310","0.0-26.0-0.0","","1502.0999999046326","<div style=""display: flex; flex-direction: column; align-items: center; margin-top: -40px;""><img src=""images/pattern_4.png"" style=""width: 234px; height: 230px; margin-top: -50px;""><div style=""display: flex; justify-content: space-between; margin-top: 33px;""><img src=""images/choice_trial_11.png"" style=""width: 408px; height: 417px; margin-right: 200px;""><img src=""images/choice_trial_4.png"" style=""width: 408px; height: 417px;""></div></div>","f","delaylearn","learning","trial","63d9cfec2060a424e3495756","nBde0CLg4pNtltQrsbhTyvsc0Rr1","5","images/choice_trial_11.png","images/choice_trial_4.png","images/pattern_4.png","f","f","7000","11","4","3","0","11","1","1","11","70","","","","",""
"html-keyboard-response","58","116318","0.0-26.0-1.0","","null","<div style=""display: flex; flex-direction: column; align-items: center; margin-top: -40px;""><img src=""images/pattern_4.png"" style=""width: 234px; height: 230px; margin-top: -50px;""><div style=""display: flex; justify-content: space-between; margin-top: 33px;""><img src=""images/choice_trial_11.png"" style=""width: 408px; height: 417px; margin-right: 608px;""></div></div>","null","delaylearn","learning","display_response","63d9cfec2060a424e3495756","nBde0CLg4pNtltQrsbhTyvsc0Rr1","","","","","","","","","","","","","","","","","chosen stimuli: images/choice_trial_11.png","","","",""
"html-keyboard-response","59","123326","0.0-26.0-2.0","","null","","null","delaylearn","learning","feedback_duration_window","63d9cfec2060a424e3495756","nBde0CLg4pNtltQrsbhTyvsc0Rr1","","","","","","","","","","","","","","","","","","7000","","",""
"html-keyboard-response","60","124828","0.0-26.0-3.0","","null","<div style='margin:auto;width: auto; font-size: 150%'><span style='font-weight: bold; font-size: 100px; color: green;'>+10 points!</span><br><br></div>","null","delaylearn","learning","feedback_image_window","63d9cfec2060a424e3495756","nBde0CLg4pNtltQrsbhTyvsc0Rr1","","","","","","","","","","","","","","","","","","","","",""
"html-keyboard-response","61","126607","0.0-27.0","","null","<div style=""font-size:100px;"">+</div>","null","delaylearn","learning","ITI","63d9cfec2060a424e3495756","nBde0CLg4pNtltQrsbhTyvsc0Rr1","","","","","","","","","","","","","","","","","","","1772","",""
"html-keyboard-response","62","128262","0.0-28.0-0.0","","1653.7999999523163","<div style=""display: flex; flex-direction: column; align-items: center; margin-top: -40px;""><img src=""images/pattern_5.png"" style=""width: 234px; height: 230px; margin-top: -50px;""><div style=""display: flex; justify-content: space-between; margin-top: 33px;""><img src=""images/choice_trial_13.png"" style=""width: 408px; height: 417px; margin-right: 200px;""><img src=""images/choice_trial_7.png"" style=""width: 408px; height: 417px;""></div></div>","j","delaylearn","learning","trial","63d9cfec2060a424e3495756","nBde0CLg4pNtltQrsbhTyvsc0Rr1","5","images/choice_trial_13.png","images/choice_trial_7.png","images/pattern_5.png","j","j","750","13","7","4","1","12","1","1","7","80","","","","",""
"html-keyboard-response","63","129277","0.0-28.0-1.0","","null","<div style=""display: flex; flex-direction: column; align-items: center; margin-top: -40px;""><img src=""images/pattern_5.png"" style=""width: 234px; height: 230px; margin-top: -50px;""><div style=""display: flex; justify-content: space-between; margin-top: 33px;""><img src=""images/choice_trial_7.png"" style=""width: 408px; height: 417px; margin-left:608px;""></div></div>","null","delaylearn","learning","display_response","63d9cfec2060a424e3495756","nBde0CLg4pNtltQrsbhTyvsc0Rr1","","","","","","","","","","","","","","","","","chosen stimuli: images/choice_trial_7.png","","","",""
"html-keyboard-response","64","130039","0.0-28.0-2.0","","null","","null","delaylearn","learning","feedback_duration_window","63d9cfec2060a424e3495756","nBde0CLg4pNtltQrsbhTyvsc0Rr1","","","","","","","","","","","","","","","","","","750","","",""
"html-keyboard-response","65","131549","0.0-28.0-3.0","","null","<div style='margin:auto;width: auto; font-size: 150%'><span style='font-weight: bold; font-size: 100px; color: green;'>+10 points!</span><br><br></div>","null","delaylearn","learning","feedback_image_window","63d9cfec2060a424e3495756","nBde0CLg4pNtltQrsbhTyvsc0Rr1","","","","","","","","","","","","","","","","","","","","",""
"html-keyboard-response","66","133501","0.0-29.0","","null","<div style=""font-size:100px;"">+</div>","null","delaylearn","learning","ITI","63d9cfec2060a424e3495756","nBde0CLg4pNtltQrsbhTyvsc0Rr1","","","","","","","","","","","","","","","","","","","1945","",""
"html-keyboard-response","67","135659","0.0-30.0-0.0","","2156.5","<div style=""display: flex; flex-direction: column; align-items: center; margin-top: -40px;""><img src=""images/pattern_6.png"" style=""width: 234px; height: 230px; margin-top: -50px;""><div style=""display: flex; justify-content: space-between; margin-top: 33px;""><img src=""images/choice_trial_14.png"" style=""width: 408px; height: 417px; margin-right: 200px;""><img src=""images/choice_trial_9.png"" style=""width: 408px; height: 417px;""></div></div>","f","delaylearn","learning","trial","63d9cfec2060a424e3495756","nBde0CLg4pNtltQrsbhTyvsc0Rr1","5","images/choice_trial_14.png","images/choice_trial_9.png","images/pattern_6.png","j","f","750","14","9","5","0","13","1","0","14","80","","","","",""
"html-keyboard-response","68","136671","0.0-30.0-1.0","","null","<div style=""display: flex; flex-direction: column; align-items: center; margin-top: -40px;""><img src=""images/pattern_6.png"" style=""width: 234px; height: 230px; margin-top: -50px;""><div style=""display: flex; justify-content: space-between; margin-top: 33px;""><img src=""images/choice_trial_14.png"" style=""width: 408px; height: 417px; margin-right: 608px;""></div></div>","null","delaylearn","learning","display_response","63d9cfec2060a424e3495756","nBde0CLg4pNtltQrsbhTyvsc0Rr1","","","","","","","","","","","","","","","","","chosen stimuli: images/choice_trial_14.png","","","",""
"html-keyboard-response","69","137432","0.0-30.0-2.0","","null","","null","delaylearn","learning","feedback_duration_window","63d9cfec2060a424e3495756","nBde0CLg4pNtltQrsbhTyvsc0Rr1","","","","","","","","","","","","","","","","","","750","","",""
"html-keyboard-response","70","138942","0.0-30.0-3.0","","null","<div style='margin:auto;width: auto; font-size: 150%'><span style='font-weight: bold; font-size: 100px; color: red;'>0 points!</span><br><br></div>","null","delaylearn","learning","feedback_image_window","63d9cfec2060a424e3495756","nBde0CLg4pNtltQrsbhTyvsc0Rr1","","","","","","","","","","","","","","","","","","","","",""
"html-keyboard-response","71","139454","0.0-31.0-0.0","","null","","null","","","mood_trial_fixation","","","","","","","","","","","","","","","","","","","","","","",""
"lmdlab-html-vas-response","72","144760","0.0-31.0-1.0","","4290","How happy are you right now?","0.4845919792932591","delaylearn","learning","mood_trial","63d9cfec2060a424e3495756","nBde0CLg4pNtltQrsbhTyvsc0Rr1","","","","","","","","","","","","","","","","","","","","[""Very unhappy"",""Very happy""]",""
"html-keyboard-response","73","146695","0.0-32.0","","null","<div style=""font-size:100px;"">+</div>","null","delaylearn","learning","ITI","63d9cfec2060a424e3495756","nBde0CLg4pNtltQrsbhTyvsc0Rr1","","","","","","","","","","","","","","","","","","","1931","",""
"html-keyboard-response","74","147516","0.0-33.0-0.0","","819.1999998092651","<div style=""display: flex; flex-direction: column; align-items: center; margin-top: -40px;""><img src=""images/pattern_1.png"" style=""width: 234px; height: 230px; margin-top: -50px;""><div style=""display: flex; justify-content: space-between; margin-top: 33px;""><img src=""images/choice_trial_15.png"" style=""width: 408px; height: 417px; margin-right: 200px;""><img src=""images/choice_trial_6.png"" style=""width: 408px; height: 417px;""></div></div>","j","delaylearn","learning","trial","63d9cfec2060a424e3495756","nBde0CLg4pNtltQrsbhTyvsc0Rr1","5","images/choice_trial_15.png","images/choice_trial_6.png","images/pattern_1.png","j","j","7000","15","6","1","1","14","1","1","6","90","","","","",""
"html-keyboard-response","75","148522","0.0-33.0-1.0","","null","<div style=""display: flex; flex-direction: column; align-items: center; margin-top: -40px;""><img src=""images/pattern_1.png"" style=""width: 234px; height: 230px; margin-top: -50px;""><div style=""display: flex; justify-content: space-between; margin-top: 33px;""><img src=""images/choice_trial_6.png"" style=""width: 408px; height: 417px; margin-left:608px;""></div></div>","null","delaylearn","learning","display_response","63d9cfec2060a424e3495756","nBde0CLg4pNtltQrsbhTyvsc0Rr1","","","","","","","","","","","","","","","","","chosen stimuli: images/choice_trial_6.png","","","",""
"html-keyboard-response","76","155538","0.0-33.0-2.0","","null","","null","delaylearn","learning","feedback_duration_window","63d9cfec2060a424e3495756","nBde0CLg4pNtltQrsbhTyvsc0Rr1","","","","","","","","","","","","","","","","","","7000","","",""
"html-keyboard-response","77","157040","0.0-33.0-3.0","","null","<div style='margin:auto;width: auto; font-size: 150%'><span style='font-weight: bold; font-size: 100px; color: green;'>+10 points!</span><br><br></div>","null","delaylearn","learning","feedback_image_window","63d9cfec2060a424e3495756","nBde0CLg4pNtltQrsbhTyvsc0Rr1","","","","","","","","","","","","","","","","","","","","",""
"html-keyboard-response","78","159105","0.0-34.0","","null","<div style=""font-size:100px;"">+</div>","null","delaylearn","learning","ITI","63d9cfec2060a424e3495756","nBde0CLg4pNtltQrsbhTyvsc0Rr1","","","","","","","","","","","","","","","","","","","2050","",""
"html-keyboard-response","79","160460","0.0-35.0-0.0","","1353.9000000953674","<div style=""display: flex; flex-direction: column; align-items: center; margin-top: -40px;""><img src=""images/pattern_3.png"" style=""width: 234px; height: 230px; margin-top: -50px;""><div style=""display: flex; justify-content: space-between; margin-top: 33px;""><img src=""images/choice_trial_2.png"" style=""width: 408px; height: 417px; margin-right: 200px;""><img src=""images/choice_trial_16.png"" style=""width: 408px; height: 417px;""></div></div>","f","delaylearn","learning","trial","63d9cfec2060a424e3495756","nBde0CLg4pNtltQrsbhTyvsc0Rr1","5","images/choice_trial_2.png","images/choice_trial_16.png","images/pattern_3.png","f","j","7000","2","16","2","1","15","0","1","2","100","","","","",""
"html-keyboard-response","80","161463","0.0-35.0-1.0","","null","<div style=""display: flex; flex-direction: column; align-items: center; margin-top: -40px;""><img src=""images/pattern_3.png"" style=""width: 234px; height: 230px; margin-top: -50px;""><div style=""display: flex; justify-content: space-between; margin-top: 33px;""><img src=""images/choice_trial_2.png"" style=""width: 408px; height: 417px; margin-right: 608px;""></div></div>","null","delaylearn","learning","display_response","63d9cfec2060a424e3495756","nBde0CLg4pNtltQrsbhTyvsc0Rr1","","","","","","","","","","","","","","","","","chosen stimuli: images/choice_trial_2.png","","","",""
"html-keyboard-response","81","168477","0.0-35.0-2.0","","null","","null","delaylearn","learning","feedback_duration_window","63d9cfec2060a424e3495756","nBde0CLg4pNtltQrsbhTyvsc0Rr1","","","","","","","","","","","","","","","","","","7000","","",""
"html-keyboard-response","82","169983","0.0-35.0-3.0","","null","<div style='margin:auto;width: auto; font-size: 150%'><span style='font-weight: bold; font-size: 100px; color: green;'>+10 points!</span><br><br></div>","null","delaylearn","learning","feedback_image_window","63d9cfec2060a424e3495756","nBde0CLg4pNtltQrsbhTyvsc0Rr1","","","","","","","","","","","","","","","","","","","","",""
"html-keyboard-response","83","172201","0.0-36.0","","null","<div style=""font-size:100px;"">+</div>","null","delaylearn","learning","ITI","63d9cfec2060a424e3495756","nBde0CLg4pNtltQrsbhTyvsc0Rr1","","","","","","","","","","","","","","","","","","","2203","",""
"html-keyboard-response","84","173684","0.0-37.0-0.0","","1481","<div style=""display: flex; flex-direction: column; align-items: center; margin-top: -40px;""><img src=""images/pattern_5.png"" style=""width: 234px; height: 230px; margin-top: -50px;""><div style=""display: flex; justify-content: space-between; margin-top: 33px;""><img src=""images/choice_trial_7.png"" style=""width: 408px; height: 417px; margin-right: 200px;""><img src=""images/choice_trial_13.png"" style=""width: 408px; height: 417px;""></div></div>","j","delaylearn","learning","trial","63d9cfec2060a424e3495756","nBde0CLg4pNtltQrsbhTyvsc0Rr1","5","images/choice_trial_7.png","images/choice_trial_13.png","images/pattern_5.png","f","f","750","7","13","4","0","16","0","0","13","100","","","","",""
"html-keyboard-response","85","174692","0.0-37.0-1.0","","null","<div style=""display: flex; flex-direction: column; align-items: center; margin-top: -40px;""><img src=""images/pattern_5.png"" style=""width: 234px; height: 230px; margin-top: -50px;""><div style=""display: flex; justify-content: space-between; margin-top: 33px;""><img src=""images/choice_trial_13.png"" style=""width: 408px; height: 417px; margin-left:608px;""></div></div>","null","delaylearn","learning","display_response","63d9cfec2060a424e3495756","nBde0CLg4pNtltQrsbhTyvsc0Rr1","","","","","","","","","","","","","","","","","chosen stimuli: images/choice_trial_13.png","","","",""
"html-keyboard-response","86","175448","0.0-37.0-2.0","","null","","null","delaylearn","learning","feedback_duration_window","63d9cfec2060a424e3495756","nBde0CLg4pNtltQrsbhTyvsc0Rr1","","","","","","","","","","","","","","","","","","750","","",""
"html-keyboard-response","87","176954","0.0-37.0-3.0","","null","<div style='margin:auto;width: auto; font-size: 150%'><span style='font-weight: bold; font-size: 100px; color: red;'>0 points!</span><br><br></div>","null","delaylearn","learning","feedback_image_window","63d9cfec2060a424e3495756","nBde0CLg4pNtltQrsbhTyvsc0Rr1","","","","","","","","","","","","","","","","","","","","",""
"html-keyboard-response","88","177465","0.0-38.0-0.0","","null","","null","","","mood_trial_fixation","","","","","","","","","","","","","","","","","","","","","","",""
"lmdlab-html-vas-response","89","182107","0.0-38.0-1.0","","3627","How happy are you right now?","0.5328172856640623","delaylearn","learning","mood_trial","63d9cfec2060a424e3495756","nBde0CLg4pNtltQrsbhTyvsc0Rr1","","","","","","","","","","","","","","","","","","","","[""Very unhappy"",""Very happy""]",""
"html-keyboard-response","90","184562","0.0-39.0","","null","<div style=""font-size:100px;"">+</div>","null","delaylearn","learning","ITI","63d9cfec2060a424e3495756","nBde0CLg4pNtltQrsbhTyvsc0Rr1","","","","","","","","","","","","","","","","","","","2451","",""
"html-keyboard-response","91","186611","0.0-40.0-0.0","","2047.1000001430511","<div style=""display: flex; flex-direction: column; align-items: center; margin-top: -40px;""><img src=""images/pattern_6.png"" style=""width: 234px; height: 230px; margin-top: -50px;""><div style=""display: flex; justify-content: space-between; margin-top: 33px;""><img src=""images/choice_trial_14.png"" style=""width: 408px; height: 417px; margin-right: 200px;""><img src=""images/choice_trial_9.png"" style=""width: 408px; height: 417px;""></div></div>","j","delaylearn","learning","trial","63d9cfec2060a424e3495756","nBde0CLg4pNtltQrsbhTyvsc0Rr1","5","images/choice_trial_14.png","images/choice_trial_9.png","images/pattern_6.png","f","f","750","14","9","5","0","17","0","0","9","100","","","","",""
"html-keyboard-response","92","187618","0.0-40.0-1.0","","null","<div style=""display: flex; flex-direction: column; align-items: center; margin-top: -40px;""><img src=""images/pattern_6.png"" style=""width: 234px; height: 230px; margin-top: -50px;""><div style=""display: flex; justify-content: space-between; margin-top: 33px;""><img src=""images/choice_trial_9.png"" style=""width: 408px; height: 417px; margin-left:608px;""></div></div>","null","delaylearn","learning","display_response","63d9cfec2060a424e3495756","nBde0CLg4pNtltQrsbhTyvsc0Rr1","","","","","","","","","","","","","","","","","chosen stimuli: images/choice_trial_9.png","","","",""
"html-keyboard-response","93","188376","0.0-40.0-2.0","","null","","null","delaylearn","learning","feedback_duration_window","63d9cfec2060a424e3495756","nBde0CLg4pNtltQrsbhTyvsc0Rr1","","","","","","","","","","","","","","","","","","750","","",""
"html-keyboard-response","94","189884","0.0-40.0-3.0","","null","<div style='margin:auto;width: auto; font-size: 150%'><span style='font-weight: bold; font-size: 100px; color: red;'>0 points!</span><br><br></div>","null","delaylearn","learning","feedback_image_window","63d9cfec2060a424e3495756","nBde0CLg4pNtltQrsbhTyvsc0Rr1","","","","","","","","","","","","","","","","","","","","",""
"html-keyboard-response","95","192283","0.0-41.0","","null","<div style=""font-size:100px;"">+</div>","null","delaylearn","learning","ITI","63d9cfec2060a424e3495756","nBde0CLg4pNtltQrsbhTyvsc0Rr1","","","","","","","","","","","","","","","","","","","2397","",""
"html-keyboard-response","96","194622","0.0-42.0-0.0","","2336.4000000953674","<div style=""display: flex; flex-direction: column; align-items: center; margin-top: -40px;""><img src=""images/pattern_4.png"" style=""width: 234px; height: 230px; margin-top: -50px;""><div style=""display: flex; justify-content: space-between; margin-top: 33px;""><img src=""images/choice_trial_4.png"" style=""width: 408px; height: 417px; margin-right: 200px;""><img src=""images/choice_trial_11.png"" style=""width: 408px; height: 417px;""></div></div>","j","delaylearn","learning","trial","63d9cfec2060a424e3495756","nBde0CLg4pNtltQrsbhTyvsc0Rr1","5","images/choice_trial_4.png","images/choice_trial_11.png","images/pattern_4.png","j","j","7000","4","11","3","1","18","1","1","11","110","","","","",""
"html-keyboard-response","97","195631","0.0-42.0-1.0","","null","<div style=""display: flex; flex-direction: column; align-items: center; margin-top: -40px;""><img src=""images/pattern_4.png"" style=""width: 234px; height: 230px; margin-top: -50px;""><div style=""display: flex; justify-content: space-between; margin-top: 33px;""><img src=""images/choice_trial_11.png"" style=""width: 408px; height: 417px; margin-left:608px;""></div></div>","null","delaylearn","learning","display_response","63d9cfec2060a424e3495756","nBde0CLg4pNtltQrsbhTyvsc0Rr1","","","","","","","","","","","","","","","","","chosen stimuli: images/choice_trial_11.png","","","",""
"html-keyboard-response","98","202645","0.0-42.0-2.0","","null","","null","delaylearn","learning","feedback_duration_window","63d9cfec2060a424e3495756","nBde0CLg4pNtltQrsbhTyvsc0Rr1","","","","","","","","","","","","","","","","","","7000","","",""
"html-keyboard-response","99","204147","0.0-42.0-3.0","","null","<div style='margin:auto;width: auto; font-size: 150%'><span style='font-weight: bold; font-size: 100px; color: green;'>+10 points!</span><br><br></div>","null","delaylearn","learning","feedback_image_window","63d9cfec2060a424e3495756","nBde0CLg4pNtltQrsbhTyvsc0Rr1","","","","","","","","","","","","","","","","","","","","",""
"html-keyboard-response","100","206577","0.0-43.0","","null","<div style=""font-size:100px;"">+</div>","null","delaylearn","learning","ITI","63d9cfec2060a424e3495756","nBde0CLg4pNtltQrsbhTyvsc0Rr1","","","","","","","","","","","","","","","","","","","2418","",""
"html-keyboard-response","101","209375","0.0-44.0-0.0","","2796.5","<div style=""display: flex; flex-direction: column; align-items: center; margin-top: -40px;""><img src=""images/pattern_7.png"" style=""width: 234px; height: 230px; margin-top: -50px;""><div style=""display: flex; justify-content: space-between; margin-top: 33px;""><img src=""images/choice_trial_8.png"" style=""width: 408px; height: 417px; margin-right: 200px;""><img src=""images/choice_trial_10.png"" style=""width: 408px; height: 417px;""></div></div>","f","delaylearn","learning","trial","63d9cfec2060a424e3495756","nBde0CLg4pNtltQrsbhTyvsc0Rr1","5","images/choice_trial_8.png","images/choice_trial_10.png","images/pattern_7.png","j","f","750","8","10","6","0","19","1","0","8","110","","","","",""
"html-keyboard-response","102","210392","0.0-44.0-1.0","","null","<div style=""display: flex; flex-direction: column; align-items: center; margin-top: -40px;""><img src=""images/pattern_7.png"" style=""width: 234px; height: 230px; margin-top: -50px;""><div style=""display: flex; justify-content: space-between; margin-top: 33px;""><img src=""images/choice_trial_8.png"" style=""width: 408px; height: 417px; margin-right: 608px;""></div></div>","null","delaylearn","learning","display_response","63d9cfec2060a424e3495756","nBde0CLg4pNtltQrsbhTyvsc0Rr1","","","","","","","","","","","","","","","","","chosen stimuli: images/choice_trial_8.png","","","",""
"html-keyboard-response","103","211151","0.0-44.0-2.0","","null","","null","delaylearn","learning","feedback_duration_window","63d9cfec2060a424e3495756","nBde0CLg4pNtltQrsbhTyvsc0Rr1","","","","","","","","","","","","","","","","","","750","","",""
"html-keyboard-response","104","212658","0.0-44.0-3.0","","null","<div style='margin:auto;width: auto; font-size: 150%'><span style='font-weight: bold; font-size: 100px; color: red;'>0 points!</span><br><br></div>","null","delaylearn","learning","feedback_image_window","63d9cfec2060a424e3495756","nBde0CLg4pNtltQrsbhTyvsc0Rr1","","","","","","","","","","","","","","","","","","","","",""
"html-keyboard-response","105","214276","0.0-45.0","","null","<div style=""font-size:100px;"">+</div>","null","delaylearn","learning","ITI","63d9cfec2060a424e3495756","nBde0CLg4pNtltQrsbhTyvsc0Rr1","","","","","","","","","","","","","","","","","","","1604","",""
"html-keyboard-response","106","215763","0.0-46.0-0.0","","1485.2000000476837","<div style=""display: flex; flex-direction: column; align-items: center; margin-top: -40px;""><img src=""images/pattern_1.png"" style=""width: 234px; height: 230px; margin-top: -50px;""><div style=""display: flex; justify-content: space-between; margin-top: 33px;""><img src=""images/choice_trial_6.png"" style=""width: 408px; height: 417px; margin-right: 200px;""><img src=""images/choice_trial_15.png"" style=""width: 408px; height: 417px;""></div></div>","j","delaylearn","learning","trial","63d9cfec2060a424e3495756","nBde0CLg4pNtltQrsbhTyvsc0Rr1","5","images/choice_trial_6.png","images/choice_trial_15.png","images/pattern_1.png","f","f","7000","6","15","1","0","20","0","0","15","110","","","","",""
"html-keyboard-response","107","216771","0.0-46.0-1.0","","null","<div style=""display: flex; flex-direction: column; align-items: center; margin-top: -40px;""><img src=""images/pattern_1.png"" style=""width: 234px; height: 230px; margin-top: -50px;""><div style=""display: flex; justify-content: space-between; margin-top: 33px;""><img src=""images/choice_trial_15.png"" style=""width: 408px; height: 417px; margin-left:608px;""></div></div>","null","delaylearn","learning","display_response","63d9cfec2060a424e3495756","nBde0CLg4pNtltQrsbhTyvsc0Rr1","","","","","","","","","","","","","","","","","chosen stimuli: images/choice_trial_15.png","","","",""
"html-keyboard-response","108","223783","0.0-46.0-2.0","","null","","null","delaylearn","learning","feedback_duration_window","63d9cfec2060a424e3495756","nBde0CLg4pNtltQrsbhTyvsc0Rr1","","","","","","","","","","","","","","","","","","7000","","",""
"html-keyboard-response","109","225285","0.0-46.0-3.0","","null","<div style='margin:auto;width: auto; font-size: 150%'><span style='font-weight: bold; font-size: 100px; color: red;'>0 points!</span><br><br></div>","null","delaylearn","learning","feedback_image_window","63d9cfec2060a424e3495756","nBde0CLg4pNtltQrsbhTyvsc0Rr1","","","","","","","","","","","","","","","","","","","","",""
"html-keyboard-response","110","227701","0.0-47.0","","null","<div style=""font-size:100px;"">+</div>","null","delaylearn","learning","ITI","63d9cfec2060a424e3495756","nBde0CLg4pNtltQrsbhTyvsc0Rr1","","","","","","","","","","","","","","","","","","","2414","",""
"html-keyboard-response","111","229387","0.0-48.0-0.0","","1683.9000000953674","<div style=""display: flex; flex-direction: column; align-items: center; margin-top: -40px;""><img src=""images/pattern_6.png"" style=""width: 234px; height: 230px; margin-top: -50px;""><div style=""display: flex; justify-content: space-between; margin-top: 33px;""><img src=""images/choice_trial_9.png"" style=""width: 408px; height: 417px; margin-right: 200px;""><img src=""images/choice_trial_14.png"" style=""width: 408px; height: 417px;""></div></div>","j","delaylearn","learning","trial","63d9cfec2060a424e3495756","nBde0CLg4pNtltQrsbhTyvsc0Rr1","5","images/choice_trial_9.png","images/choice_trial_14.png","images/pattern_6.png","j","j","750","9","14","5","1","21","1","1","14","120","","","","",""
"html-keyboard-response","112","230397","0.0-48.0-1.0","","null","<div style=""display: flex; flex-direction: column; align-items: center; margin-top: -40px;""><img src=""images/pattern_6.png"" style=""width: 234px; height: 230px; margin-top: -50px;""><div style=""display: flex; justify-content: space-between; margin-top: 33px;""><img src=""images/choice_trial_14.png"" style=""width: 408px; height: 417px; margin-left:608px;""></div></div>","null","delaylearn","learning","display_response","63d9cfec2060a424e3495756","nBde0CLg4pNtltQrsbhTyvsc0Rr1","","","","","","","","","","","","","","","","","chosen stimuli: images/choice_trial_14.png","","","",""
"html-keyboard-response","113","231157","0.0-48.0-2.0","","null","","null","delaylearn","learning","feedback_duration_window","63d9cfec2060a424e3495756","nBde0CLg4pNtltQrsbhTyvsc0Rr1","","","","","","","","","","","","","","","","","","750","","",""
"html-keyboard-response","114","232666","0.0-48.0-3.0","","null","<div style='margin:auto;width: auto; font-size: 150%'><span style='font-weight: bold; font-size: 100px; color: green;'>+10 points!</span><br><br></div>","null","delaylearn","learning","feedback_image_window","63d9cfec2060a424e3495756","nBde0CLg4pNtltQrsbhTyvsc0Rr1","","","","","","","","","","","","","","","","","","","","",""
"html-keyboard-response","115","234871","0.0-49.0","","null","<div style=""font-size:100px;"">+</div>","null","delaylearn","learning","ITI","63d9cfec2060a424e3495756","nBde0CLg4pNtltQrsbhTyvsc0Rr1","","","","","","","","","","","","","","","","","","","2203","",""
"html-keyboard-response","116","236444","0.0-50.0-0.0","","1572.5","<div style=""display: flex; flex-direction: column; align-items: center; margin-top: -40px;""><img src=""images/pattern_4.png"" style=""width: 234px; height: 230px; margin-top: -50px;""><div style=""display: flex; justify-content: space-between; margin-top: 33px;""><img src=""images/choice_trial_11.png"" style=""width: 408px; height: 417px; margin-right: 200px;""><img src=""images/choice_trial_4.png"" style=""width: 408px; height: 417px;""></div></div>","f","delaylearn","learning","trial","63d9cfec2060a424e3495756","nBde0CLg4pNtltQrsbhTyvsc0Rr1","5","images/choice_trial_11.png","images/choice_trial_4.png","images/pattern_4.png","f","f","7000","11","4","3","0","22","1","1","11","130","","","","",""
"html-keyboard-response","117","237447","0.0-50.0-1.0","","null","<div style=""display: flex; flex-direction: column; align-items: center; margin-top: -40px;""><img src=""images/pattern_4.png"" style=""width: 234px; height: 230px; margin-top: -50px;""><div style=""display: flex; justify-content: space-between; margin-top: 33px;""><img src=""images/choice_trial_11.png"" style=""width: 408px; height: 417px; margin-right: 608px;""></div></div>","null","delaylearn","learning","display_response","63d9cfec2060a424e3495756","nBde0CLg4pNtltQrsbhTyvsc0Rr1","","","","","","","","","","","","","","","","","chosen stimuli: images/choice_trial_11.png","","","",""
"html-keyboard-response","118","244454","0.0-50.0-2.0","","null","","null","delaylearn","learning","feedback_duration_window","63d9cfec2060a424e3495756","nBde0CLg4pNtltQrsbhTyvsc0Rr1","","","","","","","","","","","","","","","","","","7000","","",""
"html-keyboard-response","119","245969","0.0-50.0-3.0","","null","<div style='margin:auto;width: auto; font-size: 150%'><span style='font-weight: bold; font-size: 100px; color: green;'>+10 points!</span><br><br></div>","null","delaylearn","learning","feedback_image_window","63d9cfec2060a424e3495756","nBde0CLg4pNtltQrsbhTyvsc0Rr1","","","","","","","","","","","","","","","","","","","","",""
"html-keyboard-response","120","246482","0.0-51.0-0.0","","null","","null","","","mood_trial_fixation","","","","","","","","","","","","","","","","","","","","","","",""
"lmdlab-html-vas-response","121","252449","0.0-51.0-1.0","","4959","How happy are you right now?","0.6543450577184862","delaylearn","learning","mood_trial","63d9cfec2060a424e3495756","nBde0CLg4pNtltQrsbhTyvsc0Rr1","","","","","","","","","","","","","","","","","","","","[""Very unhappy"",""Very happy""]",""
"html-keyboard-response","122","254802","0.0-52.0","","null","<div style=""font-size:100px;"">+</div>","null","delaylearn","learning","ITI","63d9cfec2060a424e3495756","nBde0CLg4pNtltQrsbhTyvsc0Rr1","","","","","","","","","","","","","","","","","","","2347","",""
"html-keyboard-response","123","257316","0.0-53.0-0.0","","2512.5","<div style=""display: flex; flex-direction: column; align-items: center; margin-top: -40px;""><img src=""images/pattern_7.png"" style=""width: 234px; height: 230px; margin-top: -50px;""><div style=""display: flex; justify-content: space-between; margin-top: 33px;""><img src=""images/choice_trial_10.png"" style=""width: 408px; height: 417px; margin-right: 200px;""><img src=""images/choice_trial_8.png"" style=""width: 408px; height: 417px;""></div></div>","f","delaylearn","learning","trial","63d9cfec2060a424e3495756","nBde0CLg4pNtltQrsbhTyvsc0Rr1","5","images/choice_trial_10.png","images/choice_trial_8.png","images/pattern_7.png","j","j","750","10","8","6","1","23","0","0","10","130","","","","",""
"html-keyboard-response","124","258323","0.0-53.0-1.0","","null","<div style=""display: flex; flex-direction: column; align-items: center; margin-top: -40px;""><img src=""images/pattern_7.png"" style=""width: 234px; height: 230px; margin-top: -50px;""><div style=""display: flex; justify-content: space-between; margin-top: 33px;""><img src=""images/choice_trial_10.png"" style=""width: 408px; height: 417px; margin-right: 608px;""></div></div>","null","delaylearn","learning","display_response","63d9cfec2060a424e3495756","nBde0CLg4pNtltQrsbhTyvsc0Rr1","","","","","","","","","","","","","","","","","chosen stimuli: images/choice_trial_10.png","","","",""
"html-keyboard-response","125","259079","0.0-53.0-2.0","","null","","null","delaylearn","learning","feedback_duration_window","63d9cfec2060a424e3495756","nBde0CLg4pNtltQrsbhTyvsc0Rr1","","","","","","","","","","","","","","","","","","750","","",""
"html-keyboard-response","126","260583","0.0-53.0-3.0","","null","<div style='margin:auto;width: auto; font-size: 150%'><span style='font-weight: bold; font-size: 100px; color: red;'>0 points!</span><br><br></div>","null","delaylearn","learning","feedback_image_window","63d9cfec2060a424e3495756","nBde0CLg4pNtltQrsbhTyvsc0Rr1","","","","","","","","","","","","","","","","","","","","",""
"html-keyboard-response","127","262421","0.0-54.0","","null","<div style=""font-size:100px;"">+</div>","null","delaylearn","learning","ITI","63d9cfec2060a424e3495756","nBde0CLg4pNtltQrsbhTyvsc0Rr1","","","","","","","","","","","","","","","","","","","1833","",""
"html-keyboard-response","128","264668","0.0-55.0-0.0","","2244.899999856949","<div style=""display: flex; flex-direction: column; align-items: center; margin-top: -40px;""><img src=""images/pattern_1.png"" style=""width: 234px; height: 230px; margin-top: -50px;""><div style=""display: flex; justify-content: space-between; margin-top: 33px;""><img src=""images/choice_trial_15.png"" style=""width: 408px; height: 417px; margin-right: 200px;""><img src=""images/choice_trial_6.png"" style=""width: 408px; height: 417px;""></div></div>","j","delaylearn","learning","trial","63d9cfec2060a424e3495756","nBde0CLg4pNtltQrsbhTyvsc0Rr1","5","images/choice_trial_15.png","images/choice_trial_6.png","images/pattern_1.png","f","j","7000","15","6","1","1","24","1","0","6","130","","","","",""
"html-keyboard-response","129","265677","0.0-55.0-1.0","","null","<div style=""display: flex; flex-direction: column; align-items: center; margin-top: -40px;""><img src=""images/pattern_1.png"" style=""width: 234px; height: 230px; margin-top: -50px;""><div style=""display: flex; justify-content: space-between; margin-top: 33px;""><img src=""images/choice_trial_6.png"" style=""width: 408px; height: 417px; margin-left:608px;""></div></div>","null","delaylearn","learning","display_response","63d9cfec2060a424e3495756","nBde0CLg4pNtltQrsbhTyvsc0Rr1","","","","","","","","","","","","","","","","","chosen stimuli: images/choice_trial_6.png","","","",""
"html-keyboard-response","130","272692","0.0-55.0-2.0","","null","","null","delaylearn","learning","feedback_duration_window","63d9cfec2060a424e3495756","nBde0CLg4pNtltQrsbhTyvsc0Rr1","","","","","","","","","","","","","","","","","","7000","","",""
"html-keyboard-response","131","274194","0.0-55.0-3.0","","null","<div style='margin:auto;width: auto; font-size: 150%'><span style='font-weight: bold; font-size: 100px; color: red;'>0 points!</span><br><br></div>","null","delaylearn","learning","feedback_image_window","63d9cfec2060a424e3495756","nBde0CLg4pNtltQrsbhTyvsc0Rr1","","","","","","","","","","","","","","","","","","","","",""
"html-keyboard-response","132","276362","0.0-56.0","","null","<div style=""font-size:100px;"">+</div>","null","delaylearn","learning","ITI","63d9cfec2060a424e3495756","nBde0CLg4pNtltQrsbhTyvsc0Rr1","","","","","","","","","","","","","","","","","","","2159","",""
"html-keyboard-response","133","278088","0.0-57.0-0.0","","1724.3000001907349","<div style=""display: flex; flex-direction: column; align-items: center; margin-top: -40px;""><img src=""images/pattern_5.png"" style=""width: 234px; height: 230px; margin-top: -50px;""><div style=""display: flex; justify-content: space-between; margin-top: 33px;""><img src=""images/choice_trial_13.png"" style=""width: 408px; height: 417px; margin-right: 200px;""><img src=""images/choice_trial_7.png"" style=""width: 408px; height: 417px;""></div></div>","j","delaylearn","learning","trial","63d9cfec2060a424e3495756","nBde0CLg4pNtltQrsbhTyvsc0Rr1","5","images/choice_trial_13.png","images/choice_trial_7.png","images/pattern_5.png","j","j","750","13","7","4","1","25","1","1","7","140","","","","",""
"html-keyboard-response","134","279101","0.0-57.0-1.0","","null","<div style=""display: flex; flex-direction: column; align-items: center; margin-top: -40px;""><img src=""images/pattern_5.png"" style=""width: 234px; height: 230px; margin-top: -50px;""><div style=""display: flex; justify-content: space-between; margin-top: 33px;""><img src=""images/choice_trial_7.png"" style=""width: 408px; height: 417px; margin-left:608px;""></div></div>","null","delaylearn","learning","display_response","63d9cfec2060a424e3495756","nBde0CLg4pNtltQrsbhTyvsc0Rr1","","","","","","","","","","","","","","","","","chosen stimuli: images/choice_trial_7.png","","","",""
"html-keyboard-response","135","279863","0.0-57.0-2.0","","null","","null","delaylearn","learning","feedback_duration_window","63d9cfec2060a424e3495756","nBde0CLg4pNtltQrsbhTyvsc0Rr1","","","","","","","","","","","","","","","","","","750","","",""
"html-keyboard-response","136","281373","0.0-57.0-3.0","","null","<div style='margin:auto;width: auto; font-size: 150%'><span style='font-weight: bold; font-size: 100px; color: green;'>+10 points!</span><br><br></div>","null","delaylearn","learning","feedback_image_window","63d9cfec2060a424e3495756","nBde0CLg4pNtltQrsbhTyvsc0Rr1","","","","","","","","","","","","","","","","","","","","",""
"html-keyboard-response","137","282943","0.0-58.0","","null","<div style=""font-size:100px;"">+</div>","null","delaylearn","learning","ITI","63d9cfec2060a424e3495756","nBde0CLg4pNtltQrsbhTyvsc0Rr1","","","","","","","","","","","","","","","","","","","1557","",""
"html-keyboard-response","138","285958","0.0-59.0-0.0","","null","<div style=""display: flex; flex-direction: column; align-items: center; margin-top: -40px;""><img src=""images/pattern_3.png"" style=""width: 234px; height: 230px; margin-top: -50px;""><div style=""display: flex; justify-content: space-between; margin-top: 33px;""><img src=""images/choice_trial_2.png"" style=""width: 408px; height: 417px; margin-right: 200px;""><img src=""images/choice_trial_16.png"" style=""width: 408px; height: 417px;""></div></div>","null","delaylearn","learning","trial","63d9cfec2060a424e3495756","nBde0CLg4pNtltQrsbhTyvsc0Rr1","5","images/choice_trial_2.png","images/choice_trial_16.png","images/pattern_3.png","j","j","7000","2","16","2","1","26","0","0","0","140","","","","",""
"html-keyboard-response","139","286963","0.0-59.0-1.0","","null","<div style='font-weight: bold; font-size: 75px; color: red;'>Missed Trial <br><br><br><br> Please respond faster</div>","null","delaylearn","learning","display_response","63d9cfec2060a424e3495756","nBde0CLg4pNtltQrsbhTyvsc0Rr1","","","","","","","","","","","","","","","","","Missed trial","","","",""
"html-keyboard-response","140","286969","0.0-59.0-2.0","","null","","null","delaylearn","learning","feedback_duration_window","63d9cfec2060a424e3495756","nBde0CLg4pNtltQrsbhTyvsc0Rr1","","","","","","","","","","","","","","","","","","0","","",""
"html-keyboard-response","141","286974","0.0-59.0-3.0","","null","","null","delaylearn","learning","feedback_image_window","63d9cfec2060a424e3495756","nBde0CLg4pNtltQrsbhTyvsc0Rr1","","","","","","","","","","","","","","","","","","","","",""
"lmdlab-html-vas-response","142","293509","0.0-60.0-0.0","","5012","*How <b><u>confident</u></b> are you feeling about your answers at this moment?*","0.44598759799591825","rewlearn","rate_confidence","","63d9cfec2060a424e3495756","nBde0CLg4pNtltQrsbhTyvsc0Rr1","","","","","","","","","","","","","","","","","","","","[""No confidence"",""Complete confidence""]",""
"lmdlab-rest-trial-limit","143","301077","0.0-60.0-1.0","","6053.5","<div style=""font-size:40px;""><b>Please take a break!</b><br><br><br><br><p>Great work: you earned 140 points.<br><br><br><p>You have completed part(s) 1 of 5.<br><br><br><br>When you are ready to continue<br><br><br>please click the button.</p><br><br>","0","delaylearn","learning","break","63d9cfec2060a424e3495756","nBde0CLg4pNtltQrsbhTyvsc0Rr1","","","","","","","","","","","","","","","","","","","","","0"
"html-keyboard-response","144","304091","0.0-60.0-2.0","","null","<div style=""font-size:100px;"">+</div>","null","delaylearn","learning","pre_fixation","63d9cfec2060a424e3495756","","","","","","","","","","","","","","","","","","","","","",""
"lmdlab-html-vas-response","145","308982","0.0-60.0-3.0-0.0","","3883","How happy are you right now?","0.6234808616411721","delaylearn","learning","mood_baseline","63d9cfec2060a424e3495756","nBde0CLg4pNtltQrsbhTyvsc0Rr1","","","","","","","","","","","","","","","","","","","","[""Very unhappy"",""Very happy""]",""
"html-keyboard-response","146","310496","0.0-60.0-3.0-1.0","","null","","null","","","mood_baseline_fixation","","","","","","","","","","","","","","","","","","","","","","",""
"html-keyboard-response","147","312983","0.0-61.0","","null","<div style=""font-size:100px;"">+</div>","null","delaylearn","learning","ITI","63d9cfec2060a424e3495756","nBde0CLg4pNtltQrsbhTyvsc0Rr1","","","","","","","","","","","","","","","","","","","2482","",""
"html-keyboard-response","148","314391","0.0-62.0-0.0","","1405.3999998569489","<div style=""display: flex; flex-direction: column; align-items: center; margin-top: -40px;""><img src=""images/pattern_7.png"" style=""width: 234px; height: 230px; margin-top: -50px;""><div style=""display: flex; justify-content: space-between; margin-top: 33px;""><img src=""images/choice_trial_10.png"" style=""width: 408px; height: 417px; margin-right: 200px;""><img src=""images/choice_trial_8.png"" style=""width: 408px; height: 417px;""></div></div>","f","delaylearn","learning","trial","63d9cfec2060a424e3495756","nBde0CLg4pNtltQrsbhTyvsc0Rr1","5","images/choice_trial_10.png","images/choice_trial_8.png","images/pattern_7.png","j","j","750","10","8","6","1","27","0","0","10","140","","","","",""
"html-keyboard-response","149","315408","0.0-62.0-1.0","","null","<div style=""display: flex; flex-direction: column; align-items: center; margin-top: -40px;""><img src=""images/pattern_7.png"" style=""width: 234px; height: 230px; margin-top: -50px;""><div style=""display: flex; justify-content: space-between; margin-top: 33px;""><img src=""images/choice_trial_10.png"" style=""width: 408px; height: 417px; margin-right: 608px;""></div></div>","null","delaylearn","learning","display_response","63d9cfec2060a424e3495756","nBde0CLg4pNtltQrsbhTyvsc0Rr1","","","","","","","","","","","","","","","","","chosen stimuli: images/choice_trial_10.png","","","",""
"html-keyboard-response","150","316165","0.0-62.0-2.0","","null","","null","delaylearn","learning","feedback_duration_window","63d9cfec2060a424e3495756","nBde0CLg4pNtltQrsbhTyvsc0Rr1","","","","","","","","","","","","","","","","","","750","","",""
"html-keyboard-response","151","317676","0.0-62.0-3.0","","null","<div style='margin:auto;width: auto; font-size: 150%'><span style='font-weight: bold; font-size: 100px; color: red;'>0 points!</span><br><br></div>","null","delaylearn","learning","feedback_image_window","63d9cfec2060a424e3495756","nBde0CLg4pNtltQrsbhTyvsc0Rr1","","","","","","","","","","","","","","","","","","","","",""
"html-keyboard-response","152","318190","0.0-63.0-0.0","","null","","null","","","mood_trial_fixation","","","","","","","","","","","","","","","","","","","","","","",""
"lmdlab-html-vas-response","153","322860","0.0-63.0-1.0","","3665","How happy are you right now?","0.6080487636025151","delaylearn","learning","mood_trial","63d9cfec2060a424e3495756","nBde0CLg4pNtltQrsbhTyvsc0Rr1","","","","","","","","","","","","","","","","","","","","[""Very unhappy"",""Very happy""]",""
"html-keyboard-response","154","325170","0.0-64.0","","null","<div style=""font-size:100px;"">+</div>","null","delaylearn","learning","ITI","63d9cfec2060a424e3495756","nBde0CLg4pNtltQrsbhTyvsc0Rr1","","","","","","","","","","","","","","","","","","","2305","",""
"html-keyboard-response","155","326334","0.0-65.0-0.0","","1160.3000001907349","<div style=""display: flex; flex-direction: column; align-items: center; margin-top: -40px;""><img src=""images/pattern_1.png"" style=""width: 234px; height: 230px; margin-top: -50px;""><div style=""display: flex; justify-content: space-between; margin-top: 33px;""><img src=""images/choice_trial_6.png"" style=""width: 408px; height: 417px; margin-right: 200px;""><img src=""images/choice_trial_15.png"" style=""width: 408px; height: 417px;""></div></div>","j","delaylearn","learning","trial","63d9cfec2060a424e3495756","nBde0CLg4pNtltQrsbhTyvsc0Rr1","5","images/choice_trial_6.png","images/choice_trial_15.png","images/pattern_1.png","f","f","7000","6","15","1","0","28","0","0","15","140","","","","",""
"html-keyboard-response","156","327348","0.0-65.0-1.0","","null","<div style=""display: flex; flex-direction: column; align-items: center; margin-top: -40px;""><img src=""images/pattern_1.png"" style=""width: 234px; height: 230px; margin-top: -50px;""><div style=""display: flex; justify-content: space-between; margin-top: 33px;""><img src=""images/choice_trial_15.png"" style=""width: 408px; height: 417px; margin-left:608px;""></div></div>","null","delaylearn","learning","display_response","63d9cfec2060a424e3495756","nBde0CLg4pNtltQrsbhTyvsc0Rr1","","","","","","","","","","","","","","","","","chosen stimuli: images/choice_trial_15.png","","","",""
"html-keyboard-response","157","334365","0.0-65.0-2.0","","null","","null","delaylearn","learning","feedback_duration_window","63d9cfec2060a424e3495756","nBde0CLg4pNtltQrsbhTyvsc0Rr1","","","","","","","","","","","","","","","","","","7000","","",""
"html-keyboard-response","158","335869","0.0-65.0-3.0","","null","<div style='margin:auto;width: auto; font-size: 150%'><span style='font-weight: bold; font-size: 100px; color: red;'>0 points!</span><br><br></div>","null","delaylearn","learning","feedback_image_window","63d9cfec2060a424e3495756","nBde0CLg4pNtltQrsbhTyvsc0Rr1","","","","","","","","","","","","","","","","","","","","",""
"html-keyboard-response","159","338297","0.0-66.0","","null","<div style=""font-size:100px;"">+</div>","null","delaylearn","learning","ITI","63d9cfec2060a424e3495756","nBde0CLg4pNtltQrsbhTyvsc0Rr1","","","","","","","","","","","","","","","","","","","2414","",""
"html-keyboard-response","160","339261","0.0-67.0-0.0","","961.7999999523163","<div style=""display: flex; flex-direction: column; align-items: center; margin-top: -40px;""><img src=""images/pattern_5.png"" style=""width: 234px; height: 230px; margin-top: -50px;""><div style=""display: flex; justify-content: space-between; margin-top: 33px;""><img src=""images/choice_trial_7.png"" style=""width: 408px; height: 417px; margin-right: 200px;""><img src=""images/choice_trial_13.png"" style=""width: 408px; height: 417px;""></div></div>","f","delaylearn","learning","trial","63d9cfec2060a424e3495756","nBde0CLg4pNtltQrsbhTyvsc0Rr1","5","images/choice_trial_7.png","images/choice_trial_13.png","images/pattern_5.png","f","f","750","7","13","4","0","29","1","1","7","150","","","","",""
"html-keyboard-response","161","340275","0.0-67.0-1.0","","null","<div style=""display: flex; flex-direction: column; align-items: center; margin-top: -40px;""><img src=""images/pattern_5.png"" style=""width: 234px; height: 230px; margin-top: -50px;""><div style=""display: flex; justify-content: space-between; margin-top: 33px;""><img src=""images/choice_trial_7.png"" style=""width: 408px; height: 417px; margin-right: 608px;""></div></div>","null","delaylearn","learning","display_response","63d9cfec2060a424e3495756","nBde0CLg4pNtltQrsbhTyvsc0Rr1","","","","","","","","","","","","","","","","","chosen stimuli: images/choice_trial_7.png","","","",""
"html-keyboard-response","162","341034","0.0-67.0-2.0","","null","","null","delaylearn","learning","feedback_duration_window","63d9cfec2060a424e3495756","nBde0CLg4pNtltQrsbhTyvsc0Rr1","","","","","","","","","","","","","","","","","","750","","",""
"html-keyboard-response","163","342538","0.0-67.0-3.0","","null","<div style='margin:auto;width: auto; font-size: 150%'><span style='font-weight: bold; font-size: 100px; color: green;'>+10 points!</span><br><br></div>","null","delaylearn","learning","feedback_image_window","63d9cfec2060a424e3495756","nBde0CLg4pNtltQrsbhTyvsc0Rr1","","","","","","","","","","","","","","","","","","","","",""
"html-keyboard-response","164","344358","0.0-68.0","","null","<div style=""font-size:100px;"">+</div>","null","delaylearn","learning","ITI","63d9cfec2060a424e3495756","nBde0CLg4pNtltQrsbhTyvsc0Rr1","","","","","","","","","","","","","","","","","","","1800","",""
"html-keyboard-response","165","345709","0.0-69.0-0.0","","1349.9000000953674","<div style=""display: flex; flex-direction: column; align-items: center; margin-top: -40px;""><img src=""images/pattern_6.png"" style=""width: 234px; height: 230px; margin-top: -50px;""><div style=""display: flex; justify-content: space-between; margin-top: 33px;""><img src=""images/choice_trial_9.png"" style=""width: 408px; height: 417px; margin-right: 200px;""><img src=""images/choice_trial_14.png"" style=""width: 408px; height: 417px;""></div></div>","j","delaylearn","learning","trial","63d9cfec2060a424e3495756","nBde0CLg4pNtltQrsbhTyvsc0Rr1","5","images/choice_trial_9.png","images/choice_trial_14.png","images/pattern_6.png","j","j","750","9","14","5","1","30","1","1","14","160","","","","",""
"html-keyboard-response","166","346724","0.0-69.0-1.0","","null","<div style=""display: flex; flex-direction: column; align-items: center; margin-top: -40px;""><img src=""images/pattern_6.png"" style=""width: 234px; height: 230px; margin-top: -50px;""><div style=""display: flex; justify-content: space-between; margin-top: 33px;""><img src=""images/choice_trial_14.png"" style=""width: 408px; height: 417px; margin-left:608px;""></div></div>","null","delaylearn","learning","display_response","63d9cfec2060a424e3495756","nBde0CLg4pNtltQrsbhTyvsc0Rr1","","","","","","","","","","","","","","","","","chosen stimuli: images/choice_trial_14.png","","","",""
"html-keyboard-response","167","347487","0.0-69.0-2.0","","null","","null","delaylearn","learning","feedback_duration_window","63d9cfec2060a424e3495756","nBde0CLg4pNtltQrsbhTyvsc0Rr1","","","","","","","","","","","","","","","","","","750","","",""
"html-keyboard-response","168","348991","0.0-69.0-3.0","","null","<div style='margin:auto;width: auto; font-size: 150%'><span style='font-weight: bold; font-size: 100px; color: green;'>+10 points!</span><br><br></div>","null","delaylearn","learning","feedback_image_window","63d9cfec2060a424e3495756","nBde0CLg4pNtltQrsbhTyvsc0Rr1","","","","","","","","","","","","","","","","","","","","",""
"html-keyboard-response","169","349506","0.0-70.0-0.0","","null","","null","","","mood_trial_fixation","","","","","","","","","","","","","","","","","","","","","","",""
"lmdlab-html-vas-response","170","353309","0.0-70.0-1.0","","2791","How happy are you right now?","0.6717061680119754","delaylearn","learning","mood_trial","63d9cfec2060a424e3495756","nBde0CLg4pNtltQrsbhTyvsc0Rr1","","","","","","","","","","","","","","","","","","","","[""Very unhappy"",""Very happy""]",""
"html-keyboard-response","171","354869","0.0-71.0","","null","<div style=""font-size:100px;"">+</div>","null","delaylearn","learning","ITI","63d9cfec2060a424e3495756","nBde0CLg4pNtltQrsbhTyvsc0Rr1","","","","","","","","","","","","","","","","","","","1550","",""
"html-keyboard-response","172","356424","0.0-72.0-0.0","","1553.6000001430511","<div style=""display: flex; flex-direction: column; align-items: center; margin-top: -40px;""><img src=""images/pattern_4.png"" style=""width: 234px; height: 230px; margin-top: -50px;""><div style=""display: flex; justify-content: space-between; margin-top: 33px;""><img src=""images/choice_trial_4.png"" style=""width: 408px; height: 417px; margin-right: 200px;""><img src=""images/choice_trial_11.png"" style=""width: 408px; height: 417px;""></div></div>","j","delaylearn","learning","trial","63d9cfec2060a424e3495756","nBde0CLg4pNtltQrsbhTyvsc0Rr1","5","images/choice_trial_4.png","images/choice_trial_11.png","images/pattern_4.png","j","j","7000","4","11","3","1","31","1","1","11","170","","","","",""
"html-keyboard-response","173","357438","0.0-72.0-1.0","","null","<div style=""display: flex; flex-direction: column; align-items: center; margin-top: -40px;""><img src=""images/pattern_4.png"" style=""width: 234px; height: 230px; margin-top: -50px;""><div style=""display: flex; justify-content: space-between; margin-top: 33px;""><img src=""images/choice_trial_11.png"" style=""width: 408px; height: 417px; margin-left:608px;""></div></div>","null","delaylearn","learning","display_response","63d9cfec2060a424e3495756","nBde0CLg4pNtltQrsbhTyvsc0Rr1","","","","","","","","","","","","","","","","","chosen stimuli: images/choice_trial_11.png","","","",""
"html-keyboard-response","174","364451","0.0-72.0-2.0","","null","","null","delaylearn","learning","feedback_duration_window","63d9cfec2060a424e3495756","nBde0CLg4pNtltQrsbhTyvsc0Rr1","","","","","","","","","","","","","","","","","","7000","","",""
"html-keyboard-response","175","365966","0.0-72.0-3.0","","null","<div style='margin:auto;width: auto; font-size: 150%'><span style='font-weight: bold; font-size: 100px; color: green;'>+10 points!</span><br><br></div>","null","delaylearn","learning","feedback_image_window","63d9cfec2060a424e3495756","nBde0CLg4pNtltQrsbhTyvsc0Rr1","","","","","","","","","","","","","","","","","","","","",""
"html-keyboard-response","176","367989","0.0-73.0","","null","<div style=""font-size:100px;"">+</div>","null","delaylearn","learning","ITI","63d9cfec2060a424e3495756","nBde0CLg4pNtltQrsbhTyvsc0Rr1","","","","","","","","","","","","","","","","","","","2014","",""
"html-keyboard-response","177","369711","0.0-74.0-0.0","","1719.1000001430511","<div style=""display: flex; flex-direction: column; align-items: center; margin-top: -40px;""><img src=""images/pattern_3.png"" style=""width: 234px; height: 230px; margin-top: -50px;""><div style=""display: flex; justify-content: space-between; margin-top: 33px;""><img src=""images/choice_trial_2.png"" style=""width: 408px; height: 417px; margin-right: 200px;""><img src=""images/choice_trial_16.png"" style=""width: 408px; height: 417px;""></div></div>","f","delaylearn","learning","trial","63d9cfec2060a424e3495756","nBde0CLg4pNtltQrsbhTyvsc0Rr1","5","images/choice_trial_2.png","images/choice_trial_16.png","images/pattern_3.png","j","j","7000","2","16","2","1","32","0","0","2","170","","","","",""
"html-keyboard-response","178","370719","0.0-74.0-1.0","","null","<div style=""display: flex; flex-direction: column; align-items: center; margin-top: -40px;""><img src=""images/pattern_3.png"" style=""width: 234px; height: 230px; margin-top: -50px;""><div style=""display: flex; justify-content: space-between; margin-top: 33px;""><img src=""images/choice_trial_2.png"" style=""width: 408px; height: 417px; margin-right: 608px;""></div></div>","null","delaylearn","learning","display_response","63d9cfec2060a424e3495756","nBde0CLg4pNtltQrsbhTyvsc0Rr1","","","","","","","","","","","","","","","","","chosen stimuli: images/choice_trial_2.png","","","",""
"html-keyboard-response","179","377736","0.0-74.0-2.0","","null","","null","delaylearn","learning","feedback_duration_window","63d9cfec2060a424e3495756","nBde0CLg4pNtltQrsbhTyvsc0Rr1","","","","","","","","","","","","","","","","","","7000","","",""
"html-keyboard-response","180","379241","0.0-74.0-3.0","","null","<div style='margin:auto;width: auto; font-size: 150%'><span style='font-weight: bold; font-size: 100px; color: red;'>0 points!</span><br><br></div>","null","delaylearn","learning","feedback_image_window","63d9cfec2060a424e3495756","nBde0CLg4pNtltQrsbhTyvsc0Rr1","","","","","","","","","","","","","","","","","","","","",""
"html-keyboard-response","181","380826","0.0-75.0","","null","<div style=""font-size:100px;"">+</div>","null","delaylearn","learning","ITI","63d9cfec2060a424e3495756","nBde0CLg4pNtltQrsbhTyvsc0Rr1","","","","","","","","","","","","","","","","","","","1580","",""
"html-keyboard-response","182","381968","0.0-76.0-0.0","","1140.7000000476837","<div style=""display: flex; flex-direction: column; align-items: center; margin-top: -40px;""><img src=""images/pattern_5.png"" style=""width: 234px; height: 230px; margin-top: -50px;""><div style=""display: flex; justify-content: space-between; margin-top: 33px;""><img src=""images/choice_trial_7.png"" style=""width: 408px; height: 417px; margin-right: 200px;""><img src=""images/choice_trial_13.png"" style=""width: 408px; height: 417px;""></div></div>","f","delaylearn","learning","trial","63d9cfec2060a424e3495756","nBde0CLg4pNtltQrsbhTyvsc0Rr1","5","images/choice_trial_7.png","images/choice_trial_13.png","images/pattern_5.png","j","f","750","7","13","4","0","33","1","0","7","170","","","","",""
"html-keyboard-response","183","382983","0.0-76.0-1.0","","null","<div style=""display: flex; flex-direction: column; align-items: center; margin-top: -40px;""><img src=""images/pattern_5.png"" style=""width: 234px; height: 230px; margin-top: -50px;""><div style=""display: flex; justify-content: space-between; margin-top: 33px;""><img src=""images/choice_trial_7.png"" style=""width: 408px; height: 417px; margin-right: 608px;""></div></div>","null","delaylearn","learning","display_response","63d9cfec2060a424e3495756","nBde0CLg4pNtltQrsbhTyvsc0Rr1","","","","","","","","","","","","","","","","","chosen stimuli: images/choice_trial_7.png","","","",""
"html-keyboard-response","184","383744","0.0-76.0-2.0","","null","","null","delaylearn","learning","feedback_duration_window","63d9cfec2060a424e3495756","nBde0CLg4pNtltQrsbhTyvsc0Rr1","","","","","","","","","","","","","","","","","","750","","",""
"html-keyboard-response","185","385250","0.0-76.0-3.0","","null","<div style='margin:auto;width: auto; font-size: 150%'><span style='font-weight: bold; font-size: 100px; color: red;'>0 points!</span><br><br></div>","null","delaylearn","learning","feedback_image_window","63d9cfec2060a424e3495756","nBde0CLg4pNtltQrsbhTyvsc0Rr1","","","","","","","","","","","","","","","","","","","","",""
"html-keyboard-response","186","387311","0.0-77.0","","null","<div style=""font-size:100px;"">+</div>","null","delaylearn","learning","ITI","63d9cfec2060a424e3495756","nBde0CLg4pNtltQrsbhTyvsc0Rr1","","","","","","","","","","","","","","","","","","","2051","",""
"html-keyboard-response","187","388681","0.0-78.0-0.0","","1367.1999998092651","<div style=""display: flex; flex-direction: column; align-items: center; margin-top: -40px;""><img src=""images/pattern_1.png"" style=""width: 234px; height: 230px; margin-top: -50px;""><div style=""display: flex; justify-content: space-between; margin-top: 33px;""><img src=""images/choice_trial_6.png"" style=""width: 408px; height: 417px; margin-right: 200px;""><img src=""images/choice_trial_15.png"" style=""width: 408px; height: 417px;""></div></div>","j","delaylearn","learning","trial","63d9cfec2060a424e3495756","nBde0CLg4pNtltQrsbhTyvsc0Rr1","5","images/choice_trial_6.png","images/choice_trial_15.png","images/pattern_1.png","f","f","7000","6","15","1","0","34","0","0","15","170","","","","",""
"html-keyboard-response","188","389688","0.0-78.0-1.0","","null","<div style=""display: flex; flex-direction: column; align-items: center; margin-top: -40px;""><img src=""images/pattern_1.png"" style=""width: 234px; height: 230px; margin-top: -50px;""><div style=""display: flex; justify-content: space-between; margin-top: 33px;""><img src=""images/choice_trial_15.png"" style=""width: 408px; height: 417px; margin-left:608px;""></div></div>","null","delaylearn","learning","display_response","63d9cfec2060a424e3495756","nBde0CLg4pNtltQrsbhTyvsc0Rr1","","","","","","","","","","","","","","","","","chosen stimuli: images/choice_trial_15.png","","","",""
"html-keyboard-response","189","396698","0.0-78.0-2.0","","null","","null","delaylearn","learning","feedback_duration_window","63d9cfec2060a424e3495756","nBde0CLg4pNtltQrsbhTyvsc0Rr1","","","","","","","","","","","","","","","","","","7000","","",""
"html-keyboard-response","190","398212","0.0-78.0-3.0","","null","<div style='margin:auto;width: auto; font-size: 150%'><span style='font-weight: bold; font-size: 100px; color: red;'>0 points!</span><br><br></div>","null","delaylearn","learning","feedback_image_window","63d9cfec2060a424e3495756","nBde0CLg4pNtltQrsbhTyvsc0Rr1","","","","","","","","","","","","","","","","","","","","",""
"html-keyboard-response","191","398723","0.0-79.0-0.0","","null","","null","","","mood_trial_fixation","","","","","","","","","","","","","","","","","","","","","","",""
"lmdlab-html-vas-response","192","402486","0.0-79.0-1.0","","2751","How happy are you right now?","0.47494691801909844","delaylearn","learning","mood_trial","63d9cfec2060a424e3495756","nBde0CLg4pNtltQrsbhTyvsc0Rr1","","","","","","","","","","","","","","","","","","","","[""Very unhappy"",""Very happy""]",""
"html-keyboard-response","193","404207","0.0-80.0","","null","<div style=""font-size:100px;"">+</div>","null","delaylearn","learning","ITI","63d9cfec2060a424e3495756","nBde0CLg4pNtltQrsbhTyvsc0Rr1","","","","","","","","","","","","","","","","","","","1718","",""
"html-keyboard-response","194","406052","0.0-81.0-0.0","","1843.2000000476837","<div style=""display: flex; flex-direction: column; align-items: center; margin-top: -40px;""><img src=""images/pattern_6.png"" style=""width: 234px; height: 230px; margin-top: -50px;""><div style=""display: flex; justify-content: space-between; margin-top: 33px;""><img src=""images/choice_trial_14.png"" style=""width: 408px; height: 417px; margin-right: 200px;""><img src=""images/choice_trial_9.png"" style=""width: 408px; height: 417px;""></div></div>","f","delaylearn","learning","trial","63d9cfec2060a424e3495756","nBde0CLg4pNtltQrsbhTyvsc0Rr1","5","images/choice_trial_14.png","images/choice_trial_9.png","images/pattern_6.png","j","f","750","14","9","5","0","35","1","0","14","170","","","","",""
"html-keyboard-response","195","407059","0.0-81.0-1.0","","null","<div style=""display: flex; flex-direction: column; align-items: center; margin-top: -40px;""><img src=""images/pattern_6.png"" style=""width: 234px; height: 230px; margin-top: -50px;""><div style=""display: flex; justify-content: space-between; margin-top: 33px;""><img src=""images/choice_trial_14.png"" style=""width: 408px; height: 417px; margin-right: 608px;""></div></div>","null","delaylearn","learning","display_response","63d9cfec2060a424e3495756","nBde0CLg4pNtltQrsbhTyvsc0Rr1","","","","","","","","","","","","","","","","","chosen stimuli: images/choice_trial_14.png","","","",""
"html-keyboard-response","196","407820","0.0-81.0-2.0","","null","","null","delaylearn","learning","feedback_duration_window","63d9cfec2060a424e3495756","nBde0CLg4pNtltQrsbhTyvsc0Rr1","","","","","","","","","","","","","","","","","","750","","",""
"html-keyboard-response","197","409329","0.0-81.0-3.0","","null","<div style='margin:auto;width: auto; font-size: 150%'><span style='font-weight: bold; font-size: 100px; color: red;'>0 points!</span><br><br></div>","null","delaylearn","learning","feedback_image_window","63d9cfec2060a424e3495756","nBde0CLg4pNtltQrsbhTyvsc0Rr1","","","","","","","","","","","","","","","","","","","","",""
"html-keyboard-response","198","411051","0.0-82.0","","null","<div style=""font-size:100px;"">+</div>","null","delaylearn","learning","ITI","63d9cfec2060a424e3495756","nBde0CLg4pNtltQrsbhTyvsc0Rr1","","","","","","","","","","","","","","","","","","","1720","",""
"html-keyboard-response","199","411968","0.0-83.0-0.0","","915.7999999523163","<div style=""display: flex; flex-direction: column; align-items: center; margin-top: -40px;""><img src=""images/pattern_3.png"" style=""width: 234px; height: 230px; margin-top: -50px;""><div style=""display: flex; justify-content: space-between; margin-top: 33px;""><img src=""images/choice_trial_2.png"" style=""width: 408px; height: 417px; margin-right: 200px;""><img src=""images/choice_trial_16.png"" style=""width: 408px; height: 417px;""></div></div>","f","delaylearn","learning","trial","63d9cfec2060a424e3495756","nBde0CLg4pNtltQrsbhTyvsc0Rr1","5","images/choice_trial_2.png","images/choice_trial_16.png","images/pattern_3.png","j","j","7000","2","16","2","1","36","0","0","2","170","","","","",""
"html-keyboard-response","200","412984","0.0-83.0-1.0","","null","<div style=""display: flex; flex-direction: column; align-items: center; margin-top: -40px;""><img src=""images/pattern_3.png"" style=""width: 234px; height: 230px; margin-top: -50px;""><div style=""display: flex; justify-content: space-between; margin-top: 33px;""><img src=""images/choice_trial_2.png"" style=""width: 408px; height: 417px; margin-right: 608px;""></div></div>","null","delaylearn","learning","display_response","63d9cfec2060a424e3495756","nBde0CLg4pNtltQrsbhTyvsc0Rr1","","","","","","","","","","","","","","","","","chosen stimuli: images/choice_trial_2.png","","","",""
"html-keyboard-response","201","420001","0.0-83.0-2.0","","null","","null","delaylearn","learning","feedback_duration_window","63d9cfec2060a424e3495756","nBde0CLg4pNtltQrsbhTyvsc0Rr1","","","","","","","","","","","","","","","","","","7000","","",""
"html-keyboard-response","202","421510","0.0-83.0-3.0","","null","<div style='margin:auto;width: auto; font-size: 150%'><span style='font-weight: bold; font-size: 100px; color: red;'>0 points!</span><br><br></div>","null","delaylearn","learning","feedback_image_window","63d9cfec2060a424e3495756","nBde0CLg4pNtltQrsbhTyvsc0Rr1","","","","","","","","","","","","","","","","","","","","",""
"html-keyboard-response","203","423981","0.0-84.0","","null","<div style=""font-size:100px;"">+</div>","null","delaylearn","learning","ITI","63d9cfec2060a424e3495756","nBde0CLg4pNtltQrsbhTyvsc0Rr1","","","","","","","","","","","","","","","","","","","2456","",""
"html-keyboard-response","204","424927","0.0-85.0-0.0","","944.2000000476837","<div style=""display: flex; flex-direction: column; align-items: center; margin-top: -40px;""><img src=""images/pattern_4.png"" style=""width: 234px; height: 230px; margin-top: -50px;""><div style=""display: flex; justify-content: space-between; margin-top: 33px;""><img src=""images/choice_trial_4.png"" style=""width: 408px; height: 417px; margin-right: 200px;""><img src=""images/choice_trial_11.png"" style=""width: 408px; height: 417px;""></div></div>","j","delaylearn","learning","trial","63d9cfec2060a424e3495756","nBde0CLg4pNtltQrsbhTyvsc0Rr1","5","images/choice_trial_4.png","images/choice_trial_11.png","images/pattern_4.png","f","j","7000","4","11","3","1","37","1","0","11","170","","","","",""
"html-keyboard-response","205","425935","0.0-85.0-1.0","","null","<div style=""display: flex; flex-direction: column; align-items: center; margin-top: -40px;""><img src=""images/pattern_4.png"" style=""width: 234px; height: 230px; margin-top: -50px;""><div style=""display: flex; justify-content: space-between; margin-top: 33px;""><img src=""images/choice_trial_11.png"" style=""width: 408px; height: 417px; margin-left:608px;""></div></div>","null","delaylearn","learning","display_response","63d9cfec2060a424e3495756","nBde0CLg4pNtltQrsbhTyvsc0Rr1","","","","","","","","","","","","","","","","","chosen stimuli: images/choice_trial_11.png","","","",""
"html-keyboard-response","206","432939","0.0-85.0-2.0","","null","","null","delaylearn","learning","feedback_duration_window","63d9cfec2060a424e3495756","nBde0CLg4pNtltQrsbhTyvsc0Rr1","","","","","","","","","","","","","","","","","","7000","","",""
"html-keyboard-response","207","434446","0.0-85.0-3.0","","null","<div style='margin:auto;width: auto; font-size: 150%'><span style='font-weight: bold; font-size: 100px; color: red;'>0 points!</span><br><br></div>","null","delaylearn","learning","feedback_image_window","63d9cfec2060a424e3495756","nBde0CLg4pNtltQrsbhTyvsc0Rr1","","","","","","","","","","","","","","","","","","","","",""
"html-keyboard-response","208","436403","0.0-86.0","","null","<div style=""font-size:100px;"">+</div>","null","delaylearn","learning","ITI","63d9cfec2060a424e3495756","nBde0CLg4pNtltQrsbhTyvsc0Rr1","","","","","","","","","","","","","","","","","","","1944","",""
"html-keyboard-response","209","438038","0.0-87.0-0.0","","1632.7000000476837","<div style=""display: flex; flex-direction: column; align-items: center; margin-top: -40px;""><img src=""images/pattern_7.png"" style=""width: 234px; height: 230px; margin-top: -50px;""><div style=""display: flex; justify-content: space-between; margin-top: 33px;""><img src=""images/choice_trial_8.png"" style=""width: 408px; height: 417px; margin-right: 200px;""><img src=""images/choice_trial_10.png"" style=""width: 408px; height: 417px;""></div></div>","j","delaylearn","learning","trial","63d9cfec2060a424e3495756","nBde0CLg4pNtltQrsbhTyvsc0Rr1","5","images/choice_trial_8.png","images/choice_trial_10.png","images/pattern_7.png","f","f","750","8","10","6","0","38","0","0","10","170","","","","",""
"html-keyboard-response","210","439052","0.0-87.0-1.0","","null","<div style=""display: flex; flex-direction: column; align-items: center; margin-top: -40px;""><img src=""images/pattern_7.png"" style=""width: 234px; height: 230px; margin-top: -50px;""><div style=""display: flex; justify-content: space-between; margin-top: 33px;""><img src=""images/choice_trial_10.png"" style=""width: 408px; height: 417px; margin-left:608px;""></div></div>","null","delaylearn","learning","display_response","63d9cfec2060a424e3495756","nBde0CLg4pNtltQrsbhTyvsc0Rr1","","","","","","","","","","","","","","","","","chosen stimuli: images/choice_trial_10.png","","","",""
"html-keyboard-response","211","439811","0.0-87.0-2.0","","null","","null","delaylearn","learning","feedback_duration_window","63d9cfec2060a424e3495756","nBde0CLg4pNtltQrsbhTyvsc0Rr1","","","","","","","","","","","","","","","","","","750","","",""
"html-keyboard-response","212","441316","0.0-87.0-3.0","","null","<div style='margin:auto;width: auto; font-size: 150%'><span style='font-weight: bold; font-size: 100px; color: red;'>0 points!</span><br><br></div>","null","delaylearn","learning","feedback_image_window","63d9cfec2060a424e3495756","nBde0CLg4pNtltQrsbhTyvsc0Rr1","","","","","","","","","","","","","","","","","","","","",""
"html-keyboard-response","213","443800","0.0-88.0","","null","<div style=""font-size:100px;"">+</div>","null","delaylearn","learning","ITI","63d9cfec2060a424e3495756","nBde0CLg4pNtltQrsbhTyvsc0Rr1","","","","","","","","","","","","","","","","","","","2475","",""
"html-keyboard-response","214","445132","0.0-89.0-0.0","","1329.2000000476837","<div style=""display: flex; flex-direction: column; align-items: center; margin-top: -40px;""><img src=""images/pattern_1.png"" style=""width: 234px; height: 230px; margin-top: -50px;""><div style=""display: flex; justify-content: space-between; margin-top: 33px;""><img src=""images/choice_trial_6.png"" style=""width: 408px; height: 417px; margin-right: 200px;""><img src=""images/choice_trial_15.png"" style=""width: 408px; height: 417px;""></div></div>","f","delaylearn","learning","trial","63d9cfec2060a424e3495756","nBde0CLg4pNtltQrsbhTyvsc0Rr1","5","images/choice_trial_6.png","images/choice_trial_15.png","images/pattern_1.png","f","f","7000","6","15","1","0","39","1","1","6","180","","","","",""
"html-keyboard-response","215","446140","0.0-89.0-1.0","","null","<div style=""display: flex; flex-direction: column; align-items: center; margin-top: -40px;""><img src=""images/pattern_1.png"" style=""width: 234px; height: 230px; margin-top: -50px;""><div style=""display: flex; justify-content: space-between; margin-top: 33px;""><img src=""images/choice_trial_6.png"" style=""width: 408px; height: 417px; margin-right: 608px;""></div></div>","null","delaylearn","learning","display_response","63d9cfec2060a424e3495756","nBde0CLg4pNtltQrsbhTyvsc0Rr1","","","","","","","","","","","","","","","","","chosen stimuli: images/choice_trial_6.png","","","",""
"html-keyboard-response","216","453152","0.0-89.0-2.0","","null","","null","delaylearn","learning","feedback_duration_window","63d9cfec2060a424e3495756","nBde0CLg4pNtltQrsbhTyvsc0Rr1","","","","","","","","","","","","","","","","","","7000","","",""
"html-keyboard-response","217","454665","0.0-89.0-3.0","","null","<div style='margin:auto;width: auto; font-size: 150%'><span style='font-weight: bold; font-size: 100px; color: green;'>+10 points!</span><br><br></div>","null","delaylearn","learning","feedback_image_window","63d9cfec2060a424e3495756","nBde0CLg4pNtltQrsbhTyvsc0Rr1","","","","","","","","","","","","","","","","","","","","",""
"html-keyboard-response","218","455173","0.0-90.0-0.0","","null","","null","","","mood_trial_fixation","","","","","","","","","","","","","","","","","","","","","","",""
"lmdlab-html-vas-response","219","461140","0.0-90.0-1.0","","4955","How happy are you right now?","0.43829568517728806","delaylearn","learning","mood_trial","63d9cfec2060a424e3495756","nBde0CLg4pNtltQrsbhTyvsc0Rr1","","","","","","","","","","","","","","","","","","","","[""Very unhappy"",""Very happy""]",""
"html-keyboard-response","220","463438","0.0-91.0","","null","<div style=""font-size:100px;"">+</div>","null","delaylearn","learning","ITI","63d9cfec2060a424e3495756","nBde0CLg4pNtltQrsbhTyvsc0Rr1","","","","","","","","","","","","","","","","","","","2290","",""
