"trial_type","trial_index","time_elapsed","internal_node_id","participant","rt","stimulus","response","exp_name","exp_stage","test_part","subjectID","databaseID","counterbal","choice_stimuli_1","choice_stimuli_2","pattern_stimuli","rewarded_answer","correct_answer","feedback_duration_times","stim_left","stim_right","pair","leftright_counter","trial","response_correct","response_rewarded","chosen_stim","counter","displayed_choice","feedback_durations","ITI_duration","labels","rest_warning"
"pavlovia","0","555","0.0-0.0","","","","","","","","","","","","","","","","","","","","","","","","","","","","","",""
"html-keyboard-response","1","3563","0.0-1.0","","null","<div style=""font-size:100px;"">+</div>","null","delaylearn","learning","pre_fixation","616f3496967585b2c7b39d2e","","","","","","","","","","","","","","","","","","","","","",""
"html-keyboard-response","2","5261","0.0-2.0-0.0","","1696.7000000029802","<div style=""display: flex; flex-direction: column; align-items: center; margin-top: -40px;""><img src=""images/demo_images/pattern_1.png"" style=""width: 234px; height: 230px; margin-top: -50px;""><div style=""display: flex; justify-content: space-between; margin-top: 33px;""><img src=""images/demo_images/choice_trial_2.png"" style=""width: 408px; height: 417px; margin-right: 200px;""><img src=""images/demo_images/choice_trial_1.png"" style=""width: 408px; height: 417px;""></div></div>","j","delaylearn","learning","trial","616f3496967585b2c7b39d2e","fLmqTduZKDguCjceD6XBndhkK9R2","2","images/demo_images/choice_trial_2.png","images/demo_images/choice_trial_1.png","images/demo_images/pattern_1.png","j","j","3000","2","1","20","1","1","1","1","1","10","","","","",""
"html-keyboard-response","3","6272","0.0-2.0-1.0","","null","<div style=""display: flex; flex-direction: column; align-items: center; margin-top: -40px;""><img src=""images/demo_images/pattern_1.png"" style=""width: 234px; height: 230px; margin-top: -50px;""><div style=""display: flex; justify-content: space-between; margin-top: 33px;""><img src=""images/demo_images/choice_trial_1.png"" style=""width: 408px; height: 417px; margin-left:608px;""></div></div>","null","delaylearn","learning","display_response","616f3496967585b2c7b39d2e","fLmqTduZKDguCjceD6XBndhkK9R2","","","","","","","","","","","","","","","","","chosen stimuli: images/demo_images/choice_trial_1.png","","","",""
"html-keyboard-response","4","9277","0.0-2.0-2.0","","null","","null","delaylearn","learning","feedback_duration_window","616f3496967585b2c7b39d2e","fLmqTduZKDguCjceD6XBndhkK9R2","","","","","","","","","","","","","","","","","","3000","","",""
"html-keyboard-response","5","10778","0.0-2.0-3.0","","null","<div style='margin:auto;width: auto; font-size: 150%'><span style='font-weight: bold; font-size: 100px; color: green;'>+10 points!</span><br><br></div>","null","delaylearn","learning","feedback_image_window","616f3496967585b2c7b39d2e","fLmqTduZKDguCjceD6XBndhkK9R2","","","","","","","","","","","","","","","","","","","","",""
"html-keyboard-response","6","12559","0.0-3.0","","null","<div style=""font-size:100px;"">+</div>","null","delaylearn","learning","ITI","616f3496967585b2c7b39d2e","fLmqTduZKDguCjceD6XBndhkK9R2","","","","","","","","","","","","","","","","","","","1772","",""
"html-keyboard-response","7","13173","0.0-4.0-0.0","","611.8999999910593","<div style=""display: flex; flex-direction: column; align-items: center; margin-top: -40px;""><img src=""images/demo_images/pattern_1.png"" style=""width: 234px; height: 230px; margin-top: -50px;""><div style=""display: flex; justify-content: space-between; margin-top: 33px;""><img src=""images/demo_images/choice_trial_2.png"" style=""width: 408px; height: 417px; margin-right: 200px;""><img src=""images/demo_images/choice_trial_1.png"" style=""width: 408px; height: 417px;""></div></div>","j","delaylearn","learning","trial","616f3496967585b2c7b39d2e","fLmqTduZKDguCjceD6XBndhkK9R2","2","images/demo_images/choice_trial_2.png","images/demo_images/choice_trial_1.png","images/demo_images/pattern_1.png","j","j","3000","2","1","20","1","2","1","1","1","20","","","","",""
"html-keyboard-response","8","14188","0.0-4.0-1.0","","null","<div style=""display: flex; flex-direction: column; align-items: center; margin-top: -40px;""><img src=""images/demo_images/pattern_1.png"" style=""width: 234px; height: 230px; margin-top: -50px;""><div style=""display: flex; justify-content: space-between; margin-top: 33px;""><img src=""images/demo_images/choice_trial_1.png"" style=""width: 408px; height: 417px; margin-left:608px;""></div></div>","null","delaylearn","learning","display_response","616f3496967585b2c7b39d2e","fLmqTduZKDguCjceD6XBndhkK9R2","","","","","","","","","","","","","","","","","chosen stimuli: images/demo_images/choice_trial_1.png","","","",""
"html-keyboard-response","9","17201","0.0-4.0-2.0","","null","","null","delaylearn","learning","feedback_duration_window","616f3496967585b2c7b39d2e","fLmqTduZKDguCjceD6XBndhkK9R2","","","","","","","","","","","","","","","","","","3000","","",""
"html-keyboard-response","10","18717","0.0-4.0-3.0","","null","<div style='margin:auto;width: auto; font-size: 150%'><span style='font-weight: bold; font-size: 100px; color: green;'>+10 points!</span><br><br></div>","null","delaylearn","learning","feedback_image_window","616f3496967585b2c7b39d2e","fLmqTduZKDguCjceD6XBndhkK9R2","","","","","","","","","","","","","","","","","","","","",""
"html-keyboard-response","11","20854","0.0-5.0","","null","<div style=""font-size:100px;"">+</div>","null","delaylearn","learning","ITI","616f3496967585b2c7b39d2e","fLmqTduZKDguCjceD6XBndhkK9R2","","","","","","","","","","","","","","","","","","","2134","",""
"html-keyboard-response","12","21413","0.0-6.0-0.0","","556.5999999940395","<div style=""display: flex; flex-direction: column; align-items: center; margin-top: -40px;""><img src=""images/demo_images/pattern_1.png"" style=""width: 234px; height: 230px; margin-top: -50px;""><div style=""display: flex; justify-content: space-between; margin-top: 33px;""><img src=""images/demo_images/choice_trial_1.png"" style=""width: 408px; height: 417px; margin-right: 200px;""><img src=""images/demo_images/choice_trial_2.png"" style=""width: 408px; height: 417px;""></div></div>","f","delaylearn","learning","trial","616f3496967585b2c7b39d2e","fLmqTduZKDguCjceD6XBndhkK9R2","2","images/demo_images/choice_trial_1.png","images/demo_images/choice_trial_2.png","images/demo_images/pattern_1.png","j","f","3000","1","2","20","0","3","1","0","1","20","","","","",""
"html-keyboard-response","13","22417","0.0-6.0-1.0","","null","<div style=""display: flex; flex-direction: column; align-items: center; margin-top: -40px;""><img src=""images/demo_images/pattern_1.png"" style=""width: 234px; height: 230px; margin-top: -50px;""><div style=""display: flex; justify-content: space-between; margin-top: 33px;""><img src=""images/demo_images/choice_trial_1.png"" style=""width: 408px; height: 417px; margin-right: 608px;""></div></div>","null","delaylearn","learning","display_response","616f3496967585b2c7b39d2e","fLmqTduZKDguCjceD6XBndhkK9R2","","","","","","","","","","","","","","","","","chosen stimuli: images/demo_images/choice_trial_1.png","","","",""
"html-keyboard-response","14","25427","0.0-6.0-2.0","","null","","null","delaylearn","learning","feedback_duration_window","616f3496967585b2c7b39d2e","fLmqTduZKDguCjceD6XBndhkK9R2","","","","","","","","","","","","","","","","","","3000","","",""
"html-keyboard-response","15","26942","0.0-6.0-3.0","","null","<div style='margin:auto;width: auto; font-size: 150%'><span style='font-weight: bold; font-size: 100px; color: red;'>0 points!</span><br><br></div>","null","delaylearn","learning","feedback_image_window","616f3496967585b2c7b39d2e","fLmqTduZKDguCjceD6XBndhkK9R2","","","","","","","","","","","","","","","","","","","","",""
"html-keyboard-response","16","29043","0.0-7.0","","null","<div style=""font-size:100px;"">+</div>","null","delaylearn","learning","ITI","616f3496967585b2c7b39d2e","fLmqTduZKDguCjceD6XBndhkK9R2","","","","","","","","","","","","","","","","","","","2086","",""
"html-keyboard-response","17","29693","0.0-8.0-0.0","","648","<div style=""display: flex; flex-direction: column; align-items: center; margin-top: -40px;""><img src=""images/demo_images/pattern_1.png"" style=""width: 234px; height: 230px; margin-top: -50px;""><div style=""display: flex; justify-content: space-between; margin-top: 33px;""><img src=""images/demo_images/choice_trial_1.png"" style=""width: 408px; height: 417px; margin-right: 200px;""><img src=""images/demo_images/choice_trial_2.png"" style=""width: 408px; height: 417px;""></div></div>","j","delaylearn","learning","trial","616f3496967585b2c7b39d2e","fLmqTduZKDguCjceD6XBndhkK9R2","2","images/demo_images/choice_trial_1.png","images/demo_images/choice_trial_2.png","images/demo_images/pattern_1.png","f","f","3000","1","2","20","0","4","0","0","2","20","","","","",""
"html-keyboard-response","18","30706","0.0-8.0-1.0","","null","<div style=""display: flex; flex-direction: column; align-items: center; margin-top: -40px;""><img src=""images/demo_images/pattern_1.png"" style=""width: 234px; height: 230px; margin-top: -50px;""><div style=""display: flex; justify-content: space-between; margin-top: 33px;""><img src=""images/demo_images/choice_trial_2.png"" style=""width: 408px; height: 417px; margin-left:608px;""></div></div>","null","delaylearn","learning","display_response","616f3496967585b2c7b39d2e","fLmqTduZKDguCjceD6XBndhkK9R2","","","","","","","","","","","","","","","","","chosen stimuli: images/demo_images/choice_trial_2.png","","","",""
"html-keyboard-response","19","33717","0.0-8.0-2.0","","null","","null","delaylearn","learning","feedback_duration_window","616f3496967585b2c7b39d2e","fLmqTduZKDguCjceD6XBndhkK9R2","","","","","","","","","","","","","","","","","","3000","","",""
"html-keyboard-response","20","35233","0.0-8.0-3.0","","null","<div style='margin:auto;width: auto; font-size: 150%'><span style='font-weight: bold; font-size: 100px; color: red;'>0 points!</span><br><br></div>","null","delaylearn","learning","feedback_image_window","616f3496967585b2c7b39d2e","fLmqTduZKDguCjceD6XBndhkK9R2","","","","","","","","","","","","","","","","","","","","",""
"html-keyboard-response","21","35745","0.0-9.0-0.0","","null","","null","","","mood_trial_fixation","","","","","","","","","","","","","","","","","","","","","","",""
"lmdlab-html-vas-response","22","40317","0.0-9.0-1.0","","3555","How happy are you right now?","0.22376543209876543","delaylearn","learning","mood_trial","616f3496967585b2c7b39d2e","fLmqTduZKDguCjceD6XBndhkK9R2","","","","","","","","","","","","","","","","","","","","[""Very unhappy"",""Very happy""]",""
"html-keyboard-response","23","41880","0.0-10.0","","null","<div style=""font-size:100px;"">+</div>","null","delaylearn","learning","ITI","616f3496967585b2c7b39d2e","fLmqTduZKDguCjceD6XBndhkK9R2","","","","","","","","","","","","","","","","","","","1558","",""
"html-keyboard-response","24","42493","0.0-11.0-0.0","","610.5","<div style=""display: flex; flex-direction: column; align-items: center; margin-top: -40px;""><img src=""images/demo_images/pattern_1.png"" style=""width: 234px; height: 230px; margin-top: -50px;""><div style=""display: flex; justify-content: space-between; margin-top: 33px;""><img src=""images/demo_images/choice_trial_2.png"" style=""width: 408px; height: 417px; margin-right: 200px;""><img src=""images/demo_images/choice_trial_1.png"" style=""width: 408px; height: 417px;""></div></div>","j","delaylearn","learning","trial","616f3496967585b2c7b39d2e","fLmqTduZKDguCjceD6XBndhkK9R2","2","images/demo_images/choice_trial_2.png","images/demo_images/choice_trial_1.png","images/demo_images/pattern_1.png","j","j","3000","2","1","20","1","5","1","1","1","30","","","","",""
"html-keyboard-response","25","43506","0.0-11.0-1.0","","null","<div style=""display: flex; flex-direction: column; align-items: center; margin-top: -40px;""><img src=""images/demo_images/pattern_1.png"" style=""width: 234px; height: 230px; margin-top: -50px;""><div style=""display: flex; justify-content: space-between; margin-top: 33px;""><img src=""images/demo_images/choice_trial_1.png"" style=""width: 408px; height: 417px; margin-left:608px;""></div></div>","null","delaylearn","learning","display_response","616f3496967585b2c7b39d2e","fLmqTduZKDguCjceD6XBndhkK9R2","","","","","","","","","","","","","","","","","chosen stimuli: images/demo_images/choice_trial_1.png","","","",""
"html-keyboard-response","26","46514","0.0-11.0-2.0","","null","","null","delaylearn","learning","feedback_duration_window","616f3496967585b2c7b39d2e","fLmqTduZKDguCjceD6XBndhkK9R2","","","","","","","","","","","","","","","","","","3000","","",""
"html-keyboard-response","27","48021","0.0-11.0-3.0","","null","<div style='margin:auto;width: auto; font-size: 150%'><span style='font-weight: bold; font-size: 100px; color: green;'>+10 points!</span><br><br></div>","null","delaylearn","learning","feedback_image_window","616f3496967585b2c7b39d2e","fLmqTduZKDguCjceD6XBndhkK9R2","","","","","","","","","","","","","","","","","","","","",""
"html-keyboard-response","28","50322","0.0-12.0","","null","<div style=""font-size:100px;"">+</div>","null","delaylearn","learning","ITI","616f3496967585b2c7b39d2e","fLmqTduZKDguCjceD6XBndhkK9R2","","","","","","","","","","","","","","","","","","","2293","",""
"html-keyboard-response","29","50933","0.0-13.0-0.0","","609.7999999970198","<div style=""display: flex; flex-direction: column; align-items: center; margin-top: -40px;""><img src=""images/demo_images/pattern_1.png"" style=""width: 234px; height: 230px; margin-top: -50px;""><div style=""display: flex; justify-content: space-between; margin-top: 33px;""><img src=""images/demo_images/choice_trial_1.png"" style=""width: 408px; height: 417px; margin-right: 200px;""><img src=""images/demo_images/choice_trial_2.png"" style=""width: 408px; height: 417px;""></div></div>","f","delaylearn","learning","trial","616f3496967585b2c7b39d2e","fLmqTduZKDguCjceD6XBndhkK9R2","2","images/demo_images/choice_trial_1.png","images/demo_images/choice_trial_2.png","images/demo_images/pattern_1.png","f","f","3000","1","2","20","0","6","1","1","1","40","","","","",""
"html-keyboard-response","30","51950","0.0-13.0-1.0","","null","<div style=""display: flex; flex-direction: column; align-items: center; margin-top: -40px;""><img src=""images/demo_images/pattern_1.png"" style=""width: 234px; height: 230px; margin-top: -50px;""><div style=""display: flex; justify-content: space-between; margin-top: 33px;""><img src=""images/demo_images/choice_trial_1.png"" style=""width: 408px; height: 417px; margin-right: 608px;""></div></div>","null","delaylearn","learning","display_response","616f3496967585b2c7b39d2e","fLmqTduZKDguCjceD6XBndhkK9R2","","","","","","","","","","","","","","","","","chosen stimuli: images/demo_images/choice_trial_1.png","","","",""
"html-keyboard-response","31","54955","0.0-13.0-2.0","","null","","null","delaylearn","learning","feedback_duration_window","616f3496967585b2c7b39d2e","fLmqTduZKDguCjceD6XBndhkK9R2","","","","","","","","","","","","","","","","","","3000","","",""
"html-keyboard-response","32","56463","0.0-13.0-3.0","","null","<div style='margin:auto;width: auto; font-size: 150%'><span style='font-weight: bold; font-size: 100px; color: green;'>+10 points!</span><br><br></div>","null","delaylearn","learning","feedback_image_window","616f3496967585b2c7b39d2e","fLmqTduZKDguCjceD6XBndhkK9R2","","","","","","","","","","","","","","","","","","","","",""
"html-keyboard-response","33","58603","0.0-14.0","","null","<div style=""font-size:100px;"">+</div>","null","delaylearn","learning","ITI","616f3496967585b2c7b39d2e","fLmqTduZKDguCjceD6XBndhkK9R2","","","","","","","","","","","","","","","","","","","2134","",""
"html-keyboard-response","34","59181","0.0-15.0-0.0","","575.2999999970198","<div style=""display: flex; flex-direction: column; align-items: center; margin-top: -40px;""><img src=""images/demo_images/pattern_1.png"" style=""width: 234px; height: 230px; margin-top: -50px;""><div style=""display: flex; justify-content: space-between; margin-top: 33px;""><img src=""images/demo_images/choice_trial_2.png"" style=""width: 408px; height: 417px; margin-right: 200px;""><img src=""images/demo_images/choice_trial_1.png"" style=""width: 408px; height: 417px;""></div></div>","j","delaylearn","learning","trial","616f3496967585b2c7b39d2e","fLmqTduZKDguCjceD6XBndhkK9R2","2","images/demo_images/choice_trial_2.png","images/demo_images/choice_trial_1.png","images/demo_images/pattern_1.png","j","j","3000","2","1","20","1","7","1","1","1","50","","","","",""
"html-keyboard-response","35","60187","0.0-15.0-1.0","","null","<div style=""display: flex; flex-direction: column; align-items: center; margin-top: -40px;""><img src=""images/demo_images/pattern_1.png"" style=""width: 234px; height: 230px; margin-top: -50px;""><div style=""display: flex; justify-content: space-between; margin-top: 33px;""><img src=""images/demo_images/choice_trial_1.png"" style=""width: 408px; height: 417px; margin-left:608px;""></div></div>","null","delaylearn","learning","display_response","616f3496967585b2c7b39d2e","fLmqTduZKDguCjceD6XBndhkK9R2","","","","","","","","","","","","","","","","","chosen stimuli: images/demo_images/choice_trial_1.png","","","",""
"html-keyboard-response","36","63199","0.0-15.0-2.0","","null","","null","delaylearn","learning","feedback_duration_window","616f3496967585b2c7b39d2e","fLmqTduZKDguCjceD6XBndhkK9R2","","","","","","","","","","","","","","","","","","3000","","",""
"html-keyboard-response","37","64703","0.0-15.0-3.0","","null","<div style='margin:auto;width: auto; font-size: 150%'><span style='font-weight: bold; font-size: 100px; color: green;'>+10 points!</span><br><br></div>","null","delaylearn","learning","feedback_image_window","616f3496967585b2c7b39d2e","fLmqTduZKDguCjceD6XBndhkK9R2","","","","","","","","","","","","","","","","","","","","",""
"html-keyboard-response","38","67135","0.0-16.0","","null","<div style=""font-size:100px;"">+</div>","null","delaylearn","learning","ITI","616f3496967585b2c7b39d2e","fLmqTduZKDguCjceD6XBndhkK9R2","","","","","","","","","","","","","","","","","","","2416","",""
"html-keyboard-response","39","67693","0.0-17.0-0.0","","557","<div style=""display: flex; flex-direction: column; align-items: center; margin-top: -40px;""><img src=""images/demo_images/pattern_1.png"" style=""width: 234px; height: 230px; margin-top: -50px;""><div style=""display: flex; justify-content: space-between; margin-top: 33px;""><img src=""images/demo_images/choice_trial_1.png"" style=""width: 408px; height: 417px; margin-right: 200px;""><img src=""images/demo_images/choice_trial_2.png"" style=""width: 408px; height: 417px;""></div></div>","f","delaylearn","learning","trial","616f3496967585b2c7b39d2e","fLmqTduZKDguCjceD6XBndhkK9R2","2","images/demo_images/choice_trial_1.png","images/demo_images/choice_trial_2.png","images/demo_images/pattern_1.png","f","f","3000","1","2","20","0","8","1","1","1","60","","","","",""
"html-keyboard-response","40","68704","0.0-17.0-1.0","","null","<div style=""display: flex; flex-direction: column; align-items: center; margin-top: -40px;""><img src=""images/demo_images/pattern_1.png"" style=""width: 234px; height: 230px; margin-top: -50px;""><div style=""display: flex; justify-content: space-between; margin-top: 33px;""><img src=""images/demo_images/choice_trial_1.png"" style=""width: 408px; height: 417px; margin-right: 608px;""></div></div>","null","delaylearn","learning","display_response","616f3496967585b2c7b39d2e","fLmqTduZKDguCjceD6XBndhkK9R2","","","","","","","","","","","","","","","","","chosen stimuli: images/demo_images/choice_trial_1.png","","","",""
"html-keyboard-response","41","71717","0.0-17.0-2.0","","null","","null","delaylearn","learning","feedback_duration_window","616f3496967585b2c7b39d2e","fLmqTduZKDguCjceD6XBndhkK9R2","","","","","","","","","","","","","","","","","","3000","","",""
"html-keyboard-response","42","73223","0.0-17.0-3.0","","null","<div style='margin:auto;width: auto; font-size: 150%'><span style='font-weight: bold; font-size: 100px; color: green;'>+10 points!</span><br><br></div>","null","delaylearn","learning","feedback_image_window","616f3496967585b2c7b39d2e","fLmqTduZKDguCjceD6XBndhkK9R2","","","","","","","","","","","","","","","","","","","","",""
"html-button-response","43","77076","0.0-18.0","","3851.7000000029802","
  <div style=""display: flex; align-items: center; justify-content: center; height: 80vh;"">
  <div>
          <img src=""images/inst_demo_finish.png"" style=""width: 80vw; height:auto;"">
          <br><br>
      </div>
      <br><br>
  </div>","0","","","","","","","","","","","","","","","","","","","","","","","","","",""
"html-keyboard-response","44","81566","0.0-19.0","","4488.29999999702","
  <div style=""display: flex; align-items: center; justify-content: center; height: 80vh;"">
  <div>
          <img src=""images/inst_6.png"" style=""width: 80vw; height:auto;"">
          <br><br>
      </div>
      <br><br>
  </div>","j","","","","","","","","","","","","","","","","","","","","","","","","","",""
"html-keyboard-response","45","84568","0.0-20.0","","null","<div style=""font-size:100px;"">+</div>","null","delaylearn","learning","pre_fixation","616f3496967585b2c7b39d2e","","","","","","","","","","","","","","","","","","","","","",""
"html-keyboard-response","46","86180","0.0-21.0","","null","<div style=""font-size:100px;"">+</div>","null","delaylearn","learning","ITI","616f3496967585b2c7b39d2e","fLmqTduZKDguCjceD6XBndhkK9R2","","","","","","","","","","","","","","","","","","","1611","",""
"html-keyboard-response","47","87429","0.0-22.0-0.0","","1247","<div style=""display: flex; flex-direction: column; align-items: center; margin-top: -40px;""><img src=""images/pattern_3.png"" style=""width: 234px; height: 230px; margin-top: -50px;""><div style=""display: flex; justify-content: space-between; margin-top: 33px;""><img src=""images/choice_trial_12.png"" style=""width: 408px; height: 417px; margin-right: 200px;""><img src=""images/choice_trial_14.png"" style=""width: 408px; height: 417px;""></div></div>","j","delaylearn","learning","trial","616f3496967585b2c7b39d2e","fLmqTduZKDguCjceD6XBndhkK9R2","2","images/choice_trial_12.png","images/choice_trial_14.png","images/pattern_3.png","f","f","7000","12","14","2","0","9","0","0","14","60","","","","",""
"html-keyboard-response","48","88444","0.0-22.0-1.0","","null","<div style=""display: flex; flex-direction: column; align-items: center; margin-top: -40px;""><img src=""images/pattern_3.png"" style=""width: 234px; height: 230px; margin-top: -50px;""><div style=""display: flex; justify-content: space-between; margin-top: 33px;""><img src=""images/choice_trial_14.png"" style=""width: 408px; height: 417px; margin-left:608px;""></div></div>","null","delaylearn","learning","display_response","616f3496967585b2c7b39d2e","fLmqTduZKDguCjceD6XBndhkK9R2","","","","","","","","","","","","","","","","","chosen stimuli: images/choice_trial_14.png","","","",""
"html-keyboard-response","49","95457","0.0-22.0-2.0","","null","","null","delaylearn","learning","feedback_duration_window","616f3496967585b2c7b39d2e","fLmqTduZKDguCjceD6XBndhkK9R2","","","","","","","","","","","","","","","","","","7000","","",""
"html-keyboard-response","50","96961","0.0-22.0-3.0","","null","<div style='margin:auto;width: auto; font-size: 150%'><span style='font-weight: bold; font-size: 100px; color: red;'>0 points!</span><br><br></div>","null","delaylearn","learning","feedback_image_window","616f3496967585b2c7b39d2e","fLmqTduZKDguCjceD6XBndhkK9R2","","","","","","","","","","","","","","","","","","","","",""
"html-keyboard-response","51","98621","0.0-23.0","","null","<div style=""font-size:100px;"">+</div>","null","delaylearn","learning","ITI","616f3496967585b2c7b39d2e","fLmqTduZKDguCjceD6XBndhkK9R2","","","","","","","","","","","","","","","","","","","1653","",""
"html-keyboard-response","52","100174","0.0-24.0-0.0","","1550.5999999940395","<div style=""display: flex; flex-direction: column; align-items: center; margin-top: -40px;""><img src=""images/pattern_7.png"" style=""width: 234px; height: 230px; margin-top: -50px;""><div style=""display: flex; justify-content: space-between; margin-top: 33px;""><img src=""images/choice_trial_15.png"" style=""width: 408px; height: 417px; margin-right: 200px;""><img src=""images/choice_trial_8.png"" style=""width: 408px; height: 417px;""></div></div>","f","delaylearn","learning","trial","616f3496967585b2c7b39d2e","fLmqTduZKDguCjceD6XBndhkK9R2","2","images/choice_trial_15.png","images/choice_trial_8.png","images/pattern_7.png","j","j","750","15","8","6","1","10","0","0","15","60","","","","",""
"html-keyboard-response","53","101188","0.0-24.0-1.0","","null","<div style=""display: flex; flex-direction: column; align-items: center; margin-top: -40px;""><img src=""images/pattern_7.png"" style=""width: 234px; height: 230px; margin-top: -50px;""><div style=""display: flex; justify-content: space-between; margin-top: 33px;""><img src=""images/choice_trial_15.png"" style=""width: 408px; height: 417px; margin-right: 608px;""></div></div>","null","delaylearn","learning","display_response","616f3496967585b2c7b39d2e","fLmqTduZKDguCjceD6XBndhkK9R2","","","","","","","","","","","","","","","","","chosen stimuli: images/choice_trial_15.png","","","",""
"html-keyboard-response","54","101948","0.0-24.0-2.0","","null","","null","delaylearn","learning","feedback_duration_window","616f3496967585b2c7b39d2e","fLmqTduZKDguCjceD6XBndhkK9R2","","","","","","","","","","","","","","","","","","750","","",""
"html-keyboard-response","55","103451","0.0-24.0-3.0","","null","<div style='margin:auto;width: auto; font-size: 150%'><span style='font-weight: bold; font-size: 100px; color: red;'>0 points!</span><br><br></div>","null","delaylearn","learning","feedback_image_window","616f3496967585b2c7b39d2e","fLmqTduZKDguCjceD6XBndhkK9R2","","","","","","","","","","","","","","","","","","","","",""
"html-keyboard-response","56","105379","0.0-25.0","","null","<div style=""font-size:100px;"">+</div>","null","delaylearn","learning","ITI","616f3496967585b2c7b39d2e","fLmqTduZKDguCjceD6XBndhkK9R2","","","","","","","","","","","","","","","","","","","1919","",""
"html-keyboard-response","57","107021","0.0-26.0-0.0","","1640","<div style=""display: flex; flex-direction: column; align-items: center; margin-top: -40px;""><img src=""images/pattern_4.png"" style=""width: 234px; height: 230px; margin-top: -50px;""><div style=""display: flex; justify-content: space-between; margin-top: 33px;""><img src=""images/choice_trial_4.png"" style=""width: 408px; height: 417px; margin-right: 200px;""><img src=""images/choice_trial_16.png"" style=""width: 408px; height: 417px;""></div></div>","f","delaylearn","learning","trial","616f3496967585b2c7b39d2e","fLmqTduZKDguCjceD6XBndhkK9R2","2","images/choice_trial_4.png","images/choice_trial_16.png","images/pattern_4.png","f","f","7000","4","16","3","0","11","1","1","4","70","","","","",""
"html-keyboard-response","58","108030","0.0-26.0-1.0","","null","<div style=""display: flex; flex-direction: column; align-items: center; margin-top: -40px;""><img src=""images/pattern_4.png"" style=""width: 234px; height: 230px; margin-top: -50px;""><div style=""display: flex; justify-content: space-between; margin-top: 33px;""><img src=""images/choice_trial_4.png"" style=""width: 408px; height: 417px; margin-right: 608px;""></div></div>","null","delaylearn","learning","display_response","616f3496967585b2c7b39d2e","fLmqTduZKDguCjceD6XBndhkK9R2","","","","","","","","","","","","","","","","","chosen stimuli: images/choice_trial_4.png","","","",""
"html-keyboard-response","59","115036","0.0-26.0-2.0","","null","","null","delaylearn","learning","feedback_duration_window","616f3496967585b2c7b39d2e","fLmqTduZKDguCjceD6XBndhkK9R2","","","","","","","","","","","","","","","","","","7000","","",""
"html-keyboard-response","60","116538","0.0-26.0-3.0","","null","<div style='margin:auto;width: auto; font-size: 150%'><span style='font-weight: bold; font-size: 100px; color: green;'>+10 points!</span><br><br></div>","null","delaylearn","learning","feedback_image_window","616f3496967585b2c7b39d2e","fLmqTduZKDguCjceD6XBndhkK9R2","","","","","","","","","","","","","","","","","","","","",""
"html-keyboard-response","61","118450","0.0-27.0","","null","<div style=""font-size:100px;"">+</div>","null","delaylearn","learning","ITI","616f3496967585b2c7b39d2e","fLmqTduZKDguCjceD6XBndhkK9R2","","","","","","","","","","","","","","","","","","","1906","",""
"html-keyboard-response","62","119966","0.0-28.0-0.0","","1514.2000000029802","<div style=""display: flex; flex-direction: column; align-items: center; margin-top: -40px;""><img src=""images/pattern_5.png"" style=""width: 234px; height: 230px; margin-top: -50px;""><div style=""display: flex; justify-content: space-between; margin-top: 33px;""><img src=""images/choice_trial_9.png"" style=""width: 408px; height: 417px; margin-right: 200px;""><img src=""images/choice_trial_2.png"" style=""width: 408px; height: 417px;""></div></div>","f","delaylearn","learning","trial","616f3496967585b2c7b39d2e","fLmqTduZKDguCjceD6XBndhkK9R2","2","images/choice_trial_9.png","images/choice_trial_2.png","images/pattern_5.png","j","j","750","9","2","4","1","12","0","0","9","70","","","","",""
"html-keyboard-response","63","120982","0.0-28.0-1.0","","null","<div style=""display: flex; flex-direction: column; align-items: center; margin-top: -40px;""><img src=""images/pattern_5.png"" style=""width: 234px; height: 230px; margin-top: -50px;""><div style=""display: flex; justify-content: space-between; margin-top: 33px;""><img src=""images/choice_trial_9.png"" style=""width: 408px; height: 417px; margin-right: 608px;""></div></div>","null","delaylearn","learning","display_response","616f3496967585b2c7b39d2e","fLmqTduZKDguCjceD6XBndhkK9R2","","","","","","","","","","","","","","","","","chosen stimuli: images/choice_trial_9.png","","","",""
"html-keyboard-response","64","121742","0.0-28.0-2.0","","null","","null","delaylearn","learning","feedback_duration_window","616f3496967585b2c7b39d2e","fLmqTduZKDguCjceD6XBndhkK9R2","","","","","","","","","","","","","","","","","","750","","",""
"html-keyboard-response","65","123246","0.0-28.0-3.0","","null","<div style='margin:auto;width: auto; font-size: 150%'><span style='font-weight: bold; font-size: 100px; color: red;'>0 points!</span><br><br></div>","null","delaylearn","learning","feedback_image_window","616f3496967585b2c7b39d2e","fLmqTduZKDguCjceD6XBndhkK9R2","","","","","","","","","","","","","","","","","","","","",""
"html-keyboard-response","66","124828","0.0-29.0","","null","<div style=""font-size:100px;"">+</div>","null","delaylearn","learning","ITI","616f3496967585b2c7b39d2e","fLmqTduZKDguCjceD6XBndhkK9R2","","","","","","","","","","","","","","","","","","","1570","",""
"html-keyboard-response","67","126661","0.0-30.0-0.0","","1831.4000000059605","<div style=""display: flex; flex-direction: column; align-items: center; margin-top: -40px;""><img src=""images/pattern_6.png"" style=""width: 234px; height: 230px; margin-top: -50px;""><div style=""display: flex; justify-content: space-between; margin-top: 33px;""><img src=""images/choice_trial_11.png"" style=""width: 408px; height: 417px; margin-right: 200px;""><img src=""images/choice_trial_5.png"" style=""width: 408px; height: 417px;""></div></div>","j","delaylearn","learning","trial","616f3496967585b2c7b39d2e","fLmqTduZKDguCjceD6XBndhkK9R2","2","images/choice_trial_11.png","images/choice_trial_5.png","images/pattern_6.png","j","f","750","11","5","5","0","13","0","1","5","80","","","","",""
"html-keyboard-response","68","127669","0.0-30.0-1.0","","null","<div style=""display: flex; flex-direction: column; align-items: center; margin-top: -40px;""><img src=""images/pattern_6.png"" style=""width: 234px; height: 230px; margin-top: -50px;""><div style=""display: flex; justify-content: space-between; margin-top: 33px;""><img src=""images/choice_trial_5.png"" style=""width: 408px; height: 417px; margin-left:608px;""></div></div>","null","delaylearn","learning","display_response","616f3496967585b2c7b39d2e","fLmqTduZKDguCjceD6XBndhkK9R2","","","","","","","","","","","","","","","","","chosen stimuli: images/choice_trial_5.png","","","",""
"html-keyboard-response","69","128426","0.0-30.0-2.0","","null","","null","delaylearn","learning","feedback_duration_window","616f3496967585b2c7b39d2e","fLmqTduZKDguCjceD6XBndhkK9R2","","","","","","","","","","","","","","","","","","750","","",""
"html-keyboard-response","70","129931","0.0-30.0-3.0","","null","<div style='margin:auto;width: auto; font-size: 150%'><span style='font-weight: bold; font-size: 100px; color: green;'>+10 points!</span><br><br></div>","null","delaylearn","learning","feedback_image_window","616f3496967585b2c7b39d2e","fLmqTduZKDguCjceD6XBndhkK9R2","","","","","","","","","","","","","","","","","","","","",""
"html-keyboard-response","71","130443","0.0-31.0-0.0","","null","","null","","","mood_trial_fixation","","","","","","","","","","","","","","","","","","","","","","",""
"lmdlab-html-vas-response","72","134405","0.0-31.0-1.0","","2949","How happy are you right now?","0.5015432098765432","delaylearn","learning","mood_trial","616f3496967585b2c7b39d2e","fLmqTduZKDguCjceD6XBndhkK9R2","","","","","","","","","","","","","","","","","","","","[""Very unhappy"",""Very happy""]",""
"html-keyboard-response","73","136721","0.0-32.0","","null","<div style=""font-size:100px;"">+</div>","null","delaylearn","learning","ITI","616f3496967585b2c7b39d2e","fLmqTduZKDguCjceD6XBndhkK9R2","","","","","","","","","","","","","","","","","","","2312","",""
"html-keyboard-response","74","138709","0.0-33.0-0.0","","1986.5","<div style=""display: flex; flex-direction: column; align-items: center; margin-top: -40px;""><img src=""images/pattern_1.png"" style=""width: 234px; height: 230px; margin-top: -50px;""><div style=""display: flex; justify-content: space-between; margin-top: 33px;""><img src=""images/choice_trial_10.png"" style=""width: 408px; height: 417px; margin-right: 200px;""><img src=""images/choice_trial_3.png"" style=""width: 408px; height: 417px;""></div></div>","f","delaylearn","learning","trial","616f3496967585b2c7b39d2e","fLmqTduZKDguCjceD6XBndhkK9R2","2","images/choice_trial_10.png","images/choice_trial_3.png","images/pattern_1.png","j","j","7000","10","3","1","1","14","0","0","10","80","","","","",""
"html-keyboard-response","75","139715","0.0-33.0-1.0","","null","<div style=""display: flex; flex-direction: column; align-items: center; margin-top: -40px;""><img src=""images/pattern_1.png"" style=""width: 234px; height: 230px; margin-top: -50px;""><div style=""display: flex; justify-content: space-between; margin-top: 33px;""><img src=""images/choice_trial_10.png"" style=""width: 408px; height: 417px; margin-right: 608px;""></div></div>","null","delaylearn","learning","display_response","616f3496967585b2c7b39d2e","fLmqTduZKDguCjceD6XBndhkK9R2","","","","","","","","","","","","","","","","","chosen stimuli: images/choice_trial_10.png","","","",""
"html-keyboard-response","76","146729","0.0-33.0-2.0","","null","","null","delaylearn","learning","feedback_duration_window","616f3496967585b2c7b39d2e","fLmqTduZKDguCjceD6XBndhkK9R2","","","","","","","","","","","","","","","","","","7000","","",""
"html-keyboard-response","77","148233","0.0-33.0-3.0","","null","<div style='margin:auto;width: auto; font-size: 150%'><span style='font-weight: bold; font-size: 100px; color: red;'>0 points!</span><br><br></div>","null","delaylearn","learning","feedback_image_window","616f3496967585b2c7b39d2e","fLmqTduZKDguCjceD6XBndhkK9R2","","","","","","","","","","","","","","","","","","","","",""
"html-keyboard-response","78","150696","0.0-34.0","","null","<div style=""font-size:100px;"">+</div>","null","delaylearn","learning","ITI","616f3496967585b2c7b39d2e","fLmqTduZKDguCjceD6XBndhkK9R2","","","","","","","","","","","","","","","","","","","2459","",""
"html-keyboard-response","79","151773","0.0-35.0-0.0","","1075.800000011921","<div style=""display: flex; flex-direction: column; align-items: center; margin-top: -40px;""><img src=""images/pattern_3.png"" style=""width: 234px; height: 230px; margin-top: -50px;""><div style=""display: flex; justify-content: space-between; margin-top: 33px;""><img src=""images/choice_trial_14.png"" style=""width: 408px; height: 417px; margin-right: 200px;""><img src=""images/choice_trial_12.png"" style=""width: 408px; height: 417px;""></div></div>","j","delaylearn","learning","trial","616f3496967585b2c7b39d2e","fLmqTduZKDguCjceD6XBndhkK9R2","2","images/choice_trial_14.png","images/choice_trial_12.png","images/pattern_3.png","f","j","7000","14","12","2","1","15","1","0","12","80","","","","",""
"html-keyboard-response","80","152788","0.0-35.0-1.0","","null","<div style=""display: flex; flex-direction: column; align-items: center; margin-top: -40px;""><img src=""images/pattern_3.png"" style=""width: 234px; height: 230px; margin-top: -50px;""><div style=""display: flex; justify-content: space-between; margin-top: 33px;""><img src=""images/choice_trial_12.png"" style=""width: 408px; height: 417px; margin-left:608px;""></div></div>","null","delaylearn","learning","display_response","616f3496967585b2c7b39d2e","fLmqTduZKDguCjceD6XBndhkK9R2","","","","","","","","","","","","","","","","","chosen stimuli: images/choice_trial_12.png","","","",""
"html-keyboard-response","81","159791","0.0-35.0-2.0","","null","","null","delaylearn","learning","feedback_duration_window","616f3496967585b2c7b39d2e","fLmqTduZKDguCjceD6XBndhkK9R2","","","","","","","","","","","","","","","","","","7000","","",""
"html-keyboard-response","82","161294","0.0-35.0-3.0","","null","<div style='margin:auto;width: auto; font-size: 150%'><span style='font-weight: bold; font-size: 100px; color: red;'>0 points!</span><br><br></div>","null","delaylearn","learning","feedback_image_window","616f3496967585b2c7b39d2e","fLmqTduZKDguCjceD6XBndhkK9R2","","","","","","","","","","","","","","","","","","","","",""
"html-keyboard-response","83","163685","0.0-36.0","","null","<div style=""font-size:100px;"">+</div>","null","delaylearn","learning","ITI","616f3496967585b2c7b39d2e","fLmqTduZKDguCjceD6XBndhkK9R2","","","","","","","","","","","","","","","","","","","2381","",""
"html-keyboard-response","84","165517","0.0-37.0-0.0","","1830.8999999910593","<div style=""display: flex; flex-direction: column; align-items: center; margin-top: -40px;""><img src=""images/pattern_5.png"" style=""width: 234px; height: 230px; margin-top: -50px;""><div style=""display: flex; justify-content: space-between; margin-top: 33px;""><img src=""images/choice_trial_2.png"" style=""width: 408px; height: 417px; margin-right: 200px;""><img src=""images/choice_trial_9.png"" style=""width: 408px; height: 417px;""></div></div>","f","delaylearn","learning","trial","616f3496967585b2c7b39d2e","fLmqTduZKDguCjceD6XBndhkK9R2","2","images/choice_trial_2.png","images/choice_trial_9.png","images/pattern_5.png","f","f","750","2","9","4","0","16","1","1","2","90","","","","",""
"html-keyboard-response","85","166532","0.0-37.0-1.0","","null","<div style=""display: flex; flex-direction: column; align-items: center; margin-top: -40px;""><img src=""images/pattern_5.png"" style=""width: 234px; height: 230px; margin-top: -50px;""><div style=""display: flex; justify-content: space-between; margin-top: 33px;""><img src=""images/choice_trial_2.png"" style=""width: 408px; height: 417px; margin-right: 608px;""></div></div>","null","delaylearn","learning","display_response","616f3496967585b2c7b39d2e","fLmqTduZKDguCjceD6XBndhkK9R2","","","","","","","","","","","","","","","","","chosen stimuli: images/choice_trial_2.png","","","",""
"html-keyboard-response","86","167289","0.0-37.0-2.0","","null","","null","delaylearn","learning","feedback_duration_window","616f3496967585b2c7b39d2e","fLmqTduZKDguCjceD6XBndhkK9R2","","","","","","","","","","","","","","","","","","750","","",""
"html-keyboard-response","87","168797","0.0-37.0-3.0","","null","<div style='margin:auto;width: auto; font-size: 150%'><span style='font-weight: bold; font-size: 100px; color: green;'>+10 points!</span><br><br></div>","null","delaylearn","learning","feedback_image_window","616f3496967585b2c7b39d2e","fLmqTduZKDguCjceD6XBndhkK9R2","","","","","","","","","","","","","","","","","","","","",""
"html-keyboard-response","88","169308","0.0-38.0-0.0","","null","","null","","","mood_trial_fixation","","","","","","","","","","","","","","","","","","","","","","",""
"lmdlab-html-vas-response","89","174565","0.0-38.0-1.0","","4246","How happy are you right now?","0.49382716049382713","delaylearn","learning","mood_trial","616f3496967585b2c7b39d2e","fLmqTduZKDguCjceD6XBndhkK9R2","","","","","","","","","","","","","","","","","","","","[""Very unhappy"",""Very happy""]",""
"html-keyboard-response","90","176528","0.0-39.0","","null","<div style=""font-size:100px;"">+</div>","null","delaylearn","learning","ITI","616f3496967585b2c7b39d2e","fLmqTduZKDguCjceD6XBndhkK9R2","","","","","","","","","","","","","","","","","","","1960","",""
"html-keyboard-response","91","178229","0.0-40.0-0.0","","1699.300000011921","<div style=""display: flex; flex-direction: column; align-items: center; margin-top: -40px;""><img src=""images/pattern_6.png"" style=""width: 234px; height: 230px; margin-top: -50px;""><div style=""display: flex; justify-content: space-between; margin-top: 33px;""><img src=""images/choice_trial_11.png"" style=""width: 408px; height: 417px; margin-right: 200px;""><img src=""images/choice_trial_5.png"" style=""width: 408px; height: 417px;""></div></div>","j","delaylearn","learning","trial","616f3496967585b2c7b39d2e","fLmqTduZKDguCjceD6XBndhkK9R2","2","images/choice_trial_11.png","images/choice_trial_5.png","images/pattern_6.png","f","f","750","11","5","5","0","17","0","0","5","90","","","","",""
"html-keyboard-response","92","179243","0.0-40.0-1.0","","null","<div style=""display: flex; flex-direction: column; align-items: center; margin-top: -40px;""><img src=""images/pattern_6.png"" style=""width: 234px; height: 230px; margin-top: -50px;""><div style=""display: flex; justify-content: space-between; margin-top: 33px;""><img src=""images/choice_trial_5.png"" style=""width: 408px; height: 417px; margin-left:608px;""></div></div>","null","delaylearn","learning","display_response","616f3496967585b2c7b39d2e","fLmqTduZKDguCjceD6XBndhkK9R2","","","","","","","","","","","","","","","","","chosen stimuli: images/choice_trial_5.png","","","",""
"html-keyboard-response","93","180001","0.0-40.0-2.0","","null","","null","delaylearn","learning","feedback_duration_window","616f3496967585b2c7b39d2e","fLmqTduZKDguCjceD6XBndhkK9R2","","","","","","","","","","","","","","","","","","750","","",""
"html-keyboard-response","94","181507","0.0-40.0-3.0","","null","<div style='margin:auto;width: auto; font-size: 150%'><span style='font-weight: bold; font-size: 100px; color: red;'>0 points!</span><br><br></div>","null","delaylearn","learning","feedback_image_window","616f3496967585b2c7b39d2e","fLmqTduZKDguCjceD6XBndhkK9R2","","","","","","","","","","","","","","","","","","","","",""
"html-keyboard-response","95","183948","0.0-41.0","","null","<div style=""font-size:100px;"">+</div>","null","delaylearn","learning","ITI","616f3496967585b2c7b39d2e","fLmqTduZKDguCjceD6XBndhkK9R2","","","","","","","","","","","","","","","","","","","2430","",""
"html-keyboard-response","96","186173","0.0-42.0-0.0","","2222.8999999910593","<div style=""display: flex; flex-direction: column; align-items: center; margin-top: -40px;""><img src=""images/pattern_4.png"" style=""width: 234px; height: 230px; margin-top: -50px;""><div style=""display: flex; justify-content: space-between; margin-top: 33px;""><img src=""images/choice_trial_16.png"" style=""width: 408px; height: 417px; margin-right: 200px;""><img src=""images/choice_trial_4.png"" style=""width: 408px; height: 417px;""></div></div>","f","delaylearn","learning","trial","616f3496967585b2c7b39d2e","fLmqTduZKDguCjceD6XBndhkK9R2","2","images/choice_trial_16.png","images/choice_trial_4.png","images/pattern_4.png","j","j","7000","16","4","3","1","18","0","0","16","90","","","","",""
"html-keyboard-response","97","187179","0.0-42.0-1.0","","null","<div style=""display: flex; flex-direction: column; align-items: center; margin-top: -40px;""><img src=""images/pattern_4.png"" style=""width: 234px; height: 230px; margin-top: -50px;""><div style=""display: flex; justify-content: space-between; margin-top: 33px;""><img src=""images/choice_trial_16.png"" style=""width: 408px; height: 417px; margin-right: 608px;""></div></div>","null","delaylearn","learning","display_response","616f3496967585b2c7b39d2e","fLmqTduZKDguCjceD6XBndhkK9R2","","","","","","","","","","","","","","","","","chosen stimuli: images/choice_trial_16.png","","","",""
"html-keyboard-response","98","194188","0.0-42.0-2.0","","null","","null","delaylearn","learning","feedback_duration_window","616f3496967585b2c7b39d2e","fLmqTduZKDguCjceD6XBndhkK9R2","","","","","","","","","","","","","","","","","","7000","","",""
"html-keyboard-response","99","195693","0.0-42.0-3.0","","null","<div style='margin:auto;width: auto; font-size: 150%'><span style='font-weight: bold; font-size: 100px; color: red;'>0 points!</span><br><br></div>","null","delaylearn","learning","feedback_image_window","616f3496967585b2c7b39d2e","fLmqTduZKDguCjceD6XBndhkK9R2","","","","","","","","","","","","","","","","","","","","",""
"html-keyboard-response","100","197317","0.0-43.0","","null","<div style=""font-size:100px;"">+</div>","null","delaylearn","learning","ITI","616f3496967585b2c7b39d2e","fLmqTduZKDguCjceD6XBndhkK9R2","","","","","","","","","","","","","","","","","","","1614","",""
"html-keyboard-response","101","199245","0.0-44.0-0.0","","1926.3999999910593","<div style=""display: flex; flex-direction: column; align-items: center; margin-top: -40px;""><img src=""images/pattern_7.png"" style=""width: 234px; height: 230px; margin-top: -50px;""><div style=""display: flex; justify-content: space-between; margin-top: 33px;""><img src=""images/choice_trial_8.png"" style=""width: 408px; height: 417px; margin-right: 200px;""><img src=""images/choice_trial_15.png"" style=""width: 408px; height: 417px;""></div></div>","f","delaylearn","learning","trial","616f3496967585b2c7b39d2e","fLmqTduZKDguCjceD6XBndhkK9R2","2","images/choice_trial_8.png","images/choice_trial_15.png","images/pattern_7.png","j","f","750","8","15","6","0","19","1","0","8","90","","","","",""
"html-keyboard-response","102","200249","0.0-44.0-1.0","","null","<div style=""display: flex; flex-direction: column; align-items: center; margin-top: -40px;""><img src=""images/pattern_7.png"" style=""width: 234px; height: 230px; margin-top: -50px;""><div style=""display: flex; justify-content: space-between; margin-top: 33px;""><img src=""images/choice_trial_8.png"" style=""width: 408px; height: 417px; margin-right: 608px;""></div></div>","null","delaylearn","learning","display_response","616f3496967585b2c7b39d2e","fLmqTduZKDguCjceD6XBndhkK9R2","","","","","","","","","","","","","","","","","chosen stimuli: images/choice_trial_8.png","","","",""
"html-keyboard-response","103","201010","0.0-44.0-2.0","","null","","null","delaylearn","learning","feedback_duration_window","616f3496967585b2c7b39d2e","fLmqTduZKDguCjceD6XBndhkK9R2","","","","","","","","","","","","","","","","","","750","","",""
"html-keyboard-response","104","202517","0.0-44.0-3.0","","null","<div style='margin:auto;width: auto; font-size: 150%'><span style='font-weight: bold; font-size: 100px; color: red;'>0 points!</span><br><br></div>","null","delaylearn","learning","feedback_image_window","616f3496967585b2c7b39d2e","fLmqTduZKDguCjceD6XBndhkK9R2","","","","","","","","","","","","","","","","","","","","",""
"html-keyboard-response","105","204829","0.0-45.0","","null","<div style=""font-size:100px;"">+</div>","null","delaylearn","learning","ITI","616f3496967585b2c7b39d2e","fLmqTduZKDguCjceD6XBndhkK9R2","","","","","","","","","","","","","","","","","","","2301","",""
"html-keyboard-response","106","206093","0.0-46.0-0.0","","1261.5","<div style=""display: flex; flex-direction: column; align-items: center; margin-top: -40px;""><img src=""images/pattern_1.png"" style=""width: 234px; height: 230px; margin-top: -50px;""><div style=""display: flex; justify-content: space-between; margin-top: 33px;""><img src=""images/choice_trial_3.png"" style=""width: 408px; height: 417px; margin-right: 200px;""><img src=""images/choice_trial_10.png"" style=""width: 408px; height: 417px;""></div></div>","f","delaylearn","learning","trial","616f3496967585b2c7b39d2e","fLmqTduZKDguCjceD6XBndhkK9R2","2","images/choice_trial_3.png","images/choice_trial_10.png","images/pattern_1.png","f","f","7000","3","10","1","0","20","1","1","3","100","","","","",""
"html-keyboard-response","107","207096","0.0-46.0-1.0","","null","<div style=""display: flex; flex-direction: column; align-items: center; margin-top: -40px;""><img src=""images/pattern_1.png"" style=""width: 234px; height: 230px; margin-top: -50px;""><div style=""display: flex; justify-content: space-between; margin-top: 33px;""><img src=""images/choice_trial_3.png"" style=""width: 408px; height: 417px; margin-right: 608px;""></div></div>","null","delaylearn","learning","display_response","616f3496967585b2c7b39d2e","fLmqTduZKDguCjceD6XBndhkK9R2","","","","","","","","","","","","","","","","","chosen stimuli: images/choice_trial_3.png","","","",""
"html-keyboard-response","108","214112","0.0-46.0-2.0","","null","","null","delaylearn","learning","feedback_duration_window","616f3496967585b2c7b39d2e","fLmqTduZKDguCjceD6XBndhkK9R2","","","","","","","","","","","","","","","","","","7000","","",""
"html-keyboard-response","109","215624","0.0-46.0-3.0","","null","<div style='margin:auto;width: auto; font-size: 150%'><span style='font-weight: bold; font-size: 100px; color: green;'>+10 points!</span><br><br></div>","null","delaylearn","learning","feedback_image_window","616f3496967585b2c7b39d2e","fLmqTduZKDguCjceD6XBndhkK9R2","","","","","","","","","","","","","","","","","","","","",""
"html-keyboard-response","110","217484","0.0-47.0","","null","<div style=""font-size:100px;"">+</div>","null","delaylearn","learning","ITI","616f3496967585b2c7b39d2e","fLmqTduZKDguCjceD6XBndhkK9R2","","","","","","","","","","","","","","","","","","","1849","",""
"html-keyboard-response","111","218933","0.0-48.0-0.0","","1447.2999999970198","<div style=""display: flex; flex-direction: column; align-items: center; margin-top: -40px;""><img src=""images/pattern_6.png"" style=""width: 234px; height: 230px; margin-top: -50px;""><div style=""display: flex; justify-content: space-between; margin-top: 33px;""><img src=""images/choice_trial_5.png"" style=""width: 408px; height: 417px; margin-right: 200px;""><img src=""images/choice_trial_11.png"" style=""width: 408px; height: 417px;""></div></div>","f","delaylearn","learning","trial","616f3496967585b2c7b39d2e","fLmqTduZKDguCjceD6XBndhkK9R2","2","images/choice_trial_5.png","images/choice_trial_11.png","images/pattern_6.png","j","j","750","5","11","5","1","21","0","0","5","100","","","","",""
"html-keyboard-response","112","219939","0.0-48.0-1.0","","null","<div style=""display: flex; flex-direction: column; align-items: center; margin-top: -40px;""><img src=""images/pattern_6.png"" style=""width: 234px; height: 230px; margin-top: -50px;""><div style=""display: flex; justify-content: space-between; margin-top: 33px;""><img src=""images/choice_trial_5.png"" style=""width: 408px; height: 417px; margin-right: 608px;""></div></div>","null","delaylearn","learning","display_response","616f3496967585b2c7b39d2e","fLmqTduZKDguCjceD6XBndhkK9R2","","","","","","","","","","","","","","","","","chosen stimuli: images/choice_trial_5.png","","","",""
"html-keyboard-response","113","220696","0.0-48.0-2.0","","null","","null","delaylearn","learning","feedback_duration_window","616f3496967585b2c7b39d2e","fLmqTduZKDguCjceD6XBndhkK9R2","","","","","","","","","","","","","","","","","","750","","",""
"html-keyboard-response","114","222197","0.0-48.0-3.0","","null","<div style='margin:auto;width: auto; font-size: 150%'><span style='font-weight: bold; font-size: 100px; color: red;'>0 points!</span><br><br></div>","null","delaylearn","learning","feedback_image_window","616f3496967585b2c7b39d2e","fLmqTduZKDguCjceD6XBndhkK9R2","","","","","","","","","","","","","","","","","","","","",""
"html-keyboard-response","115","223979","0.0-49.0","","null","<div style=""font-size:100px;"">+</div>","null","delaylearn","learning","ITI","616f3496967585b2c7b39d2e","fLmqTduZKDguCjceD6XBndhkK9R2","","","","","","","","","","","","","","","","","","","1766","",""
"html-keyboard-response","116","225933","0.0-50.0-0.0","","1952.4000000059605","<div style=""display: flex; flex-direction: column; align-items: center; margin-top: -40px;""><img src=""images/pattern_4.png"" style=""width: 234px; height: 230px; margin-top: -50px;""><div style=""display: flex; justify-content: space-between; margin-top: 33px;""><img src=""images/choice_trial_4.png"" style=""width: 408px; height: 417px; margin-right: 200px;""><img src=""images/choice_trial_16.png"" style=""width: 408px; height: 417px;""></div></div>","j","delaylearn","learning","trial","616f3496967585b2c7b39d2e","fLmqTduZKDguCjceD6XBndhkK9R2","2","images/choice_trial_4.png","images/choice_trial_16.png","images/pattern_4.png","f","f","7000","4","16","3","0","22","0","0","16","100","","","","",""
"html-keyboard-response","117","226940","0.0-50.0-1.0","","null","<div style=""display: flex; flex-direction: column; align-items: center; margin-top: -40px;""><img src=""images/pattern_4.png"" style=""width: 234px; height: 230px; margin-top: -50px;""><div style=""display: flex; justify-content: space-between; margin-top: 33px;""><img src=""images/choice_trial_16.png"" style=""width: 408px; height: 417px; margin-left:608px;""></div></div>","null","delaylearn","learning","display_response","616f3496967585b2c7b39d2e","fLmqTduZKDguCjceD6XBndhkK9R2","","","","","","","","","","","","","","","","","chosen stimuli: images/choice_trial_16.png","","","",""
"html-keyboard-response","118","233956","0.0-50.0-2.0","","null","","null","delaylearn","learning","feedback_duration_window","616f3496967585b2c7b39d2e","fLmqTduZKDguCjceD6XBndhkK9R2","","","","","","","","","","","","","","","","","","7000","","",""
"html-keyboard-response","119","235461","0.0-50.0-3.0","","null","<div style='margin:auto;width: auto; font-size: 150%'><span style='font-weight: bold; font-size: 100px; color: red;'>0 points!</span><br><br></div>","null","delaylearn","learning","feedback_image_window","616f3496967585b2c7b39d2e","fLmqTduZKDguCjceD6XBndhkK9R2","","","","","","","","","","","","","","","","","","","","",""
"html-keyboard-response","120","235974","0.0-51.0-0.0","","null","","null","","","mood_trial_fixation","","","","","","","","","","","","","","","","","","","","","","",""
"lmdlab-html-vas-response","121","239781","0.0-51.0-1.0","","2797","How happy are you right now?","0.35030864197530864","delaylearn","learning","mood_trial","616f3496967585b2c7b39d2e","fLmqTduZKDguCjceD6XBndhkK9R2","","","","","","","","","","","","","","","","","","","","[""Very unhappy"",""Very happy""]",""
"html-keyboard-response","122","241684","0.0-52.0","","null","<div style=""font-size:100px;"">+</div>","null","delaylearn","learning","ITI","616f3496967585b2c7b39d2e","fLmqTduZKDguCjceD6XBndhkK9R2","","","","","","","","","","","","","","","","","","","1891","",""
"html-keyboard-response","123","243133","0.0-53.0-0.0","","1447.1000000089407","<div style=""display: flex; flex-direction: column; align-items: center; margin-top: -40px;""><img src=""images/pattern_7.png"" style=""width: 234px; height: 230px; margin-top: -50px;""><div style=""display: flex; justify-content: space-between; margin-top: 33px;""><img src=""images/choice_trial_15.png"" style=""width: 408px; height: 417px; margin-right: 200px;""><img src=""images/choice_trial_8.png"" style=""width: 408px; height: 417px;""></div></div>","j","delaylearn","learning","trial","616f3496967585b2c7b39d2e","fLmqTduZKDguCjceD6XBndhkK9R2","2","images/choice_trial_15.png","images/choice_trial_8.png","images/pattern_7.png","j","j","750","15","8","6","1","23","1","1","8","110","","","","",""
"html-keyboard-response","124","244137","0.0-53.0-1.0","","null","<div style=""display: flex; flex-direction: column; align-items: center; margin-top: -40px;""><img src=""images/pattern_7.png"" style=""width: 234px; height: 230px; margin-top: -50px;""><div style=""display: flex; justify-content: space-between; margin-top: 33px;""><img src=""images/choice_trial_8.png"" style=""width: 408px; height: 417px; margin-left:608px;""></div></div>","null","delaylearn","learning","display_response","616f3496967585b2c7b39d2e","fLmqTduZKDguCjceD6XBndhkK9R2","","","","","","","","","","","","","","","","","chosen stimuli: images/choice_trial_8.png","","","",""
"html-keyboard-response","125","244897","0.0-53.0-2.0","","null","","null","delaylearn","learning","feedback_duration_window","616f3496967585b2c7b39d2e","fLmqTduZKDguCjceD6XBndhkK9R2","","","","","","","","","","","","","","","","","","750","","",""
"html-keyboard-response","126","246402","0.0-53.0-3.0","","null","<div style='margin:auto;width: auto; font-size: 150%'><span style='font-weight: bold; font-size: 100px; color: green;'>+10 points!</span><br><br></div>","null","delaylearn","learning","feedback_image_window","616f3496967585b2c7b39d2e","fLmqTduZKDguCjceD6XBndhkK9R2","","","","","","","","","","","","","","","","","","","","",""
"html-keyboard-response","127","247923","0.0-54.0","","null","<div style=""font-size:100px;"">+</div>","null","delaylearn","learning","ITI","616f3496967585b2c7b39d2e","fLmqTduZKDguCjceD6XBndhkK9R2","","","","","","","","","","","","","","","","","","","1508","",""
"html-keyboard-response","128","250070","0.0-55.0-0.0","","2144.4000000059605","<div style=""display: flex; flex-direction: column; align-items: center; margin-top: -40px;""><img src=""images/pattern_1.png"" style=""width: 234px; height: 230px; margin-top: -50px;""><div style=""display: flex; justify-content: space-between; margin-top: 33px;""><img src=""images/choice_trial_10.png"" style=""width: 408px; height: 417px; margin-right: 200px;""><img src=""images/choice_trial_3.png"" style=""width: 408px; height: 417px;""></div></div>","f","delaylearn","learning","trial","616f3496967585b2c7b39d2e","fLmqTduZKDguCjceD6XBndhkK9R2","2","images/choice_trial_10.png","images/choice_trial_3.png","images/pattern_1.png","f","j","7000","10","3","1","1","24","0","1","10","120","","","","",""
"html-keyboard-response","129","251080","0.0-55.0-1.0","","null","<div style=""display: flex; flex-direction: column; align-items: center; margin-top: -40px;""><img src=""images/pattern_1.png"" style=""width: 234px; height: 230px; margin-top: -50px;""><div style=""display: flex; justify-content: space-between; margin-top: 33px;""><img src=""images/choice_trial_10.png"" style=""width: 408px; height: 417px; margin-right: 608px;""></div></div>","null","delaylearn","learning","display_response","616f3496967585b2c7b39d2e","fLmqTduZKDguCjceD6XBndhkK9R2","","","","","","","","","","","","","","","","","chosen stimuli: images/choice_trial_10.png","","","",""
"html-keyboard-response","130","258093","0.0-55.0-2.0","","null","","null","delaylearn","learning","feedback_duration_window","616f3496967585b2c7b39d2e","fLmqTduZKDguCjceD6XBndhkK9R2","","","","","","","","","","","","","","","","","","7000","","",""
"html-keyboard-response","131","259600","0.0-55.0-3.0","","null","<div style='margin:auto;width: auto; font-size: 150%'><span style='font-weight: bold; font-size: 100px; color: green;'>+10 points!</span><br><br></div>","null","delaylearn","learning","feedback_image_window","616f3496967585b2c7b39d2e","fLmqTduZKDguCjceD6XBndhkK9R2","","","","","","","","","","","","","","","","","","","","",""
"html-keyboard-response","132","261928","0.0-56.0","","null","<div style=""font-size:100px;"">+</div>","null","delaylearn","learning","ITI","616f3496967585b2c7b39d2e","fLmqTduZKDguCjceD6XBndhkK9R2","","","","","","","","","","","","","","","","","","","2322","",""
"html-keyboard-response","133","264118","0.0-57.0-0.0","","2187.300000011921","<div style=""display: flex; flex-direction: column; align-items: center; margin-top: -40px;""><img src=""images/pattern_5.png"" style=""width: 234px; height: 230px; margin-top: -50px;""><div style=""display: flex; justify-content: space-between; margin-top: 33px;""><img src=""images/choice_trial_9.png"" style=""width: 408px; height: 417px; margin-right: 200px;""><img src=""images/choice_trial_2.png"" style=""width: 408px; height: 417px;""></div></div>","j","delaylearn","learning","trial","616f3496967585b2c7b39d2e","fLmqTduZKDguCjceD6XBndhkK9R2","2","images/choice_trial_9.png","images/choice_trial_2.png","images/pattern_5.png","j","j","750","9","2","4","1","25","1","1","2","130","","","","",""
"html-keyboard-response","134","265124","0.0-57.0-1.0","","null","<div style=""display: flex; flex-direction: column; align-items: center; margin-top: -40px;""><img src=""images/pattern_5.png"" style=""width: 234px; height: 230px; margin-top: -50px;""><div style=""display: flex; justify-content: space-between; margin-top: 33px;""><img src=""images/choice_trial_2.png"" style=""width: 408px; height: 417px; margin-left:608px;""></div></div>","null","delaylearn","learning","display_response","616f3496967585b2c7b39d2e","fLmqTduZKDguCjceD6XBndhkK9R2","","","","","","","","","","","","","","","","","chosen stimuli: images/choice_trial_2.png","","","",""
"html-keyboard-response","135","265880","0.0-57.0-2.0","","null","","null","delaylearn","learning","feedback_duration_window","616f3496967585b2c7b39d2e","fLmqTduZKDguCjceD6XBndhkK9R2","","","","","","","","","","","","","","","","","","750","","",""
"html-keyboard-response","136","267382","0.0-57.0-3.0","","null","<div style='margin:auto;width: auto; font-size: 150%'><span style='font-weight: bold; font-size: 100px; color: green;'>+10 points!</span><br><br></div>","null","delaylearn","learning","feedback_image_window","616f3496967585b2c7b39d2e","fLmqTduZKDguCjceD6XBndhkK9R2","","","","","","","","","","","","","","","","","","","","",""
"html-keyboard-response","137","269524","0.0-58.0","","null","<div style=""font-size:100px;"">+</div>","null","delaylearn","learning","ITI","616f3496967585b2c7b39d2e","fLmqTduZKDguCjceD6XBndhkK9R2","","","","","","","","","","","","","","","","","","","2136","",""
"html-keyboard-response","138","270829","0.0-59.0-0.0","","1303.7999999970198","<div style=""display: flex; flex-direction: column; align-items: center; margin-top: -40px;""><img src=""images/pattern_3.png"" style=""width: 234px; height: 230px; margin-top: -50px;""><div style=""display: flex; justify-content: space-between; margin-top: 33px;""><img src=""images/choice_trial_14.png"" style=""width: 408px; height: 417px; margin-right: 200px;""><img src=""images/choice_trial_12.png"" style=""width: 408px; height: 417px;""></div></div>","j","delaylearn","learning","trial","616f3496967585b2c7b39d2e","fLmqTduZKDguCjceD6XBndhkK9R2","2","images/choice_trial_14.png","images/choice_trial_12.png","images/pattern_3.png","j","j","7000","14","12","2","1","26","1","1","12","140","","","","",""
"html-keyboard-response","139","271838","0.0-59.0-1.0","","null","<div style=""display: flex; flex-direction: column; align-items: center; margin-top: -40px;""><img src=""images/pattern_3.png"" style=""width: 234px; height: 230px; margin-top: -50px;""><div style=""display: flex; justify-content: space-between; margin-top: 33px;""><img src=""images/choice_trial_12.png"" style=""width: 408px; height: 417px; margin-left:608px;""></div></div>","null","delaylearn","learning","display_response","616f3496967585b2c7b39d2e","fLmqTduZKDguCjceD6XBndhkK9R2","","","","","","","","","","","","","","","","","chosen stimuli: images/choice_trial_12.png","","","",""
"html-keyboard-response","140","278850","0.0-59.0-2.0","","null","","null","delaylearn","learning","feedback_duration_window","616f3496967585b2c7b39d2e","fLmqTduZKDguCjceD6XBndhkK9R2","","","","","","","","","","","","","","","","","","7000","","",""
"html-keyboard-response","141","280356","0.0-59.0-3.0","","null","<div style='margin:auto;width: auto; font-size: 150%'><span style='font-weight: bold; font-size: 100px; color: green;'>+10 points!</span><br><br></div>","null","delaylearn","learning","feedback_image_window","616f3496967585b2c7b39d2e","fLmqTduZKDguCjceD6XBndhkK9R2","","","","","","","","","","","","","","","","","","","","",""
"lmdlab-html-vas-response","142","285552","0.0-60.0-0.0","","3673","*How <b><u>confident</u></b> are you feeling about your answers at this moment?*","0.5787037037037037","rewlearn","rate_confidence","","616f3496967585b2c7b39d2e","fLmqTduZKDguCjceD6XBndhkK9R2","","","","","","","","","","","","","","","","","","","","[""No confidence"",""Complete confidence""]",""
"lmdlab-rest-trial-limit","143","293795","0.0-60.0-1.0","","6739.4000000059605","<div style=""font-size:40px;""><b>Please take a break!</b><br><br><br><br><p>Great work: you earned 140 points.<br><br><br><p>You have completed part(s) 1 of 5.<br><br><br><br>When you are ready to continue<br><br><br>please click the button.</p><br><br>","0","delaylearn","learning","break","616f3496967585b2c7b39d2e","fLmqTduZKDguCjceD6XBndhkK9R2","","","","","","","","","","","","","","","","","","","","","0"
"html-keyboard-response","144","296803","0.0-60.0-2.0","","null","<div style=""font-size:100px;"">+</div>","null","delaylearn","learning","pre_fixation","616f3496967585b2c7b39d2e","","","","","","","","","","","","","","","","","","","","","",""
"lmdlab-html-vas-response","145","301190","0.0-60.0-3.0-0.0","","3381","How happy are you right now?","0.5030864197530864","delaylearn","learning","mood_baseline","616f3496967585b2c7b39d2e","fLmqTduZKDguCjceD6XBndhkK9R2","","","","","","","","","","","","","","","","","","","","[""Very unhappy"",""Very happy""]",""
"html-keyboard-response","146","302699","0.0-60.0-3.0-1.0","","null","","null","","","mood_baseline_fixation","","","","","","","","","","","","","","","","","","","","","","",""
"html-keyboard-response","147","304393","0.0-61.0","","null","<div style=""font-size:100px;"">+</div>","null","delaylearn","learning","ITI","616f3496967585b2c7b39d2e","fLmqTduZKDguCjceD6XBndhkK9R2","","","","","","","","","","","","","","","","","","","1690","",""
"html-keyboard-response","148","305949","0.0-62.0-0.0","","1555.5999999940395","<div style=""display: flex; flex-direction: column; align-items: center; margin-top: -40px;""><img src=""images/pattern_7.png"" style=""width: 234px; height: 230px; margin-top: -50px;""><div style=""display: flex; justify-content: space-between; margin-top: 33px;""><img src=""images/choice_trial_15.png"" style=""width: 408px; height: 417px; margin-right: 200px;""><img src=""images/choice_trial_8.png"" style=""width: 408px; height: 417px;""></div></div>","j","delaylearn","learning","trial","616f3496967585b2c7b39d2e","fLmqTduZKDguCjceD6XBndhkK9R2","2","images/choice_trial_15.png","images/choice_trial_8.png","images/pattern_7.png","j","j","750","15","8","6","1","27","1","1","8","150","","","","",""
"html-keyboard-response","149","306962","0.0-62.0-1.0","","null","<div style=""display: flex; flex-direction: column; align-items: center; margin-top: -40px;""><img src=""images/pattern_7.png"" style=""width: 234px; height: 230px; margin-top: -50px;""><div style=""display: flex; justify-content: space-between; margin-top: 33px;""><img src=""images/choice_trial_8.png"" style=""width: 408px; height: 417px; margin-left:608px;""></div></div>","null","delaylearn","learning","display_response","616f3496967585b2c7b39d2e","fLmqTduZKDguCjceD6XBndhkK9R2","","","","","","","","","","","","","","","","","chosen stimuli: images/choice_trial_8.png","","","",""
"html-keyboard-response","150","307722","0.0-62.0-2.0","","null","","null","delaylearn","learning","feedback_duration_window","616f3496967585b2c7b39d2e","fLmqTduZKDguCjceD6XBndhkK9R2","","","","","","","","","","","","","","","","","","750","","",""
"html-keyboard-response","151","309227","0.0-62.0-3.0","","null","<div style='margin:auto;width: auto; font-size: 150%'><span style='font-weight: bold; font-size: 100px; color: green;'>+10 points!</span><br><br></div>","null","delaylearn","learning","feedback_image_window","616f3496967585b2c7b39d2e","fLmqTduZKDguCjceD6XBndhkK9R2","","","","","","","","","","","","","","","","","","","","",""
"html-keyboard-response","152","309740","0.0-63.0-0.0","","null","","null","","","mood_trial_fixation","","","","","","","","","","","","","","","","","","","","","","",""
"lmdlab-html-vas-response","153","313998","0.0-63.0-1.0","","3249","How happy are you right now?","0.5015432098765432","delaylearn","learning","mood_trial","616f3496967585b2c7b39d2e","fLmqTduZKDguCjceD6XBndhkK9R2","","","","","","","","","","","","","","","","","","","","[""Very unhappy"",""Very happy""]",""
"html-keyboard-response","154","316471","0.0-64.0","","null","<div style=""font-size:100px;"">+</div>","null","delaylearn","learning","ITI","616f3496967585b2c7b39d2e","fLmqTduZKDguCjceD6XBndhkK9R2","","","","","","","","","","","","","","","","","","","2471","",""
"html-keyboard-response","155","317533","0.0-65.0-0.0","","1059.7000000029802","<div style=""display: flex; flex-direction: column; align-items: center; margin-top: -40px;""><img src=""images/pattern_1.png"" style=""width: 234px; height: 230px; margin-top: -50px;""><div style=""display: flex; justify-content: space-between; margin-top: 33px;""><img src=""images/choice_trial_3.png"" style=""width: 408px; height: 417px; margin-right: 200px;""><img src=""images/choice_trial_10.png"" style=""width: 408px; height: 417px;""></div></div>","j","delaylearn","learning","trial","616f3496967585b2c7b39d2e","fLmqTduZKDguCjceD6XBndhkK9R2","2","images/choice_trial_3.png","images/choice_trial_10.png","images/pattern_1.png","f","f","7000","3","10","1","0","28","0","0","10","150","","","","",""
"html-keyboard-response","156","318550","0.0-65.0-1.0","","null","<div style=""display: flex; flex-direction: column; align-items: center; margin-top: -40px;""><img src=""images/pattern_1.png"" style=""width: 234px; height: 230px; margin-top: -50px;""><div style=""display: flex; justify-content: space-between; margin-top: 33px;""><img src=""images/choice_trial_10.png"" style=""width: 408px; height: 417px; margin-left:608px;""></div></div>","null","delaylearn","learning","display_response","616f3496967585b2c7b39d2e","fLmqTduZKDguCjceD6XBndhkK9R2","","","","","","","","","","","","","","","","","chosen stimuli: images/choice_trial_10.png","","","",""
"html-keyboard-response","157","325555","0.0-65.0-2.0","","null","","null","delaylearn","learning","feedback_duration_window","616f3496967585b2c7b39d2e","fLmqTduZKDguCjceD6XBndhkK9R2","","","","","","","","","","","","","","","","","","7000","","",""
"html-keyboard-response","158","327059","0.0-65.0-3.0","","null","<div style='margin:auto;width: auto; font-size: 150%'><span style='font-weight: bold; font-size: 100px; color: red;'>0 points!</span><br><br></div>","null","delaylearn","learning","feedback_image_window","616f3496967585b2c7b39d2e","fLmqTduZKDguCjceD6XBndhkK9R2","","","","","","","","","","","","","","","","","","","","",""
"html-keyboard-response","159","328938","0.0-66.0","","null","<div style=""font-size:100px;"">+</div>","null","delaylearn","learning","ITI","616f3496967585b2c7b39d2e","fLmqTduZKDguCjceD6XBndhkK9R2","","","","","","","","","","","","","","","","","","","1867","",""
"html-keyboard-response","160","330437","0.0-67.0-0.0","","1497.7999999970198","<div style=""display: flex; flex-direction: column; align-items: center; margin-top: -40px;""><img src=""images/pattern_5.png"" style=""width: 234px; height: 230px; margin-top: -50px;""><div style=""display: flex; justify-content: space-between; margin-top: 33px;""><img src=""images/choice_trial_2.png"" style=""width: 408px; height: 417px; margin-right: 200px;""><img src=""images/choice_trial_9.png"" style=""width: 408px; height: 417px;""></div></div>","f","delaylearn","learning","trial","616f3496967585b2c7b39d2e","fLmqTduZKDguCjceD6XBndhkK9R2","2","images/choice_trial_2.png","images/choice_trial_9.png","images/pattern_5.png","f","f","750","2","9","4","0","29","1","1","2","160","","","","",""
"html-keyboard-response","161","331453","0.0-67.0-1.0","","null","<div style=""display: flex; flex-direction: column; align-items: center; margin-top: -40px;""><img src=""images/pattern_5.png"" style=""width: 234px; height: 230px; margin-top: -50px;""><div style=""display: flex; justify-content: space-between; margin-top: 33px;""><img src=""images/choice_trial_2.png"" style=""width: 408px; height: 417px; margin-right: 608px;""></div></div>","null","delaylearn","learning","display_response","616f3496967585b2c7b39d2e","fLmqTduZKDguCjceD6XBndhkK9R2","","","","","","","","","","","","","","","","","chosen stimuli: images/choice_trial_2.png","","","",""
"html-keyboard-response","162","332211","0.0-67.0-2.0","","null","","null","delaylearn","learning","feedback_duration_window","616f3496967585b2c7b39d2e","fLmqTduZKDguCjceD6XBndhkK9R2","","","","","","","","","","","","","","","","","","750","","",""
"html-keyboard-response","163","333715","0.0-67.0-3.0","","null","<div style='margin:auto;width: auto; font-size: 150%'><span style='font-weight: bold; font-size: 100px; color: green;'>+10 points!</span><br><br></div>","null","delaylearn","learning","feedback_image_window","616f3496967585b2c7b39d2e","fLmqTduZKDguCjceD6XBndhkK9R2","","","","","","","","","","","","","","","","","","","","",""
"html-keyboard-response","164","335425","0.0-68.0","","null","<div style=""font-size:100px;"">+</div>","null","delaylearn","learning","ITI","616f3496967585b2c7b39d2e","fLmqTduZKDguCjceD6XBndhkK9R2","","","","","","","","","","","","","","","","","","","1700","",""
"html-keyboard-response","165","337956","0.0-69.0-0.0","","2529","<div style=""display: flex; flex-direction: column; align-items: center; margin-top: -40px;""><img src=""images/pattern_6.png"" style=""width: 234px; height: 230px; margin-top: -50px;""><div style=""display: flex; justify-content: space-between; margin-top: 33px;""><img src=""images/choice_trial_5.png"" style=""width: 408px; height: 417px; margin-right: 200px;""><img src=""images/choice_trial_11.png"" style=""width: 408px; height: 417px;""></div></div>","j","delaylearn","learning","trial","616f3496967585b2c7b39d2e","fLmqTduZKDguCjceD6XBndhkK9R2","2","images/choice_trial_5.png","images/choice_trial_11.png","images/pattern_6.png","j","j","750","5","11","5","1","30","1","1","11","170","","","","",""
"html-keyboard-response","166","338970","0.0-69.0-1.0","","null","<div style=""display: flex; flex-direction: column; align-items: center; margin-top: -40px;""><img src=""images/pattern_6.png"" style=""width: 234px; height: 230px; margin-top: -50px;""><div style=""display: flex; justify-content: space-between; margin-top: 33px;""><img src=""images/choice_trial_11.png"" style=""width: 408px; height: 417px; margin-left:608px;""></div></div>","null","delaylearn","learning","display_response","616f3496967585b2c7b39d2e","fLmqTduZKDguCjceD6XBndhkK9R2","","","","","","","","","","","","","","","","","chosen stimuli: images/choice_trial_11.png","","","",""
"html-keyboard-response","167","339732","0.0-69.0-2.0","","null","","null","delaylearn","learning","feedback_duration_window","616f3496967585b2c7b39d2e","fLmqTduZKDguCjceD6XBndhkK9R2","","","","","","","","","","","","","","","","","","750","","",""
"html-keyboard-response","168","341245","0.0-69.0-3.0","","null","<div style='margin:auto;width: auto; font-size: 150%'><span style='font-weight: bold; font-size: 100px; color: green;'>+10 points!</span><br><br></div>","null","delaylearn","learning","feedback_image_window","616f3496967585b2c7b39d2e","fLmqTduZKDguCjceD6XBndhkK9R2","","","","","","","","","","","","","","","","","","","","",""
"html-keyboard-response","169","341759","0.0-70.0-0.0","","null","","null","","","mood_trial_fixation","","","","","","","","","","","","","","","","","","","","","","",""
"lmdlab-html-vas-response","170","345653","0.0-70.0-1.0","","2880","How happy are you right now?","0.5246913580246914","delaylearn","learning","mood_trial","616f3496967585b2c7b39d2e","fLmqTduZKDguCjceD6XBndhkK9R2","","","","","","","","","","","","","","","","","","","","[""Very unhappy"",""Very happy""]",""
"html-keyboard-response","171","347176","0.0-71.0","","null","<div style=""font-size:100px;"">+</div>","null","delaylearn","learning","ITI","616f3496967585b2c7b39d2e","fLmqTduZKDguCjceD6XBndhkK9R2","","","","","","","","","","","","","","","","","","","1512","",""
"html-keyboard-response","172","349165","0.0-72.0-0.0","","1987.2999999970198","<div style=""display: flex; flex-direction: column; align-items: center; margin-top: -40px;""><img src=""images/pattern_4.png"" style=""width: 234px; height: 230px; margin-top: -50px;""><div style=""display: flex; justify-content: space-between; margin-top: 33px;""><img src=""images/choice_trial_16.png"" style=""width: 408px; height: 417px; margin-right: 200px;""><img src=""images/choice_trial_4.png"" style=""width: 408px; height: 417px;""></div></div>","j","delaylearn","learning","trial","616f3496967585b2c7b39d2e","fLmqTduZKDguCjceD6XBndhkK9R2","2","images/choice_trial_16.png","images/choice_trial_4.png","images/pattern_4.png","j","j","7000","16","4","3","1","31","1","1","4","180","","","","",""
"html-keyboard-response","173","350174","0.0-72.0-1.0","","null","<div style=""display: flex; flex-direction: column; align-items: center; margin-top: -40px;""><img src=""images/pattern_4.png"" style=""width: 234px; height: 230px; margin-top: -50px;""><div style=""display: flex; justify-content: space-between; margin-top: 33px;""><img src=""images/choice_trial_4.png"" style=""width: 408px; height: 417px; margin-left:608px;""></div></div>","null","delaylearn","learning","display_response","616f3496967585b2c7b39d2e","fLmqTduZKDguCjceD6XBndhkK9R2","","","","","","","","","","","","","","","","","chosen stimuli: images/choice_trial_4.png","","","",""
"html-keyboard-response","174","357181","0.0-72.0-2.0","","null","","null","delaylearn","learning","feedback_duration_window","616f3496967585b2c7b39d2e","fLmqTduZKDguCjceD6XBndhkK9R2","","","","","","","","","","","","","","","","","","7000","","",""
"html-keyboard-response","175","358686","0.0-72.0-3.0","","null","<div style='margin:auto;width: auto; font-size: 150%'><span style='font-weight: bold; font-size: 100px; color: green;'>+10 points!</span><br><br></div>","null","delaylearn","learning","feedback_image_window","616f3496967585b2c7b39d2e","fLmqTduZKDguCjceD6XBndhkK9R2","","","","","","","","","","","","","","","","","","","","",""
"html-keyboard-response","176","360659","0.0-73.0","","null","<div style=""font-size:100px;"">+</div>","null","delaylearn","learning","ITI","616f3496967585b2c7b39d2e","fLmqTduZKDguCjceD6XBndhkK9R2","","","","","","","","","","","","","","","","","","","1969","",""
"html-keyboard-response","177","361813","0.0-74.0-0.0","","1152.0999999940395","<div style=""display: flex; flex-direction: column; align-items: center; margin-top: -40px;""><img src=""images/pattern_3.png"" style=""width: 234px; height: 230px; margin-top: -50px;""><div style=""display: flex; justify-content: space-between; margin-top: 33px;""><img src=""images/choice_trial_14.png"" style=""width: 408px; height: 417px; margin-right: 200px;""><img src=""images/choice_trial_12.png"" style=""width: 408px; height: 417px;""></div></div>","j","delaylearn","learning","trial","616f3496967585b2c7b39d2e","fLmqTduZKDguCjceD6XBndhkK9R2","2","images/choice_trial_14.png","images/choice_trial_12.png","images/pattern_3.png","j","j","7000","14","12","2","1","32","1","1","12","190","","","","",""
"html-keyboard-response","178","362819","0.0-74.0-1.0","","null","<div style=""display: flex; flex-direction: column; align-items: center; margin-top: -40px;""><img src=""images/pattern_3.png"" style=""width: 234px; height: 230px; margin-top: -50px;""><div style=""display: flex; justify-content: space-between; margin-top: 33px;""><img src=""images/choice_trial_12.png"" style=""width: 408px; height: 417px; margin-left:608px;""></div></div>","null","delaylearn","learning","display_response","616f3496967585b2c7b39d2e","fLmqTduZKDguCjceD6XBndhkK9R2","","","","","","","","","","","","","","","","","chosen stimuli: images/choice_trial_12.png","","","",""
"html-keyboard-response","179","369820","0.0-74.0-2.0","","null","","null","delaylearn","learning","feedback_duration_window","616f3496967585b2c7b39d2e","fLmqTduZKDguCjceD6XBndhkK9R2","","","","","","","","","","","","","","","","","","7000","","",""
"html-keyboard-response","180","371325","0.0-74.0-3.0","","null","<div style='margin:auto;width: auto; font-size: 150%'><span style='font-weight: bold; font-size: 100px; color: green;'>+10 points!</span><br><br></div>","null","delaylearn","learning","feedback_image_window","616f3496967585b2c7b39d2e","fLmqTduZKDguCjceD6XBndhkK9R2","","","","","","","","","","","","","","","","","","","","",""
"html-keyboard-response","181","373653","0.0-75.0","","null","<div style=""font-size:100px;"">+</div>","null","delaylearn","learning","ITI","616f3496967585b2c7b39d2e","fLmqTduZKDguCjceD6XBndhkK9R2","","","","","","","","","","","","","","","","","","","2324","",""
"html-keyboard-response","182","374821","0.0-76.0-0.0","","1165.6000000089407","<div style=""display: flex; flex-direction: column; align-items: center; margin-top: -40px;""><img src=""images/pattern_5.png"" style=""width: 234px; height: 230px; margin-top: -50px;""><div style=""display: flex; justify-content: space-between; margin-top: 33px;""><img src=""images/choice_trial_2.png"" style=""width: 408px; height: 417px; margin-right: 200px;""><img src=""images/choice_trial_9.png"" style=""width: 408px; height: 417px;""></div></div>","f","delaylearn","learning","trial","616f3496967585b2c7b39d2e","fLmqTduZKDguCjceD6XBndhkK9R2","2","images/choice_trial_2.png","images/choice_trial_9.png","images/pattern_5.png","j","f","750","2","9","4","0","33","1","0","2","190","","","","",""
"html-keyboard-response","183","375829","0.0-76.0-1.0","","null","<div style=""display: flex; flex-direction: column; align-items: center; margin-top: -40px;""><img src=""images/pattern_5.png"" style=""width: 234px; height: 230px; margin-top: -50px;""><div style=""display: flex; justify-content: space-between; margin-top: 33px;""><img src=""images/choice_trial_2.png"" style=""width: 408px; height: 417px; margin-right: 608px;""></div></div>","null","delaylearn","learning","display_response","616f3496967585b2c7b39d2e","fLmqTduZKDguCjceD6XBndhkK9R2","","","","","","","","","","","","","","","","","chosen stimuli: images/choice_trial_2.png","","","",""
"html-keyboard-response","184","376588","0.0-76.0-2.0","","null","","null","delaylearn","learning","feedback_duration_window","616f3496967585b2c7b39d2e","fLmqTduZKDguCjceD6XBndhkK9R2","","","","","","","","","","","","","","","","","","750","","",""
"html-keyboard-response","185","378094","0.0-76.0-3.0","","null","<div style='margin:auto;width: auto; font-size: 150%'><span style='font-weight: bold; font-size: 100px; color: red;'>0 points!</span><br><br></div>","null","delaylearn","learning","feedback_image_window","616f3496967585b2c7b39d2e","fLmqTduZKDguCjceD6XBndhkK9R2","","","","","","","","","","","","","","","","","","","","",""
"html-keyboard-response","186","380547","0.0-77.0","","null","<div style=""font-size:100px;"">+</div>","null","delaylearn","learning","ITI","616f3496967585b2c7b39d2e","fLmqTduZKDguCjceD6XBndhkK9R2","","","","","","","","","","","","","","","","","","","2447","",""
"html-keyboard-response","187","381541","0.0-78.0-0.0","","991.1000000089407","<div style=""display: flex; flex-direction: column; align-items: center; margin-top: -40px;""><img src=""images/pattern_1.png"" style=""width: 234px; height: 230px; margin-top: -50px;""><div style=""display: flex; justify-content: space-between; margin-top: 33px;""><img src=""images/choice_trial_3.png"" style=""width: 408px; height: 417px; margin-right: 200px;""><img src=""images/choice_trial_10.png"" style=""width: 408px; height: 417px;""></div></div>","j","delaylearn","learning","trial","616f3496967585b2c7b39d2e","fLmqTduZKDguCjceD6XBndhkK9R2","2","images/choice_trial_3.png","images/choice_trial_10.png","images/pattern_1.png","f","f","7000","3","10","1","0","34","0","0","10","190","","","","",""
"html-keyboard-response","188","382554","0.0-78.0-1.0","","null","<div style=""display: flex; flex-direction: column; align-items: center; margin-top: -40px;""><img src=""images/pattern_1.png"" style=""width: 234px; height: 230px; margin-top: -50px;""><div style=""display: flex; justify-content: space-between; margin-top: 33px;""><img src=""images/choice_trial_10.png"" style=""width: 408px; height: 417px; margin-left:608px;""></div></div>","null","delaylearn","learning","display_response","616f3496967585b2c7b39d2e","fLmqTduZKDguCjceD6XBndhkK9R2","","","","","","","","","","","","","","","","","chosen stimuli: images/choice_trial_10.png","","","",""
"html-keyboard-response","189","389569","0.0-78.0-2.0","","null","","null","delaylearn","learning","feedback_duration_window","616f3496967585b2c7b39d2e","fLmqTduZKDguCjceD6XBndhkK9R2","","","","","","","","","","","","","","","","","","7000","","",""
"html-keyboard-response","190","391076","0.0-78.0-3.0","","null","<div style='margin:auto;width: auto; font-size: 150%'><span style='font-weight: bold; font-size: 100px; color: red;'>0 points!</span><br><br></div>","null","delaylearn","learning","feedback_image_window","616f3496967585b2c7b39d2e","fLmqTduZKDguCjceD6XBndhkK9R2","","","","","","","","","","","","","","","","","","","","",""
"html-keyboard-response","191","391590","0.0-79.0-0.0","","null","","null","","","mood_trial_fixation","","","","","","","","","","","","","","","","","","","","","","",""
"lmdlab-html-vas-response","192","396022","0.0-79.0-1.0","","3425","How happy are you right now?","0.39969135802469136","delaylearn","learning","mood_trial","616f3496967585b2c7b39d2e","fLmqTduZKDguCjceD6XBndhkK9R2","","","","","","","","","","","","","","","","","","","","[""Very unhappy"",""Very happy""]",""
"html-keyboard-response","193","397969","0.0-80.0","","null","<div style=""font-size:100px;"">+</div>","null","delaylearn","learning","ITI","616f3496967585b2c7b39d2e","fLmqTduZKDguCjceD6XBndhkK9R2","","","","","","","","","","","","","","","","","","","1936","",""
"html-keyboard-response","194","399133","0.0-81.0-0.0","","1162.5999999940395","<div style=""display: flex; flex-direction: column; align-items: center; margin-top: -40px;""><img src=""images/pattern_6.png"" style=""width: 234px; height: 230px; margin-top: -50px;""><div style=""display: flex; justify-content: space-between; margin-top: 33px;""><img src=""images/choice_trial_11.png"" style=""width: 408px; height: 417px; margin-right: 200px;""><img src=""images/choice_trial_5.png"" style=""width: 408px; height: 417px;""></div></div>","f","delaylearn","learning","trial","616f3496967585b2c7b39d2e","fLmqTduZKDguCjceD6XBndhkK9R2","2","images/choice_trial_11.png","images/choice_trial_5.png","images/pattern_6.png","j","f","750","11","5","5","0","35","1","0","11","190","","","","",""
"html-keyboard-response","195","400146","0.0-81.0-1.0","","null","<div style=""display: flex; flex-direction: column; align-items: center; margin-top: -40px;""><img src=""images/pattern_6.png"" style=""width: 234px; height: 230px; margin-top: -50px;""><div style=""display: flex; justify-content: space-between; margin-top: 33px;""><img src=""images/choice_trial_11.png"" style=""width: 408px; height: 417px; margin-right: 608px;""></div></div>","null","delaylearn","learning","display_response","616f3496967585b2c7b39d2e","fLmqTduZKDguCjceD6XBndhkK9R2","","","","","","","","","","","","","","","","","chosen stimuli: images/choice_trial_11.png","","","",""
"html-keyboard-response","196","400908","0.0-81.0-2.0","","null","","null","delaylearn","learning","feedback_duration_window","616f3496967585b2c7b39d2e","fLmqTduZKDguCjceD6XBndhkK9R2","","","","","","","","","","","","","","","","","","750","","",""
"html-keyboard-response","197","402410","0.0-81.0-3.0","","null","<div style='margin:auto;width: auto; font-size: 150%'><span style='font-weight: bold; font-size: 100px; color: red;'>0 points!</span><br><br></div>","null","delaylearn","learning","feedback_image_window","616f3496967585b2c7b39d2e","fLmqTduZKDguCjceD6XBndhkK9R2","","","","","","","","","","","","","","","","","","","","",""
"html-keyboard-response","198","404909","0.0-82.0","","null","<div style=""font-size:100px;"">+</div>","null","delaylearn","learning","ITI","616f3496967585b2c7b39d2e","fLmqTduZKDguCjceD6XBndhkK9R2","","","","","","","","","","","","","","","","","","","2493","",""
"html-keyboard-response","199","406158","0.0-83.0-0.0","","1245.9000000059605","<div style=""display: flex; flex-direction: column; align-items: center; margin-top: -40px;""><img src=""images/pattern_3.png"" style=""width: 234px; height: 230px; margin-top: -50px;""><div style=""display: flex; justify-content: space-between; margin-top: 33px;""><img src=""images/choice_trial_14.png"" style=""width: 408px; height: 417px; margin-right: 200px;""><img src=""images/choice_trial_12.png"" style=""width: 408px; height: 417px;""></div></div>","j","delaylearn","learning","trial","616f3496967585b2c7b39d2e","fLmqTduZKDguCjceD6XBndhkK9R2","2","images/choice_trial_14.png","images/choice_trial_12.png","images/pattern_3.png","j","j","7000","14","12","2","1","36","1","1","12","200","","","","",""
"html-keyboard-response","200","407170","0.0-83.0-1.0","","null","<div style=""display: flex; flex-direction: column; align-items: center; margin-top: -40px;""><img src=""images/pattern_3.png"" style=""width: 234px; height: 230px; margin-top: -50px;""><div style=""display: flex; justify-content: space-between; margin-top: 33px;""><img src=""images/choice_trial_12.png"" style=""width: 408px; height: 417px; margin-left:608px;""></div></div>","null","delaylearn","learning","display_response","616f3496967585b2c7b39d2e","fLmqTduZKDguCjceD6XBndhkK9R2","","","","","","","","","","","","","","","","","chosen stimuli: images/choice_trial_12.png","","","",""
"html-keyboard-response","201","414185","0.0-83.0-2.0","","null","","null","delaylearn","learning","feedback_duration_window","616f3496967585b2c7b39d2e","fLmqTduZKDguCjceD6XBndhkK9R2","","","","","","","","","","","","","","","","","","7000","","",""
"html-keyboard-response","202","415687","0.0-83.0-3.0","","null","<div style='margin:auto;width: auto; font-size: 150%'><span style='font-weight: bold; font-size: 100px; color: green;'>+10 points!</span><br><br></div>","null","delaylearn","learning","feedback_image_window","616f3496967585b2c7b39d2e","fLmqTduZKDguCjceD6XBndhkK9R2","","","","","","","","","","","","","","","","","","","","",""
"html-keyboard-response","203","417516","0.0-84.0","","null","<div style=""font-size:100px;"">+</div>","null","delaylearn","learning","ITI","616f3496967585b2c7b39d2e","fLmqTduZKDguCjceD6XBndhkK9R2","","","","","","","","","","","","","","","","","","","1826","",""
"html-keyboard-response","204","418590","0.0-85.0-0.0","","1072","<div style=""display: flex; flex-direction: column; align-items: center; margin-top: -40px;""><img src=""images/pattern_4.png"" style=""width: 234px; height: 230px; margin-top: -50px;""><div style=""display: flex; justify-content: space-between; margin-top: 33px;""><img src=""images/choice_trial_16.png"" style=""width: 408px; height: 417px; margin-right: 200px;""><img src=""images/choice_trial_4.png"" style=""width: 408px; height: 417px;""></div></div>","j","delaylearn","learning","trial","616f3496967585b2c7b39d2e","fLmqTduZKDguCjceD6XBndhkK9R2","2","images/choice_trial_16.png","images/choice_trial_4.png","images/pattern_4.png","f","j","7000","16","4","3","1","37","1","0","4","200","","","","",""
"html-keyboard-response","205","419599","0.0-85.0-1.0","","null","<div style=""display: flex; flex-direction: column; align-items: center; margin-top: -40px;""><img src=""images/pattern_4.png"" style=""width: 234px; height: 230px; margin-top: -50px;""><div style=""display: flex; justify-content: space-between; margin-top: 33px;""><img src=""images/choice_trial_4.png"" style=""width: 408px; height: 417px; margin-left:608px;""></div></div>","null","delaylearn","learning","display_response","616f3496967585b2c7b39d2e","fLmqTduZKDguCjceD6XBndhkK9R2","","","","","","","","","","","","","","","","","chosen stimuli: images/choice_trial_4.png","","","",""
"html-keyboard-response","206","426614","0.0-85.0-2.0","","null","","null","delaylearn","learning","feedback_duration_window","616f3496967585b2c7b39d2e","fLmqTduZKDguCjceD6XBndhkK9R2","","","","","","","","","","","","","","","","","","7000","","",""
"html-keyboard-response","207","428124","0.0-85.0-3.0","","null","<div style='margin:auto;width: auto; font-size: 150%'><span style='font-weight: bold; font-size: 100px; color: red;'>0 points!</span><br><br></div>","null","delaylearn","learning","feedback_image_window","616f3496967585b2c7b39d2e","fLmqTduZKDguCjceD6XBndhkK9R2","","","","","","","","","","","","","","","","","","","","",""
"html-keyboard-response","208","430433","0.0-86.0","","null","<div style=""font-size:100px;"">+</div>","null","delaylearn","learning","ITI","616f3496967585b2c7b39d2e","fLmqTduZKDguCjceD6XBndhkK9R2","","","","","","","","","","","","","","","","","","","2297","",""
"html-keyboard-response","209","431750","0.0-87.0-0.0","","1314.5","<div style=""display: flex; flex-direction: column; align-items: center; margin-top: -40px;""><img src=""images/pattern_7.png"" style=""width: 234px; height: 230px; margin-top: -50px;""><div style=""display: flex; justify-content: space-between; margin-top: 33px;""><img src=""images/choice_trial_8.png"" style=""width: 408px; height: 417px; margin-right: 200px;""><img src=""images/choice_trial_15.png"" style=""width: 408px; height: 417px;""></div></div>","f","delaylearn","learning","trial","616f3496967585b2c7b39d2e","fLmqTduZKDguCjceD6XBndhkK9R2","2","images/choice_trial_8.png","images/choice_trial_15.png","images/pattern_7.png","f","f","750","8","15","6","0","38","1","1","8","210","","","","",""
"html-keyboard-response","210","432760","0.0-87.0-1.0","","null","<div style=""display: flex; flex-direction: column; align-items: center; margin-top: -40px;""><img src=""images/pattern_7.png"" style=""width: 234px; height: 230px; margin-top: -50px;""><div style=""display: flex; justify-content: space-between; margin-top: 33px;""><img src=""images/choice_trial_8.png"" style=""width: 408px; height: 417px; margin-right: 608px;""></div></div>","null","delaylearn","learning","display_response","616f3496967585b2c7b39d2e","fLmqTduZKDguCjceD6XBndhkK9R2","","","","","","","","","","","","","","","","","chosen stimuli: images/choice_trial_8.png","","","",""
"html-keyboard-response","211","433521","0.0-87.0-2.0","","null","","null","delaylearn","learning","feedback_duration_window","616f3496967585b2c7b39d2e","fLmqTduZKDguCjceD6XBndhkK9R2","","","","","","","","","","","","","","","","","","750","","",""
"html-keyboard-response","212","435028","0.0-87.0-3.0","","null","<div style='margin:auto;width: auto; font-size: 150%'><span style='font-weight: bold; font-size: 100px; color: green;'>+10 points!</span><br><br></div>","null","delaylearn","learning","feedback_image_window","616f3496967585b2c7b39d2e","fLmqTduZKDguCjceD6XBndhkK9R2","","","","","","","","","","","","","","","","","","","","",""
"html-keyboard-response","213","437063","0.0-88.0","","null","<div style=""font-size:100px;"">+</div>","null","delaylearn","learning","ITI","616f3496967585b2c7b39d2e","fLmqTduZKDguCjceD6XBndhkK9R2","","","","","","","","","","","","","","","","","","","2030","",""
"html-keyboard-response","214","437821","0.0-89.0-0.0","","756","<div style=""display: flex; flex-direction: column; align-items: center; margin-top: -40px;""><img src=""images/pattern_1.png"" style=""width: 234px; height: 230px; margin-top: -50px;""><div style=""display: flex; justify-content: space-between; margin-top: 33px;""><img src=""images/choice_trial_3.png"" style=""width: 408px; height: 417px; margin-right: 200px;""><img src=""images/choice_trial_10.png"" style=""width: 408px; height: 417px;""></div></div>","j","delaylearn","learning","trial","616f3496967585b2c7b39d2e","fLmqTduZKDguCjceD6XBndhkK9R2","2","images/choice_trial_3.png","images/choice_trial_10.png","images/pattern_1.png","f","f","7000","3","10","1","0","39","0","0","10","210","","","","",""
"html-keyboard-response","215","438835","0.0-89.0-1.0","","null","<div style=""display: flex; flex-direction: column; align-items: center; margin-top: -40px;""><img src=""images/pattern_1.png"" style=""width: 234px; height: 230px; margin-top: -50px;""><div style=""display: flex; justify-content: space-between; margin-top: 33px;""><img src=""images/choice_trial_10.png"" style=""width: 408px; height: 417px; margin-left:608px;""></div></div>","null","delaylearn","learning","display_response","616f3496967585b2c7b39d2e","fLmqTduZKDguCjceD6XBndhkK9R2","","","","","","","","","","","","","","","","","chosen stimuli: images/choice_trial_10.png","","","",""
"html-keyboard-response","216","445839","0.0-89.0-2.0","","null","","null","delaylearn","learning","feedback_duration_window","616f3496967585b2c7b39d2e","fLmqTduZKDguCjceD6XBndhkK9R2","","","","","","","","","","","","","","","","","","7000","","",""
"html-keyboard-response","217","447344","0.0-89.0-3.0","","null","<div style='margin:auto;width: auto; font-size: 150%'><span style='font-weight: bold; font-size: 100px; color: red;'>0 points!</span><br><br></div>","null","delaylearn","learning","feedback_image_window","616f3496967585b2c7b39d2e","fLmqTduZKDguCjceD6XBndhkK9R2","","","","","","","","","","","","","","","","","","","","",""
"html-keyboard-response","218","447856","0.0-90.0-0.0","","null","","null","","","mood_trial_fixation","","","","","","","","","","","","","","","","","","","","","","",""
"lmdlab-html-vas-response","219","451973","0.0-90.0-1.0","","3105","How happy are you right now?","0.4074074074074074","delaylearn","learning","mood_trial","616f3496967585b2c7b39d2e","fLmqTduZKDguCjceD6XBndhkK9R2","","","","","","","","","","","","","","","","","","","","[""Very unhappy"",""Very happy""]",""
"html-keyboard-response","220","453949","0.0-91.0","","null","<div style=""font-size:100px;"">+</div>","null","delaylearn","learning","ITI","616f3496967585b2c7b39d2e","fLmqTduZKDguCjceD6XBndhkK9R2","","","","","","","","","","","","","","","","","","","1972","",""
