"trial_type","trial_index","time_elapsed","internal_node_id","participant","rt","stimulus","response","exp_name","exp_stage","test_part","subjectID","databaseID","counterbal","choice_stimuli_1","choice_stimuli_2","pattern_stimuli","rewarded_answer","correct_answer","feedback_duration_times","stim_left","stim_right","pair","leftright_counter","trial","response_correct","response_rewarded","chosen_stim","counter","displayed_choice","feedback_durations","ITI_duration","labels","rest_warning"
"pavlovia","0","545","0.0-0.0","","","","","","","","","","","","","","","","","","","","","","","","","","","","","",""
"html-keyboard-response","1","3549","0.0-1.0","","null","<div style=""font-size:100px;"">+</div>","null","delaylearn","learning","pre_fixation","6565fff05ec125a5ff77a77c","","","","","","","","","","","","","","","","","","","","","",""
"html-keyboard-response","2","4424","0.0-2.0-0.0","","871","<div style=""display: flex; flex-direction: column; align-items: center; margin-top: -40px;""><img src=""images/demo_images/pattern_1.png"" style=""width: 234px; height: 230px; margin-top: -50px;""><div style=""display: flex; justify-content: space-between; margin-top: 33px;""><img src=""images/demo_images/choice_trial_2.png"" style=""width: 408px; height: 417px; margin-right: 200px;""><img src=""images/demo_images/choice_trial_1.png"" style=""width: 408px; height: 417px;""></div></div>","f","delaylearn","learning","trial","6565fff05ec125a5ff77a77c","4PlUjpfoJ7fFtl4u6rbMOsV1Atq1","5","images/demo_images/choice_trial_2.png","images/demo_images/choice_trial_1.png","images/demo_images/pattern_1.png","j","j","3000","2","1","20","1","1","0","0","2","0","","","","",""
"html-keyboard-response","3","5428","0.0-2.0-1.0","","null","<div style=""display: flex; flex-direction: column; align-items: center; margin-top: -40px;""><img src=""images/demo_images/pattern_1.png"" style=""width: 234px; height: 230px; margin-top: -50px;""><div style=""display: flex; justify-content: space-between; margin-top: 33px;""><img src=""images/demo_images/choice_trial_2.png"" style=""width: 408px; height: 417px; margin-right: 608px;""></div></div>","null","delaylearn","learning","display_response","6565fff05ec125a5ff77a77c","4PlUjpfoJ7fFtl4u6rbMOsV1Atq1","","","","","","","","","","","","","","","","","chosen stimuli: images/demo_images/choice_trial_2.png","","","",""
"html-keyboard-response","4","8431","0.0-2.0-2.0","","null","","null","delaylearn","learning","feedback_duration_window","6565fff05ec125a5ff77a77c","4PlUjpfoJ7fFtl4u6rbMOsV1Atq1","","","","","","","","","","","","","","","","","","3000","","",""
"html-keyboard-response","5","9935","0.0-2.0-3.0","","null","<div style='margin:auto;width: auto; font-size: 150%'><span style='font-weight: bold; font-size: 100px; color: red;'>0 points!</span><br><br></div>","null","delaylearn","learning","feedback_image_window","6565fff05ec125a5ff77a77c","4PlUjpfoJ7fFtl4u6rbMOsV1Atq1","","","","","","","","","","","","","","","","","","","","",""
"html-keyboard-response","6","12380","0.0-3.0","","null","<div style=""font-size:100px;"">+</div>","null","delaylearn","learning","ITI","6565fff05ec125a5ff77a77c","4PlUjpfoJ7fFtl4u6rbMOsV1Atq1","","","","","","","","","","","","","","","","","","","2442","",""
"html-keyboard-response","7","12964","0.0-4.0-0.0","","580","<div style=""display: flex; flex-direction: column; align-items: center; margin-top: -40px;""><img src=""images/demo_images/pattern_1.png"" style=""width: 234px; height: 230px; margin-top: -50px;""><div style=""display: flex; justify-content: space-between; margin-top: 33px;""><img src=""images/demo_images/choice_trial_2.png"" style=""width: 408px; height: 417px; margin-right: 200px;""><img src=""images/demo_images/choice_trial_1.png"" style=""width: 408px; height: 417px;""></div></div>","j","delaylearn","learning","trial","6565fff05ec125a5ff77a77c","4PlUjpfoJ7fFtl4u6rbMOsV1Atq1","5","images/demo_images/choice_trial_2.png","images/demo_images/choice_trial_1.png","images/demo_images/pattern_1.png","j","j","3000","2","1","20","1","2","1","1","1","10","","","","",""
"html-keyboard-response","8","13969","0.0-4.0-1.0","","null","<div style=""display: flex; flex-direction: column; align-items: center; margin-top: -40px;""><img src=""images/demo_images/pattern_1.png"" style=""width: 234px; height: 230px; margin-top: -50px;""><div style=""display: flex; justify-content: space-between; margin-top: 33px;""><img src=""images/demo_images/choice_trial_1.png"" style=""width: 408px; height: 417px; margin-left:608px;""></div></div>","null","delaylearn","learning","display_response","6565fff05ec125a5ff77a77c","4PlUjpfoJ7fFtl4u6rbMOsV1Atq1","","","","","","","","","","","","","","","","","chosen stimuli: images/demo_images/choice_trial_1.png","","","",""
"html-keyboard-response","9","16972","0.0-4.0-2.0","","null","","null","delaylearn","learning","feedback_duration_window","6565fff05ec125a5ff77a77c","4PlUjpfoJ7fFtl4u6rbMOsV1Atq1","","","","","","","","","","","","","","","","","","3000","","",""
"html-keyboard-response","10","18474","0.0-4.0-3.0","","null","<div style='margin:auto;width: auto; font-size: 150%'><span style='font-weight: bold; font-size: 100px; color: green;'>+10 points!</span><br><br></div>","null","delaylearn","learning","feedback_image_window","6565fff05ec125a5ff77a77c","4PlUjpfoJ7fFtl4u6rbMOsV1Atq1","","","","","","","","","","","","","","","","","","","","",""
"html-keyboard-response","11","20947","0.0-5.0","","null","<div style=""font-size:100px;"">+</div>","null","delaylearn","learning","ITI","6565fff05ec125a5ff77a77c","4PlUjpfoJ7fFtl4u6rbMOsV1Atq1","","","","","","","","","","","","","","","","","","","2470","",""
"html-keyboard-response","12","22048","0.0-6.0-0.0","","1098","<div style=""display: flex; flex-direction: column; align-items: center; margin-top: -40px;""><img src=""images/demo_images/pattern_1.png"" style=""width: 234px; height: 230px; margin-top: -50px;""><div style=""display: flex; justify-content: space-between; margin-top: 33px;""><img src=""images/demo_images/choice_trial_1.png"" style=""width: 408px; height: 417px; margin-right: 200px;""><img src=""images/demo_images/choice_trial_2.png"" style=""width: 408px; height: 417px;""></div></div>","f","delaylearn","learning","trial","6565fff05ec125a5ff77a77c","4PlUjpfoJ7fFtl4u6rbMOsV1Atq1","5","images/demo_images/choice_trial_1.png","images/demo_images/choice_trial_2.png","images/demo_images/pattern_1.png","j","f","3000","1","2","20","0","3","1","0","1","10","","","","",""
"html-keyboard-response","13","23052","0.0-6.0-1.0","","null","<div style=""display: flex; flex-direction: column; align-items: center; margin-top: -40px;""><img src=""images/demo_images/pattern_1.png"" style=""width: 234px; height: 230px; margin-top: -50px;""><div style=""display: flex; justify-content: space-between; margin-top: 33px;""><img src=""images/demo_images/choice_trial_1.png"" style=""width: 408px; height: 417px; margin-right: 608px;""></div></div>","null","delaylearn","learning","display_response","6565fff05ec125a5ff77a77c","4PlUjpfoJ7fFtl4u6rbMOsV1Atq1","","","","","","","","","","","","","","","","","chosen stimuli: images/demo_images/choice_trial_1.png","","","",""
"html-keyboard-response","14","26057","0.0-6.0-2.0","","null","","null","delaylearn","learning","feedback_duration_window","6565fff05ec125a5ff77a77c","4PlUjpfoJ7fFtl4u6rbMOsV1Atq1","","","","","","","","","","","","","","","","","","3000","","",""
"html-keyboard-response","15","27559","0.0-6.0-3.0","","null","<div style='margin:auto;width: auto; font-size: 150%'><span style='font-weight: bold; font-size: 100px; color: red;'>0 points!</span><br><br></div>","null","delaylearn","learning","feedback_image_window","6565fff05ec125a5ff77a77c","4PlUjpfoJ7fFtl4u6rbMOsV1Atq1","","","","","","","","","","","","","","","","","","","","",""
"html-keyboard-response","16","29752","0.0-7.0","","null","<div style=""font-size:100px;"">+</div>","null","delaylearn","learning","ITI","6565fff05ec125a5ff77a77c","4PlUjpfoJ7fFtl4u6rbMOsV1Atq1","","","","","","","","","","","","","","","","","","","2189","",""
"html-keyboard-response","17","30789","0.0-8.0-0.0","","1033","<div style=""display: flex; flex-direction: column; align-items: center; margin-top: -40px;""><img src=""images/demo_images/pattern_1.png"" style=""width: 234px; height: 230px; margin-top: -50px;""><div style=""display: flex; justify-content: space-between; margin-top: 33px;""><img src=""images/demo_images/choice_trial_1.png"" style=""width: 408px; height: 417px; margin-right: 200px;""><img src=""images/demo_images/choice_trial_2.png"" style=""width: 408px; height: 417px;""></div></div>","j","delaylearn","learning","trial","6565fff05ec125a5ff77a77c","4PlUjpfoJ7fFtl4u6rbMOsV1Atq1","5","images/demo_images/choice_trial_1.png","images/demo_images/choice_trial_2.png","images/demo_images/pattern_1.png","f","f","3000","1","2","20","0","4","0","0","2","10","","","","",""
"html-keyboard-response","18","31793","0.0-8.0-1.0","","null","<div style=""display: flex; flex-direction: column; align-items: center; margin-top: -40px;""><img src=""images/demo_images/pattern_1.png"" style=""width: 234px; height: 230px; margin-top: -50px;""><div style=""display: flex; justify-content: space-between; margin-top: 33px;""><img src=""images/demo_images/choice_trial_2.png"" style=""width: 408px; height: 417px; margin-left:608px;""></div></div>","null","delaylearn","learning","display_response","6565fff05ec125a5ff77a77c","4PlUjpfoJ7fFtl4u6rbMOsV1Atq1","","","","","","","","","","","","","","","","","chosen stimuli: images/demo_images/choice_trial_2.png","","","",""
"html-keyboard-response","19","34796","0.0-8.0-2.0","","null","","null","delaylearn","learning","feedback_duration_window","6565fff05ec125a5ff77a77c","4PlUjpfoJ7fFtl4u6rbMOsV1Atq1","","","","","","","","","","","","","","","","","","3000","","",""
"html-keyboard-response","20","36299","0.0-8.0-3.0","","null","<div style='margin:auto;width: auto; font-size: 150%'><span style='font-weight: bold; font-size: 100px; color: red;'>0 points!</span><br><br></div>","null","delaylearn","learning","feedback_image_window","6565fff05ec125a5ff77a77c","4PlUjpfoJ7fFtl4u6rbMOsV1Atq1","","","","","","","","","","","","","","","","","","","","",""
"html-keyboard-response","21","36802","0.0-9.0-0.0","","null","","null","","","mood_trial_fixation","","","","","","","","","","","","","","","","","","","","","","",""
"lmdlab-html-vas-response","22","41800","0.0-9.0-1.0","","3989","How happy are you right now?","0.31296296296296294","delaylearn","learning","mood_trial","6565fff05ec125a5ff77a77c","4PlUjpfoJ7fFtl4u6rbMOsV1Atq1","","","","","","","","","","","","","","","","","","","","[""Very unhappy"",""Very happy""]",""
"html-keyboard-response","23","43870","0.0-10.0","","null","<div style=""font-size:100px;"">+</div>","null","delaylearn","learning","ITI","6565fff05ec125a5ff77a77c","4PlUjpfoJ7fFtl4u6rbMOsV1Atq1","","","","","","","","","","","","","","","","","","","2069","",""
"html-keyboard-response","24","44973","0.0-11.0-0.0","","1100","<div style=""display: flex; flex-direction: column; align-items: center; margin-top: -40px;""><img src=""images/demo_images/pattern_1.png"" style=""width: 234px; height: 230px; margin-top: -50px;""><div style=""display: flex; justify-content: space-between; margin-top: 33px;""><img src=""images/demo_images/choice_trial_2.png"" style=""width: 408px; height: 417px; margin-right: 200px;""><img src=""images/demo_images/choice_trial_1.png"" style=""width: 408px; height: 417px;""></div></div>","j","delaylearn","learning","trial","6565fff05ec125a5ff77a77c","4PlUjpfoJ7fFtl4u6rbMOsV1Atq1","5","images/demo_images/choice_trial_2.png","images/demo_images/choice_trial_1.png","images/demo_images/pattern_1.png","j","j","3000","2","1","20","1","5","1","1","1","20","","","","",""
"html-keyboard-response","25","45976","0.0-11.0-1.0","","null","<div style=""display: flex; flex-direction: column; align-items: center; margin-top: -40px;""><img src=""images/demo_images/pattern_1.png"" style=""width: 234px; height: 230px; margin-top: -50px;""><div style=""display: flex; justify-content: space-between; margin-top: 33px;""><img src=""images/demo_images/choice_trial_1.png"" style=""width: 408px; height: 417px; margin-left:608px;""></div></div>","null","delaylearn","learning","display_response","6565fff05ec125a5ff77a77c","4PlUjpfoJ7fFtl4u6rbMOsV1Atq1","","","","","","","","","","","","","","","","","chosen stimuli: images/demo_images/choice_trial_1.png","","","",""
"html-keyboard-response","26","48979","0.0-11.0-2.0","","null","","null","delaylearn","learning","feedback_duration_window","6565fff05ec125a5ff77a77c","4PlUjpfoJ7fFtl4u6rbMOsV1Atq1","","","","","","","","","","","","","","","","","","3000","","",""
"html-keyboard-response","27","50482","0.0-11.0-3.0","","null","<div style='margin:auto;width: auto; font-size: 150%'><span style='font-weight: bold; font-size: 100px; color: green;'>+10 points!</span><br><br></div>","null","delaylearn","learning","feedback_image_window","6565fff05ec125a5ff77a77c","4PlUjpfoJ7fFtl4u6rbMOsV1Atq1","","","","","","","","","","","","","","","","","","","","",""
"html-keyboard-response","28","52435","0.0-12.0","","null","<div style=""font-size:100px;"">+</div>","null","delaylearn","learning","ITI","6565fff05ec125a5ff77a77c","4PlUjpfoJ7fFtl4u6rbMOsV1Atq1","","","","","","","","","","","","","","","","","","","1950","",""
"html-keyboard-response","29","53731","0.0-13.0-0.0","","1293.0000000000582","<div style=""display: flex; flex-direction: column; align-items: center; margin-top: -40px;""><img src=""images/demo_images/pattern_1.png"" style=""width: 234px; height: 230px; margin-top: -50px;""><div style=""display: flex; justify-content: space-between; margin-top: 33px;""><img src=""images/demo_images/choice_trial_1.png"" style=""width: 408px; height: 417px; margin-right: 200px;""><img src=""images/demo_images/choice_trial_2.png"" style=""width: 408px; height: 417px;""></div></div>","f","delaylearn","learning","trial","6565fff05ec125a5ff77a77c","4PlUjpfoJ7fFtl4u6rbMOsV1Atq1","5","images/demo_images/choice_trial_1.png","images/demo_images/choice_trial_2.png","images/demo_images/pattern_1.png","f","f","3000","1","2","20","0","6","1","1","1","30","","","","",""
"html-keyboard-response","30","54735","0.0-13.0-1.0","","null","<div style=""display: flex; flex-direction: column; align-items: center; margin-top: -40px;""><img src=""images/demo_images/pattern_1.png"" style=""width: 234px; height: 230px; margin-top: -50px;""><div style=""display: flex; justify-content: space-between; margin-top: 33px;""><img src=""images/demo_images/choice_trial_1.png"" style=""width: 408px; height: 417px; margin-right: 608px;""></div></div>","null","delaylearn","learning","display_response","6565fff05ec125a5ff77a77c","4PlUjpfoJ7fFtl4u6rbMOsV1Atq1","","","","","","","","","","","","","","","","","chosen stimuli: images/demo_images/choice_trial_1.png","","","",""
"html-keyboard-response","31","57738","0.0-13.0-2.0","","null","","null","delaylearn","learning","feedback_duration_window","6565fff05ec125a5ff77a77c","4PlUjpfoJ7fFtl4u6rbMOsV1Atq1","","","","","","","","","","","","","","","","","","3000","","",""
"html-keyboard-response","32","59240","0.0-13.0-3.0","","null","<div style='margin:auto;width: auto; font-size: 150%'><span style='font-weight: bold; font-size: 100px; color: green;'>+10 points!</span><br><br></div>","null","delaylearn","learning","feedback_image_window","6565fff05ec125a5ff77a77c","4PlUjpfoJ7fFtl4u6rbMOsV1Atq1","","","","","","","","","","","","","","","","","","","","",""
"html-keyboard-response","33","61178","0.0-14.0","","null","<div style=""font-size:100px;"">+</div>","null","delaylearn","learning","ITI","6565fff05ec125a5ff77a77c","4PlUjpfoJ7fFtl4u6rbMOsV1Atq1","","","","","","","","","","","","","","","","","","","1936","",""
"html-keyboard-response","34","62039","0.0-15.0-0.0","","858","<div style=""display: flex; flex-direction: column; align-items: center; margin-top: -40px;""><img src=""images/demo_images/pattern_1.png"" style=""width: 234px; height: 230px; margin-top: -50px;""><div style=""display: flex; justify-content: space-between; margin-top: 33px;""><img src=""images/demo_images/choice_trial_2.png"" style=""width: 408px; height: 417px; margin-right: 200px;""><img src=""images/demo_images/choice_trial_1.png"" style=""width: 408px; height: 417px;""></div></div>","j","delaylearn","learning","trial","6565fff05ec125a5ff77a77c","4PlUjpfoJ7fFtl4u6rbMOsV1Atq1","5","images/demo_images/choice_trial_2.png","images/demo_images/choice_trial_1.png","images/demo_images/pattern_1.png","j","j","3000","2","1","20","1","7","1","1","1","40","","","","",""
"html-keyboard-response","35","63042","0.0-15.0-1.0","","null","<div style=""display: flex; flex-direction: column; align-items: center; margin-top: -40px;""><img src=""images/demo_images/pattern_1.png"" style=""width: 234px; height: 230px; margin-top: -50px;""><div style=""display: flex; justify-content: space-between; margin-top: 33px;""><img src=""images/demo_images/choice_trial_1.png"" style=""width: 408px; height: 417px; margin-left:608px;""></div></div>","null","delaylearn","learning","display_response","6565fff05ec125a5ff77a77c","4PlUjpfoJ7fFtl4u6rbMOsV1Atq1","","","","","","","","","","","","","","","","","chosen stimuli: images/demo_images/choice_trial_1.png","","","",""
"html-keyboard-response","36","66044","0.0-15.0-2.0","","null","","null","delaylearn","learning","feedback_duration_window","6565fff05ec125a5ff77a77c","4PlUjpfoJ7fFtl4u6rbMOsV1Atq1","","","","","","","","","","","","","","","","","","3000","","",""
"html-keyboard-response","37","67547","0.0-15.0-3.0","","null","<div style='margin:auto;width: auto; font-size: 150%'><span style='font-weight: bold; font-size: 100px; color: green;'>+10 points!</span><br><br></div>","null","delaylearn","learning","feedback_image_window","6565fff05ec125a5ff77a77c","4PlUjpfoJ7fFtl4u6rbMOsV1Atq1","","","","","","","","","","","","","","","","","","","","",""
"html-keyboard-response","38","69505","0.0-16.0","","null","<div style=""font-size:100px;"">+</div>","null","delaylearn","learning","ITI","6565fff05ec125a5ff77a77c","4PlUjpfoJ7fFtl4u6rbMOsV1Atq1","","","","","","","","","","","","","","","","","","","1955","",""
"html-keyboard-response","39","70664","0.0-17.0-0.0","","1156","<div style=""display: flex; flex-direction: column; align-items: center; margin-top: -40px;""><img src=""images/demo_images/pattern_1.png"" style=""width: 234px; height: 230px; margin-top: -50px;""><div style=""display: flex; justify-content: space-between; margin-top: 33px;""><img src=""images/demo_images/choice_trial_1.png"" style=""width: 408px; height: 417px; margin-right: 200px;""><img src=""images/demo_images/choice_trial_2.png"" style=""width: 408px; height: 417px;""></div></div>","f","delaylearn","learning","trial","6565fff05ec125a5ff77a77c","4PlUjpfoJ7fFtl4u6rbMOsV1Atq1","5","images/demo_images/choice_trial_1.png","images/demo_images/choice_trial_2.png","images/demo_images/pattern_1.png","f","f","3000","1","2","20","0","8","1","1","1","50","","","","",""
"html-keyboard-response","40","71668","0.0-17.0-1.0","","null","<div style=""display: flex; flex-direction: column; align-items: center; margin-top: -40px;""><img src=""images/demo_images/pattern_1.png"" style=""width: 234px; height: 230px; margin-top: -50px;""><div style=""display: flex; justify-content: space-between; margin-top: 33px;""><img src=""images/demo_images/choice_trial_1.png"" style=""width: 408px; height: 417px; margin-right: 608px;""></div></div>","null","delaylearn","learning","display_response","6565fff05ec125a5ff77a77c","4PlUjpfoJ7fFtl4u6rbMOsV1Atq1","","","","","","","","","","","","","","","","","chosen stimuli: images/demo_images/choice_trial_1.png","","","",""
"html-keyboard-response","41","74672","0.0-17.0-2.0","","null","","null","delaylearn","learning","feedback_duration_window","6565fff05ec125a5ff77a77c","4PlUjpfoJ7fFtl4u6rbMOsV1Atq1","","","","","","","","","","","","","","","","","","3000","","",""
"html-keyboard-response","42","76175","0.0-17.0-3.0","","null","<div style='margin:auto;width: auto; font-size: 150%'><span style='font-weight: bold; font-size: 100px; color: green;'>+10 points!</span><br><br></div>","null","delaylearn","learning","feedback_image_window","6565fff05ec125a5ff77a77c","4PlUjpfoJ7fFtl4u6rbMOsV1Atq1","","","","","","","","","","","","","","","","","","","","",""
"html-button-response","43","78979","0.0-18.0","","2801","
  <div style=""display: flex; align-items: center; justify-content: center; height: 80vh;"">
  <div>
          <img src=""images/inst_demo_finish.png"" style=""width: 80vw; height:auto;"">
          <br><br>
      </div>
      <br><br>
  </div>","0","","","","","","","","","","","","","","","","","","","","","","","","","",""
"html-keyboard-response","44","97139","0.0-19.0","","18158","
  <div style=""display: flex; align-items: center; justify-content: center; height: 80vh;"">
  <div>
          <img src=""images/inst_6.png"" style=""width: 80vw; height:auto;"">
          <br><br>
      </div>
      <br><br>
  </div>","f","","","","","","","","","","","","","","","","","","","","","","","","","",""
"html-keyboard-response","45","100142","0.0-20.0","","null","<div style=""font-size:100px;"">+</div>","null","delaylearn","learning","pre_fixation","6565fff05ec125a5ff77a77c","","","","","","","","","","","","","","","","","","","","","",""
"html-keyboard-response","46","102473","0.0-21.0","","null","<div style=""font-size:100px;"">+</div>","null","delaylearn","learning","ITI","6565fff05ec125a5ff77a77c","4PlUjpfoJ7fFtl4u6rbMOsV1Atq1","","","","","","","","","","","","","","","","","","","2327","",""
"html-keyboard-response","47","103772","0.0-22.0-0.0","","1296","<div style=""display: flex; flex-direction: column; align-items: center; margin-top: -40px;""><img src=""images/pattern_3.png"" style=""width: 234px; height: 230px; margin-top: -50px;""><div style=""display: flex; justify-content: space-between; margin-top: 33px;""><img src=""images/choice_trial_16.png"" style=""width: 408px; height: 417px; margin-right: 200px;""><img src=""images/choice_trial_2.png"" style=""width: 408px; height: 417px;""></div></div>","j","delaylearn","learning","trial","6565fff05ec125a5ff77a77c","4PlUjpfoJ7fFtl4u6rbMOsV1Atq1","5","images/choice_trial_16.png","images/choice_trial_2.png","images/pattern_3.png","f","f","7000","16","2","2","0","9","0","0","2","50","","","","",""
"html-keyboard-response","48","104775","0.0-22.0-1.0","","null","<div style=""display: flex; flex-direction: column; align-items: center; margin-top: -40px;""><img src=""images/pattern_3.png"" style=""width: 234px; height: 230px; margin-top: -50px;""><div style=""display: flex; justify-content: space-between; margin-top: 33px;""><img src=""images/choice_trial_2.png"" style=""width: 408px; height: 417px; margin-left:608px;""></div></div>","null","delaylearn","learning","display_response","6565fff05ec125a5ff77a77c","4PlUjpfoJ7fFtl4u6rbMOsV1Atq1","","","","","","","","","","","","","","","","","chosen stimuli: images/choice_trial_2.png","","","",""
"html-keyboard-response","49","111777","0.0-22.0-2.0","","null","","null","delaylearn","learning","feedback_duration_window","6565fff05ec125a5ff77a77c","4PlUjpfoJ7fFtl4u6rbMOsV1Atq1","","","","","","","","","","","","","","","","","","7000","","",""
"html-keyboard-response","50","113281","0.0-22.0-3.0","","null","<div style='margin:auto;width: auto; font-size: 150%'><span style='font-weight: bold; font-size: 100px; color: red;'>0 points!</span><br><br></div>","null","delaylearn","learning","feedback_image_window","6565fff05ec125a5ff77a77c","4PlUjpfoJ7fFtl4u6rbMOsV1Atq1","","","","","","","","","","","","","","","","","","","","",""
"html-keyboard-response","51","115421","0.0-23.0","","null","<div style=""font-size:100px;"">+</div>","null","delaylearn","learning","ITI","6565fff05ec125a5ff77a77c","4PlUjpfoJ7fFtl4u6rbMOsV1Atq1","","","","","","","","","","","","","","","","","","","2138","",""
"html-keyboard-response","52","116488","0.0-24.0-0.0","","1064","<div style=""display: flex; flex-direction: column; align-items: center; margin-top: -40px;""><img src=""images/pattern_7.png"" style=""width: 234px; height: 230px; margin-top: -50px;""><div style=""display: flex; justify-content: space-between; margin-top: 33px;""><img src=""images/choice_trial_10.png"" style=""width: 408px; height: 417px; margin-right: 200px;""><img src=""images/choice_trial_8.png"" style=""width: 408px; height: 417px;""></div></div>","j","delaylearn","learning","trial","6565fff05ec125a5ff77a77c","4PlUjpfoJ7fFtl4u6rbMOsV1Atq1","5","images/choice_trial_10.png","images/choice_trial_8.png","images/pattern_7.png","j","j","750","10","8","6","1","10","1","1","8","60","","","","",""
"html-keyboard-response","53","117491","0.0-24.0-1.0","","null","<div style=""display: flex; flex-direction: column; align-items: center; margin-top: -40px;""><img src=""images/pattern_7.png"" style=""width: 234px; height: 230px; margin-top: -50px;""><div style=""display: flex; justify-content: space-between; margin-top: 33px;""><img src=""images/choice_trial_8.png"" style=""width: 408px; height: 417px; margin-left:608px;""></div></div>","null","delaylearn","learning","display_response","6565fff05ec125a5ff77a77c","4PlUjpfoJ7fFtl4u6rbMOsV1Atq1","","","","","","","","","","","","","","","","","chosen stimuli: images/choice_trial_8.png","","","",""
"html-keyboard-response","54","118243","0.0-24.0-2.0","","null","","null","delaylearn","learning","feedback_duration_window","6565fff05ec125a5ff77a77c","4PlUjpfoJ7fFtl4u6rbMOsV1Atq1","","","","","","","","","","","","","","","","","","750","","",""
"html-keyboard-response","55","119747","0.0-24.0-3.0","","null","<div style='margin:auto;width: auto; font-size: 150%'><span style='font-weight: bold; font-size: 100px; color: green;'>+10 points!</span><br><br></div>","null","delaylearn","learning","feedback_image_window","6565fff05ec125a5ff77a77c","4PlUjpfoJ7fFtl4u6rbMOsV1Atq1","","","","","","","","","","","","","","","","","","","","",""
"html-keyboard-response","56","122168","0.0-25.0","","null","<div style=""font-size:100px;"">+</div>","null","delaylearn","learning","ITI","6565fff05ec125a5ff77a77c","4PlUjpfoJ7fFtl4u6rbMOsV1Atq1","","","","","","","","","","","","","","","","","","","2419","",""
"html-keyboard-response","57","123404","0.0-26.0-0.0","","1233","<div style=""display: flex; flex-direction: column; align-items: center; margin-top: -40px;""><img src=""images/pattern_4.png"" style=""width: 234px; height: 230px; margin-top: -50px;""><div style=""display: flex; justify-content: space-between; margin-top: 33px;""><img src=""images/choice_trial_11.png"" style=""width: 408px; height: 417px; margin-right: 200px;""><img src=""images/choice_trial_4.png"" style=""width: 408px; height: 417px;""></div></div>","f","delaylearn","learning","trial","6565fff05ec125a5ff77a77c","4PlUjpfoJ7fFtl4u6rbMOsV1Atq1","5","images/choice_trial_11.png","images/choice_trial_4.png","images/pattern_4.png","f","f","7000","11","4","3","0","11","1","1","11","70","","","","",""
"html-keyboard-response","58","124406","0.0-26.0-1.0","","null","<div style=""display: flex; flex-direction: column; align-items: center; margin-top: -40px;""><img src=""images/pattern_4.png"" style=""width: 234px; height: 230px; margin-top: -50px;""><div style=""display: flex; justify-content: space-between; margin-top: 33px;""><img src=""images/choice_trial_11.png"" style=""width: 408px; height: 417px; margin-right: 608px;""></div></div>","null","delaylearn","learning","display_response","6565fff05ec125a5ff77a77c","4PlUjpfoJ7fFtl4u6rbMOsV1Atq1","","","","","","","","","","","","","","","","","chosen stimuli: images/choice_trial_11.png","","","",""
"html-keyboard-response","59","131409","0.0-26.0-2.0","","null","","null","delaylearn","learning","feedback_duration_window","6565fff05ec125a5ff77a77c","4PlUjpfoJ7fFtl4u6rbMOsV1Atq1","","","","","","","","","","","","","","","","","","7000","","",""
"html-keyboard-response","60","132912","0.0-26.0-3.0","","null","<div style='margin:auto;width: auto; font-size: 150%'><span style='font-weight: bold; font-size: 100px; color: green;'>+10 points!</span><br><br></div>","null","delaylearn","learning","feedback_image_window","6565fff05ec125a5ff77a77c","4PlUjpfoJ7fFtl4u6rbMOsV1Atq1","","","","","","","","","","","","","","","","","","","","",""
"html-keyboard-response","61","134922","0.0-27.0","","null","<div style=""font-size:100px;"">+</div>","null","delaylearn","learning","ITI","6565fff05ec125a5ff77a77c","4PlUjpfoJ7fFtl4u6rbMOsV1Atq1","","","","","","","","","","","","","","","","","","","2008","",""
"html-keyboard-response","62","137511","0.0-28.0-0.0","","2585.000000000058","<div style=""display: flex; flex-direction: column; align-items: center; margin-top: -40px;""><img src=""images/pattern_5.png"" style=""width: 234px; height: 230px; margin-top: -50px;""><div style=""display: flex; justify-content: space-between; margin-top: 33px;""><img src=""images/choice_trial_13.png"" style=""width: 408px; height: 417px; margin-right: 200px;""><img src=""images/choice_trial_7.png"" style=""width: 408px; height: 417px;""></div></div>","f","delaylearn","learning","trial","6565fff05ec125a5ff77a77c","4PlUjpfoJ7fFtl4u6rbMOsV1Atq1","5","images/choice_trial_13.png","images/choice_trial_7.png","images/pattern_5.png","j","j","750","13","7","4","1","12","0","0","13","70","","","","",""
"html-keyboard-response","63","138515","0.0-28.0-1.0","","null","<div style=""display: flex; flex-direction: column; align-items: center; margin-top: -40px;""><img src=""images/pattern_5.png"" style=""width: 234px; height: 230px; margin-top: -50px;""><div style=""display: flex; justify-content: space-between; margin-top: 33px;""><img src=""images/choice_trial_13.png"" style=""width: 408px; height: 417px; margin-right: 608px;""></div></div>","null","delaylearn","learning","display_response","6565fff05ec125a5ff77a77c","4PlUjpfoJ7fFtl4u6rbMOsV1Atq1","","","","","","","","","","","","","","","","","chosen stimuli: images/choice_trial_13.png","","","",""
"html-keyboard-response","64","139269","0.0-28.0-2.0","","null","","null","delaylearn","learning","feedback_duration_window","6565fff05ec125a5ff77a77c","4PlUjpfoJ7fFtl4u6rbMOsV1Atq1","","","","","","","","","","","","","","","","","","750","","",""
"html-keyboard-response","65","140772","0.0-28.0-3.0","","null","<div style='margin:auto;width: auto; font-size: 150%'><span style='font-weight: bold; font-size: 100px; color: red;'>0 points!</span><br><br></div>","null","delaylearn","learning","feedback_image_window","6565fff05ec125a5ff77a77c","4PlUjpfoJ7fFtl4u6rbMOsV1Atq1","","","","","","","","","","","","","","","","","","","","",""
"html-keyboard-response","66","143060","0.0-29.0","","null","<div style=""font-size:100px;"">+</div>","null","delaylearn","learning","ITI","6565fff05ec125a5ff77a77c","4PlUjpfoJ7fFtl4u6rbMOsV1Atq1","","","","","","","","","","","","","","","","","","","2286","",""
"html-keyboard-response","67","145298","0.0-30.0-0.0","","2231.999999999942","<div style=""display: flex; flex-direction: column; align-items: center; margin-top: -40px;""><img src=""images/pattern_6.png"" style=""width: 234px; height: 230px; margin-top: -50px;""><div style=""display: flex; justify-content: space-between; margin-top: 33px;""><img src=""images/choice_trial_14.png"" style=""width: 408px; height: 417px; margin-right: 200px;""><img src=""images/choice_trial_9.png"" style=""width: 408px; height: 417px;""></div></div>","f","delaylearn","learning","trial","6565fff05ec125a5ff77a77c","4PlUjpfoJ7fFtl4u6rbMOsV1Atq1","5","images/choice_trial_14.png","images/choice_trial_9.png","images/pattern_6.png","j","f","750","14","9","5","0","13","1","0","14","70","","","","",""
"html-keyboard-response","68","146301","0.0-30.0-1.0","","null","<div style=""display: flex; flex-direction: column; align-items: center; margin-top: -40px;""><img src=""images/pattern_6.png"" style=""width: 234px; height: 230px; margin-top: -50px;""><div style=""display: flex; justify-content: space-between; margin-top: 33px;""><img src=""images/choice_trial_14.png"" style=""width: 408px; height: 417px; margin-right: 608px;""></div></div>","null","delaylearn","learning","display_response","6565fff05ec125a5ff77a77c","4PlUjpfoJ7fFtl4u6rbMOsV1Atq1","","","","","","","","","","","","","","","","","chosen stimuli: images/choice_trial_14.png","","","",""
"html-keyboard-response","69","147055","0.0-30.0-2.0","","null","","null","delaylearn","learning","feedback_duration_window","6565fff05ec125a5ff77a77c","4PlUjpfoJ7fFtl4u6rbMOsV1Atq1","","","","","","","","","","","","","","","","","","750","","",""
"html-keyboard-response","70","148558","0.0-30.0-3.0","","null","<div style='margin:auto;width: auto; font-size: 150%'><span style='font-weight: bold; font-size: 100px; color: red;'>0 points!</span><br><br></div>","null","delaylearn","learning","feedback_image_window","6565fff05ec125a5ff77a77c","4PlUjpfoJ7fFtl4u6rbMOsV1Atq1","","","","","","","","","","","","","","","","","","","","",""
"html-keyboard-response","71","149061","0.0-31.0-0.0","","null","","null","","","mood_trial_fixation","","","","","","","","","","","","","","","","","","","","","","",""
"lmdlab-html-vas-response","72","154397","0.0-31.0-1.0","","4328","How happy are you right now?","0.2611111111111111","delaylearn","learning","mood_trial","6565fff05ec125a5ff77a77c","4PlUjpfoJ7fFtl4u6rbMOsV1Atq1","","","","","","","","","","","","","","","","","","","","[""Very unhappy"",""Very happy""]",""
"html-keyboard-response","73","156394","0.0-32.0","","null","<div style=""font-size:100px;"">+</div>","null","delaylearn","learning","ITI","6565fff05ec125a5ff77a77c","4PlUjpfoJ7fFtl4u6rbMOsV1Atq1","","","","","","","","","","","","","","","","","","","1995","",""
"html-keyboard-response","74","158405","0.0-33.0-0.0","","2007","<div style=""display: flex; flex-direction: column; align-items: center; margin-top: -40px;""><img src=""images/pattern_1.png"" style=""width: 234px; height: 230px; margin-top: -50px;""><div style=""display: flex; justify-content: space-between; margin-top: 33px;""><img src=""images/choice_trial_15.png"" style=""width: 408px; height: 417px; margin-right: 200px;""><img src=""images/choice_trial_6.png"" style=""width: 408px; height: 417px;""></div></div>","j","delaylearn","learning","trial","6565fff05ec125a5ff77a77c","4PlUjpfoJ7fFtl4u6rbMOsV1Atq1","5","images/choice_trial_15.png","images/choice_trial_6.png","images/pattern_1.png","j","j","7000","15","6","1","1","14","1","1","6","80","","","","",""
"html-keyboard-response","75","159407","0.0-33.0-1.0","","null","<div style=""display: flex; flex-direction: column; align-items: center; margin-top: -40px;""><img src=""images/pattern_1.png"" style=""width: 234px; height: 230px; margin-top: -50px;""><div style=""display: flex; justify-content: space-between; margin-top: 33px;""><img src=""images/choice_trial_6.png"" style=""width: 408px; height: 417px; margin-left:608px;""></div></div>","null","delaylearn","learning","display_response","6565fff05ec125a5ff77a77c","4PlUjpfoJ7fFtl4u6rbMOsV1Atq1","","","","","","","","","","","","","","","","","chosen stimuli: images/choice_trial_6.png","","","",""
"html-keyboard-response","76","166409","0.0-33.0-2.0","","null","","null","delaylearn","learning","feedback_duration_window","6565fff05ec125a5ff77a77c","4PlUjpfoJ7fFtl4u6rbMOsV1Atq1","","","","","","","","","","","","","","","","","","7000","","",""
"html-keyboard-response","77","167912","0.0-33.0-3.0","","null","<div style='margin:auto;width: auto; font-size: 150%'><span style='font-weight: bold; font-size: 100px; color: green;'>+10 points!</span><br><br></div>","null","delaylearn","learning","feedback_image_window","6565fff05ec125a5ff77a77c","4PlUjpfoJ7fFtl4u6rbMOsV1Atq1","","","","","","","","","","","","","","","","","","","","",""
"html-keyboard-response","78","170211","0.0-34.0","","null","<div style=""font-size:100px;"">+</div>","null","delaylearn","learning","ITI","6565fff05ec125a5ff77a77c","4PlUjpfoJ7fFtl4u6rbMOsV1Atq1","","","","","","","","","","","","","","","","","","","2296","",""
"html-keyboard-response","79","172686","0.0-35.0-0.0","","2471","<div style=""display: flex; flex-direction: column; align-items: center; margin-top: -40px;""><img src=""images/pattern_3.png"" style=""width: 234px; height: 230px; margin-top: -50px;""><div style=""display: flex; justify-content: space-between; margin-top: 33px;""><img src=""images/choice_trial_2.png"" style=""width: 408px; height: 417px; margin-right: 200px;""><img src=""images/choice_trial_16.png"" style=""width: 408px; height: 417px;""></div></div>","j","delaylearn","learning","trial","6565fff05ec125a5ff77a77c","4PlUjpfoJ7fFtl4u6rbMOsV1Atq1","5","images/choice_trial_2.png","images/choice_trial_16.png","images/pattern_3.png","f","j","7000","2","16","2","1","15","1","0","16","80","","","","",""
"html-keyboard-response","80","173690","0.0-35.0-1.0","","null","<div style=""display: flex; flex-direction: column; align-items: center; margin-top: -40px;""><img src=""images/pattern_3.png"" style=""width: 234px; height: 230px; margin-top: -50px;""><div style=""display: flex; justify-content: space-between; margin-top: 33px;""><img src=""images/choice_trial_16.png"" style=""width: 408px; height: 417px; margin-left:608px;""></div></div>","null","delaylearn","learning","display_response","6565fff05ec125a5ff77a77c","4PlUjpfoJ7fFtl4u6rbMOsV1Atq1","","","","","","","","","","","","","","","","","chosen stimuli: images/choice_trial_16.png","","","",""
"html-keyboard-response","81","180692","0.0-35.0-2.0","","null","","null","delaylearn","learning","feedback_duration_window","6565fff05ec125a5ff77a77c","4PlUjpfoJ7fFtl4u6rbMOsV1Atq1","","","","","","","","","","","","","","","","","","7000","","",""
"html-keyboard-response","82","182195","0.0-35.0-3.0","","null","<div style='margin:auto;width: auto; font-size: 150%'><span style='font-weight: bold; font-size: 100px; color: red;'>0 points!</span><br><br></div>","null","delaylearn","learning","feedback_image_window","6565fff05ec125a5ff77a77c","4PlUjpfoJ7fFtl4u6rbMOsV1Atq1","","","","","","","","","","","","","","","","","","","","",""
"html-keyboard-response","83","184255","0.0-36.0","","null","<div style=""font-size:100px;"">+</div>","null","delaylearn","learning","ITI","6565fff05ec125a5ff77a77c","4PlUjpfoJ7fFtl4u6rbMOsV1Atq1","","","","","","","","","","","","","","","","","","","2057","",""
"html-keyboard-response","84","186305","0.0-37.0-0.0","","2047","<div style=""display: flex; flex-direction: column; align-items: center; margin-top: -40px;""><img src=""images/pattern_5.png"" style=""width: 234px; height: 230px; margin-top: -50px;""><div style=""display: flex; justify-content: space-between; margin-top: 33px;""><img src=""images/choice_trial_7.png"" style=""width: 408px; height: 417px; margin-right: 200px;""><img src=""images/choice_trial_13.png"" style=""width: 408px; height: 417px;""></div></div>","f","delaylearn","learning","trial","6565fff05ec125a5ff77a77c","4PlUjpfoJ7fFtl4u6rbMOsV1Atq1","5","images/choice_trial_7.png","images/choice_trial_13.png","images/pattern_5.png","f","f","750","7","13","4","0","16","1","1","7","90","","","","",""
"html-keyboard-response","85","187308","0.0-37.0-1.0","","null","<div style=""display: flex; flex-direction: column; align-items: center; margin-top: -40px;""><img src=""images/pattern_5.png"" style=""width: 234px; height: 230px; margin-top: -50px;""><div style=""display: flex; justify-content: space-between; margin-top: 33px;""><img src=""images/choice_trial_7.png"" style=""width: 408px; height: 417px; margin-right: 608px;""></div></div>","null","delaylearn","learning","display_response","6565fff05ec125a5ff77a77c","4PlUjpfoJ7fFtl4u6rbMOsV1Atq1","","","","","","","","","","","","","","","","","chosen stimuli: images/choice_trial_7.png","","","",""
"html-keyboard-response","86","188061","0.0-37.0-2.0","","null","","null","delaylearn","learning","feedback_duration_window","6565fff05ec125a5ff77a77c","4PlUjpfoJ7fFtl4u6rbMOsV1Atq1","","","","","","","","","","","","","","","","","","750","","",""
"html-keyboard-response","87","189564","0.0-37.0-3.0","","null","<div style='margin:auto;width: auto; font-size: 150%'><span style='font-weight: bold; font-size: 100px; color: green;'>+10 points!</span><br><br></div>","null","delaylearn","learning","feedback_image_window","6565fff05ec125a5ff77a77c","4PlUjpfoJ7fFtl4u6rbMOsV1Atq1","","","","","","","","","","","","","","","","","","","","",""
"html-keyboard-response","88","190067","0.0-38.0-0.0","","null","","null","","","mood_trial_fixation","","","","","","","","","","","","","","","","","","","","","","",""
"lmdlab-html-vas-response","89","193667","0.0-38.0-1.0","","2594","How happy are you right now?","0.3","delaylearn","learning","mood_trial","6565fff05ec125a5ff77a77c","4PlUjpfoJ7fFtl4u6rbMOsV1Atq1","","","","","","","","","","","","","","","","","","","","[""Very unhappy"",""Very happy""]",""
"html-keyboard-response","90","195701","0.0-39.0","","null","<div style=""font-size:100px;"">+</div>","null","delaylearn","learning","ITI","6565fff05ec125a5ff77a77c","4PlUjpfoJ7fFtl4u6rbMOsV1Atq1","","","","","","","","","","","","","","","","","","","2031","",""
"html-keyboard-response","91","198156","0.0-40.0-0.0","","2453","<div style=""display: flex; flex-direction: column; align-items: center; margin-top: -40px;""><img src=""images/pattern_6.png"" style=""width: 234px; height: 230px; margin-top: -50px;""><div style=""display: flex; justify-content: space-between; margin-top: 33px;""><img src=""images/choice_trial_14.png"" style=""width: 408px; height: 417px; margin-right: 200px;""><img src=""images/choice_trial_9.png"" style=""width: 408px; height: 417px;""></div></div>","f","delaylearn","learning","trial","6565fff05ec125a5ff77a77c","4PlUjpfoJ7fFtl4u6rbMOsV1Atq1","5","images/choice_trial_14.png","images/choice_trial_9.png","images/pattern_6.png","f","f","750","14","9","5","0","17","1","1","14","100","","","","",""
"html-keyboard-response","92","199160","0.0-40.0-1.0","","null","<div style=""display: flex; flex-direction: column; align-items: center; margin-top: -40px;""><img src=""images/pattern_6.png"" style=""width: 234px; height: 230px; margin-top: -50px;""><div style=""display: flex; justify-content: space-between; margin-top: 33px;""><img src=""images/choice_trial_14.png"" style=""width: 408px; height: 417px; margin-right: 608px;""></div></div>","null","delaylearn","learning","display_response","6565fff05ec125a5ff77a77c","4PlUjpfoJ7fFtl4u6rbMOsV1Atq1","","","","","","","","","","","","","","","","","chosen stimuli: images/choice_trial_14.png","","","",""
"html-keyboard-response","93","199912","0.0-40.0-2.0","","null","","null","delaylearn","learning","feedback_duration_window","6565fff05ec125a5ff77a77c","4PlUjpfoJ7fFtl4u6rbMOsV1Atq1","","","","","","","","","","","","","","","","","","750","","",""
"html-keyboard-response","94","201415","0.0-40.0-3.0","","null","<div style='margin:auto;width: auto; font-size: 150%'><span style='font-weight: bold; font-size: 100px; color: green;'>+10 points!</span><br><br></div>","null","delaylearn","learning","feedback_image_window","6565fff05ec125a5ff77a77c","4PlUjpfoJ7fFtl4u6rbMOsV1Atq1","","","","","","","","","","","","","","","","","","","","",""
"html-keyboard-response","95","203366","0.0-41.0","","null","<div style=""font-size:100px;"">+</div>","null","delaylearn","learning","ITI","6565fff05ec125a5ff77a77c","4PlUjpfoJ7fFtl4u6rbMOsV1Atq1","","","","","","","","","","","","","","","","","","","1948","",""
"html-keyboard-response","96","205492","0.0-42.0-0.0","","2122.0000000001164","<div style=""display: flex; flex-direction: column; align-items: center; margin-top: -40px;""><img src=""images/pattern_4.png"" style=""width: 234px; height: 230px; margin-top: -50px;""><div style=""display: flex; justify-content: space-between; margin-top: 33px;""><img src=""images/choice_trial_4.png"" style=""width: 408px; height: 417px; margin-right: 200px;""><img src=""images/choice_trial_11.png"" style=""width: 408px; height: 417px;""></div></div>","j","delaylearn","learning","trial","6565fff05ec125a5ff77a77c","4PlUjpfoJ7fFtl4u6rbMOsV1Atq1","5","images/choice_trial_4.png","images/choice_trial_11.png","images/pattern_4.png","j","j","7000","4","11","3","1","18","1","1","11","110","","","","",""
"html-keyboard-response","97","206496","0.0-42.0-1.0","","null","<div style=""display: flex; flex-direction: column; align-items: center; margin-top: -40px;""><img src=""images/pattern_4.png"" style=""width: 234px; height: 230px; margin-top: -50px;""><div style=""display: flex; justify-content: space-between; margin-top: 33px;""><img src=""images/choice_trial_11.png"" style=""width: 408px; height: 417px; margin-left:608px;""></div></div>","null","delaylearn","learning","display_response","6565fff05ec125a5ff77a77c","4PlUjpfoJ7fFtl4u6rbMOsV1Atq1","","","","","","","","","","","","","","","","","chosen stimuli: images/choice_trial_11.png","","","",""
"html-keyboard-response","98","213499","0.0-42.0-2.0","","null","","null","delaylearn","learning","feedback_duration_window","6565fff05ec125a5ff77a77c","4PlUjpfoJ7fFtl4u6rbMOsV1Atq1","","","","","","","","","","","","","","","","","","7000","","",""
"html-keyboard-response","99","215002","0.0-42.0-3.0","","null","<div style='margin:auto;width: auto; font-size: 150%'><span style='font-weight: bold; font-size: 100px; color: green;'>+10 points!</span><br><br></div>","null","delaylearn","learning","feedback_image_window","6565fff05ec125a5ff77a77c","4PlUjpfoJ7fFtl4u6rbMOsV1Atq1","","","","","","","","","","","","","","","","","","","","",""
"html-keyboard-response","100","216723","0.0-43.0","","null","<div style=""font-size:100px;"">+</div>","null","delaylearn","learning","ITI","6565fff05ec125a5ff77a77c","4PlUjpfoJ7fFtl4u6rbMOsV1Atq1","","","","","","","","","","","","","","","","","","","1719","",""
"html-keyboard-response","101","218887","0.0-44.0-0.0","","2160","<div style=""display: flex; flex-direction: column; align-items: center; margin-top: -40px;""><img src=""images/pattern_7.png"" style=""width: 234px; height: 230px; margin-top: -50px;""><div style=""display: flex; justify-content: space-between; margin-top: 33px;""><img src=""images/choice_trial_8.png"" style=""width: 408px; height: 417px; margin-right: 200px;""><img src=""images/choice_trial_10.png"" style=""width: 408px; height: 417px;""></div></div>","f","delaylearn","learning","trial","6565fff05ec125a5ff77a77c","4PlUjpfoJ7fFtl4u6rbMOsV1Atq1","5","images/choice_trial_8.png","images/choice_trial_10.png","images/pattern_7.png","j","f","750","8","10","6","0","19","1","0","8","110","","","","",""
"html-keyboard-response","102","219890","0.0-44.0-1.0","","null","<div style=""display: flex; flex-direction: column; align-items: center; margin-top: -40px;""><img src=""images/pattern_7.png"" style=""width: 234px; height: 230px; margin-top: -50px;""><div style=""display: flex; justify-content: space-between; margin-top: 33px;""><img src=""images/choice_trial_8.png"" style=""width: 408px; height: 417px; margin-right: 608px;""></div></div>","null","delaylearn","learning","display_response","6565fff05ec125a5ff77a77c","4PlUjpfoJ7fFtl4u6rbMOsV1Atq1","","","","","","","","","","","","","","","","","chosen stimuli: images/choice_trial_8.png","","","",""
"html-keyboard-response","103","220643","0.0-44.0-2.0","","null","","null","delaylearn","learning","feedback_duration_window","6565fff05ec125a5ff77a77c","4PlUjpfoJ7fFtl4u6rbMOsV1Atq1","","","","","","","","","","","","","","","","","","750","","",""
"html-keyboard-response","104","222146","0.0-44.0-3.0","","null","<div style='margin:auto;width: auto; font-size: 150%'><span style='font-weight: bold; font-size: 100px; color: red;'>0 points!</span><br><br></div>","null","delaylearn","learning","feedback_image_window","6565fff05ec125a5ff77a77c","4PlUjpfoJ7fFtl4u6rbMOsV1Atq1","","","","","","","","","","","","","","","","","","","","",""
"html-keyboard-response","105","223662","0.0-45.0","","null","<div style=""font-size:100px;"">+</div>","null","delaylearn","learning","ITI","6565fff05ec125a5ff77a77c","4PlUjpfoJ7fFtl4u6rbMOsV1Atq1","","","","","","","","","","","","","","","","","","","1513","",""
"html-keyboard-response","106","226188","0.0-46.0-0.0","","2522","<div style=""display: flex; flex-direction: column; align-items: center; margin-top: -40px;""><img src=""images/pattern_1.png"" style=""width: 234px; height: 230px; margin-top: -50px;""><div style=""display: flex; justify-content: space-between; margin-top: 33px;""><img src=""images/choice_trial_6.png"" style=""width: 408px; height: 417px; margin-right: 200px;""><img src=""images/choice_trial_15.png"" style=""width: 408px; height: 417px;""></div></div>","j","delaylearn","learning","trial","6565fff05ec125a5ff77a77c","4PlUjpfoJ7fFtl4u6rbMOsV1Atq1","5","images/choice_trial_6.png","images/choice_trial_15.png","images/pattern_1.png","f","f","7000","6","15","1","0","20","0","0","15","110","","","","",""
"html-keyboard-response","107","227192","0.0-46.0-1.0","","null","<div style=""display: flex; flex-direction: column; align-items: center; margin-top: -40px;""><img src=""images/pattern_1.png"" style=""width: 234px; height: 230px; margin-top: -50px;""><div style=""display: flex; justify-content: space-between; margin-top: 33px;""><img src=""images/choice_trial_15.png"" style=""width: 408px; height: 417px; margin-left:608px;""></div></div>","null","delaylearn","learning","display_response","6565fff05ec125a5ff77a77c","4PlUjpfoJ7fFtl4u6rbMOsV1Atq1","","","","","","","","","","","","","","","","","chosen stimuli: images/choice_trial_15.png","","","",""
"html-keyboard-response","108","234194","0.0-46.0-2.0","","null","","null","delaylearn","learning","feedback_duration_window","6565fff05ec125a5ff77a77c","4PlUjpfoJ7fFtl4u6rbMOsV1Atq1","","","","","","","","","","","","","","","","","","7000","","",""
"html-keyboard-response","109","235697","0.0-46.0-3.0","","null","<div style='margin:auto;width: auto; font-size: 150%'><span style='font-weight: bold; font-size: 100px; color: red;'>0 points!</span><br><br></div>","null","delaylearn","learning","feedback_image_window","6565fff05ec125a5ff77a77c","4PlUjpfoJ7fFtl4u6rbMOsV1Atq1","","","","","","","","","","","","","","","","","","","","",""
"html-keyboard-response","110","238200","0.0-47.0","","null","<div style=""font-size:100px;"">+</div>","null","delaylearn","learning","ITI","6565fff05ec125a5ff77a77c","4PlUjpfoJ7fFtl4u6rbMOsV1Atq1","","","","","","","","","","","","","","","","","","","2500","",""
"html-keyboard-response","111","239939","0.0-48.0-0.0","","1735.0000000001164","<div style=""display: flex; flex-direction: column; align-items: center; margin-top: -40px;""><img src=""images/pattern_6.png"" style=""width: 234px; height: 230px; margin-top: -50px;""><div style=""display: flex; justify-content: space-between; margin-top: 33px;""><img src=""images/choice_trial_9.png"" style=""width: 408px; height: 417px; margin-right: 200px;""><img src=""images/choice_trial_14.png"" style=""width: 408px; height: 417px;""></div></div>","j","delaylearn","learning","trial","6565fff05ec125a5ff77a77c","4PlUjpfoJ7fFtl4u6rbMOsV1Atq1","5","images/choice_trial_9.png","images/choice_trial_14.png","images/pattern_6.png","j","j","750","9","14","5","1","21","1","1","14","120","","","","",""
"html-keyboard-response","112","240942","0.0-48.0-1.0","","null","<div style=""display: flex; flex-direction: column; align-items: center; margin-top: -40px;""><img src=""images/pattern_6.png"" style=""width: 234px; height: 230px; margin-top: -50px;""><div style=""display: flex; justify-content: space-between; margin-top: 33px;""><img src=""images/choice_trial_14.png"" style=""width: 408px; height: 417px; margin-left:608px;""></div></div>","null","delaylearn","learning","display_response","6565fff05ec125a5ff77a77c","4PlUjpfoJ7fFtl4u6rbMOsV1Atq1","","","","","","","","","","","","","","","","","chosen stimuli: images/choice_trial_14.png","","","",""
"html-keyboard-response","113","241696","0.0-48.0-2.0","","null","","null","delaylearn","learning","feedback_duration_window","6565fff05ec125a5ff77a77c","4PlUjpfoJ7fFtl4u6rbMOsV1Atq1","","","","","","","","","","","","","","","","","","750","","",""
"html-keyboard-response","114","243199","0.0-48.0-3.0","","null","<div style='margin:auto;width: auto; font-size: 150%'><span style='font-weight: bold; font-size: 100px; color: green;'>+10 points!</span><br><br></div>","null","delaylearn","learning","feedback_image_window","6565fff05ec125a5ff77a77c","4PlUjpfoJ7fFtl4u6rbMOsV1Atq1","","","","","","","","","","","","","","","","","","","","",""
"html-keyboard-response","115","244799","0.0-49.0","","null","<div style=""font-size:100px;"">+</div>","null","delaylearn","learning","ITI","6565fff05ec125a5ff77a77c","4PlUjpfoJ7fFtl4u6rbMOsV1Atq1","","","","","","","","","","","","","","","","","","","1596","",""
"html-keyboard-response","116","247399","0.0-50.0-0.0","","2596","<div style=""display: flex; flex-direction: column; align-items: center; margin-top: -40px;""><img src=""images/pattern_4.png"" style=""width: 234px; height: 230px; margin-top: -50px;""><div style=""display: flex; justify-content: space-between; margin-top: 33px;""><img src=""images/choice_trial_11.png"" style=""width: 408px; height: 417px; margin-right: 200px;""><img src=""images/choice_trial_4.png"" style=""width: 408px; height: 417px;""></div></div>","f","delaylearn","learning","trial","6565fff05ec125a5ff77a77c","4PlUjpfoJ7fFtl4u6rbMOsV1Atq1","5","images/choice_trial_11.png","images/choice_trial_4.png","images/pattern_4.png","f","f","7000","11","4","3","0","22","1","1","11","130","","","","",""
"html-keyboard-response","117","248403","0.0-50.0-1.0","","null","<div style=""display: flex; flex-direction: column; align-items: center; margin-top: -40px;""><img src=""images/pattern_4.png"" style=""width: 234px; height: 230px; margin-top: -50px;""><div style=""display: flex; justify-content: space-between; margin-top: 33px;""><img src=""images/choice_trial_11.png"" style=""width: 408px; height: 417px; margin-right: 608px;""></div></div>","null","delaylearn","learning","display_response","6565fff05ec125a5ff77a77c","4PlUjpfoJ7fFtl4u6rbMOsV1Atq1","","","","","","","","","","","","","","","","","chosen stimuli: images/choice_trial_11.png","","","",""
"html-keyboard-response","118","255405","0.0-50.0-2.0","","null","","null","delaylearn","learning","feedback_duration_window","6565fff05ec125a5ff77a77c","4PlUjpfoJ7fFtl4u6rbMOsV1Atq1","","","","","","","","","","","","","","","","","","7000","","",""
"html-keyboard-response","119","256908","0.0-50.0-3.0","","null","<div style='margin:auto;width: auto; font-size: 150%'><span style='font-weight: bold; font-size: 100px; color: green;'>+10 points!</span><br><br></div>","null","delaylearn","learning","feedback_image_window","6565fff05ec125a5ff77a77c","4PlUjpfoJ7fFtl4u6rbMOsV1Atq1","","","","","","","","","","","","","","","","","","","","",""
"html-keyboard-response","120","257411","0.0-51.0-0.0","","null","","null","","","mood_trial_fixation","","","","","","","","","","","","","","","","","","","","","","",""
"lmdlab-html-vas-response","121","260838","0.0-51.0-1.0","","2421","How happy are you right now?","0.3574074074074074","delaylearn","learning","mood_trial","6565fff05ec125a5ff77a77c","4PlUjpfoJ7fFtl4u6rbMOsV1Atq1","","","","","","","","","","","","","","","","","","","","[""Very unhappy"",""Very happy""]",""
"html-keyboard-response","122","262970","0.0-52.0","","null","<div style=""font-size:100px;"">+</div>","null","delaylearn","learning","ITI","6565fff05ec125a5ff77a77c","4PlUjpfoJ7fFtl4u6rbMOsV1Atq1","","","","","","","","","","","","","","","","","","","2130","",""
"html-keyboard-response","123","265053","0.0-53.0-0.0","","2079.9999999998836","<div style=""display: flex; flex-direction: column; align-items: center; margin-top: -40px;""><img src=""images/pattern_7.png"" style=""width: 234px; height: 230px; margin-top: -50px;""><div style=""display: flex; justify-content: space-between; margin-top: 33px;""><img src=""images/choice_trial_10.png"" style=""width: 408px; height: 417px; margin-right: 200px;""><img src=""images/choice_trial_8.png"" style=""width: 408px; height: 417px;""></div></div>","j","delaylearn","learning","trial","6565fff05ec125a5ff77a77c","4PlUjpfoJ7fFtl4u6rbMOsV1Atq1","5","images/choice_trial_10.png","images/choice_trial_8.png","images/pattern_7.png","j","j","750","10","8","6","1","23","1","1","8","140","","","","",""
"html-keyboard-response","124","266056","0.0-53.0-1.0","","null","<div style=""display: flex; flex-direction: column; align-items: center; margin-top: -40px;""><img src=""images/pattern_7.png"" style=""width: 234px; height: 230px; margin-top: -50px;""><div style=""display: flex; justify-content: space-between; margin-top: 33px;""><img src=""images/choice_trial_8.png"" style=""width: 408px; height: 417px; margin-left:608px;""></div></div>","null","delaylearn","learning","display_response","6565fff05ec125a5ff77a77c","4PlUjpfoJ7fFtl4u6rbMOsV1Atq1","","","","","","","","","","","","","","","","","chosen stimuli: images/choice_trial_8.png","","","",""
"html-keyboard-response","125","266809","0.0-53.0-2.0","","null","","null","delaylearn","learning","feedback_duration_window","6565fff05ec125a5ff77a77c","4PlUjpfoJ7fFtl4u6rbMOsV1Atq1","","","","","","","","","","","","","","","","","","750","","",""
"html-keyboard-response","126","268312","0.0-53.0-3.0","","null","<div style='margin:auto;width: auto; font-size: 150%'><span style='font-weight: bold; font-size: 100px; color: green;'>+10 points!</span><br><br></div>","null","delaylearn","learning","feedback_image_window","6565fff05ec125a5ff77a77c","4PlUjpfoJ7fFtl4u6rbMOsV1Atq1","","","","","","","","","","","","","","","","","","","","",""
"html-keyboard-response","127","270592","0.0-54.0","","null","<div style=""font-size:100px;"">+</div>","null","delaylearn","learning","ITI","6565fff05ec125a5ff77a77c","4PlUjpfoJ7fFtl4u6rbMOsV1Atq1","","","","","","","","","","","","","","","","","","","2277","",""
"html-keyboard-response","128","271974","0.0-55.0-0.0","","1379","<div style=""display: flex; flex-direction: column; align-items: center; margin-top: -40px;""><img src=""images/pattern_1.png"" style=""width: 234px; height: 230px; margin-top: -50px;""><div style=""display: flex; justify-content: space-between; margin-top: 33px;""><img src=""images/choice_trial_15.png"" style=""width: 408px; height: 417px; margin-right: 200px;""><img src=""images/choice_trial_6.png"" style=""width: 408px; height: 417px;""></div></div>","j","delaylearn","learning","trial","6565fff05ec125a5ff77a77c","4PlUjpfoJ7fFtl4u6rbMOsV1Atq1","5","images/choice_trial_15.png","images/choice_trial_6.png","images/pattern_1.png","f","j","7000","15","6","1","1","24","1","0","6","140","","","","",""
"html-keyboard-response","129","272978","0.0-55.0-1.0","","null","<div style=""display: flex; flex-direction: column; align-items: center; margin-top: -40px;""><img src=""images/pattern_1.png"" style=""width: 234px; height: 230px; margin-top: -50px;""><div style=""display: flex; justify-content: space-between; margin-top: 33px;""><img src=""images/choice_trial_6.png"" style=""width: 408px; height: 417px; margin-left:608px;""></div></div>","null","delaylearn","learning","display_response","6565fff05ec125a5ff77a77c","4PlUjpfoJ7fFtl4u6rbMOsV1Atq1","","","","","","","","","","","","","","","","","chosen stimuli: images/choice_trial_6.png","","","",""
"html-keyboard-response","130","279981","0.0-55.0-2.0","","null","","null","delaylearn","learning","feedback_duration_window","6565fff05ec125a5ff77a77c","4PlUjpfoJ7fFtl4u6rbMOsV1Atq1","","","","","","","","","","","","","","","","","","7000","","",""
"html-keyboard-response","131","281483","0.0-55.0-3.0","","null","<div style='margin:auto;width: auto; font-size: 150%'><span style='font-weight: bold; font-size: 100px; color: red;'>0 points!</span><br><br></div>","null","delaylearn","learning","feedback_image_window","6565fff05ec125a5ff77a77c","4PlUjpfoJ7fFtl4u6rbMOsV1Atq1","","","","","","","","","","","","","","","","","","","","",""
"html-keyboard-response","132","283636","0.0-56.0","","null","<div style=""font-size:100px;"">+</div>","null","delaylearn","learning","ITI","6565fff05ec125a5ff77a77c","4PlUjpfoJ7fFtl4u6rbMOsV1Atq1","","","","","","","","","","","","","","","","","","","2150","",""
"html-keyboard-response","133","284788","0.0-57.0-0.0","","1147.9999999998836","<div style=""display: flex; flex-direction: column; align-items: center; margin-top: -40px;""><img src=""images/pattern_5.png"" style=""width: 234px; height: 230px; margin-top: -50px;""><div style=""display: flex; justify-content: space-between; margin-top: 33px;""><img src=""images/choice_trial_13.png"" style=""width: 408px; height: 417px; margin-right: 200px;""><img src=""images/choice_trial_7.png"" style=""width: 408px; height: 417px;""></div></div>","j","delaylearn","learning","trial","6565fff05ec125a5ff77a77c","4PlUjpfoJ7fFtl4u6rbMOsV1Atq1","5","images/choice_trial_13.png","images/choice_trial_7.png","images/pattern_5.png","j","j","750","13","7","4","1","25","1","1","7","150","","","","",""
"html-keyboard-response","134","285792","0.0-57.0-1.0","","null","<div style=""display: flex; flex-direction: column; align-items: center; margin-top: -40px;""><img src=""images/pattern_5.png"" style=""width: 234px; height: 230px; margin-top: -50px;""><div style=""display: flex; justify-content: space-between; margin-top: 33px;""><img src=""images/choice_trial_7.png"" style=""width: 408px; height: 417px; margin-left:608px;""></div></div>","null","delaylearn","learning","display_response","6565fff05ec125a5ff77a77c","4PlUjpfoJ7fFtl4u6rbMOsV1Atq1","","","","","","","","","","","","","","","","","chosen stimuli: images/choice_trial_7.png","","","",""
"html-keyboard-response","135","286545","0.0-57.0-2.0","","null","","null","delaylearn","learning","feedback_duration_window","6565fff05ec125a5ff77a77c","4PlUjpfoJ7fFtl4u6rbMOsV1Atq1","","","","","","","","","","","","","","","","","","750","","",""
"html-keyboard-response","136","288049","0.0-57.0-3.0","","null","<div style='margin:auto;width: auto; font-size: 150%'><span style='font-weight: bold; font-size: 100px; color: green;'>+10 points!</span><br><br></div>","null","delaylearn","learning","feedback_image_window","6565fff05ec125a5ff77a77c","4PlUjpfoJ7fFtl4u6rbMOsV1Atq1","","","","","","","","","","","","","","","","","","","","",""
"html-keyboard-response","137","290084","0.0-58.0","","null","<div style=""font-size:100px;"">+</div>","null","delaylearn","learning","ITI","6565fff05ec125a5ff77a77c","4PlUjpfoJ7fFtl4u6rbMOsV1Atq1","","","","","","","","","","","","","","","","","","","2032","",""
"html-keyboard-response","138","292143","0.0-59.0-0.0","","2054","<div style=""display: flex; flex-direction: column; align-items: center; margin-top: -40px;""><img src=""images/pattern_3.png"" style=""width: 234px; height: 230px; margin-top: -50px;""><div style=""display: flex; justify-content: space-between; margin-top: 33px;""><img src=""images/choice_trial_2.png"" style=""width: 408px; height: 417px; margin-right: 200px;""><img src=""images/choice_trial_16.png"" style=""width: 408px; height: 417px;""></div></div>","f","delaylearn","learning","trial","6565fff05ec125a5ff77a77c","4PlUjpfoJ7fFtl4u6rbMOsV1Atq1","5","images/choice_trial_2.png","images/choice_trial_16.png","images/pattern_3.png","j","j","7000","2","16","2","1","26","0","0","2","150","","","","",""
"html-keyboard-response","139","293147","0.0-59.0-1.0","","null","<div style=""display: flex; flex-direction: column; align-items: center; margin-top: -40px;""><img src=""images/pattern_3.png"" style=""width: 234px; height: 230px; margin-top: -50px;""><div style=""display: flex; justify-content: space-between; margin-top: 33px;""><img src=""images/choice_trial_2.png"" style=""width: 408px; height: 417px; margin-right: 608px;""></div></div>","null","delaylearn","learning","display_response","6565fff05ec125a5ff77a77c","4PlUjpfoJ7fFtl4u6rbMOsV1Atq1","","","","","","","","","","","","","","","","","chosen stimuli: images/choice_trial_2.png","","","",""
"html-keyboard-response","140","300150","0.0-59.0-2.0","","null","","null","delaylearn","learning","feedback_duration_window","6565fff05ec125a5ff77a77c","4PlUjpfoJ7fFtl4u6rbMOsV1Atq1","","","","","","","","","","","","","","","","","","7000","","",""
"html-keyboard-response","141","301653","0.0-59.0-3.0","","null","<div style='margin:auto;width: auto; font-size: 150%'><span style='font-weight: bold; font-size: 100px; color: red;'>0 points!</span><br><br></div>","null","delaylearn","learning","feedback_image_window","6565fff05ec125a5ff77a77c","4PlUjpfoJ7fFtl4u6rbMOsV1Atq1","","","","","","","","","","","","","","","","","","","","",""
"lmdlab-html-vas-response","142","307141","0.0-60.0-0.0","","3978","*How <b><u>confident</u></b> are you feeling about your answers at this moment?*","0.7018518518518518","rewlearn","rate_confidence","","6565fff05ec125a5ff77a77c","4PlUjpfoJ7fFtl4u6rbMOsV1Atq1","","","","","","","","","","","","","","","","","","","","[""No confidence"",""Complete confidence""]",""
"lmdlab-rest-trial-limit","143","313889","0.0-60.0-1.0","","5244","<div style=""font-size:40px;""><b>Please take a break!</b><br><br><br><br><p>Great work: you earned 150 points.<br><br><br><p>You have completed part(s) 1 of 5.<br><br><br><br>When you are ready to continue<br><br><br>please click the button.</p><br><br>","0","delaylearn","learning","break","6565fff05ec125a5ff77a77c","4PlUjpfoJ7fFtl4u6rbMOsV1Atq1","","","","","","","","","","","","","","","","","","","","","0"
"html-keyboard-response","144","316892","0.0-60.0-2.0","","null","<div style=""font-size:100px;"">+</div>","null","delaylearn","learning","pre_fixation","6565fff05ec125a5ff77a77c","","","","","","","","","","","","","","","","","","","","","",""
"lmdlab-html-vas-response","145","319981","0.0-60.0-3.0-0.0","","2079","How happy are you right now?","0.37592592592592594","delaylearn","learning","mood_baseline","6565fff05ec125a5ff77a77c","4PlUjpfoJ7fFtl4u6rbMOsV1Atq1","","","","","","","","","","","","","","","","","","","","[""Very unhappy"",""Very happy""]",""
"html-keyboard-response","146","321484","0.0-60.0-3.0-1.0","","null","","null","","","mood_baseline_fixation","","","","","","","","","","","","","","","","","","","","","","",""
"html-keyboard-response","147","323270","0.0-61.0","","null","<div style=""font-size:100px;"">+</div>","null","delaylearn","learning","ITI","6565fff05ec125a5ff77a77c","4PlUjpfoJ7fFtl4u6rbMOsV1Atq1","","","","","","","","","","","","","","","","","","","1783","",""
"html-keyboard-response","148","324569","0.0-62.0-0.0","","1296","<div style=""display: flex; flex-direction: column; align-items: center; margin-top: -40px;""><img src=""images/pattern_7.png"" style=""width: 234px; height: 230px; margin-top: -50px;""><div style=""display: flex; justify-content: space-between; margin-top: 33px;""><img src=""images/choice_trial_10.png"" style=""width: 408px; height: 417px; margin-right: 200px;""><img src=""images/choice_trial_8.png"" style=""width: 408px; height: 417px;""></div></div>","j","delaylearn","learning","trial","6565fff05ec125a5ff77a77c","4PlUjpfoJ7fFtl4u6rbMOsV1Atq1","5","images/choice_trial_10.png","images/choice_trial_8.png","images/pattern_7.png","j","j","750","10","8","6","1","27","1","1","8","160","","","","",""
"html-keyboard-response","149","325574","0.0-62.0-1.0","","null","<div style=""display: flex; flex-direction: column; align-items: center; margin-top: -40px;""><img src=""images/pattern_7.png"" style=""width: 234px; height: 230px; margin-top: -50px;""><div style=""display: flex; justify-content: space-between; margin-top: 33px;""><img src=""images/choice_trial_8.png"" style=""width: 408px; height: 417px; margin-left:608px;""></div></div>","null","delaylearn","learning","display_response","6565fff05ec125a5ff77a77c","4PlUjpfoJ7fFtl4u6rbMOsV1Atq1","","","","","","","","","","","","","","","","","chosen stimuli: images/choice_trial_8.png","","","",""
"html-keyboard-response","150","326327","0.0-62.0-2.0","","null","","null","delaylearn","learning","feedback_duration_window","6565fff05ec125a5ff77a77c","4PlUjpfoJ7fFtl4u6rbMOsV1Atq1","","","","","","","","","","","","","","","","","","750","","",""
"html-keyboard-response","151","327831","0.0-62.0-3.0","","null","<div style='margin:auto;width: auto; font-size: 150%'><span style='font-weight: bold; font-size: 100px; color: green;'>+10 points!</span><br><br></div>","null","delaylearn","learning","feedback_image_window","6565fff05ec125a5ff77a77c","4PlUjpfoJ7fFtl4u6rbMOsV1Atq1","","","","","","","","","","","","","","","","","","","","",""
"html-keyboard-response","152","328334","0.0-63.0-0.0","","null","","null","","","mood_trial_fixation","","","","","","","","","","","","","","","","","","","","","","",""
"lmdlab-html-vas-response","153","332104","0.0-63.0-1.0","","2765","How happy are you right now?","0.362962962962963","delaylearn","learning","mood_trial","6565fff05ec125a5ff77a77c","4PlUjpfoJ7fFtl4u6rbMOsV1Atq1","","","","","","","","","","","","","","","","","","","","[""Very unhappy"",""Very happy""]",""
"html-keyboard-response","154","334136","0.0-64.0","","null","<div style=""font-size:100px;"">+</div>","null","delaylearn","learning","ITI","6565fff05ec125a5ff77a77c","4PlUjpfoJ7fFtl4u6rbMOsV1Atq1","","","","","","","","","","","","","","","","","","","2030","",""
"html-keyboard-response","155","336226","0.0-65.0-0.0","","2085.9999999998836","<div style=""display: flex; flex-direction: column; align-items: center; margin-top: -40px;""><img src=""images/pattern_1.png"" style=""width: 234px; height: 230px; margin-top: -50px;""><div style=""display: flex; justify-content: space-between; margin-top: 33px;""><img src=""images/choice_trial_6.png"" style=""width: 408px; height: 417px; margin-right: 200px;""><img src=""images/choice_trial_15.png"" style=""width: 408px; height: 417px;""></div></div>","j","delaylearn","learning","trial","6565fff05ec125a5ff77a77c","4PlUjpfoJ7fFtl4u6rbMOsV1Atq1","5","images/choice_trial_6.png","images/choice_trial_15.png","images/pattern_1.png","f","f","7000","6","15","1","0","28","0","0","15","160","","","","",""
"html-keyboard-response","156","337230","0.0-65.0-1.0","","null","<div style=""display: flex; flex-direction: column; align-items: center; margin-top: -40px;""><img src=""images/pattern_1.png"" style=""width: 234px; height: 230px; margin-top: -50px;""><div style=""display: flex; justify-content: space-between; margin-top: 33px;""><img src=""images/choice_trial_15.png"" style=""width: 408px; height: 417px; margin-left:608px;""></div></div>","null","delaylearn","learning","display_response","6565fff05ec125a5ff77a77c","4PlUjpfoJ7fFtl4u6rbMOsV1Atq1","","","","","","","","","","","","","","","","","chosen stimuli: images/choice_trial_15.png","","","",""
"html-keyboard-response","157","344233","0.0-65.0-2.0","","null","","null","delaylearn","learning","feedback_duration_window","6565fff05ec125a5ff77a77c","4PlUjpfoJ7fFtl4u6rbMOsV1Atq1","","","","","","","","","","","","","","","","","","7000","","",""
"html-keyboard-response","158","345735","0.0-65.0-3.0","","null","<div style='margin:auto;width: auto; font-size: 150%'><span style='font-weight: bold; font-size: 100px; color: red;'>0 points!</span><br><br></div>","null","delaylearn","learning","feedback_image_window","6565fff05ec125a5ff77a77c","4PlUjpfoJ7fFtl4u6rbMOsV1Atq1","","","","","","","","","","","","","","","","","","","","",""
"html-keyboard-response","159","347366","0.0-66.0","","null","<div style=""font-size:100px;"">+</div>","null","delaylearn","learning","ITI","6565fff05ec125a5ff77a77c","4PlUjpfoJ7fFtl4u6rbMOsV1Atq1","","","","","","","","","","","","","","","","","","","1628","",""
"html-keyboard-response","160","349640","0.0-67.0-0.0","","2270.0000000001164","<div style=""display: flex; flex-direction: column; align-items: center; margin-top: -40px;""><img src=""images/pattern_5.png"" style=""width: 234px; height: 230px; margin-top: -50px;""><div style=""display: flex; justify-content: space-between; margin-top: 33px;""><img src=""images/choice_trial_7.png"" style=""width: 408px; height: 417px; margin-right: 200px;""><img src=""images/choice_trial_13.png"" style=""width: 408px; height: 417px;""></div></div>","f","delaylearn","learning","trial","6565fff05ec125a5ff77a77c","4PlUjpfoJ7fFtl4u6rbMOsV1Atq1","5","images/choice_trial_7.png","images/choice_trial_13.png","images/pattern_5.png","f","f","750","7","13","4","0","29","1","1","7","170","","","","",""
"html-keyboard-response","161","350643","0.0-67.0-1.0","","null","<div style=""display: flex; flex-direction: column; align-items: center; margin-top: -40px;""><img src=""images/pattern_5.png"" style=""width: 234px; height: 230px; margin-top: -50px;""><div style=""display: flex; justify-content: space-between; margin-top: 33px;""><img src=""images/choice_trial_7.png"" style=""width: 408px; height: 417px; margin-right: 608px;""></div></div>","null","delaylearn","learning","display_response","6565fff05ec125a5ff77a77c","4PlUjpfoJ7fFtl4u6rbMOsV1Atq1","","","","","","","","","","","","","","","","","chosen stimuli: images/choice_trial_7.png","","","",""
"html-keyboard-response","162","351396","0.0-67.0-2.0","","null","","null","delaylearn","learning","feedback_duration_window","6565fff05ec125a5ff77a77c","4PlUjpfoJ7fFtl4u6rbMOsV1Atq1","","","","","","","","","","","","","","","","","","750","","",""
"html-keyboard-response","163","352899","0.0-67.0-3.0","","null","<div style='margin:auto;width: auto; font-size: 150%'><span style='font-weight: bold; font-size: 100px; color: green;'>+10 points!</span><br><br></div>","null","delaylearn","learning","feedback_image_window","6565fff05ec125a5ff77a77c","4PlUjpfoJ7fFtl4u6rbMOsV1Atq1","","","","","","","","","","","","","","","","","","","","",""
"html-keyboard-response","164","354901","0.0-68.0","","null","<div style=""font-size:100px;"">+</div>","null","delaylearn","learning","ITI","6565fff05ec125a5ff77a77c","4PlUjpfoJ7fFtl4u6rbMOsV1Atq1","","","","","","","","","","","","","","","","","","","1999","",""
"html-keyboard-response","165","356110","0.0-69.0-0.0","","1207.0000000001164","<div style=""display: flex; flex-direction: column; align-items: center; margin-top: -40px;""><img src=""images/pattern_6.png"" style=""width: 234px; height: 230px; margin-top: -50px;""><div style=""display: flex; justify-content: space-between; margin-top: 33px;""><img src=""images/choice_trial_9.png"" style=""width: 408px; height: 417px; margin-right: 200px;""><img src=""images/choice_trial_14.png"" style=""width: 408px; height: 417px;""></div></div>","j","delaylearn","learning","trial","6565fff05ec125a5ff77a77c","4PlUjpfoJ7fFtl4u6rbMOsV1Atq1","5","images/choice_trial_9.png","images/choice_trial_14.png","images/pattern_6.png","j","j","750","9","14","5","1","30","1","1","14","180","","","","",""
"html-keyboard-response","166","357114","0.0-69.0-1.0","","null","<div style=""display: flex; flex-direction: column; align-items: center; margin-top: -40px;""><img src=""images/pattern_6.png"" style=""width: 234px; height: 230px; margin-top: -50px;""><div style=""display: flex; justify-content: space-between; margin-top: 33px;""><img src=""images/choice_trial_14.png"" style=""width: 408px; height: 417px; margin-left:608px;""></div></div>","null","delaylearn","learning","display_response","6565fff05ec125a5ff77a77c","4PlUjpfoJ7fFtl4u6rbMOsV1Atq1","","","","","","","","","","","","","","","","","chosen stimuli: images/choice_trial_14.png","","","",""
"html-keyboard-response","167","357867","0.0-69.0-2.0","","null","","null","delaylearn","learning","feedback_duration_window","6565fff05ec125a5ff77a77c","4PlUjpfoJ7fFtl4u6rbMOsV1Atq1","","","","","","","","","","","","","","","","","","750","","",""
"html-keyboard-response","168","359369","0.0-69.0-3.0","","null","<div style='margin:auto;width: auto; font-size: 150%'><span style='font-weight: bold; font-size: 100px; color: green;'>+10 points!</span><br><br></div>","null","delaylearn","learning","feedback_image_window","6565fff05ec125a5ff77a77c","4PlUjpfoJ7fFtl4u6rbMOsV1Atq1","","","","","","","","","","","","","","","","","","","","",""
"html-keyboard-response","169","359871","0.0-70.0-0.0","","null","","null","","","mood_trial_fixation","","","","","","","","","","","","","","","","","","","","","","",""
"lmdlab-html-vas-response","170","363319","0.0-70.0-1.0","","2442","How happy are you right now?","0.3814814814814815","delaylearn","learning","mood_trial","6565fff05ec125a5ff77a77c","4PlUjpfoJ7fFtl4u6rbMOsV1Atq1","","","","","","","","","","","","","","","","","","","","[""Very unhappy"",""Very happy""]",""
"html-keyboard-response","171","364998","0.0-71.0","","null","<div style=""font-size:100px;"">+</div>","null","delaylearn","learning","ITI","6565fff05ec125a5ff77a77c","4PlUjpfoJ7fFtl4u6rbMOsV1Atq1","","","","","","","","","","","","","","","","","","","1676","",""
"html-keyboard-response","172","366203","0.0-72.0-0.0","","1202","<div style=""display: flex; flex-direction: column; align-items: center; margin-top: -40px;""><img src=""images/pattern_4.png"" style=""width: 234px; height: 230px; margin-top: -50px;""><div style=""display: flex; justify-content: space-between; margin-top: 33px;""><img src=""images/choice_trial_4.png"" style=""width: 408px; height: 417px; margin-right: 200px;""><img src=""images/choice_trial_11.png"" style=""width: 408px; height: 417px;""></div></div>","j","delaylearn","learning","trial","6565fff05ec125a5ff77a77c","4PlUjpfoJ7fFtl4u6rbMOsV1Atq1","5","images/choice_trial_4.png","images/choice_trial_11.png","images/pattern_4.png","j","j","7000","4","11","3","1","31","1","1","11","190","","","","",""
"html-keyboard-response","173","367207","0.0-72.0-1.0","","null","<div style=""display: flex; flex-direction: column; align-items: center; margin-top: -40px;""><img src=""images/pattern_4.png"" style=""width: 234px; height: 230px; margin-top: -50px;""><div style=""display: flex; justify-content: space-between; margin-top: 33px;""><img src=""images/choice_trial_11.png"" style=""width: 408px; height: 417px; margin-left:608px;""></div></div>","null","delaylearn","learning","display_response","6565fff05ec125a5ff77a77c","4PlUjpfoJ7fFtl4u6rbMOsV1Atq1","","","","","","","","","","","","","","","","","chosen stimuli: images/choice_trial_11.png","","","",""
"html-keyboard-response","174","374210","0.0-72.0-2.0","","null","","null","delaylearn","learning","feedback_duration_window","6565fff05ec125a5ff77a77c","4PlUjpfoJ7fFtl4u6rbMOsV1Atq1","","","","","","","","","","","","","","","","","","7000","","",""
"html-keyboard-response","175","375714","0.0-72.0-3.0","","null","<div style='margin:auto;width: auto; font-size: 150%'><span style='font-weight: bold; font-size: 100px; color: green;'>+10 points!</span><br><br></div>","null","delaylearn","learning","feedback_image_window","6565fff05ec125a5ff77a77c","4PlUjpfoJ7fFtl4u6rbMOsV1Atq1","","","","","","","","","","","","","","","","","","","","",""
"html-keyboard-response","176","378137","0.0-73.0","","null","<div style=""font-size:100px;"">+</div>","null","delaylearn","learning","ITI","6565fff05ec125a5ff77a77c","4PlUjpfoJ7fFtl4u6rbMOsV1Atq1","","","","","","","","","","","","","","","","","","","2420","",""
"html-keyboard-response","177","380002","0.0-74.0-0.0","","1859","<div style=""display: flex; flex-direction: column; align-items: center; margin-top: -40px;""><img src=""images/pattern_3.png"" style=""width: 234px; height: 230px; margin-top: -50px;""><div style=""display: flex; justify-content: space-between; margin-top: 33px;""><img src=""images/choice_trial_2.png"" style=""width: 408px; height: 417px; margin-right: 200px;""><img src=""images/choice_trial_16.png"" style=""width: 408px; height: 417px;""></div></div>","f","delaylearn","learning","trial","6565fff05ec125a5ff77a77c","4PlUjpfoJ7fFtl4u6rbMOsV1Atq1","5","images/choice_trial_2.png","images/choice_trial_16.png","images/pattern_3.png","j","j","7000","2","16","2","1","32","0","0","2","190","","","","",""
"html-keyboard-response","178","381005","0.0-74.0-1.0","","null","<div style=""display: flex; flex-direction: column; align-items: center; margin-top: -40px;""><img src=""images/pattern_3.png"" style=""width: 234px; height: 230px; margin-top: -50px;""><div style=""display: flex; justify-content: space-between; margin-top: 33px;""><img src=""images/choice_trial_2.png"" style=""width: 408px; height: 417px; margin-right: 608px;""></div></div>","null","delaylearn","learning","display_response","6565fff05ec125a5ff77a77c","4PlUjpfoJ7fFtl4u6rbMOsV1Atq1","","","","","","","","","","","","","","","","","chosen stimuli: images/choice_trial_2.png","","","",""
"html-keyboard-response","179","388009","0.0-74.0-2.0","","null","","null","delaylearn","learning","feedback_duration_window","6565fff05ec125a5ff77a77c","4PlUjpfoJ7fFtl4u6rbMOsV1Atq1","","","","","","","","","","","","","","","","","","7000","","",""
"html-keyboard-response","180","389512","0.0-74.0-3.0","","null","<div style='margin:auto;width: auto; font-size: 150%'><span style='font-weight: bold; font-size: 100px; color: red;'>0 points!</span><br><br></div>","null","delaylearn","learning","feedback_image_window","6565fff05ec125a5ff77a77c","4PlUjpfoJ7fFtl4u6rbMOsV1Atq1","","","","","","","","","","","","","","","","","","","","",""
"html-keyboard-response","181","391535","0.0-75.0","","null","<div style=""font-size:100px;"">+</div>","null","delaylearn","learning","ITI","6565fff05ec125a5ff77a77c","4PlUjpfoJ7fFtl4u6rbMOsV1Atq1","","","","","","","","","","","","","","","","","","","2020","",""
"html-keyboard-response","182","393725","0.0-76.0-0.0","","2186","<div style=""display: flex; flex-direction: column; align-items: center; margin-top: -40px;""><img src=""images/pattern_5.png"" style=""width: 234px; height: 230px; margin-top: -50px;""><div style=""display: flex; justify-content: space-between; margin-top: 33px;""><img src=""images/choice_trial_7.png"" style=""width: 408px; height: 417px; margin-right: 200px;""><img src=""images/choice_trial_13.png"" style=""width: 408px; height: 417px;""></div></div>","f","delaylearn","learning","trial","6565fff05ec125a5ff77a77c","4PlUjpfoJ7fFtl4u6rbMOsV1Atq1","5","images/choice_trial_7.png","images/choice_trial_13.png","images/pattern_5.png","j","f","750","7","13","4","0","33","1","0","7","190","","","","",""
"html-keyboard-response","183","394728","0.0-76.0-1.0","","null","<div style=""display: flex; flex-direction: column; align-items: center; margin-top: -40px;""><img src=""images/pattern_5.png"" style=""width: 234px; height: 230px; margin-top: -50px;""><div style=""display: flex; justify-content: space-between; margin-top: 33px;""><img src=""images/choice_trial_7.png"" style=""width: 408px; height: 417px; margin-right: 608px;""></div></div>","null","delaylearn","learning","display_response","6565fff05ec125a5ff77a77c","4PlUjpfoJ7fFtl4u6rbMOsV1Atq1","","","","","","","","","","","","","","","","","chosen stimuli: images/choice_trial_7.png","","","",""
"html-keyboard-response","184","395481","0.0-76.0-2.0","","null","","null","delaylearn","learning","feedback_duration_window","6565fff05ec125a5ff77a77c","4PlUjpfoJ7fFtl4u6rbMOsV1Atq1","","","","","","","","","","","","","","","","","","750","","",""
"html-keyboard-response","185","396984","0.0-76.0-3.0","","null","<div style='margin:auto;width: auto; font-size: 150%'><span style='font-weight: bold; font-size: 100px; color: red;'>0 points!</span><br><br></div>","null","delaylearn","learning","feedback_image_window","6565fff05ec125a5ff77a77c","4PlUjpfoJ7fFtl4u6rbMOsV1Atq1","","","","","","","","","","","","","","","","","","","","",""
"html-keyboard-response","186","399025","0.0-77.0","","null","<div style=""font-size:100px;"">+</div>","null","delaylearn","learning","ITI","6565fff05ec125a5ff77a77c","4PlUjpfoJ7fFtl4u6rbMOsV1Atq1","","","","","","","","","","","","","","","","","","","2038","",""
"html-keyboard-response","187","400470","0.0-78.0-0.0","","1440","<div style=""display: flex; flex-direction: column; align-items: center; margin-top: -40px;""><img src=""images/pattern_1.png"" style=""width: 234px; height: 230px; margin-top: -50px;""><div style=""display: flex; justify-content: space-between; margin-top: 33px;""><img src=""images/choice_trial_6.png"" style=""width: 408px; height: 417px; margin-right: 200px;""><img src=""images/choice_trial_15.png"" style=""width: 408px; height: 417px;""></div></div>","f","delaylearn","learning","trial","6565fff05ec125a5ff77a77c","4PlUjpfoJ7fFtl4u6rbMOsV1Atq1","5","images/choice_trial_6.png","images/choice_trial_15.png","images/pattern_1.png","f","f","7000","6","15","1","0","34","1","1","6","200","","","","",""
"html-keyboard-response","188","401474","0.0-78.0-1.0","","null","<div style=""display: flex; flex-direction: column; align-items: center; margin-top: -40px;""><img src=""images/pattern_1.png"" style=""width: 234px; height: 230px; margin-top: -50px;""><div style=""display: flex; justify-content: space-between; margin-top: 33px;""><img src=""images/choice_trial_6.png"" style=""width: 408px; height: 417px; margin-right: 608px;""></div></div>","null","delaylearn","learning","display_response","6565fff05ec125a5ff77a77c","4PlUjpfoJ7fFtl4u6rbMOsV1Atq1","","","","","","","","","","","","","","","","","chosen stimuli: images/choice_trial_6.png","","","",""
"html-keyboard-response","189","408477","0.0-78.0-2.0","","null","","null","delaylearn","learning","feedback_duration_window","6565fff05ec125a5ff77a77c","4PlUjpfoJ7fFtl4u6rbMOsV1Atq1","","","","","","","","","","","","","","","","","","7000","","",""
"html-keyboard-response","190","409981","0.0-78.0-3.0","","null","<div style='margin:auto;width: auto; font-size: 150%'><span style='font-weight: bold; font-size: 100px; color: green;'>+10 points!</span><br><br></div>","null","delaylearn","learning","feedback_image_window","6565fff05ec125a5ff77a77c","4PlUjpfoJ7fFtl4u6rbMOsV1Atq1","","","","","","","","","","","","","","","","","","","","",""
"html-keyboard-response","191","410485","0.0-79.0-0.0","","null","","null","","","mood_trial_fixation","","","","","","","","","","","","","","","","","","","","","","",""
"lmdlab-html-vas-response","192","413623","0.0-79.0-1.0","","2130","How happy are you right now?","0.37407407407407406","delaylearn","learning","mood_trial","6565fff05ec125a5ff77a77c","4PlUjpfoJ7fFtl4u6rbMOsV1Atq1","","","","","","","","","","","","","","","","","","","","[""Very unhappy"",""Very happy""]",""
"html-keyboard-response","193","415719","0.0-80.0","","null","<div style=""font-size:100px;"">+</div>","null","delaylearn","learning","ITI","6565fff05ec125a5ff77a77c","4PlUjpfoJ7fFtl4u6rbMOsV1Atq1","","","","","","","","","","","","","","","","","","","2094","",""
"html-keyboard-response","194","417519","0.0-81.0-0.0","","1795.0000000001164","<div style=""display: flex; flex-direction: column; align-items: center; margin-top: -40px;""><img src=""images/pattern_6.png"" style=""width: 234px; height: 230px; margin-top: -50px;""><div style=""display: flex; justify-content: space-between; margin-top: 33px;""><img src=""images/choice_trial_14.png"" style=""width: 408px; height: 417px; margin-right: 200px;""><img src=""images/choice_trial_9.png"" style=""width: 408px; height: 417px;""></div></div>","f","delaylearn","learning","trial","6565fff05ec125a5ff77a77c","4PlUjpfoJ7fFtl4u6rbMOsV1Atq1","5","images/choice_trial_14.png","images/choice_trial_9.png","images/pattern_6.png","j","f","750","14","9","5","0","35","1","0","14","200","","","","",""
"html-keyboard-response","195","418523","0.0-81.0-1.0","","null","<div style=""display: flex; flex-direction: column; align-items: center; margin-top: -40px;""><img src=""images/pattern_6.png"" style=""width: 234px; height: 230px; margin-top: -50px;""><div style=""display: flex; justify-content: space-between; margin-top: 33px;""><img src=""images/choice_trial_14.png"" style=""width: 408px; height: 417px; margin-right: 608px;""></div></div>","null","delaylearn","learning","display_response","6565fff05ec125a5ff77a77c","4PlUjpfoJ7fFtl4u6rbMOsV1Atq1","","","","","","","","","","","","","","","","","chosen stimuli: images/choice_trial_14.png","","","",""
"html-keyboard-response","196","419276","0.0-81.0-2.0","","null","","null","delaylearn","learning","feedback_duration_window","6565fff05ec125a5ff77a77c","4PlUjpfoJ7fFtl4u6rbMOsV1Atq1","","","","","","","","","","","","","","","","","","750","","",""
"html-keyboard-response","197","420780","0.0-81.0-3.0","","null","<div style='margin:auto;width: auto; font-size: 150%'><span style='font-weight: bold; font-size: 100px; color: red;'>0 points!</span><br><br></div>","null","delaylearn","learning","feedback_image_window","6565fff05ec125a5ff77a77c","4PlUjpfoJ7fFtl4u6rbMOsV1Atq1","","","","","","","","","","","","","","","","","","","","",""
"html-keyboard-response","198","422305","0.0-82.0","","null","<div style=""font-size:100px;"">+</div>","null","delaylearn","learning","ITI","6565fff05ec125a5ff77a77c","4PlUjpfoJ7fFtl4u6rbMOsV1Atq1","","","","","","","","","","","","","","","","","","","1522","",""
"html-keyboard-response","199","423623","0.0-83.0-0.0","","1313","<div style=""display: flex; flex-direction: column; align-items: center; margin-top: -40px;""><img src=""images/pattern_3.png"" style=""width: 234px; height: 230px; margin-top: -50px;""><div style=""display: flex; justify-content: space-between; margin-top: 33px;""><img src=""images/choice_trial_2.png"" style=""width: 408px; height: 417px; margin-right: 200px;""><img src=""images/choice_trial_16.png"" style=""width: 408px; height: 417px;""></div></div>","j","delaylearn","learning","trial","6565fff05ec125a5ff77a77c","4PlUjpfoJ7fFtl4u6rbMOsV1Atq1","5","images/choice_trial_2.png","images/choice_trial_16.png","images/pattern_3.png","j","j","7000","2","16","2","1","36","1","1","16","210","","","","",""
"html-keyboard-response","200","424627","0.0-83.0-1.0","","null","<div style=""display: flex; flex-direction: column; align-items: center; margin-top: -40px;""><img src=""images/pattern_3.png"" style=""width: 234px; height: 230px; margin-top: -50px;""><div style=""display: flex; justify-content: space-between; margin-top: 33px;""><img src=""images/choice_trial_16.png"" style=""width: 408px; height: 417px; margin-left:608px;""></div></div>","null","delaylearn","learning","display_response","6565fff05ec125a5ff77a77c","4PlUjpfoJ7fFtl4u6rbMOsV1Atq1","","","","","","","","","","","","","","","","","chosen stimuli: images/choice_trial_16.png","","","",""
"html-keyboard-response","201","431633","0.0-83.0-2.0","","null","","null","delaylearn","learning","feedback_duration_window","6565fff05ec125a5ff77a77c","4PlUjpfoJ7fFtl4u6rbMOsV1Atq1","","","","","","","","","","","","","","","","","","7000","","",""
"html-keyboard-response","202","433135","0.0-83.0-3.0","","null","<div style='margin:auto;width: auto; font-size: 150%'><span style='font-weight: bold; font-size: 100px; color: green;'>+10 points!</span><br><br></div>","null","delaylearn","learning","feedback_image_window","6565fff05ec125a5ff77a77c","4PlUjpfoJ7fFtl4u6rbMOsV1Atq1","","","","","","","","","","","","","","","","","","","","",""
"html-keyboard-response","203","435568","0.0-84.0","","null","<div style=""font-size:100px;"">+</div>","null","delaylearn","learning","ITI","6565fff05ec125a5ff77a77c","4PlUjpfoJ7fFtl4u6rbMOsV1Atq1","","","","","","","","","","","","","","","","","","","2431","",""
"html-keyboard-response","204","437104","0.0-85.0-0.0","","1532","<div style=""display: flex; flex-direction: column; align-items: center; margin-top: -40px;""><img src=""images/pattern_4.png"" style=""width: 234px; height: 230px; margin-top: -50px;""><div style=""display: flex; justify-content: space-between; margin-top: 33px;""><img src=""images/choice_trial_4.png"" style=""width: 408px; height: 417px; margin-right: 200px;""><img src=""images/choice_trial_11.png"" style=""width: 408px; height: 417px;""></div></div>","j","delaylearn","learning","trial","6565fff05ec125a5ff77a77c","4PlUjpfoJ7fFtl4u6rbMOsV1Atq1","5","images/choice_trial_4.png","images/choice_trial_11.png","images/pattern_4.png","f","j","7000","4","11","3","1","37","1","0","11","210","","","","",""
"html-keyboard-response","205","438108","0.0-85.0-1.0","","null","<div style=""display: flex; flex-direction: column; align-items: center; margin-top: -40px;""><img src=""images/pattern_4.png"" style=""width: 234px; height: 230px; margin-top: -50px;""><div style=""display: flex; justify-content: space-between; margin-top: 33px;""><img src=""images/choice_trial_11.png"" style=""width: 408px; height: 417px; margin-left:608px;""></div></div>","null","delaylearn","learning","display_response","6565fff05ec125a5ff77a77c","4PlUjpfoJ7fFtl4u6rbMOsV1Atq1","","","","","","","","","","","","","","","","","chosen stimuli: images/choice_trial_11.png","","","",""
"html-keyboard-response","206","445112","0.0-85.0-2.0","","null","","null","delaylearn","learning","feedback_duration_window","6565fff05ec125a5ff77a77c","4PlUjpfoJ7fFtl4u6rbMOsV1Atq1","","","","","","","","","","","","","","","","","","7000","","",""
"html-keyboard-response","207","446615","0.0-85.0-3.0","","null","<div style='margin:auto;width: auto; font-size: 150%'><span style='font-weight: bold; font-size: 100px; color: red;'>0 points!</span><br><br></div>","null","delaylearn","learning","feedback_image_window","6565fff05ec125a5ff77a77c","4PlUjpfoJ7fFtl4u6rbMOsV1Atq1","","","","","","","","","","","","","","","","","","","","",""
"html-keyboard-response","208","448827","0.0-86.0","","null","<div style=""font-size:100px;"">+</div>","null","delaylearn","learning","ITI","6565fff05ec125a5ff77a77c","4PlUjpfoJ7fFtl4u6rbMOsV1Atq1","","","","","","","","","","","","","","","","","","","2208","",""
"html-keyboard-response","209","451832","0.0-87.0-0.0","","null","<div style=""display: flex; flex-direction: column; align-items: center; margin-top: -40px;""><img src=""images/pattern_7.png"" style=""width: 234px; height: 230px; margin-top: -50px;""><div style=""display: flex; justify-content: space-between; margin-top: 33px;""><img src=""images/choice_trial_8.png"" style=""width: 408px; height: 417px; margin-right: 200px;""><img src=""images/choice_trial_10.png"" style=""width: 408px; height: 417px;""></div></div>","null","delaylearn","learning","trial","6565fff05ec125a5ff77a77c","4PlUjpfoJ7fFtl4u6rbMOsV1Atq1","5","images/choice_trial_8.png","images/choice_trial_10.png","images/pattern_7.png","f","f","750","8","10","6","0","38","0","0","0","210","","","","",""
"html-keyboard-response","210","452835","0.0-87.0-1.0","","null","<div style='font-weight: bold; font-size: 75px; color: red;'>Missed Trial <br><br><br><br> Please respond faster</div>","null","delaylearn","learning","display_response","6565fff05ec125a5ff77a77c","4PlUjpfoJ7fFtl4u6rbMOsV1Atq1","","","","","","","","","","","","","","","","","Missed trial","","","",""
"html-keyboard-response","211","452837","0.0-87.0-2.0","","null","","null","delaylearn","learning","feedback_duration_window","6565fff05ec125a5ff77a77c","4PlUjpfoJ7fFtl4u6rbMOsV1Atq1","","","","","","","","","","","","","","","","","","0","","",""
"html-keyboard-response","212","452838","0.0-87.0-3.0","","null","","null","delaylearn","learning","feedback_image_window","6565fff05ec125a5ff77a77c","4PlUjpfoJ7fFtl4u6rbMOsV1Atq1","","","","","","","","","","","","","","","","","","","","",""
"html-keyboard-response","213","455090","0.0-88.0","","null","<div style=""font-size:100px;"">+</div>","null","delaylearn","learning","ITI","6565fff05ec125a5ff77a77c","4PlUjpfoJ7fFtl4u6rbMOsV1Atq1","","","","","","","","","","","","","","","","","","","2249","",""
"html-keyboard-response","214","456555","0.0-89.0-0.0","","1458.9999999998836","<div style=""display: flex; flex-direction: column; align-items: center; margin-top: -40px;""><img src=""images/pattern_1.png"" style=""width: 234px; height: 230px; margin-top: -50px;""><div style=""display: flex; justify-content: space-between; margin-top: 33px;""><img src=""images/choice_trial_6.png"" style=""width: 408px; height: 417px; margin-right: 200px;""><img src=""images/choice_trial_15.png"" style=""width: 408px; height: 417px;""></div></div>","f","delaylearn","learning","trial","6565fff05ec125a5ff77a77c","4PlUjpfoJ7fFtl4u6rbMOsV1Atq1","5","images/choice_trial_6.png","images/choice_trial_15.png","images/pattern_1.png","f","f","7000","6","15","1","0","39","1","1","6","220","","","","",""
"html-keyboard-response","215","457559","0.0-89.0-1.0","","null","<div style=""display: flex; flex-direction: column; align-items: center; margin-top: -40px;""><img src=""images/pattern_1.png"" style=""width: 234px; height: 230px; margin-top: -50px;""><div style=""display: flex; justify-content: space-between; margin-top: 33px;""><img src=""images/choice_trial_6.png"" style=""width: 408px; height: 417px; margin-right: 608px;""></div></div>","null","delaylearn","learning","display_response","6565fff05ec125a5ff77a77c","4PlUjpfoJ7fFtl4u6rbMOsV1Atq1","","","","","","","","","","","","","","","","","chosen stimuli: images/choice_trial_6.png","","","",""
"html-keyboard-response","216","464562","0.0-89.0-2.0","","null","","null","delaylearn","learning","feedback_duration_window","6565fff05ec125a5ff77a77c","4PlUjpfoJ7fFtl4u6rbMOsV1Atq1","","","","","","","","","","","","","","","","","","7000","","",""
"html-keyboard-response","217","466065","0.0-89.0-3.0","","null","<div style='margin:auto;width: auto; font-size: 150%'><span style='font-weight: bold; font-size: 100px; color: green;'>+10 points!</span><br><br></div>","null","delaylearn","learning","feedback_image_window","6565fff05ec125a5ff77a77c","4PlUjpfoJ7fFtl4u6rbMOsV1Atq1","","","","","","","","","","","","","","","","","","","","",""
"html-keyboard-response","218","466567","0.0-90.0-0.0","","null","","null","","","mood_trial_fixation","","","","","","","","","","","","","","","","","","","","","","",""
"lmdlab-html-vas-response","219","469368","0.0-90.0-1.0","","1794","How happy are you right now?","0.42962962962962964","delaylearn","learning","mood_trial","6565fff05ec125a5ff77a77c","4PlUjpfoJ7fFtl4u6rbMOsV1Atq1","","","","","","","","","","","","","","","","","","","","[""Very unhappy"",""Very happy""]",""
"html-keyboard-response","220","470938","0.0-91.0","","null","<div style=""font-size:100px;"">+</div>","null","delaylearn","learning","ITI","6565fff05ec125a5ff77a77c","4PlUjpfoJ7fFtl4u6rbMOsV1Atq1","","","","","","","","","","","","","","","","","","","1569","",""
"html-keyboard-response","221","472989","0.0-92.0-0.0","","2046.0000000001164","<div style=""display: flex; flex-direction: column; align-items: center; margin-top: -40px;""><img src=""images/pattern_3.png"" style=""width: 234px; height: 230px; margin-top: -50px;""><div style=""display: flex; justify-content: space-between; margin-top: 33px;""><img src=""images/choice_trial_16.png"" style=""width: 408px; height: 417px; margin-right: 200px;""><img src=""images/choice_trial_2.png"" style=""width: 408px; height: 417px;""></div></div>","j","delaylearn","learning","trial","6565fff05ec125a5ff77a77c","4PlUjpfoJ7fFtl4u6rbMOsV1Atq1","5","images/choice_trial_16.png","images/choice_trial_2.png","images/pattern_3.png","j","f","7000","16","2","2","0","40","0","1","2","230","","","","",""
