"trial_type","trial_index","time_elapsed","internal_node_id","participant","rt","stimulus","response","exp_name","exp_stage","test_part","subjectID","databaseID","counterbal","choice_stimuli_1","choice_stimuli_2","pattern_stimuli","rewarded_answer","correct_answer","feedback_duration_times","stim_left","stim_right","pair","leftright_counter","trial","response_correct","response_rewarded","chosen_stim","counter","displayed_choice","feedback_durations","ITI_duration","labels","rest_warning"
"pavlovia","0","571","0.0-0.0","","","","","","","","","","","","","","","","","","","","","","","","","","","","","",""
"html-keyboard-response","1","3590","0.0-1.0","","null","<div style=""font-size:100px;"">+</div>","null","delaylearn","learning","pre_fixation","5f32cfa671047605fbb4cee1","","","","","","","","","","","","","","","","","","","","","",""
"html-keyboard-response","2","4896","0.0-2.0-0.0","","1301.2000000029802","<div style=""display: flex; flex-direction: column; align-items: center; margin-top: -40px;""><img src=""images/demo_images/pattern_1.png"" style=""width: 234px; height: 230px; margin-top: -50px;""><div style=""display: flex; justify-content: space-between; margin-top: 33px;""><img src=""images/demo_images/choice_trial_2.png"" style=""width: 408px; height: 417px; margin-right: 200px;""><img src=""images/demo_images/choice_trial_1.png"" style=""width: 408px; height: 417px;""></div></div>","f","delaylearn","learning","trial","5f32cfa671047605fbb4cee1","0zqGzxTkysM2nN8Tb4TAjvlxsM32","5","images/demo_images/choice_trial_2.png","images/demo_images/choice_trial_1.png","images/demo_images/pattern_1.png","j","j","3000","2","1","20","1","1","0","0","2","0","","","","",""
"html-keyboard-response","3","5912","0.0-2.0-1.0","","null","<div style=""display: flex; flex-direction: column; align-items: center; margin-top: -40px;""><img src=""images/demo_images/pattern_1.png"" style=""width: 234px; height: 230px; margin-top: -50px;""><div style=""display: flex; justify-content: space-between; margin-top: 33px;""><img src=""images/demo_images/choice_trial_2.png"" style=""width: 408px; height: 417px; margin-right: 608px;""></div></div>","null","delaylearn","learning","display_response","5f32cfa671047605fbb4cee1","0zqGzxTkysM2nN8Tb4TAjvlxsM32","","","","","","","","","","","","","","","","","chosen stimuli: images/demo_images/choice_trial_2.png","","","",""
"html-keyboard-response","4","8921","0.0-2.0-2.0","","null","","null","delaylearn","learning","feedback_duration_window","5f32cfa671047605fbb4cee1","0zqGzxTkysM2nN8Tb4TAjvlxsM32","","","","","","","","","","","","","","","","","","3000","","",""
"html-keyboard-response","5","10425","0.0-2.0-3.0","","null","<div style='margin:auto;width: auto; font-size: 150%'><span style='font-weight: bold; font-size: 100px; color: red;'>0 points!</span><br><br></div>","null","delaylearn","learning","feedback_image_window","5f32cfa671047605fbb4cee1","0zqGzxTkysM2nN8Tb4TAjvlxsM32","","","","","","","","","","","","","","","","","","","","",""
"html-keyboard-response","6","12259","0.0-3.0","","null","<div style=""font-size:100px;"">+</div>","null","delaylearn","learning","ITI","5f32cfa671047605fbb4cee1","0zqGzxTkysM2nN8Tb4TAjvlxsM32","","","","","","","","","","","","","","","","","","","1831","",""
"html-keyboard-response","7","13529","0.0-4.0-0.0","","1264.9000000059605","<div style=""display: flex; flex-direction: column; align-items: center; margin-top: -40px;""><img src=""images/demo_images/pattern_1.png"" style=""width: 234px; height: 230px; margin-top: -50px;""><div style=""display: flex; justify-content: space-between; margin-top: 33px;""><img src=""images/demo_images/choice_trial_2.png"" style=""width: 408px; height: 417px; margin-right: 200px;""><img src=""images/demo_images/choice_trial_1.png"" style=""width: 408px; height: 417px;""></div></div>","j","delaylearn","learning","trial","5f32cfa671047605fbb4cee1","0zqGzxTkysM2nN8Tb4TAjvlxsM32","5","images/demo_images/choice_trial_2.png","images/demo_images/choice_trial_1.png","images/demo_images/pattern_1.png","j","j","3000","2","1","20","1","2","1","1","1","10","","","","",""
"html-keyboard-response","8","14540","0.0-4.0-1.0","","null","<div style=""display: flex; flex-direction: column; align-items: center; margin-top: -40px;""><img src=""images/demo_images/pattern_1.png"" style=""width: 234px; height: 230px; margin-top: -50px;""><div style=""display: flex; justify-content: space-between; margin-top: 33px;""><img src=""images/demo_images/choice_trial_1.png"" style=""width: 408px; height: 417px; margin-left:608px;""></div></div>","null","delaylearn","learning","display_response","5f32cfa671047605fbb4cee1","0zqGzxTkysM2nN8Tb4TAjvlxsM32","","","","","","","","","","","","","","","","","chosen stimuli: images/demo_images/choice_trial_1.png","","","",""
"html-keyboard-response","9","17547","0.0-4.0-2.0","","null","","null","delaylearn","learning","feedback_duration_window","5f32cfa671047605fbb4cee1","0zqGzxTkysM2nN8Tb4TAjvlxsM32","","","","","","","","","","","","","","","","","","3000","","",""
"html-keyboard-response","10","19058","0.0-4.0-3.0","","null","<div style='margin:auto;width: auto; font-size: 150%'><span style='font-weight: bold; font-size: 100px; color: green;'>+10 points!</span><br><br></div>","null","delaylearn","learning","feedback_image_window","5f32cfa671047605fbb4cee1","0zqGzxTkysM2nN8Tb4TAjvlxsM32","","","","","","","","","","","","","","","","","","","","",""
"html-keyboard-response","11","21124","0.0-5.0","","null","<div style=""font-size:100px;"">+</div>","null","delaylearn","learning","ITI","5f32cfa671047605fbb4cee1","0zqGzxTkysM2nN8Tb4TAjvlxsM32","","","","","","","","","","","","","","","","","","","2052","",""
"html-keyboard-response","12","22167","0.0-6.0-0.0","","1039.7999999970198","<div style=""display: flex; flex-direction: column; align-items: center; margin-top: -40px;""><img src=""images/demo_images/pattern_1.png"" style=""width: 234px; height: 230px; margin-top: -50px;""><div style=""display: flex; justify-content: space-between; margin-top: 33px;""><img src=""images/demo_images/choice_trial_1.png"" style=""width: 408px; height: 417px; margin-right: 200px;""><img src=""images/demo_images/choice_trial_2.png"" style=""width: 408px; height: 417px;""></div></div>","f","delaylearn","learning","trial","5f32cfa671047605fbb4cee1","0zqGzxTkysM2nN8Tb4TAjvlxsM32","5","images/demo_images/choice_trial_1.png","images/demo_images/choice_trial_2.png","images/demo_images/pattern_1.png","j","f","3000","1","2","20","0","3","1","0","1","10","","","","",""
"html-keyboard-response","13","23174","0.0-6.0-1.0","","null","<div style=""display: flex; flex-direction: column; align-items: center; margin-top: -40px;""><img src=""images/demo_images/pattern_1.png"" style=""width: 234px; height: 230px; margin-top: -50px;""><div style=""display: flex; justify-content: space-between; margin-top: 33px;""><img src=""images/demo_images/choice_trial_1.png"" style=""width: 408px; height: 417px; margin-right: 608px;""></div></div>","null","delaylearn","learning","display_response","5f32cfa671047605fbb4cee1","0zqGzxTkysM2nN8Tb4TAjvlxsM32","","","","","","","","","","","","","","","","","chosen stimuli: images/demo_images/choice_trial_1.png","","","",""
"html-keyboard-response","14","26186","0.0-6.0-2.0","","null","","null","delaylearn","learning","feedback_duration_window","5f32cfa671047605fbb4cee1","0zqGzxTkysM2nN8Tb4TAjvlxsM32","","","","","","","","","","","","","","","","","","3000","","",""
"html-keyboard-response","15","27700","0.0-6.0-3.0","","null","<div style='margin:auto;width: auto; font-size: 150%'><span style='font-weight: bold; font-size: 100px; color: red;'>0 points!</span><br><br></div>","null","delaylearn","learning","feedback_image_window","5f32cfa671047605fbb4cee1","0zqGzxTkysM2nN8Tb4TAjvlxsM32","","","","","","","","","","","","","","","","","","","","",""
"html-keyboard-response","16","29349","0.0-7.0","","null","<div style=""font-size:100px;"">+</div>","null","delaylearn","learning","ITI","5f32cfa671047605fbb4cee1","0zqGzxTkysM2nN8Tb4TAjvlxsM32","","","","","","","","","","","","","","","","","","","1635","",""
"html-keyboard-response","17","30839","0.0-8.0-0.0","","1487.0999999940395","<div style=""display: flex; flex-direction: column; align-items: center; margin-top: -40px;""><img src=""images/demo_images/pattern_1.png"" style=""width: 234px; height: 230px; margin-top: -50px;""><div style=""display: flex; justify-content: space-between; margin-top: 33px;""><img src=""images/demo_images/choice_trial_1.png"" style=""width: 408px; height: 417px; margin-right: 200px;""><img src=""images/demo_images/choice_trial_2.png"" style=""width: 408px; height: 417px;""></div></div>","f","delaylearn","learning","trial","5f32cfa671047605fbb4cee1","0zqGzxTkysM2nN8Tb4TAjvlxsM32","5","images/demo_images/choice_trial_1.png","images/demo_images/choice_trial_2.png","images/demo_images/pattern_1.png","f","f","3000","1","2","20","0","4","1","1","1","20","","","","",""
"html-keyboard-response","18","31854","0.0-8.0-1.0","","null","<div style=""display: flex; flex-direction: column; align-items: center; margin-top: -40px;""><img src=""images/demo_images/pattern_1.png"" style=""width: 234px; height: 230px; margin-top: -50px;""><div style=""display: flex; justify-content: space-between; margin-top: 33px;""><img src=""images/demo_images/choice_trial_1.png"" style=""width: 408px; height: 417px; margin-right: 608px;""></div></div>","null","delaylearn","learning","display_response","5f32cfa671047605fbb4cee1","0zqGzxTkysM2nN8Tb4TAjvlxsM32","","","","","","","","","","","","","","","","","chosen stimuli: images/demo_images/choice_trial_1.png","","","",""
"html-keyboard-response","19","34866","0.0-8.0-2.0","","null","","null","delaylearn","learning","feedback_duration_window","5f32cfa671047605fbb4cee1","0zqGzxTkysM2nN8Tb4TAjvlxsM32","","","","","","","","","","","","","","","","","","3000","","",""
"html-keyboard-response","20","36371","0.0-8.0-3.0","","null","<div style='margin:auto;width: auto; font-size: 150%'><span style='font-weight: bold; font-size: 100px; color: green;'>+10 points!</span><br><br></div>","null","delaylearn","learning","feedback_image_window","5f32cfa671047605fbb4cee1","0zqGzxTkysM2nN8Tb4TAjvlxsM32","","","","","","","","","","","","","","","","","","","","",""
"html-keyboard-response","21","36881","0.0-9.0-0.0","","null","","null","","","mood_trial_fixation","","","","","","","","","","","","","","","","","","","","","","",""
"lmdlab-html-vas-response","22","41160","0.0-9.0-1.0","","3249","How happy are you right now?","0.7218604866376106","delaylearn","learning","mood_trial","5f32cfa671047605fbb4cee1","0zqGzxTkysM2nN8Tb4TAjvlxsM32","","","","","","","","","","","","","","","","","","","","[""Very unhappy"",""Very happy""]",""
"html-keyboard-response","23","43538","0.0-10.0","","null","<div style=""font-size:100px;"">+</div>","null","delaylearn","learning","ITI","5f32cfa671047605fbb4cee1","0zqGzxTkysM2nN8Tb4TAjvlxsM32","","","","","","","","","","","","","","","","","","","2366","",""
"html-keyboard-response","24","45038","0.0-11.0-0.0","","1496.9000000059605","<div style=""display: flex; flex-direction: column; align-items: center; margin-top: -40px;""><img src=""images/demo_images/pattern_1.png"" style=""width: 234px; height: 230px; margin-top: -50px;""><div style=""display: flex; justify-content: space-between; margin-top: 33px;""><img src=""images/demo_images/choice_trial_2.png"" style=""width: 408px; height: 417px; margin-right: 200px;""><img src=""images/demo_images/choice_trial_1.png"" style=""width: 408px; height: 417px;""></div></div>","j","delaylearn","learning","trial","5f32cfa671047605fbb4cee1","0zqGzxTkysM2nN8Tb4TAjvlxsM32","5","images/demo_images/choice_trial_2.png","images/demo_images/choice_trial_1.png","images/demo_images/pattern_1.png","j","j","3000","2","1","20","1","5","1","1","1","30","","","","",""
"html-keyboard-response","25","46047","0.0-11.0-1.0","","null","<div style=""display: flex; flex-direction: column; align-items: center; margin-top: -40px;""><img src=""images/demo_images/pattern_1.png"" style=""width: 234px; height: 230px; margin-top: -50px;""><div style=""display: flex; justify-content: space-between; margin-top: 33px;""><img src=""images/demo_images/choice_trial_1.png"" style=""width: 408px; height: 417px; margin-left:608px;""></div></div>","null","delaylearn","learning","display_response","5f32cfa671047605fbb4cee1","0zqGzxTkysM2nN8Tb4TAjvlxsM32","","","","","","","","","","","","","","","","","chosen stimuli: images/demo_images/choice_trial_1.png","","","",""
"html-keyboard-response","26","49064","0.0-11.0-2.0","","null","","null","delaylearn","learning","feedback_duration_window","5f32cfa671047605fbb4cee1","0zqGzxTkysM2nN8Tb4TAjvlxsM32","","","","","","","","","","","","","","","","","","3000","","",""
"html-keyboard-response","27","50577","0.0-11.0-3.0","","null","<div style='margin:auto;width: auto; font-size: 150%'><span style='font-weight: bold; font-size: 100px; color: green;'>+10 points!</span><br><br></div>","null","delaylearn","learning","feedback_image_window","5f32cfa671047605fbb4cee1","0zqGzxTkysM2nN8Tb4TAjvlxsM32","","","","","","","","","","","","","","","","","","","","",""
"html-keyboard-response","28","52408","0.0-12.0","","null","<div style=""font-size:100px;"">+</div>","null","delaylearn","learning","ITI","5f32cfa671047605fbb4cee1","0zqGzxTkysM2nN8Tb4TAjvlxsM32","","","","","","","","","","","","","","","","","","","1826","",""
"html-keyboard-response","29","53319","0.0-13.0-0.0","","908.2999999970198","<div style=""display: flex; flex-direction: column; align-items: center; margin-top: -40px;""><img src=""images/demo_images/pattern_1.png"" style=""width: 234px; height: 230px; margin-top: -50px;""><div style=""display: flex; justify-content: space-between; margin-top: 33px;""><img src=""images/demo_images/choice_trial_1.png"" style=""width: 408px; height: 417px; margin-right: 200px;""><img src=""images/demo_images/choice_trial_2.png"" style=""width: 408px; height: 417px;""></div></div>","f","delaylearn","learning","trial","5f32cfa671047605fbb4cee1","0zqGzxTkysM2nN8Tb4TAjvlxsM32","5","images/demo_images/choice_trial_1.png","images/demo_images/choice_trial_2.png","images/demo_images/pattern_1.png","f","f","3000","1","2","20","0","6","1","1","1","40","","","","",""
"html-keyboard-response","30","54325","0.0-13.0-1.0","","null","<div style=""display: flex; flex-direction: column; align-items: center; margin-top: -40px;""><img src=""images/demo_images/pattern_1.png"" style=""width: 234px; height: 230px; margin-top: -50px;""><div style=""display: flex; justify-content: space-between; margin-top: 33px;""><img src=""images/demo_images/choice_trial_1.png"" style=""width: 408px; height: 417px; margin-right: 608px;""></div></div>","null","delaylearn","learning","display_response","5f32cfa671047605fbb4cee1","0zqGzxTkysM2nN8Tb4TAjvlxsM32","","","","","","","","","","","","","","","","","chosen stimuli: images/demo_images/choice_trial_1.png","","","",""
"html-keyboard-response","31","57335","0.0-13.0-2.0","","null","","null","delaylearn","learning","feedback_duration_window","5f32cfa671047605fbb4cee1","0zqGzxTkysM2nN8Tb4TAjvlxsM32","","","","","","","","","","","","","","","","","","3000","","",""
"html-keyboard-response","32","58853","0.0-13.0-3.0","","null","<div style='margin:auto;width: auto; font-size: 150%'><span style='font-weight: bold; font-size: 100px; color: green;'>+10 points!</span><br><br></div>","null","delaylearn","learning","feedback_image_window","5f32cfa671047605fbb4cee1","0zqGzxTkysM2nN8Tb4TAjvlxsM32","","","","","","","","","","","","","","","","","","","","",""
"html-keyboard-response","33","61238","0.0-14.0","","null","<div style=""font-size:100px;"">+</div>","null","delaylearn","learning","ITI","5f32cfa671047605fbb4cee1","0zqGzxTkysM2nN8Tb4TAjvlxsM32","","","","","","","","","","","","","","","","","","","2374","",""
"html-keyboard-response","34","61958","0.0-15.0-0.0","","716.9000000059605","<div style=""display: flex; flex-direction: column; align-items: center; margin-top: -40px;""><img src=""images/demo_images/pattern_1.png"" style=""width: 234px; height: 230px; margin-top: -50px;""><div style=""display: flex; justify-content: space-between; margin-top: 33px;""><img src=""images/demo_images/choice_trial_2.png"" style=""width: 408px; height: 417px; margin-right: 200px;""><img src=""images/demo_images/choice_trial_1.png"" style=""width: 408px; height: 417px;""></div></div>","j","delaylearn","learning","trial","5f32cfa671047605fbb4cee1","0zqGzxTkysM2nN8Tb4TAjvlxsM32","5","images/demo_images/choice_trial_2.png","images/demo_images/choice_trial_1.png","images/demo_images/pattern_1.png","j","j","3000","2","1","20","1","7","1","1","1","50","","","","",""
"html-keyboard-response","35","62967","0.0-15.0-1.0","","null","<div style=""display: flex; flex-direction: column; align-items: center; margin-top: -40px;""><img src=""images/demo_images/pattern_1.png"" style=""width: 234px; height: 230px; margin-top: -50px;""><div style=""display: flex; justify-content: space-between; margin-top: 33px;""><img src=""images/demo_images/choice_trial_1.png"" style=""width: 408px; height: 417px; margin-left:608px;""></div></div>","null","delaylearn","learning","display_response","5f32cfa671047605fbb4cee1","0zqGzxTkysM2nN8Tb4TAjvlxsM32","","","","","","","","","","","","","","","","","chosen stimuli: images/demo_images/choice_trial_1.png","","","",""
"html-keyboard-response","36","65982","0.0-15.0-2.0","","null","","null","delaylearn","learning","feedback_duration_window","5f32cfa671047605fbb4cee1","0zqGzxTkysM2nN8Tb4TAjvlxsM32","","","","","","","","","","","","","","","","","","3000","","",""
"html-keyboard-response","37","67491","0.0-15.0-3.0","","null","<div style='margin:auto;width: auto; font-size: 150%'><span style='font-weight: bold; font-size: 100px; color: green;'>+10 points!</span><br><br></div>","null","delaylearn","learning","feedback_image_window","5f32cfa671047605fbb4cee1","0zqGzxTkysM2nN8Tb4TAjvlxsM32","","","","","","","","","","","","","","","","","","","","",""
"html-keyboard-response","38","69721","0.0-16.0","","null","<div style=""font-size:100px;"">+</div>","null","delaylearn","learning","ITI","5f32cfa671047605fbb4cee1","0zqGzxTkysM2nN8Tb4TAjvlxsM32","","","","","","","","","","","","","","","","","","","2228","",""
"html-keyboard-response","39","70839","0.0-17.0-0.0","","1114.5","<div style=""display: flex; flex-direction: column; align-items: center; margin-top: -40px;""><img src=""images/demo_images/pattern_1.png"" style=""width: 234px; height: 230px; margin-top: -50px;""><div style=""display: flex; justify-content: space-between; margin-top: 33px;""><img src=""images/demo_images/choice_trial_1.png"" style=""width: 408px; height: 417px; margin-right: 200px;""><img src=""images/demo_images/choice_trial_2.png"" style=""width: 408px; height: 417px;""></div></div>","f","delaylearn","learning","trial","5f32cfa671047605fbb4cee1","0zqGzxTkysM2nN8Tb4TAjvlxsM32","5","images/demo_images/choice_trial_1.png","images/demo_images/choice_trial_2.png","images/demo_images/pattern_1.png","f","f","3000","1","2","20","0","8","1","1","1","60","","","","",""
"html-keyboard-response","40","71852","0.0-17.0-1.0","","null","<div style=""display: flex; flex-direction: column; align-items: center; margin-top: -40px;""><img src=""images/demo_images/pattern_1.png"" style=""width: 234px; height: 230px; margin-top: -50px;""><div style=""display: flex; justify-content: space-between; margin-top: 33px;""><img src=""images/demo_images/choice_trial_1.png"" style=""width: 408px; height: 417px; margin-right: 608px;""></div></div>","null","delaylearn","learning","display_response","5f32cfa671047605fbb4cee1","0zqGzxTkysM2nN8Tb4TAjvlxsM32","","","","","","","","","","","","","","","","","chosen stimuli: images/demo_images/choice_trial_1.png","","","",""
"html-keyboard-response","41","74858","0.0-17.0-2.0","","null","","null","delaylearn","learning","feedback_duration_window","5f32cfa671047605fbb4cee1","0zqGzxTkysM2nN8Tb4TAjvlxsM32","","","","","","","","","","","","","","","","","","3000","","",""
"html-keyboard-response","42","76361","0.0-17.0-3.0","","null","<div style='margin:auto;width: auto; font-size: 150%'><span style='font-weight: bold; font-size: 100px; color: green;'>+10 points!</span><br><br></div>","null","delaylearn","learning","feedback_image_window","5f32cfa671047605fbb4cee1","0zqGzxTkysM2nN8Tb4TAjvlxsM32","","","","","","","","","","","","","","","","","","","","",""
"html-button-response","43","81207","0.0-18.0","","4842.9000000059605","
  <div style=""display: flex; align-items: center; justify-content: center; height: 80vh;"">
  <div>
          <img src=""images/inst_demo_finish.png"" style=""width: 80vw; height:auto;"">
          <br><br>
      </div>
      <br><br>
  </div>","0","","","","","","","","","","","","","","","","","","","","","","","","","",""
"html-keyboard-response","44","103544","0.0-19.0","","22334.30000001192","
  <div style=""display: flex; align-items: center; justify-content: center; height: 80vh;"">
  <div>
          <img src=""images/inst_6.png"" style=""width: 80vw; height:auto;"">
          <br><br>
      </div>
      <br><br>
  </div>","f","","","","","","","","","","","","","","","","","","","","","","","","","",""
"html-keyboard-response","45","106560","0.0-20.0","","null","<div style=""font-size:100px;"">+</div>","null","delaylearn","learning","pre_fixation","5f32cfa671047605fbb4cee1","","","","","","","","","","","","","","","","","","","","","",""
"html-keyboard-response","46","108805","0.0-21.0","","null","<div style=""font-size:100px;"">+</div>","null","delaylearn","learning","ITI","5f32cfa671047605fbb4cee1","0zqGzxTkysM2nN8Tb4TAjvlxsM32","","","","","","","","","","","","","","","","","","","2242","",""
"html-keyboard-response","47","110695","0.0-22.0-0.0","","1886.5999999940395","<div style=""display: flex; flex-direction: column; align-items: center; margin-top: -40px;""><img src=""images/pattern_3.png"" style=""width: 234px; height: 230px; margin-top: -50px;""><div style=""display: flex; justify-content: space-between; margin-top: 33px;""><img src=""images/choice_trial_16.png"" style=""width: 408px; height: 417px; margin-right: 200px;""><img src=""images/choice_trial_2.png"" style=""width: 408px; height: 417px;""></div></div>","f","delaylearn","learning","trial","5f32cfa671047605fbb4cee1","0zqGzxTkysM2nN8Tb4TAjvlxsM32","5","images/choice_trial_16.png","images/choice_trial_2.png","images/pattern_3.png","f","f","7000","16","2","2","0","9","1","1","16","70","","","","",""
"html-keyboard-response","48","111707","0.0-22.0-1.0","","null","<div style=""display: flex; flex-direction: column; align-items: center; margin-top: -40px;""><img src=""images/pattern_3.png"" style=""width: 234px; height: 230px; margin-top: -50px;""><div style=""display: flex; justify-content: space-between; margin-top: 33px;""><img src=""images/choice_trial_16.png"" style=""width: 408px; height: 417px; margin-right: 608px;""></div></div>","null","delaylearn","learning","display_response","5f32cfa671047605fbb4cee1","0zqGzxTkysM2nN8Tb4TAjvlxsM32","","","","","","","","","","","","","","","","","chosen stimuli: images/choice_trial_16.png","","","",""
"html-keyboard-response","49","118709","0.0-22.0-2.0","","null","","null","delaylearn","learning","feedback_duration_window","5f32cfa671047605fbb4cee1","0zqGzxTkysM2nN8Tb4TAjvlxsM32","","","","","","","","","","","","","","","","","","7000","","",""
"html-keyboard-response","50","120214","0.0-22.0-3.0","","null","<div style='margin:auto;width: auto; font-size: 150%'><span style='font-weight: bold; font-size: 100px; color: green;'>+10 points!</span><br><br></div>","null","delaylearn","learning","feedback_image_window","5f32cfa671047605fbb4cee1","0zqGzxTkysM2nN8Tb4TAjvlxsM32","","","","","","","","","","","","","","","","","","","","",""
"html-keyboard-response","51","122548","0.0-23.0","","null","<div style=""font-size:100px;"">+</div>","null","delaylearn","learning","ITI","5f32cfa671047605fbb4cee1","0zqGzxTkysM2nN8Tb4TAjvlxsM32","","","","","","","","","","","","","","","","","","","2320","",""
"html-keyboard-response","52","124616","0.0-24.0-0.0","","2065","<div style=""display: flex; flex-direction: column; align-items: center; margin-top: -40px;""><img src=""images/pattern_7.png"" style=""width: 234px; height: 230px; margin-top: -50px;""><div style=""display: flex; justify-content: space-between; margin-top: 33px;""><img src=""images/choice_trial_10.png"" style=""width: 408px; height: 417px; margin-right: 200px;""><img src=""images/choice_trial_8.png"" style=""width: 408px; height: 417px;""></div></div>","f","delaylearn","learning","trial","5f32cfa671047605fbb4cee1","0zqGzxTkysM2nN8Tb4TAjvlxsM32","5","images/choice_trial_10.png","images/choice_trial_8.png","images/pattern_7.png","j","j","750","10","8","6","1","10","0","0","10","70","","","","",""
"html-keyboard-response","53","125628","0.0-24.0-1.0","","null","<div style=""display: flex; flex-direction: column; align-items: center; margin-top: -40px;""><img src=""images/pattern_7.png"" style=""width: 234px; height: 230px; margin-top: -50px;""><div style=""display: flex; justify-content: space-between; margin-top: 33px;""><img src=""images/choice_trial_10.png"" style=""width: 408px; height: 417px; margin-right: 608px;""></div></div>","null","delaylearn","learning","display_response","5f32cfa671047605fbb4cee1","0zqGzxTkysM2nN8Tb4TAjvlxsM32","","","","","","","","","","","","","","","","","chosen stimuli: images/choice_trial_10.png","","","",""
"html-keyboard-response","54","126395","0.0-24.0-2.0","","null","","null","delaylearn","learning","feedback_duration_window","5f32cfa671047605fbb4cee1","0zqGzxTkysM2nN8Tb4TAjvlxsM32","","","","","","","","","","","","","","","","","","750","","",""
"html-keyboard-response","55","127900","0.0-24.0-3.0","","null","<div style='margin:auto;width: auto; font-size: 150%'><span style='font-weight: bold; font-size: 100px; color: red;'>0 points!</span><br><br></div>","null","delaylearn","learning","feedback_image_window","5f32cfa671047605fbb4cee1","0zqGzxTkysM2nN8Tb4TAjvlxsM32","","","","","","","","","","","","","","","","","","","","",""
"html-keyboard-response","56","129874","0.0-25.0","","null","<div style=""font-size:100px;"">+</div>","null","delaylearn","learning","ITI","5f32cfa671047605fbb4cee1","0zqGzxTkysM2nN8Tb4TAjvlxsM32","","","","","","","","","","","","","","","","","","","1963","",""
"html-keyboard-response","57","132711","0.0-26.0-0.0","","2833.7999999970198","<div style=""display: flex; flex-direction: column; align-items: center; margin-top: -40px;""><img src=""images/pattern_4.png"" style=""width: 234px; height: 230px; margin-top: -50px;""><div style=""display: flex; justify-content: space-between; margin-top: 33px;""><img src=""images/choice_trial_11.png"" style=""width: 408px; height: 417px; margin-right: 200px;""><img src=""images/choice_trial_4.png"" style=""width: 408px; height: 417px;""></div></div>","f","delaylearn","learning","trial","5f32cfa671047605fbb4cee1","0zqGzxTkysM2nN8Tb4TAjvlxsM32","5","images/choice_trial_11.png","images/choice_trial_4.png","images/pattern_4.png","f","f","7000","11","4","3","0","11","1","1","11","80","","","","",""
"html-keyboard-response","58","133725","0.0-26.0-1.0","","null","<div style=""display: flex; flex-direction: column; align-items: center; margin-top: -40px;""><img src=""images/pattern_4.png"" style=""width: 234px; height: 230px; margin-top: -50px;""><div style=""display: flex; justify-content: space-between; margin-top: 33px;""><img src=""images/choice_trial_11.png"" style=""width: 408px; height: 417px; margin-right: 608px;""></div></div>","null","delaylearn","learning","display_response","5f32cfa671047605fbb4cee1","0zqGzxTkysM2nN8Tb4TAjvlxsM32","","","","","","","","","","","","","","","","","chosen stimuli: images/choice_trial_11.png","","","",""
"html-keyboard-response","59","140740","0.0-26.0-2.0","","null","","null","delaylearn","learning","feedback_duration_window","5f32cfa671047605fbb4cee1","0zqGzxTkysM2nN8Tb4TAjvlxsM32","","","","","","","","","","","","","","","","","","7000","","",""
"html-keyboard-response","60","142252","0.0-26.0-3.0","","null","<div style='margin:auto;width: auto; font-size: 150%'><span style='font-weight: bold; font-size: 100px; color: green;'>+10 points!</span><br><br></div>","null","delaylearn","learning","feedback_image_window","5f32cfa671047605fbb4cee1","0zqGzxTkysM2nN8Tb4TAjvlxsM32","","","","","","","","","","","","","","","","","","","","",""
"html-keyboard-response","61","144346","0.0-27.0","","null","<div style=""font-size:100px;"">+</div>","null","delaylearn","learning","ITI","5f32cfa671047605fbb4cee1","0zqGzxTkysM2nN8Tb4TAjvlxsM32","","","","","","","","","","","","","","","","","","","2086","",""
"html-keyboard-response","62","146150","0.0-28.0-0.0","","1801.2000000029802","<div style=""display: flex; flex-direction: column; align-items: center; margin-top: -40px;""><img src=""images/pattern_5.png"" style=""width: 234px; height: 230px; margin-top: -50px;""><div style=""display: flex; justify-content: space-between; margin-top: 33px;""><img src=""images/choice_trial_13.png"" style=""width: 408px; height: 417px; margin-right: 200px;""><img src=""images/choice_trial_7.png"" style=""width: 408px; height: 417px;""></div></div>","j","delaylearn","learning","trial","5f32cfa671047605fbb4cee1","0zqGzxTkysM2nN8Tb4TAjvlxsM32","5","images/choice_trial_13.png","images/choice_trial_7.png","images/pattern_5.png","j","j","750","13","7","4","1","12","1","1","7","90","","","","",""
"html-keyboard-response","63","147165","0.0-28.0-1.0","","null","<div style=""display: flex; flex-direction: column; align-items: center; margin-top: -40px;""><img src=""images/pattern_5.png"" style=""width: 234px; height: 230px; margin-top: -50px;""><div style=""display: flex; justify-content: space-between; margin-top: 33px;""><img src=""images/choice_trial_7.png"" style=""width: 408px; height: 417px; margin-left:608px;""></div></div>","null","delaylearn","learning","display_response","5f32cfa671047605fbb4cee1","0zqGzxTkysM2nN8Tb4TAjvlxsM32","","","","","","","","","","","","","","","","","chosen stimuli: images/choice_trial_7.png","","","",""
"html-keyboard-response","64","147930","0.0-28.0-2.0","","null","","null","delaylearn","learning","feedback_duration_window","5f32cfa671047605fbb4cee1","0zqGzxTkysM2nN8Tb4TAjvlxsM32","","","","","","","","","","","","","","","","","","750","","",""
"html-keyboard-response","65","149438","0.0-28.0-3.0","","null","<div style='margin:auto;width: auto; font-size: 150%'><span style='font-weight: bold; font-size: 100px; color: green;'>+10 points!</span><br><br></div>","null","delaylearn","learning","feedback_image_window","5f32cfa671047605fbb4cee1","0zqGzxTkysM2nN8Tb4TAjvlxsM32","","","","","","","","","","","","","","","","","","","","",""
"html-keyboard-response","66","151883","0.0-29.0","","null","<div style=""font-size:100px;"">+</div>","null","delaylearn","learning","ITI","5f32cfa671047605fbb4cee1","0zqGzxTkysM2nN8Tb4TAjvlxsM32","","","","","","","","","","","","","","","","","","","2431","",""
"html-keyboard-response","67","153574","0.0-30.0-0.0","","1688.5","<div style=""display: flex; flex-direction: column; align-items: center; margin-top: -40px;""><img src=""images/pattern_6.png"" style=""width: 234px; height: 230px; margin-top: -50px;""><div style=""display: flex; justify-content: space-between; margin-top: 33px;""><img src=""images/choice_trial_14.png"" style=""width: 408px; height: 417px; margin-right: 200px;""><img src=""images/choice_trial_9.png"" style=""width: 408px; height: 417px;""></div></div>","j","delaylearn","learning","trial","5f32cfa671047605fbb4cee1","0zqGzxTkysM2nN8Tb4TAjvlxsM32","5","images/choice_trial_14.png","images/choice_trial_9.png","images/pattern_6.png","j","f","750","14","9","5","0","13","0","1","9","100","","","","",""
"html-keyboard-response","68","154589","0.0-30.0-1.0","","null","<div style=""display: flex; flex-direction: column; align-items: center; margin-top: -40px;""><img src=""images/pattern_6.png"" style=""width: 234px; height: 230px; margin-top: -50px;""><div style=""display: flex; justify-content: space-between; margin-top: 33px;""><img src=""images/choice_trial_9.png"" style=""width: 408px; height: 417px; margin-left:608px;""></div></div>","null","delaylearn","learning","display_response","5f32cfa671047605fbb4cee1","0zqGzxTkysM2nN8Tb4TAjvlxsM32","","","","","","","","","","","","","","","","","chosen stimuli: images/choice_trial_9.png","","","",""
"html-keyboard-response","69","155349","0.0-30.0-2.0","","null","","null","delaylearn","learning","feedback_duration_window","5f32cfa671047605fbb4cee1","0zqGzxTkysM2nN8Tb4TAjvlxsM32","","","","","","","","","","","","","","","","","","750","","",""
"html-keyboard-response","70","156861","0.0-30.0-3.0","","null","<div style='margin:auto;width: auto; font-size: 150%'><span style='font-weight: bold; font-size: 100px; color: green;'>+10 points!</span><br><br></div>","null","delaylearn","learning","feedback_image_window","5f32cfa671047605fbb4cee1","0zqGzxTkysM2nN8Tb4TAjvlxsM32","","","","","","","","","","","","","","","","","","","","",""
"html-keyboard-response","71","157373","0.0-31.0-0.0","","null","","null","","","mood_trial_fixation","","","","","","","","","","","","","","","","","","","","","","",""
"lmdlab-html-vas-response","72","162363","0.0-31.0-1.0","","3983","How happy are you right now?","0.8086660381050563","delaylearn","learning","mood_trial","5f32cfa671047605fbb4cee1","0zqGzxTkysM2nN8Tb4TAjvlxsM32","","","","","","","","","","","","","","","","","","","","[""Very unhappy"",""Very happy""]",""
"html-keyboard-response","73","164375","0.0-32.0","","null","<div style=""font-size:100px;"">+</div>","null","delaylearn","learning","ITI","5f32cfa671047605fbb4cee1","0zqGzxTkysM2nN8Tb4TAjvlxsM32","","","","","","","","","","","","","","","","","","","1995","",""
"html-keyboard-response","74","165654","0.0-33.0-0.0","","1277.0999999940395","<div style=""display: flex; flex-direction: column; align-items: center; margin-top: -40px;""><img src=""images/pattern_1.png"" style=""width: 234px; height: 230px; margin-top: -50px;""><div style=""display: flex; justify-content: space-between; margin-top: 33px;""><img src=""images/choice_trial_15.png"" style=""width: 408px; height: 417px; margin-right: 200px;""><img src=""images/choice_trial_6.png"" style=""width: 408px; height: 417px;""></div></div>","f","delaylearn","learning","trial","5f32cfa671047605fbb4cee1","0zqGzxTkysM2nN8Tb4TAjvlxsM32","5","images/choice_trial_15.png","images/choice_trial_6.png","images/pattern_1.png","j","j","7000","15","6","1","1","14","0","0","15","100","","","","",""
"html-keyboard-response","75","166668","0.0-33.0-1.0","","null","<div style=""display: flex; flex-direction: column; align-items: center; margin-top: -40px;""><img src=""images/pattern_1.png"" style=""width: 234px; height: 230px; margin-top: -50px;""><div style=""display: flex; justify-content: space-between; margin-top: 33px;""><img src=""images/choice_trial_15.png"" style=""width: 408px; height: 417px; margin-right: 608px;""></div></div>","null","delaylearn","learning","display_response","5f32cfa671047605fbb4cee1","0zqGzxTkysM2nN8Tb4TAjvlxsM32","","","","","","","","","","","","","","","","","chosen stimuli: images/choice_trial_15.png","","","",""
"html-keyboard-response","76","173684","0.0-33.0-2.0","","null","","null","delaylearn","learning","feedback_duration_window","5f32cfa671047605fbb4cee1","0zqGzxTkysM2nN8Tb4TAjvlxsM32","","","","","","","","","","","","","","","","","","7000","","",""
"html-keyboard-response","77","175197","0.0-33.0-3.0","","null","<div style='margin:auto;width: auto; font-size: 150%'><span style='font-weight: bold; font-size: 100px; color: red;'>0 points!</span><br><br></div>","null","delaylearn","learning","feedback_image_window","5f32cfa671047605fbb4cee1","0zqGzxTkysM2nN8Tb4TAjvlxsM32","","","","","","","","","","","","","","","","","","","","",""
"html-keyboard-response","78","176980","0.0-34.0","","null","<div style=""font-size:100px;"">+</div>","null","delaylearn","learning","ITI","5f32cfa671047605fbb4cee1","0zqGzxTkysM2nN8Tb4TAjvlxsM32","","","","","","","","","","","","","","","","","","","1774","",""
"html-keyboard-response","79","178743","0.0-35.0-0.0","","1760.7999999970198","<div style=""display: flex; flex-direction: column; align-items: center; margin-top: -40px;""><img src=""images/pattern_3.png"" style=""width: 234px; height: 230px; margin-top: -50px;""><div style=""display: flex; justify-content: space-between; margin-top: 33px;""><img src=""images/choice_trial_2.png"" style=""width: 408px; height: 417px; margin-right: 200px;""><img src=""images/choice_trial_16.png"" style=""width: 408px; height: 417px;""></div></div>","j","delaylearn","learning","trial","5f32cfa671047605fbb4cee1","0zqGzxTkysM2nN8Tb4TAjvlxsM32","5","images/choice_trial_2.png","images/choice_trial_16.png","images/pattern_3.png","f","j","7000","2","16","2","1","15","1","0","16","100","","","","",""
"html-keyboard-response","80","179756","0.0-35.0-1.0","","null","<div style=""display: flex; flex-direction: column; align-items: center; margin-top: -40px;""><img src=""images/pattern_3.png"" style=""width: 234px; height: 230px; margin-top: -50px;""><div style=""display: flex; justify-content: space-between; margin-top: 33px;""><img src=""images/choice_trial_16.png"" style=""width: 408px; height: 417px; margin-left:608px;""></div></div>","null","delaylearn","learning","display_response","5f32cfa671047605fbb4cee1","0zqGzxTkysM2nN8Tb4TAjvlxsM32","","","","","","","","","","","","","","","","","chosen stimuli: images/choice_trial_16.png","","","",""
"html-keyboard-response","81","186766","0.0-35.0-2.0","","null","","null","delaylearn","learning","feedback_duration_window","5f32cfa671047605fbb4cee1","0zqGzxTkysM2nN8Tb4TAjvlxsM32","","","","","","","","","","","","","","","","","","7000","","",""
"html-keyboard-response","82","188276","0.0-35.0-3.0","","null","<div style='margin:auto;width: auto; font-size: 150%'><span style='font-weight: bold; font-size: 100px; color: red;'>0 points!</span><br><br></div>","null","delaylearn","learning","feedback_image_window","5f32cfa671047605fbb4cee1","0zqGzxTkysM2nN8Tb4TAjvlxsM32","","","","","","","","","","","","","","","","","","","","",""
"html-keyboard-response","83","190335","0.0-36.0","","null","<div style=""font-size:100px;"">+</div>","null","delaylearn","learning","ITI","5f32cfa671047605fbb4cee1","0zqGzxTkysM2nN8Tb4TAjvlxsM32","","","","","","","","","","","","","","","","","","","2046","",""
"html-keyboard-response","84","191415","0.0-37.0-0.0","","1077.7000000029802","<div style=""display: flex; flex-direction: column; align-items: center; margin-top: -40px;""><img src=""images/pattern_5.png"" style=""width: 234px; height: 230px; margin-top: -50px;""><div style=""display: flex; justify-content: space-between; margin-top: 33px;""><img src=""images/choice_trial_7.png"" style=""width: 408px; height: 417px; margin-right: 200px;""><img src=""images/choice_trial_13.png"" style=""width: 408px; height: 417px;""></div></div>","f","delaylearn","learning","trial","5f32cfa671047605fbb4cee1","0zqGzxTkysM2nN8Tb4TAjvlxsM32","5","images/choice_trial_7.png","images/choice_trial_13.png","images/pattern_5.png","f","f","750","7","13","4","0","16","1","1","7","110","","","","",""
"html-keyboard-response","85","192422","0.0-37.0-1.0","","null","<div style=""display: flex; flex-direction: column; align-items: center; margin-top: -40px;""><img src=""images/pattern_5.png"" style=""width: 234px; height: 230px; margin-top: -50px;""><div style=""display: flex; justify-content: space-between; margin-top: 33px;""><img src=""images/choice_trial_7.png"" style=""width: 408px; height: 417px; margin-right: 608px;""></div></div>","null","delaylearn","learning","display_response","5f32cfa671047605fbb4cee1","0zqGzxTkysM2nN8Tb4TAjvlxsM32","","","","","","","","","","","","","","","","","chosen stimuli: images/choice_trial_7.png","","","",""
"html-keyboard-response","86","193176","0.0-37.0-2.0","","null","","null","delaylearn","learning","feedback_duration_window","5f32cfa671047605fbb4cee1","0zqGzxTkysM2nN8Tb4TAjvlxsM32","","","","","","","","","","","","","","","","","","750","","",""
"html-keyboard-response","87","194686","0.0-37.0-3.0","","null","<div style='margin:auto;width: auto; font-size: 150%'><span style='font-weight: bold; font-size: 100px; color: green;'>+10 points!</span><br><br></div>","null","delaylearn","learning","feedback_image_window","5f32cfa671047605fbb4cee1","0zqGzxTkysM2nN8Tb4TAjvlxsM32","","","","","","","","","","","","","","","","","","","","",""
"html-keyboard-response","88","195196","0.0-38.0-0.0","","null","","null","","","mood_trial_fixation","","","","","","","","","","","","","","","","","","","","","","",""
"lmdlab-html-vas-response","89","199041","0.0-38.0-1.0","","2836","How happy are you right now?","0.8144530748695527","delaylearn","learning","mood_trial","5f32cfa671047605fbb4cee1","0zqGzxTkysM2nN8Tb4TAjvlxsM32","","","","","","","","","","","","","","","","","","","","[""Very unhappy"",""Very happy""]",""
"html-keyboard-response","90","200880","0.0-39.0","","null","<div style=""font-size:100px;"">+</div>","null","delaylearn","learning","ITI","5f32cfa671047605fbb4cee1","0zqGzxTkysM2nN8Tb4TAjvlxsM32","","","","","","","","","","","","","","","","","","","1821","",""
"html-keyboard-response","91","202933","0.0-40.0-0.0","","2050.2000000029802","<div style=""display: flex; flex-direction: column; align-items: center; margin-top: -40px;""><img src=""images/pattern_6.png"" style=""width: 234px; height: 230px; margin-top: -50px;""><div style=""display: flex; justify-content: space-between; margin-top: 33px;""><img src=""images/choice_trial_14.png"" style=""width: 408px; height: 417px; margin-right: 200px;""><img src=""images/choice_trial_9.png"" style=""width: 408px; height: 417px;""></div></div>","f","delaylearn","learning","trial","5f32cfa671047605fbb4cee1","0zqGzxTkysM2nN8Tb4TAjvlxsM32","5","images/choice_trial_14.png","images/choice_trial_9.png","images/pattern_6.png","f","f","750","14","9","5","0","17","1","1","14","120","","","","",""
"html-keyboard-response","92","203947","0.0-40.0-1.0","","null","<div style=""display: flex; flex-direction: column; align-items: center; margin-top: -40px;""><img src=""images/pattern_6.png"" style=""width: 234px; height: 230px; margin-top: -50px;""><div style=""display: flex; justify-content: space-between; margin-top: 33px;""><img src=""images/choice_trial_14.png"" style=""width: 408px; height: 417px; margin-right: 608px;""></div></div>","null","delaylearn","learning","display_response","5f32cfa671047605fbb4cee1","0zqGzxTkysM2nN8Tb4TAjvlxsM32","","","","","","","","","","","","","","","","","chosen stimuli: images/choice_trial_14.png","","","",""
"html-keyboard-response","93","204710","0.0-40.0-2.0","","null","","null","delaylearn","learning","feedback_duration_window","5f32cfa671047605fbb4cee1","0zqGzxTkysM2nN8Tb4TAjvlxsM32","","","","","","","","","","","","","","","","","","750","","",""
"html-keyboard-response","94","206215","0.0-40.0-3.0","","null","<div style='margin:auto;width: auto; font-size: 150%'><span style='font-weight: bold; font-size: 100px; color: green;'>+10 points!</span><br><br></div>","null","delaylearn","learning","feedback_image_window","5f32cfa671047605fbb4cee1","0zqGzxTkysM2nN8Tb4TAjvlxsM32","","","","","","","","","","","","","","","","","","","","",""
"html-keyboard-response","95","207917","0.0-41.0","","null","<div style=""font-size:100px;"">+</div>","null","delaylearn","learning","ITI","5f32cfa671047605fbb4cee1","0zqGzxTkysM2nN8Tb4TAjvlxsM32","","","","","","","","","","","","","","","","","","","1693","",""
"html-keyboard-response","96","208886","0.0-42.0-0.0","","965.5","<div style=""display: flex; flex-direction: column; align-items: center; margin-top: -40px;""><img src=""images/pattern_4.png"" style=""width: 234px; height: 230px; margin-top: -50px;""><div style=""display: flex; justify-content: space-between; margin-top: 33px;""><img src=""images/choice_trial_4.png"" style=""width: 408px; height: 417px; margin-right: 200px;""><img src=""images/choice_trial_11.png"" style=""width: 408px; height: 417px;""></div></div>","f","delaylearn","learning","trial","5f32cfa671047605fbb4cee1","0zqGzxTkysM2nN8Tb4TAjvlxsM32","5","images/choice_trial_4.png","images/choice_trial_11.png","images/pattern_4.png","j","j","7000","4","11","3","1","18","0","0","4","120","","","","",""
"html-keyboard-response","97","209901","0.0-42.0-1.0","","null","<div style=""display: flex; flex-direction: column; align-items: center; margin-top: -40px;""><img src=""images/pattern_4.png"" style=""width: 234px; height: 230px; margin-top: -50px;""><div style=""display: flex; justify-content: space-between; margin-top: 33px;""><img src=""images/choice_trial_4.png"" style=""width: 408px; height: 417px; margin-right: 608px;""></div></div>","null","delaylearn","learning","display_response","5f32cfa671047605fbb4cee1","0zqGzxTkysM2nN8Tb4TAjvlxsM32","","","","","","","","","","","","","","","","","chosen stimuli: images/choice_trial_4.png","","","",""
"html-keyboard-response","98","216907","0.0-42.0-2.0","","null","","null","delaylearn","learning","feedback_duration_window","5f32cfa671047605fbb4cee1","0zqGzxTkysM2nN8Tb4TAjvlxsM32","","","","","","","","","","","","","","","","","","7000","","",""
"html-keyboard-response","99","218424","0.0-42.0-3.0","","null","<div style='margin:auto;width: auto; font-size: 150%'><span style='font-weight: bold; font-size: 100px; color: red;'>0 points!</span><br><br></div>","null","delaylearn","learning","feedback_image_window","5f32cfa671047605fbb4cee1","0zqGzxTkysM2nN8Tb4TAjvlxsM32","","","","","","","","","","","","","","","","","","","","",""
"html-keyboard-response","100","220736","0.0-43.0","","null","<div style=""font-size:100px;"">+</div>","null","delaylearn","learning","ITI","5f32cfa671047605fbb4cee1","0zqGzxTkysM2nN8Tb4TAjvlxsM32","","","","","","","","","","","","","","","","","","","2308","",""
"html-keyboard-response","101","222080","0.0-44.0-0.0","","1340.8999999910593","<div style=""display: flex; flex-direction: column; align-items: center; margin-top: -40px;""><img src=""images/pattern_7.png"" style=""width: 234px; height: 230px; margin-top: -50px;""><div style=""display: flex; justify-content: space-between; margin-top: 33px;""><img src=""images/choice_trial_8.png"" style=""width: 408px; height: 417px; margin-right: 200px;""><img src=""images/choice_trial_10.png"" style=""width: 408px; height: 417px;""></div></div>","j","delaylearn","learning","trial","5f32cfa671047605fbb4cee1","0zqGzxTkysM2nN8Tb4TAjvlxsM32","5","images/choice_trial_8.png","images/choice_trial_10.png","images/pattern_7.png","j","f","750","8","10","6","0","19","0","1","10","130","","","","",""
"html-keyboard-response","102","223097","0.0-44.0-1.0","","null","<div style=""display: flex; flex-direction: column; align-items: center; margin-top: -40px;""><img src=""images/pattern_7.png"" style=""width: 234px; height: 230px; margin-top: -50px;""><div style=""display: flex; justify-content: space-between; margin-top: 33px;""><img src=""images/choice_trial_10.png"" style=""width: 408px; height: 417px; margin-left:608px;""></div></div>","null","delaylearn","learning","display_response","5f32cfa671047605fbb4cee1","0zqGzxTkysM2nN8Tb4TAjvlxsM32","","","","","","","","","","","","","","","","","chosen stimuli: images/choice_trial_10.png","","","",""
"html-keyboard-response","103","223849","0.0-44.0-2.0","","null","","null","delaylearn","learning","feedback_duration_window","5f32cfa671047605fbb4cee1","0zqGzxTkysM2nN8Tb4TAjvlxsM32","","","","","","","","","","","","","","","","","","750","","",""
"html-keyboard-response","104","225359","0.0-44.0-3.0","","null","<div style='margin:auto;width: auto; font-size: 150%'><span style='font-weight: bold; font-size: 100px; color: green;'>+10 points!</span><br><br></div>","null","delaylearn","learning","feedback_image_window","5f32cfa671047605fbb4cee1","0zqGzxTkysM2nN8Tb4TAjvlxsM32","","","","","","","","","","","","","","","","","","","","",""
"html-keyboard-response","105","227846","0.0-45.0","","null","<div style=""font-size:100px;"">+</div>","null","delaylearn","learning","ITI","5f32cfa671047605fbb4cee1","0zqGzxTkysM2nN8Tb4TAjvlxsM32","","","","","","","","","","","","","","","","","","","2484","",""
"html-keyboard-response","106","229062","0.0-46.0-0.0","","1213.6000000089407","<div style=""display: flex; flex-direction: column; align-items: center; margin-top: -40px;""><img src=""images/pattern_1.png"" style=""width: 234px; height: 230px; margin-top: -50px;""><div style=""display: flex; justify-content: space-between; margin-top: 33px;""><img src=""images/choice_trial_6.png"" style=""width: 408px; height: 417px; margin-right: 200px;""><img src=""images/choice_trial_15.png"" style=""width: 408px; height: 417px;""></div></div>","f","delaylearn","learning","trial","5f32cfa671047605fbb4cee1","0zqGzxTkysM2nN8Tb4TAjvlxsM32","5","images/choice_trial_6.png","images/choice_trial_15.png","images/pattern_1.png","f","f","7000","6","15","1","0","20","1","1","6","140","","","","",""
"html-keyboard-response","107","230075","0.0-46.0-1.0","","null","<div style=""display: flex; flex-direction: column; align-items: center; margin-top: -40px;""><img src=""images/pattern_1.png"" style=""width: 234px; height: 230px; margin-top: -50px;""><div style=""display: flex; justify-content: space-between; margin-top: 33px;""><img src=""images/choice_trial_6.png"" style=""width: 408px; height: 417px; margin-right: 608px;""></div></div>","null","delaylearn","learning","display_response","5f32cfa671047605fbb4cee1","0zqGzxTkysM2nN8Tb4TAjvlxsM32","","","","","","","","","","","","","","","","","chosen stimuli: images/choice_trial_6.png","","","",""
"html-keyboard-response","108","237091","0.0-46.0-2.0","","null","","null","delaylearn","learning","feedback_duration_window","5f32cfa671047605fbb4cee1","0zqGzxTkysM2nN8Tb4TAjvlxsM32","","","","","","","","","","","","","","","","","","7000","","",""
"html-keyboard-response","109","238598","0.0-46.0-3.0","","null","<div style='margin:auto;width: auto; font-size: 150%'><span style='font-weight: bold; font-size: 100px; color: green;'>+10 points!</span><br><br></div>","null","delaylearn","learning","feedback_image_window","5f32cfa671047605fbb4cee1","0zqGzxTkysM2nN8Tb4TAjvlxsM32","","","","","","","","","","","","","","","","","","","","",""
"html-keyboard-response","110","240969","0.0-47.0","","null","<div style=""font-size:100px;"">+</div>","null","delaylearn","learning","ITI","5f32cfa671047605fbb4cee1","0zqGzxTkysM2nN8Tb4TAjvlxsM32","","","","","","","","","","","","","","","","","","","2355","",""
"html-keyboard-response","111","242623","0.0-48.0-0.0","","1651","<div style=""display: flex; flex-direction: column; align-items: center; margin-top: -40px;""><img src=""images/pattern_6.png"" style=""width: 234px; height: 230px; margin-top: -50px;""><div style=""display: flex; justify-content: space-between; margin-top: 33px;""><img src=""images/choice_trial_9.png"" style=""width: 408px; height: 417px; margin-right: 200px;""><img src=""images/choice_trial_14.png"" style=""width: 408px; height: 417px;""></div></div>","j","delaylearn","learning","trial","5f32cfa671047605fbb4cee1","0zqGzxTkysM2nN8Tb4TAjvlxsM32","5","images/choice_trial_9.png","images/choice_trial_14.png","images/pattern_6.png","j","j","750","9","14","5","1","21","1","1","14","150","","","","",""
"html-keyboard-response","112","243639","0.0-48.0-1.0","","null","<div style=""display: flex; flex-direction: column; align-items: center; margin-top: -40px;""><img src=""images/pattern_6.png"" style=""width: 234px; height: 230px; margin-top: -50px;""><div style=""display: flex; justify-content: space-between; margin-top: 33px;""><img src=""images/choice_trial_14.png"" style=""width: 408px; height: 417px; margin-left:608px;""></div></div>","null","delaylearn","learning","display_response","5f32cfa671047605fbb4cee1","0zqGzxTkysM2nN8Tb4TAjvlxsM32","","","","","","","","","","","","","","","","","chosen stimuli: images/choice_trial_14.png","","","",""
"html-keyboard-response","113","244406","0.0-48.0-2.0","","null","","null","delaylearn","learning","feedback_duration_window","5f32cfa671047605fbb4cee1","0zqGzxTkysM2nN8Tb4TAjvlxsM32","","","","","","","","","","","","","","","","","","750","","",""
"html-keyboard-response","114","245922","0.0-48.0-3.0","","null","<div style='margin:auto;width: auto; font-size: 150%'><span style='font-weight: bold; font-size: 100px; color: green;'>+10 points!</span><br><br></div>","null","delaylearn","learning","feedback_image_window","5f32cfa671047605fbb4cee1","0zqGzxTkysM2nN8Tb4TAjvlxsM32","","","","","","","","","","","","","","","","","","","","",""
"html-keyboard-response","115","247456","0.0-49.0","","null","<div style=""font-size:100px;"">+</div>","null","delaylearn","learning","ITI","5f32cfa671047605fbb4cee1","0zqGzxTkysM2nN8Tb4TAjvlxsM32","","","","","","","","","","","","","","","","","","","1520","",""
"html-keyboard-response","116","248494","0.0-50.0-0.0","","1034.2999999970198","<div style=""display: flex; flex-direction: column; align-items: center; margin-top: -40px;""><img src=""images/pattern_4.png"" style=""width: 234px; height: 230px; margin-top: -50px;""><div style=""display: flex; justify-content: space-between; margin-top: 33px;""><img src=""images/choice_trial_11.png"" style=""width: 408px; height: 417px; margin-right: 200px;""><img src=""images/choice_trial_4.png"" style=""width: 408px; height: 417px;""></div></div>","f","delaylearn","learning","trial","5f32cfa671047605fbb4cee1","0zqGzxTkysM2nN8Tb4TAjvlxsM32","5","images/choice_trial_11.png","images/choice_trial_4.png","images/pattern_4.png","f","f","7000","11","4","3","0","22","1","1","11","160","","","","",""
"html-keyboard-response","117","249507","0.0-50.0-1.0","","null","<div style=""display: flex; flex-direction: column; align-items: center; margin-top: -40px;""><img src=""images/pattern_4.png"" style=""width: 234px; height: 230px; margin-top: -50px;""><div style=""display: flex; justify-content: space-between; margin-top: 33px;""><img src=""images/choice_trial_11.png"" style=""width: 408px; height: 417px; margin-right: 608px;""></div></div>","null","delaylearn","learning","display_response","5f32cfa671047605fbb4cee1","0zqGzxTkysM2nN8Tb4TAjvlxsM32","","","","","","","","","","","","","","","","","chosen stimuli: images/choice_trial_11.png","","","",""
"html-keyboard-response","118","256512","0.0-50.0-2.0","","null","","null","delaylearn","learning","feedback_duration_window","5f32cfa671047605fbb4cee1","0zqGzxTkysM2nN8Tb4TAjvlxsM32","","","","","","","","","","","","","","","","","","7000","","",""
"html-keyboard-response","119","258030","0.0-50.0-3.0","","null","<div style='margin:auto;width: auto; font-size: 150%'><span style='font-weight: bold; font-size: 100px; color: green;'>+10 points!</span><br><br></div>","null","delaylearn","learning","feedback_image_window","5f32cfa671047605fbb4cee1","0zqGzxTkysM2nN8Tb4TAjvlxsM32","","","","","","","","","","","","","","","","","","","","",""
"html-keyboard-response","120","258533","0.0-51.0-0.0","","null","","null","","","mood_trial_fixation","","","","","","","","","","","","","","","","","","","","","","",""
"lmdlab-html-vas-response","121","263014","0.0-51.0-1.0","","3473","How happy are you right now?","0.9128326998659911","delaylearn","learning","mood_trial","5f32cfa671047605fbb4cee1","0zqGzxTkysM2nN8Tb4TAjvlxsM32","","","","","","","","","","","","","","","","","","","","[""Very unhappy"",""Very happy""]",""
"html-keyboard-response","122","265162","0.0-52.0","","null","<div style=""font-size:100px;"">+</div>","null","delaylearn","learning","ITI","5f32cfa671047605fbb4cee1","0zqGzxTkysM2nN8Tb4TAjvlxsM32","","","","","","","","","","","","","","","","","","","2142","",""
"html-keyboard-response","123","267958","0.0-53.0-0.0","","2792.4000000059605","<div style=""display: flex; flex-direction: column; align-items: center; margin-top: -40px;""><img src=""images/pattern_7.png"" style=""width: 234px; height: 230px; margin-top: -50px;""><div style=""display: flex; justify-content: space-between; margin-top: 33px;""><img src=""images/choice_trial_10.png"" style=""width: 408px; height: 417px; margin-right: 200px;""><img src=""images/choice_trial_8.png"" style=""width: 408px; height: 417px;""></div></div>","f","delaylearn","learning","trial","5f32cfa671047605fbb4cee1","0zqGzxTkysM2nN8Tb4TAjvlxsM32","5","images/choice_trial_10.png","images/choice_trial_8.png","images/pattern_7.png","j","j","750","10","8","6","1","23","0","0","10","160","","","","",""
"html-keyboard-response","124","268971","0.0-53.0-1.0","","null","<div style=""display: flex; flex-direction: column; align-items: center; margin-top: -40px;""><img src=""images/pattern_7.png"" style=""width: 234px; height: 230px; margin-top: -50px;""><div style=""display: flex; justify-content: space-between; margin-top: 33px;""><img src=""images/choice_trial_10.png"" style=""width: 408px; height: 417px; margin-right: 608px;""></div></div>","null","delaylearn","learning","display_response","5f32cfa671047605fbb4cee1","0zqGzxTkysM2nN8Tb4TAjvlxsM32","","","","","","","","","","","","","","","","","chosen stimuli: images/choice_trial_10.png","","","",""
"html-keyboard-response","125","269730","0.0-53.0-2.0","","null","","null","delaylearn","learning","feedback_duration_window","5f32cfa671047605fbb4cee1","0zqGzxTkysM2nN8Tb4TAjvlxsM32","","","","","","","","","","","","","","","","","","750","","",""
"html-keyboard-response","126","271242","0.0-53.0-3.0","","null","<div style='margin:auto;width: auto; font-size: 150%'><span style='font-weight: bold; font-size: 100px; color: red;'>0 points!</span><br><br></div>","null","delaylearn","learning","feedback_image_window","5f32cfa671047605fbb4cee1","0zqGzxTkysM2nN8Tb4TAjvlxsM32","","","","","","","","","","","","","","","","","","","","",""
"html-keyboard-response","127","273292","0.0-54.0","","null","<div style=""font-size:100px;"">+</div>","null","delaylearn","learning","ITI","5f32cfa671047605fbb4cee1","0zqGzxTkysM2nN8Tb4TAjvlxsM32","","","","","","","","","","","","","","","","","","","2044","",""
"html-keyboard-response","128","276239","0.0-55.0-0.0","","2943.7999999970198","<div style=""display: flex; flex-direction: column; align-items: center; margin-top: -40px;""><img src=""images/pattern_1.png"" style=""width: 234px; height: 230px; margin-top: -50px;""><div style=""display: flex; justify-content: space-between; margin-top: 33px;""><img src=""images/choice_trial_15.png"" style=""width: 408px; height: 417px; margin-right: 200px;""><img src=""images/choice_trial_6.png"" style=""width: 408px; height: 417px;""></div></div>","f","delaylearn","learning","trial","5f32cfa671047605fbb4cee1","0zqGzxTkysM2nN8Tb4TAjvlxsM32","5","images/choice_trial_15.png","images/choice_trial_6.png","images/pattern_1.png","f","j","7000","15","6","1","1","24","0","1","15","170","","","","",""
"html-keyboard-response","129","277252","0.0-55.0-1.0","","null","<div style=""display: flex; flex-direction: column; align-items: center; margin-top: -40px;""><img src=""images/pattern_1.png"" style=""width: 234px; height: 230px; margin-top: -50px;""><div style=""display: flex; justify-content: space-between; margin-top: 33px;""><img src=""images/choice_trial_15.png"" style=""width: 408px; height: 417px; margin-right: 608px;""></div></div>","null","delaylearn","learning","display_response","5f32cfa671047605fbb4cee1","0zqGzxTkysM2nN8Tb4TAjvlxsM32","","","","","","","","","","","","","","","","","chosen stimuli: images/choice_trial_15.png","","","",""
"html-keyboard-response","130","284254","0.0-55.0-2.0","","null","","null","delaylearn","learning","feedback_duration_window","5f32cfa671047605fbb4cee1","0zqGzxTkysM2nN8Tb4TAjvlxsM32","","","","","","","","","","","","","","","","","","7000","","",""
"html-keyboard-response","131","285759","0.0-55.0-3.0","","null","<div style='margin:auto;width: auto; font-size: 150%'><span style='font-weight: bold; font-size: 100px; color: green;'>+10 points!</span><br><br></div>","null","delaylearn","learning","feedback_image_window","5f32cfa671047605fbb4cee1","0zqGzxTkysM2nN8Tb4TAjvlxsM32","","","","","","","","","","","","","","","","","","","","",""
"html-keyboard-response","132","287769","0.0-56.0","","null","<div style=""font-size:100px;"">+</div>","null","delaylearn","learning","ITI","5f32cfa671047605fbb4cee1","0zqGzxTkysM2nN8Tb4TAjvlxsM32","","","","","","","","","","","","","","","","","","","2000","",""
"html-keyboard-response","133","289143","0.0-57.0-0.0","","1371.0999999940395","<div style=""display: flex; flex-direction: column; align-items: center; margin-top: -40px;""><img src=""images/pattern_5.png"" style=""width: 234px; height: 230px; margin-top: -50px;""><div style=""display: flex; justify-content: space-between; margin-top: 33px;""><img src=""images/choice_trial_13.png"" style=""width: 408px; height: 417px; margin-right: 200px;""><img src=""images/choice_trial_7.png"" style=""width: 408px; height: 417px;""></div></div>","j","delaylearn","learning","trial","5f32cfa671047605fbb4cee1","0zqGzxTkysM2nN8Tb4TAjvlxsM32","5","images/choice_trial_13.png","images/choice_trial_7.png","images/pattern_5.png","j","j","750","13","7","4","1","25","1","1","7","180","","","","",""
"html-keyboard-response","134","290160","0.0-57.0-1.0","","null","<div style=""display: flex; flex-direction: column; align-items: center; margin-top: -40px;""><img src=""images/pattern_5.png"" style=""width: 234px; height: 230px; margin-top: -50px;""><div style=""display: flex; justify-content: space-between; margin-top: 33px;""><img src=""images/choice_trial_7.png"" style=""width: 408px; height: 417px; margin-left:608px;""></div></div>","null","delaylearn","learning","display_response","5f32cfa671047605fbb4cee1","0zqGzxTkysM2nN8Tb4TAjvlxsM32","","","","","","","","","","","","","","","","","chosen stimuli: images/choice_trial_7.png","","","",""
"html-keyboard-response","135","290926","0.0-57.0-2.0","","null","","null","delaylearn","learning","feedback_duration_window","5f32cfa671047605fbb4cee1","0zqGzxTkysM2nN8Tb4TAjvlxsM32","","","","","","","","","","","","","","","","","","750","","",""
"html-keyboard-response","136","292438","0.0-57.0-3.0","","null","<div style='margin:auto;width: auto; font-size: 150%'><span style='font-weight: bold; font-size: 100px; color: green;'>+10 points!</span><br><br></div>","null","delaylearn","learning","feedback_image_window","5f32cfa671047605fbb4cee1","0zqGzxTkysM2nN8Tb4TAjvlxsM32","","","","","","","","","","","","","","","","","","","","",""
"html-keyboard-response","137","294828","0.0-58.0","","null","<div style=""font-size:100px;"">+</div>","null","delaylearn","learning","ITI","5f32cfa671047605fbb4cee1","0zqGzxTkysM2nN8Tb4TAjvlxsM32","","","","","","","","","","","","","","","","","","","2386","",""
"html-keyboard-response","138","295942","0.0-59.0-0.0","","1111.0999999940395","<div style=""display: flex; flex-direction: column; align-items: center; margin-top: -40px;""><img src=""images/pattern_3.png"" style=""width: 234px; height: 230px; margin-top: -50px;""><div style=""display: flex; justify-content: space-between; margin-top: 33px;""><img src=""images/choice_trial_2.png"" style=""width: 408px; height: 417px; margin-right: 200px;""><img src=""images/choice_trial_16.png"" style=""width: 408px; height: 417px;""></div></div>","f","delaylearn","learning","trial","5f32cfa671047605fbb4cee1","0zqGzxTkysM2nN8Tb4TAjvlxsM32","5","images/choice_trial_2.png","images/choice_trial_16.png","images/pattern_3.png","j","j","7000","2","16","2","1","26","0","0","2","180","","","","",""
"html-keyboard-response","139","296959","0.0-59.0-1.0","","null","<div style=""display: flex; flex-direction: column; align-items: center; margin-top: -40px;""><img src=""images/pattern_3.png"" style=""width: 234px; height: 230px; margin-top: -50px;""><div style=""display: flex; justify-content: space-between; margin-top: 33px;""><img src=""images/choice_trial_2.png"" style=""width: 408px; height: 417px; margin-right: 608px;""></div></div>","null","delaylearn","learning","display_response","5f32cfa671047605fbb4cee1","0zqGzxTkysM2nN8Tb4TAjvlxsM32","","","","","","","","","","","","","","","","","chosen stimuli: images/choice_trial_2.png","","","",""
"html-keyboard-response","140","303963","0.0-59.0-2.0","","null","","null","delaylearn","learning","feedback_duration_window","5f32cfa671047605fbb4cee1","0zqGzxTkysM2nN8Tb4TAjvlxsM32","","","","","","","","","","","","","","","","","","7000","","",""
"html-keyboard-response","141","305478","0.0-59.0-3.0","","null","<div style='margin:auto;width: auto; font-size: 150%'><span style='font-weight: bold; font-size: 100px; color: red;'>0 points!</span><br><br></div>","null","delaylearn","learning","feedback_image_window","5f32cfa671047605fbb4cee1","0zqGzxTkysM2nN8Tb4TAjvlxsM32","","","","","","","","","","","","","","","","","","","","",""
"lmdlab-html-vas-response","142","312657","0.0-60.0-0.0","","5666","*How <b><u>confident</u></b> are you feeling about your answers at this moment?*","0.7179783259272481","rewlearn","rate_confidence","","5f32cfa671047605fbb4cee1","0zqGzxTkysM2nN8Tb4TAjvlxsM32","","","","","","","","","","","","","","","","","","","","[""No confidence"",""Complete confidence""]",""
"lmdlab-rest-trial-limit","143","324891","0.0-60.0-1.0","","10725.60000000894","<div style=""font-size:40px;""><b>Please take a break!</b><br><br><br><br><p>Great work: you earned 180 points.<br><br><br><p>You have completed part(s) 1 of 5.<br><br><br><br>When you are ready to continue<br><br><br>please click the button.</p><br><br>","0","delaylearn","learning","break","5f32cfa671047605fbb4cee1","0zqGzxTkysM2nN8Tb4TAjvlxsM32","","","","","","","","","","","","","","","","","","","","","0"
"html-keyboard-response","144","327899","0.0-60.0-2.0","","null","<div style=""font-size:100px;"">+</div>","null","delaylearn","learning","pre_fixation","5f32cfa671047605fbb4cee1","","","","","","","","","","","","","","","","","","","","","",""
"lmdlab-html-vas-response","145","333398","0.0-60.0-3.0-0.0","","4489","How happy are you right now?","0.7700857930084137","delaylearn","learning","mood_baseline","5f32cfa671047605fbb4cee1","0zqGzxTkysM2nN8Tb4TAjvlxsM32","","","","","","","","","","","","","","","","","","","","[""Very unhappy"",""Very happy""]",""
"html-keyboard-response","146","334905","0.0-60.0-3.0-1.0","","null","","null","","","mood_baseline_fixation","","","","","","","","","","","","","","","","","","","","","","",""
"html-keyboard-response","147","336930","0.0-61.0","","null","<div style=""font-size:100px;"">+</div>","null","delaylearn","learning","ITI","5f32cfa671047605fbb4cee1","0zqGzxTkysM2nN8Tb4TAjvlxsM32","","","","","","","","","","","","","","","","","","","2023","",""
"html-keyboard-response","148","338199","0.0-62.0-0.0","","1264.7999999970198","<div style=""display: flex; flex-direction: column; align-items: center; margin-top: -40px;""><img src=""images/pattern_7.png"" style=""width: 234px; height: 230px; margin-top: -50px;""><div style=""display: flex; justify-content: space-between; margin-top: 33px;""><img src=""images/choice_trial_10.png"" style=""width: 408px; height: 417px; margin-right: 200px;""><img src=""images/choice_trial_8.png"" style=""width: 408px; height: 417px;""></div></div>","f","delaylearn","learning","trial","5f32cfa671047605fbb4cee1","0zqGzxTkysM2nN8Tb4TAjvlxsM32","5","images/choice_trial_10.png","images/choice_trial_8.png","images/pattern_7.png","j","j","750","10","8","6","1","27","0","0","10","180","","","","",""
"html-keyboard-response","149","339204","0.0-62.0-1.0","","null","<div style=""display: flex; flex-direction: column; align-items: center; margin-top: -40px;""><img src=""images/pattern_7.png"" style=""width: 234px; height: 230px; margin-top: -50px;""><div style=""display: flex; justify-content: space-between; margin-top: 33px;""><img src=""images/choice_trial_10.png"" style=""width: 408px; height: 417px; margin-right: 608px;""></div></div>","null","delaylearn","learning","display_response","5f32cfa671047605fbb4cee1","0zqGzxTkysM2nN8Tb4TAjvlxsM32","","","","","","","","","","","","","","","","","chosen stimuli: images/choice_trial_10.png","","","",""
"html-keyboard-response","150","339965","0.0-62.0-2.0","","null","","null","delaylearn","learning","feedback_duration_window","5f32cfa671047605fbb4cee1","0zqGzxTkysM2nN8Tb4TAjvlxsM32","","","","","","","","","","","","","","","","","","750","","",""
"html-keyboard-response","151","341479","0.0-62.0-3.0","","null","<div style='margin:auto;width: auto; font-size: 150%'><span style='font-weight: bold; font-size: 100px; color: red;'>0 points!</span><br><br></div>","null","delaylearn","learning","feedback_image_window","5f32cfa671047605fbb4cee1","0zqGzxTkysM2nN8Tb4TAjvlxsM32","","","","","","","","","","","","","","","","","","","","",""
"html-keyboard-response","152","341990","0.0-63.0-0.0","","null","","null","","","mood_trial_fixation","","","","","","","","","","","","","","","","","","","","","","",""
"lmdlab-html-vas-response","153","347132","0.0-63.0-1.0","","4121","How happy are you right now?","0.8472462832016988","delaylearn","learning","mood_trial","5f32cfa671047605fbb4cee1","0zqGzxTkysM2nN8Tb4TAjvlxsM32","","","","","","","","","","","","","","","","","","","","[""Very unhappy"",""Very happy""]",""
"html-keyboard-response","154","349112","0.0-64.0","","null","<div style=""font-size:100px;"">+</div>","null","delaylearn","learning","ITI","5f32cfa671047605fbb4cee1","0zqGzxTkysM2nN8Tb4TAjvlxsM32","","","","","","","","","","","","","","","","","","","1976","",""
"html-keyboard-response","155","350463","0.0-65.0-0.0","","1346.9000000059605","<div style=""display: flex; flex-direction: column; align-items: center; margin-top: -40px;""><img src=""images/pattern_1.png"" style=""width: 234px; height: 230px; margin-top: -50px;""><div style=""display: flex; justify-content: space-between; margin-top: 33px;""><img src=""images/choice_trial_6.png"" style=""width: 408px; height: 417px; margin-right: 200px;""><img src=""images/choice_trial_15.png"" style=""width: 408px; height: 417px;""></div></div>","j","delaylearn","learning","trial","5f32cfa671047605fbb4cee1","0zqGzxTkysM2nN8Tb4TAjvlxsM32","5","images/choice_trial_6.png","images/choice_trial_15.png","images/pattern_1.png","f","f","7000","6","15","1","0","28","0","0","15","180","","","","",""
"html-keyboard-response","156","351480","0.0-65.0-1.0","","null","<div style=""display: flex; flex-direction: column; align-items: center; margin-top: -40px;""><img src=""images/pattern_1.png"" style=""width: 234px; height: 230px; margin-top: -50px;""><div style=""display: flex; justify-content: space-between; margin-top: 33px;""><img src=""images/choice_trial_15.png"" style=""width: 408px; height: 417px; margin-left:608px;""></div></div>","null","delaylearn","learning","display_response","5f32cfa671047605fbb4cee1","0zqGzxTkysM2nN8Tb4TAjvlxsM32","","","","","","","","","","","","","","","","","chosen stimuli: images/choice_trial_15.png","","","",""
"html-keyboard-response","157","358495","0.0-65.0-2.0","","null","","null","delaylearn","learning","feedback_duration_window","5f32cfa671047605fbb4cee1","0zqGzxTkysM2nN8Tb4TAjvlxsM32","","","","","","","","","","","","","","","","","","7000","","",""
"html-keyboard-response","158","360012","0.0-65.0-3.0","","null","<div style='margin:auto;width: auto; font-size: 150%'><span style='font-weight: bold; font-size: 100px; color: red;'>0 points!</span><br><br></div>","null","delaylearn","learning","feedback_image_window","5f32cfa671047605fbb4cee1","0zqGzxTkysM2nN8Tb4TAjvlxsM32","","","","","","","","","","","","","","","","","","","","",""
"html-keyboard-response","159","361758","0.0-66.0","","null","<div style=""font-size:100px;"">+</div>","null","delaylearn","learning","ITI","5f32cfa671047605fbb4cee1","0zqGzxTkysM2nN8Tb4TAjvlxsM32","","","","","","","","","","","","","","","","","","","1735","",""
"html-keyboard-response","160","364463","0.0-67.0-0.0","","2701.2000000029802","<div style=""display: flex; flex-direction: column; align-items: center; margin-top: -40px;""><img src=""images/pattern_5.png"" style=""width: 234px; height: 230px; margin-top: -50px;""><div style=""display: flex; justify-content: space-between; margin-top: 33px;""><img src=""images/choice_trial_7.png"" style=""width: 408px; height: 417px; margin-right: 200px;""><img src=""images/choice_trial_13.png"" style=""width: 408px; height: 417px;""></div></div>","f","delaylearn","learning","trial","5f32cfa671047605fbb4cee1","0zqGzxTkysM2nN8Tb4TAjvlxsM32","5","images/choice_trial_7.png","images/choice_trial_13.png","images/pattern_5.png","f","f","750","7","13","4","0","29","1","1","7","190","","","","",""
"html-keyboard-response","161","365468","0.0-67.0-1.0","","null","<div style=""display: flex; flex-direction: column; align-items: center; margin-top: -40px;""><img src=""images/pattern_5.png"" style=""width: 234px; height: 230px; margin-top: -50px;""><div style=""display: flex; justify-content: space-between; margin-top: 33px;""><img src=""images/choice_trial_7.png"" style=""width: 408px; height: 417px; margin-right: 608px;""></div></div>","null","delaylearn","learning","display_response","5f32cfa671047605fbb4cee1","0zqGzxTkysM2nN8Tb4TAjvlxsM32","","","","","","","","","","","","","","","","","chosen stimuli: images/choice_trial_7.png","","","",""
"html-keyboard-response","162","366221","0.0-67.0-2.0","","null","","null","delaylearn","learning","feedback_duration_window","5f32cfa671047605fbb4cee1","0zqGzxTkysM2nN8Tb4TAjvlxsM32","","","","","","","","","","","","","","","","","","750","","",""
"html-keyboard-response","163","367725","0.0-67.0-3.0","","null","<div style='margin:auto;width: auto; font-size: 150%'><span style='font-weight: bold; font-size: 100px; color: green;'>+10 points!</span><br><br></div>","null","delaylearn","learning","feedback_image_window","5f32cfa671047605fbb4cee1","0zqGzxTkysM2nN8Tb4TAjvlxsM32","","","","","","","","","","","","","","","","","","","","",""
"html-keyboard-response","164","369567","0.0-68.0","","null","<div style=""font-size:100px;"">+</div>","null","delaylearn","learning","ITI","5f32cfa671047605fbb4cee1","0zqGzxTkysM2nN8Tb4TAjvlxsM32","","","","","","","","","","","","","","","","","","","1832","",""
"html-keyboard-response","165","370669","0.0-69.0-0.0","","1099.2999999970198","<div style=""display: flex; flex-direction: column; align-items: center; margin-top: -40px;""><img src=""images/pattern_6.png"" style=""width: 234px; height: 230px; margin-top: -50px;""><div style=""display: flex; justify-content: space-between; margin-top: 33px;""><img src=""images/choice_trial_9.png"" style=""width: 408px; height: 417px; margin-right: 200px;""><img src=""images/choice_trial_14.png"" style=""width: 408px; height: 417px;""></div></div>","j","delaylearn","learning","trial","5f32cfa671047605fbb4cee1","0zqGzxTkysM2nN8Tb4TAjvlxsM32","5","images/choice_trial_9.png","images/choice_trial_14.png","images/pattern_6.png","j","j","750","9","14","5","1","30","1","1","14","200","","","","",""
"html-keyboard-response","166","371680","0.0-69.0-1.0","","null","<div style=""display: flex; flex-direction: column; align-items: center; margin-top: -40px;""><img src=""images/pattern_6.png"" style=""width: 234px; height: 230px; margin-top: -50px;""><div style=""display: flex; justify-content: space-between; margin-top: 33px;""><img src=""images/choice_trial_14.png"" style=""width: 408px; height: 417px; margin-left:608px;""></div></div>","null","delaylearn","learning","display_response","5f32cfa671047605fbb4cee1","0zqGzxTkysM2nN8Tb4TAjvlxsM32","","","","","","","","","","","","","","","","","chosen stimuli: images/choice_trial_14.png","","","",""
"html-keyboard-response","167","372434","0.0-69.0-2.0","","null","","null","delaylearn","learning","feedback_duration_window","5f32cfa671047605fbb4cee1","0zqGzxTkysM2nN8Tb4TAjvlxsM32","","","","","","","","","","","","","","","","","","750","","",""
"html-keyboard-response","168","373947","0.0-69.0-3.0","","null","<div style='margin:auto;width: auto; font-size: 150%'><span style='font-weight: bold; font-size: 100px; color: green;'>+10 points!</span><br><br></div>","null","delaylearn","learning","feedback_image_window","5f32cfa671047605fbb4cee1","0zqGzxTkysM2nN8Tb4TAjvlxsM32","","","","","","","","","","","","","","","","","","","","",""
"html-keyboard-response","169","374450","0.0-70.0-0.0","","null","","null","","","mood_trial_fixation","","","","","","","","","","","","","","","","","","","","","","",""
"lmdlab-html-vas-response","170","378270","0.0-70.0-1.0","","2813","How happy are you right now?","0.8125240626147205","delaylearn","learning","mood_trial","5f32cfa671047605fbb4cee1","0zqGzxTkysM2nN8Tb4TAjvlxsM32","","","","","","","","","","","","","","","","","","","","[""Very unhappy"",""Very happy""]",""
"html-keyboard-response","171","380588","0.0-71.0","","null","<div style=""font-size:100px;"">+</div>","null","delaylearn","learning","ITI","5f32cfa671047605fbb4cee1","0zqGzxTkysM2nN8Tb4TAjvlxsM32","","","","","","","","","","","","","","","","","","","2303","",""
"html-keyboard-response","172","381918","0.0-72.0-0.0","","1326.300000011921","<div style=""display: flex; flex-direction: column; align-items: center; margin-top: -40px;""><img src=""images/pattern_4.png"" style=""width: 234px; height: 230px; margin-top: -50px;""><div style=""display: flex; justify-content: space-between; margin-top: 33px;""><img src=""images/choice_trial_4.png"" style=""width: 408px; height: 417px; margin-right: 200px;""><img src=""images/choice_trial_11.png"" style=""width: 408px; height: 417px;""></div></div>","f","delaylearn","learning","trial","5f32cfa671047605fbb4cee1","0zqGzxTkysM2nN8Tb4TAjvlxsM32","5","images/choice_trial_4.png","images/choice_trial_11.png","images/pattern_4.png","j","j","7000","4","11","3","1","31","0","0","4","200","","","","",""
"html-keyboard-response","173","382933","0.0-72.0-1.0","","null","<div style=""display: flex; flex-direction: column; align-items: center; margin-top: -40px;""><img src=""images/pattern_4.png"" style=""width: 234px; height: 230px; margin-top: -50px;""><div style=""display: flex; justify-content: space-between; margin-top: 33px;""><img src=""images/choice_trial_4.png"" style=""width: 408px; height: 417px; margin-right: 608px;""></div></div>","null","delaylearn","learning","display_response","5f32cfa671047605fbb4cee1","0zqGzxTkysM2nN8Tb4TAjvlxsM32","","","","","","","","","","","","","","","","","chosen stimuli: images/choice_trial_4.png","","","",""
"html-keyboard-response","174","389940","0.0-72.0-2.0","","null","","null","delaylearn","learning","feedback_duration_window","5f32cfa671047605fbb4cee1","0zqGzxTkysM2nN8Tb4TAjvlxsM32","","","","","","","","","","","","","","","","","","7000","","",""
"html-keyboard-response","175","391447","0.0-72.0-3.0","","null","<div style='margin:auto;width: auto; font-size: 150%'><span style='font-weight: bold; font-size: 100px; color: red;'>0 points!</span><br><br></div>","null","delaylearn","learning","feedback_image_window","5f32cfa671047605fbb4cee1","0zqGzxTkysM2nN8Tb4TAjvlxsM32","","","","","","","","","","","","","","","","","","","","",""
"html-keyboard-response","176","393681","0.0-73.0","","null","<div style=""font-size:100px;"">+</div>","null","delaylearn","learning","ITI","5f32cfa671047605fbb4cee1","0zqGzxTkysM2nN8Tb4TAjvlxsM32","","","","","","","","","","","","","","","","","","","2230","",""
"html-keyboard-response","177","395039","0.0-74.0-0.0","","1353.699999988079","<div style=""display: flex; flex-direction: column; align-items: center; margin-top: -40px;""><img src=""images/pattern_3.png"" style=""width: 234px; height: 230px; margin-top: -50px;""><div style=""display: flex; justify-content: space-between; margin-top: 33px;""><img src=""images/choice_trial_2.png"" style=""width: 408px; height: 417px; margin-right: 200px;""><img src=""images/choice_trial_16.png"" style=""width: 408px; height: 417px;""></div></div>","j","delaylearn","learning","trial","5f32cfa671047605fbb4cee1","0zqGzxTkysM2nN8Tb4TAjvlxsM32","5","images/choice_trial_2.png","images/choice_trial_16.png","images/pattern_3.png","j","j","7000","2","16","2","1","32","1","1","16","210","","","","",""
"html-keyboard-response","178","396045","0.0-74.0-1.0","","null","<div style=""display: flex; flex-direction: column; align-items: center; margin-top: -40px;""><img src=""images/pattern_3.png"" style=""width: 234px; height: 230px; margin-top: -50px;""><div style=""display: flex; justify-content: space-between; margin-top: 33px;""><img src=""images/choice_trial_16.png"" style=""width: 408px; height: 417px; margin-left:608px;""></div></div>","null","delaylearn","learning","display_response","5f32cfa671047605fbb4cee1","0zqGzxTkysM2nN8Tb4TAjvlxsM32","","","","","","","","","","","","","","","","","chosen stimuli: images/choice_trial_16.png","","","",""
"html-keyboard-response","179","403052","0.0-74.0-2.0","","null","","null","delaylearn","learning","feedback_duration_window","5f32cfa671047605fbb4cee1","0zqGzxTkysM2nN8Tb4TAjvlxsM32","","","","","","","","","","","","","","","","","","7000","","",""
"html-keyboard-response","180","404567","0.0-74.0-3.0","","null","<div style='margin:auto;width: auto; font-size: 150%'><span style='font-weight: bold; font-size: 100px; color: green;'>+10 points!</span><br><br></div>","null","delaylearn","learning","feedback_image_window","5f32cfa671047605fbb4cee1","0zqGzxTkysM2nN8Tb4TAjvlxsM32","","","","","","","","","","","","","","","","","","","","",""
"html-keyboard-response","181","406567","0.0-75.0","","null","<div style=""font-size:100px;"">+</div>","null","delaylearn","learning","ITI","5f32cfa671047605fbb4cee1","0zqGzxTkysM2nN8Tb4TAjvlxsM32","","","","","","","","","","","","","","","","","","","1990","",""
"html-keyboard-response","182","408255","0.0-76.0-0.0","","1683.7999999970198","<div style=""display: flex; flex-direction: column; align-items: center; margin-top: -40px;""><img src=""images/pattern_5.png"" style=""width: 234px; height: 230px; margin-top: -50px;""><div style=""display: flex; justify-content: space-between; margin-top: 33px;""><img src=""images/choice_trial_7.png"" style=""width: 408px; height: 417px; margin-right: 200px;""><img src=""images/choice_trial_13.png"" style=""width: 408px; height: 417px;""></div></div>","f","delaylearn","learning","trial","5f32cfa671047605fbb4cee1","0zqGzxTkysM2nN8Tb4TAjvlxsM32","5","images/choice_trial_7.png","images/choice_trial_13.png","images/pattern_5.png","j","f","750","7","13","4","0","33","1","0","7","210","","","","",""
"html-keyboard-response","183","409268","0.0-76.0-1.0","","null","<div style=""display: flex; flex-direction: column; align-items: center; margin-top: -40px;""><img src=""images/pattern_5.png"" style=""width: 234px; height: 230px; margin-top: -50px;""><div style=""display: flex; justify-content: space-between; margin-top: 33px;""><img src=""images/choice_trial_7.png"" style=""width: 408px; height: 417px; margin-right: 608px;""></div></div>","null","delaylearn","learning","display_response","5f32cfa671047605fbb4cee1","0zqGzxTkysM2nN8Tb4TAjvlxsM32","","","","","","","","","","","","","","","","","chosen stimuli: images/choice_trial_7.png","","","",""
"html-keyboard-response","184","410035","0.0-76.0-2.0","","null","","null","delaylearn","learning","feedback_duration_window","5f32cfa671047605fbb4cee1","0zqGzxTkysM2nN8Tb4TAjvlxsM32","","","","","","","","","","","","","","","","","","750","","",""
"html-keyboard-response","185","411544","0.0-76.0-3.0","","null","<div style='margin:auto;width: auto; font-size: 150%'><span style='font-weight: bold; font-size: 100px; color: red;'>0 points!</span><br><br></div>","null","delaylearn","learning","feedback_image_window","5f32cfa671047605fbb4cee1","0zqGzxTkysM2nN8Tb4TAjvlxsM32","","","","","","","","","","","","","","","","","","","","",""
"html-keyboard-response","186","413198","0.0-77.0","","null","<div style=""font-size:100px;"">+</div>","null","delaylearn","learning","ITI","5f32cfa671047605fbb4cee1","0zqGzxTkysM2nN8Tb4TAjvlxsM32","","","","","","","","","","","","","","","","","","","1647","",""
"html-keyboard-response","187","414774","0.0-78.0-0.0","","1571.5","<div style=""display: flex; flex-direction: column; align-items: center; margin-top: -40px;""><img src=""images/pattern_1.png"" style=""width: 234px; height: 230px; margin-top: -50px;""><div style=""display: flex; justify-content: space-between; margin-top: 33px;""><img src=""images/choice_trial_6.png"" style=""width: 408px; height: 417px; margin-right: 200px;""><img src=""images/choice_trial_15.png"" style=""width: 408px; height: 417px;""></div></div>","j","delaylearn","learning","trial","5f32cfa671047605fbb4cee1","0zqGzxTkysM2nN8Tb4TAjvlxsM32","5","images/choice_trial_6.png","images/choice_trial_15.png","images/pattern_1.png","f","f","7000","6","15","1","0","34","0","0","15","210","","","","",""
"html-keyboard-response","188","415787","0.0-78.0-1.0","","null","<div style=""display: flex; flex-direction: column; align-items: center; margin-top: -40px;""><img src=""images/pattern_1.png"" style=""width: 234px; height: 230px; margin-top: -50px;""><div style=""display: flex; justify-content: space-between; margin-top: 33px;""><img src=""images/choice_trial_15.png"" style=""width: 408px; height: 417px; margin-left:608px;""></div></div>","null","delaylearn","learning","display_response","5f32cfa671047605fbb4cee1","0zqGzxTkysM2nN8Tb4TAjvlxsM32","","","","","","","","","","","","","","","","","chosen stimuli: images/choice_trial_15.png","","","",""
"html-keyboard-response","189","422797","0.0-78.0-2.0","","null","","null","delaylearn","learning","feedback_duration_window","5f32cfa671047605fbb4cee1","0zqGzxTkysM2nN8Tb4TAjvlxsM32","","","","","","","","","","","","","","","","","","7000","","",""
"html-keyboard-response","190","424310","0.0-78.0-3.0","","null","<div style='margin:auto;width: auto; font-size: 150%'><span style='font-weight: bold; font-size: 100px; color: red;'>0 points!</span><br><br></div>","null","delaylearn","learning","feedback_image_window","5f32cfa671047605fbb4cee1","0zqGzxTkysM2nN8Tb4TAjvlxsM32","","","","","","","","","","","","","","","","","","","","",""
"html-keyboard-response","191","424824","0.0-79.0-0.0","","null","","null","","","mood_trial_fixation","","","","","","","","","","","","","","","","","","","","","","",""
"lmdlab-html-vas-response","192","428599","0.0-79.0-1.0","","2766","How happy are you right now?","0.7180024621279464","delaylearn","learning","mood_trial","5f32cfa671047605fbb4cee1","0zqGzxTkysM2nN8Tb4TAjvlxsM32","","","","","","","","","","","","","","","","","","","","[""Very unhappy"",""Very happy""]",""
"html-keyboard-response","193","430551","0.0-80.0","","null","<div style=""font-size:100px;"">+</div>","null","delaylearn","learning","ITI","5f32cfa671047605fbb4cee1","0zqGzxTkysM2nN8Tb4TAjvlxsM32","","","","","","","","","","","","","","","","","","","1944","",""
"html-keyboard-response","194","433382","0.0-81.0-0.0","","2826.4000000059605","<div style=""display: flex; flex-direction: column; align-items: center; margin-top: -40px;""><img src=""images/pattern_6.png"" style=""width: 234px; height: 230px; margin-top: -50px;""><div style=""display: flex; justify-content: space-between; margin-top: 33px;""><img src=""images/choice_trial_14.png"" style=""width: 408px; height: 417px; margin-right: 200px;""><img src=""images/choice_trial_9.png"" style=""width: 408px; height: 417px;""></div></div>","f","delaylearn","learning","trial","5f32cfa671047605fbb4cee1","0zqGzxTkysM2nN8Tb4TAjvlxsM32","5","images/choice_trial_14.png","images/choice_trial_9.png","images/pattern_6.png","j","f","750","14","9","5","0","35","1","0","14","210","","","","",""
"html-keyboard-response","195","434394","0.0-81.0-1.0","","null","<div style=""display: flex; flex-direction: column; align-items: center; margin-top: -40px;""><img src=""images/pattern_6.png"" style=""width: 234px; height: 230px; margin-top: -50px;""><div style=""display: flex; justify-content: space-between; margin-top: 33px;""><img src=""images/choice_trial_14.png"" style=""width: 408px; height: 417px; margin-right: 608px;""></div></div>","null","delaylearn","learning","display_response","5f32cfa671047605fbb4cee1","0zqGzxTkysM2nN8Tb4TAjvlxsM32","","","","","","","","","","","","","","","","","chosen stimuli: images/choice_trial_14.png","","","",""
"html-keyboard-response","196","435154","0.0-81.0-2.0","","null","","null","delaylearn","learning","feedback_duration_window","5f32cfa671047605fbb4cee1","0zqGzxTkysM2nN8Tb4TAjvlxsM32","","","","","","","","","","","","","","","","","","750","","",""
"html-keyboard-response","197","436668","0.0-81.0-3.0","","null","<div style='margin:auto;width: auto; font-size: 150%'><span style='font-weight: bold; font-size: 100px; color: red;'>0 points!</span><br><br></div>","null","delaylearn","learning","feedback_image_window","5f32cfa671047605fbb4cee1","0zqGzxTkysM2nN8Tb4TAjvlxsM32","","","","","","","","","","","","","","","","","","","","",""
"html-keyboard-response","198","438460","0.0-82.0","","null","<div style=""font-size:100px;"">+</div>","null","delaylearn","learning","ITI","5f32cfa671047605fbb4cee1","0zqGzxTkysM2nN8Tb4TAjvlxsM32","","","","","","","","","","","","","","","","","","","1777","",""
"html-keyboard-response","199","440167","0.0-83.0-0.0","","1702.5","<div style=""display: flex; flex-direction: column; align-items: center; margin-top: -40px;""><img src=""images/pattern_3.png"" style=""width: 234px; height: 230px; margin-top: -50px;""><div style=""display: flex; justify-content: space-between; margin-top: 33px;""><img src=""images/choice_trial_2.png"" style=""width: 408px; height: 417px; margin-right: 200px;""><img src=""images/choice_trial_16.png"" style=""width: 408px; height: 417px;""></div></div>","f","delaylearn","learning","trial","5f32cfa671047605fbb4cee1","0zqGzxTkysM2nN8Tb4TAjvlxsM32","5","images/choice_trial_2.png","images/choice_trial_16.png","images/pattern_3.png","j","j","7000","2","16","2","1","36","0","0","2","210","","","","",""
"html-keyboard-response","200","441175","0.0-83.0-1.0","","null","<div style=""display: flex; flex-direction: column; align-items: center; margin-top: -40px;""><img src=""images/pattern_3.png"" style=""width: 234px; height: 230px; margin-top: -50px;""><div style=""display: flex; justify-content: space-between; margin-top: 33px;""><img src=""images/choice_trial_2.png"" style=""width: 408px; height: 417px; margin-right: 608px;""></div></div>","null","delaylearn","learning","display_response","5f32cfa671047605fbb4cee1","0zqGzxTkysM2nN8Tb4TAjvlxsM32","","","","","","","","","","","","","","","","","chosen stimuli: images/choice_trial_2.png","","","",""
"html-keyboard-response","201","448179","0.0-83.0-2.0","","null","","null","delaylearn","learning","feedback_duration_window","5f32cfa671047605fbb4cee1","0zqGzxTkysM2nN8Tb4TAjvlxsM32","","","","","","","","","","","","","","","","","","7000","","",""
"html-keyboard-response","202","449697","0.0-83.0-3.0","","null","<div style='margin:auto;width: auto; font-size: 150%'><span style='font-weight: bold; font-size: 100px; color: red;'>0 points!</span><br><br></div>","null","delaylearn","learning","feedback_image_window","5f32cfa671047605fbb4cee1","0zqGzxTkysM2nN8Tb4TAjvlxsM32","","","","","","","","","","","","","","","","","","","","",""
"html-keyboard-response","203","452172","0.0-84.0","","null","<div style=""font-size:100px;"">+</div>","null","delaylearn","learning","ITI","5f32cfa671047605fbb4cee1","0zqGzxTkysM2nN8Tb4TAjvlxsM32","","","","","","","","","","","","","","","","","","","2470","",""
"html-keyboard-response","204","454439","0.0-85.0-0.0","","2262.7999999970198","<div style=""display: flex; flex-direction: column; align-items: center; margin-top: -40px;""><img src=""images/pattern_4.png"" style=""width: 234px; height: 230px; margin-top: -50px;""><div style=""display: flex; justify-content: space-between; margin-top: 33px;""><img src=""images/choice_trial_4.png"" style=""width: 408px; height: 417px; margin-right: 200px;""><img src=""images/choice_trial_11.png"" style=""width: 408px; height: 417px;""></div></div>","j","delaylearn","learning","trial","5f32cfa671047605fbb4cee1","0zqGzxTkysM2nN8Tb4TAjvlxsM32","5","images/choice_trial_4.png","images/choice_trial_11.png","images/pattern_4.png","f","j","7000","4","11","3","1","37","1","0","11","210","","","","",""
"html-keyboard-response","205","455444","0.0-85.0-1.0","","null","<div style=""display: flex; flex-direction: column; align-items: center; margin-top: -40px;""><img src=""images/pattern_4.png"" style=""width: 234px; height: 230px; margin-top: -50px;""><div style=""display: flex; justify-content: space-between; margin-top: 33px;""><img src=""images/choice_trial_11.png"" style=""width: 408px; height: 417px; margin-left:608px;""></div></div>","null","delaylearn","learning","display_response","5f32cfa671047605fbb4cee1","0zqGzxTkysM2nN8Tb4TAjvlxsM32","","","","","","","","","","","","","","","","","chosen stimuli: images/choice_trial_11.png","","","",""
"html-keyboard-response","206","462449","0.0-85.0-2.0","","null","","null","delaylearn","learning","feedback_duration_window","5f32cfa671047605fbb4cee1","0zqGzxTkysM2nN8Tb4TAjvlxsM32","","","","","","","","","","","","","","","","","","7000","","",""
"html-keyboard-response","207","463962","0.0-85.0-3.0","","null","<div style='margin:auto;width: auto; font-size: 150%'><span style='font-weight: bold; font-size: 100px; color: red;'>0 points!</span><br><br></div>","null","delaylearn","learning","feedback_image_window","5f32cfa671047605fbb4cee1","0zqGzxTkysM2nN8Tb4TAjvlxsM32","","","","","","","","","","","","","","","","","","","","",""
"html-keyboard-response","208","465956","0.0-86.0","","null","<div style=""font-size:100px;"">+</div>","null","delaylearn","learning","ITI","5f32cfa671047605fbb4cee1","0zqGzxTkysM2nN8Tb4TAjvlxsM32","","","","","","","","","","","","","","","","","","","1978","",""
"html-keyboard-response","209","468775","0.0-87.0-0.0","","2815.1000000089407","<div style=""display: flex; flex-direction: column; align-items: center; margin-top: -40px;""><img src=""images/pattern_7.png"" style=""width: 234px; height: 230px; margin-top: -50px;""><div style=""display: flex; justify-content: space-between; margin-top: 33px;""><img src=""images/choice_trial_8.png"" style=""width: 408px; height: 417px; margin-right: 200px;""><img src=""images/choice_trial_10.png"" style=""width: 408px; height: 417px;""></div></div>","f","delaylearn","learning","trial","5f32cfa671047605fbb4cee1","0zqGzxTkysM2nN8Tb4TAjvlxsM32","5","images/choice_trial_8.png","images/choice_trial_10.png","images/pattern_7.png","f","f","750","8","10","6","0","38","1","1","8","220","","","","",""
"html-keyboard-response","210","469779","0.0-87.0-1.0","","null","<div style=""display: flex; flex-direction: column; align-items: center; margin-top: -40px;""><img src=""images/pattern_7.png"" style=""width: 234px; height: 230px; margin-top: -50px;""><div style=""display: flex; justify-content: space-between; margin-top: 33px;""><img src=""images/choice_trial_8.png"" style=""width: 408px; height: 417px; margin-right: 608px;""></div></div>","null","delaylearn","learning","display_response","5f32cfa671047605fbb4cee1","0zqGzxTkysM2nN8Tb4TAjvlxsM32","","","","","","","","","","","","","","","","","chosen stimuli: images/choice_trial_8.png","","","",""
"html-keyboard-response","211","470535","0.0-87.0-2.0","","null","","null","delaylearn","learning","feedback_duration_window","5f32cfa671047605fbb4cee1","0zqGzxTkysM2nN8Tb4TAjvlxsM32","","","","","","","","","","","","","","","","","","750","","",""
"html-keyboard-response","212","472049","0.0-87.0-3.0","","null","<div style='margin:auto;width: auto; font-size: 150%'><span style='font-weight: bold; font-size: 100px; color: green;'>+10 points!</span><br><br></div>","null","delaylearn","learning","feedback_image_window","5f32cfa671047605fbb4cee1","0zqGzxTkysM2nN8Tb4TAjvlxsM32","","","","","","","","","","","","","","","","","","","","",""
"html-keyboard-response","213","473603","0.0-88.0","","null","<div style=""font-size:100px;"">+</div>","null","delaylearn","learning","ITI","5f32cfa671047605fbb4cee1","0zqGzxTkysM2nN8Tb4TAjvlxsM32","","","","","","","","","","","","","","","","","","","1543","",""
"html-keyboard-response","214","476619","0.0-89.0-0.0","","null","<div style=""display: flex; flex-direction: column; align-items: center; margin-top: -40px;""><img src=""images/pattern_1.png"" style=""width: 234px; height: 230px; margin-top: -50px;""><div style=""display: flex; justify-content: space-between; margin-top: 33px;""><img src=""images/choice_trial_6.png"" style=""width: 408px; height: 417px; margin-right: 200px;""><img src=""images/choice_trial_15.png"" style=""width: 408px; height: 417px;""></div></div>","null","delaylearn","learning","trial","5f32cfa671047605fbb4cee1","0zqGzxTkysM2nN8Tb4TAjvlxsM32","5","images/choice_trial_6.png","images/choice_trial_15.png","images/pattern_1.png","f","f","7000","6","15","1","0","39","0","0","0","220","","","","",""
"html-keyboard-response","215","477622","0.0-89.0-1.0","","null","<div style='font-weight: bold; font-size: 75px; color: red;'>Missed Trial <br><br><br><br> Please respond faster</div>","null","delaylearn","learning","display_response","5f32cfa671047605fbb4cee1","0zqGzxTkysM2nN8Tb4TAjvlxsM32","","","","","","","","","","","","","","","","","Missed trial","","","",""
"html-keyboard-response","216","477630","0.0-89.0-2.0","","null","","null","delaylearn","learning","feedback_duration_window","5f32cfa671047605fbb4cee1","0zqGzxTkysM2nN8Tb4TAjvlxsM32","","","","","","","","","","","","","","","","","","0","","",""
"html-keyboard-response","217","477638","0.0-89.0-3.0","","null","","null","delaylearn","learning","feedback_image_window","5f32cfa671047605fbb4cee1","0zqGzxTkysM2nN8Tb4TAjvlxsM32","","","","","","","","","","","","","","","","","","","","",""
"html-keyboard-response","218","478146","0.0-90.0-0.0","","null","","null","","","mood_trial_fixation","","","","","","","","","","","","","","","","","","","","","","",""
"lmdlab-html-vas-response","219","482417","0.0-90.0-1.0","","3259","How happy are you right now?","0.47494691801909844","delaylearn","learning","mood_trial","5f32cfa671047605fbb4cee1","0zqGzxTkysM2nN8Tb4TAjvlxsM32","","","","","","","","","","","","","","","","","","","","[""Very unhappy"",""Very happy""]",""
"html-keyboard-response","220","484390","0.0-91.0","","null","<div style=""font-size:100px;"">+</div>","null","delaylearn","learning","ITI","5f32cfa671047605fbb4cee1","0zqGzxTkysM2nN8Tb4TAjvlxsM32","","","","","","","","","","","","","","","","","","","1963","",""
