"trial_type","trial_index","time_elapsed","internal_node_id","participant","rt","stimulus","response","exp_name","exp_stage","test_part","subjectID","databaseID","counterbal","choice_stimuli_1","choice_stimuli_2","pattern_stimuli","rewarded_answer","correct_answer","feedback_duration_times","stim_left","stim_right","pair","leftright_counter","trial","response_correct","response_rewarded","chosen_stim","counter","displayed_choice","feedback_durations","ITI_duration","labels","rest_warning"
"pavlovia","0","515","0.0-0.0","","","","","","","","","","","","","","","","","","","","","","","","","","","","","",""
"html-keyboard-response","1","3517","0.0-1.0","","null","<div style=""font-size:100px;"">+</div>","null","delaylearn","learning","pre_fixation","62d6dcf502178276f7fba480","","","","","","","","","","","","","","","","","","","","","",""
"html-keyboard-response","2","4626","0.0-2.0-0.0","","1106.1000000238419","<div style=""display: flex; flex-direction: column; align-items: center; margin-top: -40px;""><img src=""images/demo_images/pattern_1.png"" style=""width: 234px; height: 230px; margin-top: -50px;""><div style=""display: flex; justify-content: space-between; margin-top: 33px;""><img src=""images/demo_images/choice_trial_2.png"" style=""width: 408px; height: 417px; margin-right: 200px;""><img src=""images/demo_images/choice_trial_1.png"" style=""width: 408px; height: 417px;""></div></div>","f","delaylearn","learning","trial","62d6dcf502178276f7fba480","rSbQ0cbLAmWNuyUmUETtLZDn6ex1","4","images/demo_images/choice_trial_2.png","images/demo_images/choice_trial_1.png","images/demo_images/pattern_1.png","j","j","3000","2","1","20","1","1","0","0","2","0","","","","",""
"html-keyboard-response","3","5638","0.0-2.0-1.0","","null","<div style=""display: flex; flex-direction: column; align-items: center; margin-top: -40px;""><img src=""images/demo_images/pattern_1.png"" style=""width: 234px; height: 230px; margin-top: -50px;""><div style=""display: flex; justify-content: space-between; margin-top: 33px;""><img src=""images/demo_images/choice_trial_2.png"" style=""width: 408px; height: 417px; margin-right: 608px;""></div></div>","null","delaylearn","learning","display_response","62d6dcf502178276f7fba480","rSbQ0cbLAmWNuyUmUETtLZDn6ex1","","","","","","","","","","","","","","","","","chosen stimuli: images/demo_images/choice_trial_2.png","","","",""
"html-keyboard-response","4","8653","0.0-2.0-2.0","","null","","null","delaylearn","learning","feedback_duration_window","62d6dcf502178276f7fba480","rSbQ0cbLAmWNuyUmUETtLZDn6ex1","","","","","","","","","","","","","","","","","","3000","","",""
"html-keyboard-response","5","10172","0.0-2.0-3.0","","null","<div style='margin:auto;width: auto; font-size: 150%'><span style='font-weight: bold; font-size: 100px; color: red;'>0 points!</span><br><br></div>","null","delaylearn","learning","feedback_image_window","62d6dcf502178276f7fba480","rSbQ0cbLAmWNuyUmUETtLZDn6ex1","","","","","","","","","","","","","","","","","","","","",""
"html-keyboard-response","6","12638","0.0-3.0","","null","<div style=""font-size:100px;"">+</div>","null","delaylearn","learning","ITI","62d6dcf502178276f7fba480","rSbQ0cbLAmWNuyUmUETtLZDn6ex1","","","","","","","","","","","","","","","","","","","2452","",""
"html-keyboard-response","7","13020","0.0-4.0-0.0","","378.60000002384186","<div style=""display: flex; flex-direction: column; align-items: center; margin-top: -40px;""><img src=""images/demo_images/pattern_1.png"" style=""width: 234px; height: 230px; margin-top: -50px;""><div style=""display: flex; justify-content: space-between; margin-top: 33px;""><img src=""images/demo_images/choice_trial_2.png"" style=""width: 408px; height: 417px; margin-right: 200px;""><img src=""images/demo_images/choice_trial_1.png"" style=""width: 408px; height: 417px;""></div></div>","j","delaylearn","learning","trial","62d6dcf502178276f7fba480","rSbQ0cbLAmWNuyUmUETtLZDn6ex1","4","images/demo_images/choice_trial_2.png","images/demo_images/choice_trial_1.png","images/demo_images/pattern_1.png","j","j","3000","2","1","20","1","2","1","1","1","10","","","","",""
"html-keyboard-response","8","14037","0.0-4.0-1.0","","null","<div style=""display: flex; flex-direction: column; align-items: center; margin-top: -40px;""><img src=""images/demo_images/pattern_1.png"" style=""width: 234px; height: 230px; margin-top: -50px;""><div style=""display: flex; justify-content: space-between; margin-top: 33px;""><img src=""images/demo_images/choice_trial_1.png"" style=""width: 408px; height: 417px; margin-left:608px;""></div></div>","null","delaylearn","learning","display_response","62d6dcf502178276f7fba480","rSbQ0cbLAmWNuyUmUETtLZDn6ex1","","","","","","","","","","","","","","","","","chosen stimuli: images/demo_images/choice_trial_1.png","","","",""
"html-keyboard-response","9","17053","0.0-4.0-2.0","","null","","null","delaylearn","learning","feedback_duration_window","62d6dcf502178276f7fba480","rSbQ0cbLAmWNuyUmUETtLZDn6ex1","","","","","","","","","","","","","","","","","","3000","","",""
"html-keyboard-response","10","18572","0.0-4.0-3.0","","null","<div style='margin:auto;width: auto; font-size: 150%'><span style='font-weight: bold; font-size: 100px; color: green;'>+10 points!</span><br><br></div>","null","delaylearn","learning","feedback_image_window","62d6dcf502178276f7fba480","rSbQ0cbLAmWNuyUmUETtLZDn6ex1","","","","","","","","","","","","","","","","","","","","",""
"html-keyboard-response","11","20537","0.0-5.0","","null","<div style=""font-size:100px;"">+</div>","null","delaylearn","learning","ITI","62d6dcf502178276f7fba480","rSbQ0cbLAmWNuyUmUETtLZDn6ex1","","","","","","","","","","","","","","","","","","","1957","",""
"html-keyboard-response","12","21044","0.0-6.0-0.0","","505.10000002384186","<div style=""display: flex; flex-direction: column; align-items: center; margin-top: -40px;""><img src=""images/demo_images/pattern_1.png"" style=""width: 234px; height: 230px; margin-top: -50px;""><div style=""display: flex; justify-content: space-between; margin-top: 33px;""><img src=""images/demo_images/choice_trial_1.png"" style=""width: 408px; height: 417px; margin-right: 200px;""><img src=""images/demo_images/choice_trial_2.png"" style=""width: 408px; height: 417px;""></div></div>","f","delaylearn","learning","trial","62d6dcf502178276f7fba480","rSbQ0cbLAmWNuyUmUETtLZDn6ex1","4","images/demo_images/choice_trial_1.png","images/demo_images/choice_trial_2.png","images/demo_images/pattern_1.png","j","f","3000","1","2","20","0","3","1","0","1","10","","","","",""
"html-keyboard-response","13","22051","0.0-6.0-1.0","","null","<div style=""display: flex; flex-direction: column; align-items: center; margin-top: -40px;""><img src=""images/demo_images/pattern_1.png"" style=""width: 234px; height: 230px; margin-top: -50px;""><div style=""display: flex; justify-content: space-between; margin-top: 33px;""><img src=""images/demo_images/choice_trial_1.png"" style=""width: 408px; height: 417px; margin-right: 608px;""></div></div>","null","delaylearn","learning","display_response","62d6dcf502178276f7fba480","rSbQ0cbLAmWNuyUmUETtLZDn6ex1","","","","","","","","","","","","","","","","","chosen stimuli: images/demo_images/choice_trial_1.png","","","",""
"html-keyboard-response","14","25054","0.0-6.0-2.0","","null","","null","delaylearn","learning","feedback_duration_window","62d6dcf502178276f7fba480","rSbQ0cbLAmWNuyUmUETtLZDn6ex1","","","","","","","","","","","","","","","","","","3000","","",""
"html-keyboard-response","15","26570","0.0-6.0-3.0","","null","<div style='margin:auto;width: auto; font-size: 150%'><span style='font-weight: bold; font-size: 100px; color: red;'>0 points!</span><br><br></div>","null","delaylearn","learning","feedback_image_window","62d6dcf502178276f7fba480","rSbQ0cbLAmWNuyUmUETtLZDn6ex1","","","","","","","","","","","","","","","","","","","","",""
"html-keyboard-response","16","28322","0.0-7.0","","null","<div style=""font-size:100px;"">+</div>","null","delaylearn","learning","ITI","62d6dcf502178276f7fba480","rSbQ0cbLAmWNuyUmUETtLZDn6ex1","","","","","","","","","","","","","","","","","","","1744","",""
"html-keyboard-response","17","28916","0.0-8.0-0.0","","592.5999999642372","<div style=""display: flex; flex-direction: column; align-items: center; margin-top: -40px;""><img src=""images/demo_images/pattern_1.png"" style=""width: 234px; height: 230px; margin-top: -50px;""><div style=""display: flex; justify-content: space-between; margin-top: 33px;""><img src=""images/demo_images/choice_trial_1.png"" style=""width: 408px; height: 417px; margin-right: 200px;""><img src=""images/demo_images/choice_trial_2.png"" style=""width: 408px; height: 417px;""></div></div>","f","delaylearn","learning","trial","62d6dcf502178276f7fba480","rSbQ0cbLAmWNuyUmUETtLZDn6ex1","4","images/demo_images/choice_trial_1.png","images/demo_images/choice_trial_2.png","images/demo_images/pattern_1.png","f","f","3000","1","2","20","0","4","1","1","1","20","","","","",""
"html-keyboard-response","18","29920","0.0-8.0-1.0","","null","<div style=""display: flex; flex-direction: column; align-items: center; margin-top: -40px;""><img src=""images/demo_images/pattern_1.png"" style=""width: 234px; height: 230px; margin-top: -50px;""><div style=""display: flex; justify-content: space-between; margin-top: 33px;""><img src=""images/demo_images/choice_trial_1.png"" style=""width: 408px; height: 417px; margin-right: 608px;""></div></div>","null","delaylearn","learning","display_response","62d6dcf502178276f7fba480","rSbQ0cbLAmWNuyUmUETtLZDn6ex1","","","","","","","","","","","","","","","","","chosen stimuli: images/demo_images/choice_trial_1.png","","","",""
"html-keyboard-response","19","32938","0.0-8.0-2.0","","null","","null","delaylearn","learning","feedback_duration_window","62d6dcf502178276f7fba480","rSbQ0cbLAmWNuyUmUETtLZDn6ex1","","","","","","","","","","","","","","","","","","3000","","",""
"html-keyboard-response","20","34453","0.0-8.0-3.0","","null","<div style='margin:auto;width: auto; font-size: 150%'><span style='font-weight: bold; font-size: 100px; color: green;'>+10 points!</span><br><br></div>","null","delaylearn","learning","feedback_image_window","62d6dcf502178276f7fba480","rSbQ0cbLAmWNuyUmUETtLZDn6ex1","","","","","","","","","","","","","","","","","","","","",""
"html-keyboard-response","21","34970","0.0-9.0-0.0","","null","","null","","","mood_trial_fixation","","","","","","","","","","","","","","","","","","","","","","",""
"lmdlab-html-vas-response","22","39581","0.0-9.0-1.0","","3598","How happy are you right now?","0.47687593027393055","delaylearn","learning","mood_trial","62d6dcf502178276f7fba480","rSbQ0cbLAmWNuyUmUETtLZDn6ex1","","","","","","","","","","","","","","","","","","","","[""Very unhappy"",""Very happy""]",""
"html-keyboard-response","23","41904","0.0-10.0","","null","<div style=""font-size:100px;"">+</div>","null","delaylearn","learning","ITI","62d6dcf502178276f7fba480","rSbQ0cbLAmWNuyUmUETtLZDn6ex1","","","","","","","","","","","","","","","","","","","2318","",""
"html-keyboard-response","24","42494","0.0-11.0-0.0","","587.5999999642372","<div style=""display: flex; flex-direction: column; align-items: center; margin-top: -40px;""><img src=""images/demo_images/pattern_1.png"" style=""width: 234px; height: 230px; margin-top: -50px;""><div style=""display: flex; justify-content: space-between; margin-top: 33px;""><img src=""images/demo_images/choice_trial_2.png"" style=""width: 408px; height: 417px; margin-right: 200px;""><img src=""images/demo_images/choice_trial_1.png"" style=""width: 408px; height: 417px;""></div></div>","j","delaylearn","learning","trial","62d6dcf502178276f7fba480","rSbQ0cbLAmWNuyUmUETtLZDn6ex1","4","images/demo_images/choice_trial_2.png","images/demo_images/choice_trial_1.png","images/demo_images/pattern_1.png","j","j","3000","2","1","20","1","5","1","1","1","30","","","","",""
"html-keyboard-response","25","43507","0.0-11.0-1.0","","null","<div style=""display: flex; flex-direction: column; align-items: center; margin-top: -40px;""><img src=""images/demo_images/pattern_1.png"" style=""width: 234px; height: 230px; margin-top: -50px;""><div style=""display: flex; justify-content: space-between; margin-top: 33px;""><img src=""images/demo_images/choice_trial_1.png"" style=""width: 408px; height: 417px; margin-left:608px;""></div></div>","null","delaylearn","learning","display_response","62d6dcf502178276f7fba480","rSbQ0cbLAmWNuyUmUETtLZDn6ex1","","","","","","","","","","","","","","","","","chosen stimuli: images/demo_images/choice_trial_1.png","","","",""
"html-keyboard-response","26","46520","0.0-11.0-2.0","","null","","null","delaylearn","learning","feedback_duration_window","62d6dcf502178276f7fba480","rSbQ0cbLAmWNuyUmUETtLZDn6ex1","","","","","","","","","","","","","","","","","","3000","","",""
"html-keyboard-response","27","48036","0.0-11.0-3.0","","null","<div style='margin:auto;width: auto; font-size: 150%'><span style='font-weight: bold; font-size: 100px; color: green;'>+10 points!</span><br><br></div>","null","delaylearn","learning","feedback_image_window","62d6dcf502178276f7fba480","rSbQ0cbLAmWNuyUmUETtLZDn6ex1","","","","","","","","","","","","","","","","","","","","",""
"html-keyboard-response","28","50338","0.0-12.0","","null","<div style=""font-size:100px;"">+</div>","null","delaylearn","learning","ITI","62d6dcf502178276f7fba480","rSbQ0cbLAmWNuyUmUETtLZDn6ex1","","","","","","","","","","","","","","","","","","","2285","",""
"html-keyboard-response","29","50805","0.0-13.0-0.0","","464.30000001192093","<div style=""display: flex; flex-direction: column; align-items: center; margin-top: -40px;""><img src=""images/demo_images/pattern_1.png"" style=""width: 234px; height: 230px; margin-top: -50px;""><div style=""display: flex; justify-content: space-between; margin-top: 33px;""><img src=""images/demo_images/choice_trial_1.png"" style=""width: 408px; height: 417px; margin-right: 200px;""><img src=""images/demo_images/choice_trial_2.png"" style=""width: 408px; height: 417px;""></div></div>","f","delaylearn","learning","trial","62d6dcf502178276f7fba480","rSbQ0cbLAmWNuyUmUETtLZDn6ex1","4","images/demo_images/choice_trial_1.png","images/demo_images/choice_trial_2.png","images/demo_images/pattern_1.png","f","f","3000","1","2","20","0","6","1","1","1","40","","","","",""
"html-keyboard-response","30","51820","0.0-13.0-1.0","","null","<div style=""display: flex; flex-direction: column; align-items: center; margin-top: -40px;""><img src=""images/demo_images/pattern_1.png"" style=""width: 234px; height: 230px; margin-top: -50px;""><div style=""display: flex; justify-content: space-between; margin-top: 33px;""><img src=""images/demo_images/choice_trial_1.png"" style=""width: 408px; height: 417px; margin-right: 608px;""></div></div>","null","delaylearn","learning","display_response","62d6dcf502178276f7fba480","rSbQ0cbLAmWNuyUmUETtLZDn6ex1","","","","","","","","","","","","","","","","","chosen stimuli: images/demo_images/choice_trial_1.png","","","",""
"html-keyboard-response","31","54822","0.0-13.0-2.0","","null","","null","delaylearn","learning","feedback_duration_window","62d6dcf502178276f7fba480","rSbQ0cbLAmWNuyUmUETtLZDn6ex1","","","","","","","","","","","","","","","","","","3000","","",""
"html-keyboard-response","32","56337","0.0-13.0-3.0","","null","<div style='margin:auto;width: auto; font-size: 150%'><span style='font-weight: bold; font-size: 100px; color: green;'>+10 points!</span><br><br></div>","null","delaylearn","learning","feedback_image_window","62d6dcf502178276f7fba480","rSbQ0cbLAmWNuyUmUETtLZDn6ex1","","","","","","","","","","","","","","","","","","","","",""
"html-keyboard-response","33","58203","0.0-14.0","","null","<div style=""font-size:100px;"">+</div>","null","delaylearn","learning","ITI","62d6dcf502178276f7fba480","rSbQ0cbLAmWNuyUmUETtLZDn6ex1","","","","","","","","","","","","","","","","","","","1855","",""
"html-keyboard-response","34","59283","0.0-15.0-0.0","","1077.6000000238419","<div style=""display: flex; flex-direction: column; align-items: center; margin-top: -40px;""><img src=""images/demo_images/pattern_1.png"" style=""width: 234px; height: 230px; margin-top: -50px;""><div style=""display: flex; justify-content: space-between; margin-top: 33px;""><img src=""images/demo_images/choice_trial_2.png"" style=""width: 408px; height: 417px; margin-right: 200px;""><img src=""images/demo_images/choice_trial_1.png"" style=""width: 408px; height: 417px;""></div></div>","j","delaylearn","learning","trial","62d6dcf502178276f7fba480","rSbQ0cbLAmWNuyUmUETtLZDn6ex1","4","images/demo_images/choice_trial_2.png","images/demo_images/choice_trial_1.png","images/demo_images/pattern_1.png","j","j","3000","2","1","20","1","7","1","1","1","50","","","","",""
"html-keyboard-response","35","60287","0.0-15.0-1.0","","null","<div style=""display: flex; flex-direction: column; align-items: center; margin-top: -40px;""><img src=""images/demo_images/pattern_1.png"" style=""width: 234px; height: 230px; margin-top: -50px;""><div style=""display: flex; justify-content: space-between; margin-top: 33px;""><img src=""images/demo_images/choice_trial_1.png"" style=""width: 408px; height: 417px; margin-left:608px;""></div></div>","null","delaylearn","learning","display_response","62d6dcf502178276f7fba480","rSbQ0cbLAmWNuyUmUETtLZDn6ex1","","","","","","","","","","","","","","","","","chosen stimuli: images/demo_images/choice_trial_1.png","","","",""
"html-keyboard-response","36","63290","0.0-15.0-2.0","","null","","null","delaylearn","learning","feedback_duration_window","62d6dcf502178276f7fba480","rSbQ0cbLAmWNuyUmUETtLZDn6ex1","","","","","","","","","","","","","","","","","","3000","","",""
"html-keyboard-response","37","64804","0.0-15.0-3.0","","null","<div style='margin:auto;width: auto; font-size: 150%'><span style='font-weight: bold; font-size: 100px; color: green;'>+10 points!</span><br><br></div>","null","delaylearn","learning","feedback_image_window","62d6dcf502178276f7fba480","rSbQ0cbLAmWNuyUmUETtLZDn6ex1","","","","","","","","","","","","","","","","","","","","",""
"html-keyboard-response","38","66403","0.0-16.0","","null","<div style=""font-size:100px;"">+</div>","null","delaylearn","learning","ITI","62d6dcf502178276f7fba480","rSbQ0cbLAmWNuyUmUETtLZDn6ex1","","","","","","","","","","","","","","","","","","","1589","",""
"html-keyboard-response","39","67295","0.0-17.0-0.0","","889","<div style=""display: flex; flex-direction: column; align-items: center; margin-top: -40px;""><img src=""images/demo_images/pattern_1.png"" style=""width: 234px; height: 230px; margin-top: -50px;""><div style=""display: flex; justify-content: space-between; margin-top: 33px;""><img src=""images/demo_images/choice_trial_1.png"" style=""width: 408px; height: 417px; margin-right: 200px;""><img src=""images/demo_images/choice_trial_2.png"" style=""width: 408px; height: 417px;""></div></div>","f","delaylearn","learning","trial","62d6dcf502178276f7fba480","rSbQ0cbLAmWNuyUmUETtLZDn6ex1","4","images/demo_images/choice_trial_1.png","images/demo_images/choice_trial_2.png","images/demo_images/pattern_1.png","f","f","3000","1","2","20","0","8","1","1","1","60","","","","",""
"html-keyboard-response","40","68307","0.0-17.0-1.0","","null","<div style=""display: flex; flex-direction: column; align-items: center; margin-top: -40px;""><img src=""images/demo_images/pattern_1.png"" style=""width: 234px; height: 230px; margin-top: -50px;""><div style=""display: flex; justify-content: space-between; margin-top: 33px;""><img src=""images/demo_images/choice_trial_1.png"" style=""width: 408px; height: 417px; margin-right: 608px;""></div></div>","null","delaylearn","learning","display_response","62d6dcf502178276f7fba480","rSbQ0cbLAmWNuyUmUETtLZDn6ex1","","","","","","","","","","","","","","","","","chosen stimuli: images/demo_images/choice_trial_1.png","","","",""
"html-keyboard-response","41","71320","0.0-17.0-2.0","","null","","null","delaylearn","learning","feedback_duration_window","62d6dcf502178276f7fba480","rSbQ0cbLAmWNuyUmUETtLZDn6ex1","","","","","","","","","","","","","","","","","","3000","","",""
"html-keyboard-response","42","72836","0.0-17.0-3.0","","null","<div style='margin:auto;width: auto; font-size: 150%'><span style='font-weight: bold; font-size: 100px; color: green;'>+10 points!</span><br><br></div>","null","delaylearn","learning","feedback_image_window","62d6dcf502178276f7fba480","rSbQ0cbLAmWNuyUmUETtLZDn6ex1","","","","","","","","","","","","","","","","","","","","",""
"html-button-response","43","77714","0.0-18.0","","4876.299999952316","
  <div style=""display: flex; align-items: center; justify-content: center; height: 80vh;"">
  <div>
          <img src=""images/inst_demo_finish.png"" style=""width: 80vw; height:auto;"">
          <br><br>
      </div>
      <br><br>
  </div>","0","","","","","","","","","","","","","","","","","","","","","","","","","",""
"html-keyboard-response","44","87417","0.0-19.0","","9701.5","
  <div style=""display: flex; align-items: center; justify-content: center; height: 80vh;"">
  <div>
          <img src=""images/inst_6.png"" style=""width: 80vw; height:auto;"">
          <br><br>
      </div>
      <br><br>
  </div>","f","","","","","","","","","","","","","","","","","","","","","","","","","",""
"html-keyboard-response","45","90421","0.0-20.0","","null","<div style=""font-size:100px;"">+</div>","null","delaylearn","learning","pre_fixation","62d6dcf502178276f7fba480","","","","","","","","","","","","","","","","","","","","","",""
"html-keyboard-response","46","92739","0.0-21.0","","null","<div style=""font-size:100px;"">+</div>","null","delaylearn","learning","ITI","62d6dcf502178276f7fba480","rSbQ0cbLAmWNuyUmUETtLZDn6ex1","","","","","","","","","","","","","","","","","","","2304","",""
"html-keyboard-response","47","93758","0.0-22.0-0.0","","1017.6999999880791","<div style=""display: flex; flex-direction: column; align-items: center; margin-top: -40px;""><img src=""images/pattern_3.png"" style=""width: 234px; height: 230px; margin-top: -50px;""><div style=""display: flex; justify-content: space-between; margin-top: 33px;""><img src=""images/choice_trial_16.png"" style=""width: 408px; height: 417px; margin-right: 200px;""><img src=""images/choice_trial_6.png"" style=""width: 408px; height: 417px;""></div></div>","f","delaylearn","learning","trial","62d6dcf502178276f7fba480","rSbQ0cbLAmWNuyUmUETtLZDn6ex1","4","images/choice_trial_16.png","images/choice_trial_6.png","images/pattern_3.png","f","f","7000","16","6","2","0","9","1","1","16","70","","","","",""
"html-keyboard-response","48","94771","0.0-22.0-1.0","","null","<div style=""display: flex; flex-direction: column; align-items: center; margin-top: -40px;""><img src=""images/pattern_3.png"" style=""width: 234px; height: 230px; margin-top: -50px;""><div style=""display: flex; justify-content: space-between; margin-top: 33px;""><img src=""images/choice_trial_16.png"" style=""width: 408px; height: 417px; margin-right: 608px;""></div></div>","null","delaylearn","learning","display_response","62d6dcf502178276f7fba480","rSbQ0cbLAmWNuyUmUETtLZDn6ex1","","","","","","","","","","","","","","","","","chosen stimuli: images/choice_trial_16.png","","","",""
"html-keyboard-response","49","101789","0.0-22.0-2.0","","null","","null","delaylearn","learning","feedback_duration_window","62d6dcf502178276f7fba480","rSbQ0cbLAmWNuyUmUETtLZDn6ex1","","","","","","","","","","","","","","","","","","7000","","",""
"html-keyboard-response","50","103304","0.0-22.0-3.0","","null","<div style='margin:auto;width: auto; font-size: 150%'><span style='font-weight: bold; font-size: 100px; color: green;'>+10 points!</span><br><br></div>","null","delaylearn","learning","feedback_image_window","62d6dcf502178276f7fba480","rSbQ0cbLAmWNuyUmUETtLZDn6ex1","","","","","","","","","","","","","","","","","","","","",""
"html-keyboard-response","51","105303","0.0-23.0","","null","<div style=""font-size:100px;"">+</div>","null","delaylearn","learning","ITI","62d6dcf502178276f7fba480","rSbQ0cbLAmWNuyUmUETtLZDn6ex1","","","","","","","","","","","","","","","","","","","1988","",""
"html-keyboard-response","52","106173","0.0-24.0-0.0","","867.3000000119209","<div style=""display: flex; flex-direction: column; align-items: center; margin-top: -40px;""><img src=""images/pattern_7.png"" style=""width: 234px; height: 230px; margin-top: -50px;""><div style=""display: flex; justify-content: space-between; margin-top: 33px;""><img src=""images/choice_trial_4.png"" style=""width: 408px; height: 417px; margin-right: 200px;""><img src=""images/choice_trial_13.png"" style=""width: 408px; height: 417px;""></div></div>","j","delaylearn","learning","trial","62d6dcf502178276f7fba480","rSbQ0cbLAmWNuyUmUETtLZDn6ex1","4","images/choice_trial_4.png","images/choice_trial_13.png","images/pattern_7.png","j","j","750","4","13","6","1","10","1","1","13","80","","","","",""
"html-keyboard-response","53","107188","0.0-24.0-1.0","","null","<div style=""display: flex; flex-direction: column; align-items: center; margin-top: -40px;""><img src=""images/pattern_7.png"" style=""width: 234px; height: 230px; margin-top: -50px;""><div style=""display: flex; justify-content: space-between; margin-top: 33px;""><img src=""images/choice_trial_13.png"" style=""width: 408px; height: 417px; margin-left:608px;""></div></div>","null","delaylearn","learning","display_response","62d6dcf502178276f7fba480","rSbQ0cbLAmWNuyUmUETtLZDn6ex1","","","","","","","","","","","","","","","","","chosen stimuli: images/choice_trial_13.png","","","",""
"html-keyboard-response","54","107951","0.0-24.0-2.0","","null","","null","delaylearn","learning","feedback_duration_window","62d6dcf502178276f7fba480","rSbQ0cbLAmWNuyUmUETtLZDn6ex1","","","","","","","","","","","","","","","","","","750","","",""
"html-keyboard-response","55","109454","0.0-24.0-3.0","","null","<div style='margin:auto;width: auto; font-size: 150%'><span style='font-weight: bold; font-size: 100px; color: green;'>+10 points!</span><br><br></div>","null","delaylearn","learning","feedback_image_window","62d6dcf502178276f7fba480","rSbQ0cbLAmWNuyUmUETtLZDn6ex1","","","","","","","","","","","","","","","","","","","","",""
"html-keyboard-response","56","111855","0.0-25.0","","null","<div style=""font-size:100px;"">+</div>","null","delaylearn","learning","ITI","62d6dcf502178276f7fba480","rSbQ0cbLAmWNuyUmUETtLZDn6ex1","","","","","","","","","","","","","","","","","","","2400","",""
"html-keyboard-response","57","112694","0.0-26.0-0.0","","836.6999999880791","<div style=""display: flex; flex-direction: column; align-items: center; margin-top: -40px;""><img src=""images/pattern_4.png"" style=""width: 234px; height: 230px; margin-top: -50px;""><div style=""display: flex; justify-content: space-between; margin-top: 33px;""><img src=""images/choice_trial_8.png"" style=""width: 408px; height: 417px; margin-right: 200px;""><img src=""images/choice_trial_7.png"" style=""width: 408px; height: 417px;""></div></div>","j","delaylearn","learning","trial","62d6dcf502178276f7fba480","rSbQ0cbLAmWNuyUmUETtLZDn6ex1","4","images/choice_trial_8.png","images/choice_trial_7.png","images/pattern_4.png","f","f","7000","8","7","3","0","11","0","0","7","80","","","","",""
"html-keyboard-response","58","113707","0.0-26.0-1.0","","null","<div style=""display: flex; flex-direction: column; align-items: center; margin-top: -40px;""><img src=""images/pattern_4.png"" style=""width: 234px; height: 230px; margin-top: -50px;""><div style=""display: flex; justify-content: space-between; margin-top: 33px;""><img src=""images/choice_trial_7.png"" style=""width: 408px; height: 417px; margin-left:608px;""></div></div>","null","delaylearn","learning","display_response","62d6dcf502178276f7fba480","rSbQ0cbLAmWNuyUmUETtLZDn6ex1","","","","","","","","","","","","","","","","","chosen stimuli: images/choice_trial_7.png","","","",""
"html-keyboard-response","59","120720","0.0-26.0-2.0","","null","","null","delaylearn","learning","feedback_duration_window","62d6dcf502178276f7fba480","rSbQ0cbLAmWNuyUmUETtLZDn6ex1","","","","","","","","","","","","","","","","","","7000","","",""
"html-keyboard-response","60","122223","0.0-26.0-3.0","","null","<div style='margin:auto;width: auto; font-size: 150%'><span style='font-weight: bold; font-size: 100px; color: red;'>0 points!</span><br><br></div>","null","delaylearn","learning","feedback_image_window","62d6dcf502178276f7fba480","rSbQ0cbLAmWNuyUmUETtLZDn6ex1","","","","","","","","","","","","","","","","","","","","",""
"html-keyboard-response","61","124570","0.0-27.0","","null","<div style=""font-size:100px;"">+</div>","null","delaylearn","learning","ITI","62d6dcf502178276f7fba480","rSbQ0cbLAmWNuyUmUETtLZDn6ex1","","","","","","","","","","","","","","","","","","","2344","",""
"html-keyboard-response","62","125400","0.0-28.0-0.0","","827.3000000119209","<div style=""display: flex; flex-direction: column; align-items: center; margin-top: -40px;""><img src=""images/pattern_5.png"" style=""width: 234px; height: 230px; margin-top: -50px;""><div style=""display: flex; justify-content: space-between; margin-top: 33px;""><img src=""images/choice_trial_15.png"" style=""width: 408px; height: 417px; margin-right: 200px;""><img src=""images/choice_trial_5.png"" style=""width: 408px; height: 417px;""></div></div>","j","delaylearn","learning","trial","62d6dcf502178276f7fba480","rSbQ0cbLAmWNuyUmUETtLZDn6ex1","4","images/choice_trial_15.png","images/choice_trial_5.png","images/pattern_5.png","j","j","750","15","5","4","1","12","1","1","5","90","","","","",""
"html-keyboard-response","63","126404","0.0-28.0-1.0","","null","<div style=""display: flex; flex-direction: column; align-items: center; margin-top: -40px;""><img src=""images/pattern_5.png"" style=""width: 234px; height: 230px; margin-top: -50px;""><div style=""display: flex; justify-content: space-between; margin-top: 33px;""><img src=""images/choice_trial_5.png"" style=""width: 408px; height: 417px; margin-left:608px;""></div></div>","null","delaylearn","learning","display_response","62d6dcf502178276f7fba480","rSbQ0cbLAmWNuyUmUETtLZDn6ex1","","","","","","","","","","","","","","","","","chosen stimuli: images/choice_trial_5.png","","","",""
"html-keyboard-response","64","127155","0.0-28.0-2.0","","null","","null","delaylearn","learning","feedback_duration_window","62d6dcf502178276f7fba480","rSbQ0cbLAmWNuyUmUETtLZDn6ex1","","","","","","","","","","","","","","","","","","750","","",""
"html-keyboard-response","65","128675","0.0-28.0-3.0","","null","<div style='margin:auto;width: auto; font-size: 150%'><span style='font-weight: bold; font-size: 100px; color: green;'>+10 points!</span><br><br></div>","null","delaylearn","learning","feedback_image_window","62d6dcf502178276f7fba480","rSbQ0cbLAmWNuyUmUETtLZDn6ex1","","","","","","","","","","","","","","","","","","","","",""
"html-keyboard-response","66","130871","0.0-29.0","","null","<div style=""font-size:100px;"">+</div>","null","delaylearn","learning","ITI","62d6dcf502178276f7fba480","rSbQ0cbLAmWNuyUmUETtLZDn6ex1","","","","","","","","","","","","","","","","","","","2187","",""
"html-keyboard-response","67","131940","0.0-30.0-0.0","","1065.800000011921","<div style=""display: flex; flex-direction: column; align-items: center; margin-top: -40px;""><img src=""images/pattern_6.png"" style=""width: 234px; height: 230px; margin-top: -50px;""><div style=""display: flex; justify-content: space-between; margin-top: 33px;""><img src=""images/choice_trial_10.png"" style=""width: 408px; height: 417px; margin-right: 200px;""><img src=""images/choice_trial_3.png"" style=""width: 408px; height: 417px;""></div></div>","f","delaylearn","learning","trial","62d6dcf502178276f7fba480","rSbQ0cbLAmWNuyUmUETtLZDn6ex1","4","images/choice_trial_10.png","images/choice_trial_3.png","images/pattern_6.png","j","f","750","10","3","5","0","13","1","0","10","90","","","","",""
"html-keyboard-response","68","132957","0.0-30.0-1.0","","null","<div style=""display: flex; flex-direction: column; align-items: center; margin-top: -40px;""><img src=""images/pattern_6.png"" style=""width: 234px; height: 230px; margin-top: -50px;""><div style=""display: flex; justify-content: space-between; margin-top: 33px;""><img src=""images/choice_trial_10.png"" style=""width: 408px; height: 417px; margin-right: 608px;""></div></div>","null","delaylearn","learning","display_response","62d6dcf502178276f7fba480","rSbQ0cbLAmWNuyUmUETtLZDn6ex1","","","","","","","","","","","","","","","","","chosen stimuli: images/choice_trial_10.png","","","",""
"html-keyboard-response","69","133722","0.0-30.0-2.0","","null","","null","delaylearn","learning","feedback_duration_window","62d6dcf502178276f7fba480","rSbQ0cbLAmWNuyUmUETtLZDn6ex1","","","","","","","","","","","","","","","","","","750","","",""
"html-keyboard-response","70","135239","0.0-30.0-3.0","","null","<div style='margin:auto;width: auto; font-size: 150%'><span style='font-weight: bold; font-size: 100px; color: red;'>0 points!</span><br><br></div>","null","delaylearn","learning","feedback_image_window","62d6dcf502178276f7fba480","rSbQ0cbLAmWNuyUmUETtLZDn6ex1","","","","","","","","","","","","","","","","","","","","",""
"html-keyboard-response","71","135757","0.0-31.0-0.0","","null","","null","","","mood_trial_fixation","","","","","","","","","","","","","","","","","","","","","","",""
"lmdlab-html-vas-response","72","139849","0.0-31.0-1.0","","3072","How happy are you right now?","0.5154561753705731","delaylearn","learning","mood_trial","62d6dcf502178276f7fba480","rSbQ0cbLAmWNuyUmUETtLZDn6ex1","","","","","","","","","","","","","","","","","","","","[""Very unhappy"",""Very happy""]",""
"html-keyboard-response","73","141989","0.0-32.0","","null","<div style=""font-size:100px;"">+</div>","null","delaylearn","learning","ITI","62d6dcf502178276f7fba480","rSbQ0cbLAmWNuyUmUETtLZDn6ex1","","","","","","","","","","","","","","","","","","","2136","",""
"html-keyboard-response","74","142658","0.0-33.0-0.0","","666.5","<div style=""display: flex; flex-direction: column; align-items: center; margin-top: -40px;""><img src=""images/pattern_1.png"" style=""width: 234px; height: 230px; margin-top: -50px;""><div style=""display: flex; justify-content: space-between; margin-top: 33px;""><img src=""images/choice_trial_9.png"" style=""width: 408px; height: 417px; margin-right: 200px;""><img src=""images/choice_trial_1.png"" style=""width: 408px; height: 417px;""></div></div>","f","delaylearn","learning","trial","62d6dcf502178276f7fba480","rSbQ0cbLAmWNuyUmUETtLZDn6ex1","4","images/choice_trial_9.png","images/choice_trial_1.png","images/pattern_1.png","j","j","7000","9","1","1","1","14","0","0","9","90","","","","",""
"html-keyboard-response","75","143671","0.0-33.0-1.0","","null","<div style=""display: flex; flex-direction: column; align-items: center; margin-top: -40px;""><img src=""images/pattern_1.png"" style=""width: 234px; height: 230px; margin-top: -50px;""><div style=""display: flex; justify-content: space-between; margin-top: 33px;""><img src=""images/choice_trial_9.png"" style=""width: 408px; height: 417px; margin-right: 608px;""></div></div>","null","delaylearn","learning","display_response","62d6dcf502178276f7fba480","rSbQ0cbLAmWNuyUmUETtLZDn6ex1","","","","","","","","","","","","","","","","","chosen stimuli: images/choice_trial_9.png","","","",""
"html-keyboard-response","76","150689","0.0-33.0-2.0","","null","","null","delaylearn","learning","feedback_duration_window","62d6dcf502178276f7fba480","rSbQ0cbLAmWNuyUmUETtLZDn6ex1","","","","","","","","","","","","","","","","","","7000","","",""
"html-keyboard-response","77","152206","0.0-33.0-3.0","","null","<div style='margin:auto;width: auto; font-size: 150%'><span style='font-weight: bold; font-size: 100px; color: red;'>0 points!</span><br><br></div>","null","delaylearn","learning","feedback_image_window","62d6dcf502178276f7fba480","rSbQ0cbLAmWNuyUmUETtLZDn6ex1","","","","","","","","","","","","","","","","","","","","",""
"html-keyboard-response","78","154068","0.0-34.0","","null","<div style=""font-size:100px;"">+</div>","null","delaylearn","learning","ITI","62d6dcf502178276f7fba480","rSbQ0cbLAmWNuyUmUETtLZDn6ex1","","","","","","","","","","","","","","","","","","","1847","",""
"html-keyboard-response","79","154885","0.0-35.0-0.0","","814.5","<div style=""display: flex; flex-direction: column; align-items: center; margin-top: -40px;""><img src=""images/pattern_3.png"" style=""width: 234px; height: 230px; margin-top: -50px;""><div style=""display: flex; justify-content: space-between; margin-top: 33px;""><img src=""images/choice_trial_6.png"" style=""width: 408px; height: 417px; margin-right: 200px;""><img src=""images/choice_trial_16.png"" style=""width: 408px; height: 417px;""></div></div>","j","delaylearn","learning","trial","62d6dcf502178276f7fba480","rSbQ0cbLAmWNuyUmUETtLZDn6ex1","4","images/choice_trial_6.png","images/choice_trial_16.png","images/pattern_3.png","f","j","7000","6","16","2","1","15","1","0","16","90","","","","",""
"html-keyboard-response","80","155904","0.0-35.0-1.0","","null","<div style=""display: flex; flex-direction: column; align-items: center; margin-top: -40px;""><img src=""images/pattern_3.png"" style=""width: 234px; height: 230px; margin-top: -50px;""><div style=""display: flex; justify-content: space-between; margin-top: 33px;""><img src=""images/choice_trial_16.png"" style=""width: 408px; height: 417px; margin-left:608px;""></div></div>","null","delaylearn","learning","display_response","62d6dcf502178276f7fba480","rSbQ0cbLAmWNuyUmUETtLZDn6ex1","","","","","","","","","","","","","","","","","chosen stimuli: images/choice_trial_16.png","","","",""
"html-keyboard-response","81","162923","0.0-35.0-2.0","","null","","null","delaylearn","learning","feedback_duration_window","62d6dcf502178276f7fba480","rSbQ0cbLAmWNuyUmUETtLZDn6ex1","","","","","","","","","","","","","","","","","","7000","","",""
"html-keyboard-response","82","164439","0.0-35.0-3.0","","null","<div style='margin:auto;width: auto; font-size: 150%'><span style='font-weight: bold; font-size: 100px; color: red;'>0 points!</span><br><br></div>","null","delaylearn","learning","feedback_image_window","62d6dcf502178276f7fba480","rSbQ0cbLAmWNuyUmUETtLZDn6ex1","","","","","","","","","","","","","","","","","","","","",""
"html-keyboard-response","83","166055","0.0-36.0","","null","<div style=""font-size:100px;"">+</div>","null","delaylearn","learning","ITI","62d6dcf502178276f7fba480","rSbQ0cbLAmWNuyUmUETtLZDn6ex1","","","","","","","","","","","","","","","","","","","1613","",""
"html-keyboard-response","84","166919","0.0-37.0-0.0","","862.4000000357628","<div style=""display: flex; flex-direction: column; align-items: center; margin-top: -40px;""><img src=""images/pattern_5.png"" style=""width: 234px; height: 230px; margin-top: -50px;""><div style=""display: flex; justify-content: space-between; margin-top: 33px;""><img src=""images/choice_trial_5.png"" style=""width: 408px; height: 417px; margin-right: 200px;""><img src=""images/choice_trial_15.png"" style=""width: 408px; height: 417px;""></div></div>","f","delaylearn","learning","trial","62d6dcf502178276f7fba480","rSbQ0cbLAmWNuyUmUETtLZDn6ex1","4","images/choice_trial_5.png","images/choice_trial_15.png","images/pattern_5.png","f","f","750","5","15","4","0","16","1","1","5","100","","","","",""
"html-keyboard-response","85","167923","0.0-37.0-1.0","","null","<div style=""display: flex; flex-direction: column; align-items: center; margin-top: -40px;""><img src=""images/pattern_5.png"" style=""width: 234px; height: 230px; margin-top: -50px;""><div style=""display: flex; justify-content: space-between; margin-top: 33px;""><img src=""images/choice_trial_5.png"" style=""width: 408px; height: 417px; margin-right: 608px;""></div></div>","null","delaylearn","learning","display_response","62d6dcf502178276f7fba480","rSbQ0cbLAmWNuyUmUETtLZDn6ex1","","","","","","","","","","","","","","","","","chosen stimuli: images/choice_trial_5.png","","","",""
"html-keyboard-response","86","168687","0.0-37.0-2.0","","null","","null","delaylearn","learning","feedback_duration_window","62d6dcf502178276f7fba480","rSbQ0cbLAmWNuyUmUETtLZDn6ex1","","","","","","","","","","","","","","","","","","750","","",""
"html-keyboard-response","87","170189","0.0-37.0-3.0","","null","<div style='margin:auto;width: auto; font-size: 150%'><span style='font-weight: bold; font-size: 100px; color: green;'>+10 points!</span><br><br></div>","null","delaylearn","learning","feedback_image_window","62d6dcf502178276f7fba480","rSbQ0cbLAmWNuyUmUETtLZDn6ex1","","","","","","","","","","","","","","","","","","","","",""
"html-keyboard-response","88","170705","0.0-38.0-0.0","","null","","null","","","mood_trial_fixation","","","","","","","","","","","","","","","","","","","","","","",""
"lmdlab-html-vas-response","89","174665","0.0-38.0-1.0","","2956","How happy are you right now?","0.5115981508609089","delaylearn","learning","mood_trial","62d6dcf502178276f7fba480","rSbQ0cbLAmWNuyUmUETtLZDn6ex1","","","","","","","","","","","","","","","","","","","","[""Very unhappy"",""Very happy""]",""
"html-keyboard-response","90","176257","0.0-39.0","","null","<div style=""font-size:100px;"">+</div>","null","delaylearn","learning","ITI","62d6dcf502178276f7fba480","rSbQ0cbLAmWNuyUmUETtLZDn6ex1","","","","","","","","","","","","","","","","","","","1586","",""
"html-keyboard-response","91","177006","0.0-40.0-0.0","","745.6999999880791","<div style=""display: flex; flex-direction: column; align-items: center; margin-top: -40px;""><img src=""images/pattern_6.png"" style=""width: 234px; height: 230px; margin-top: -50px;""><div style=""display: flex; justify-content: space-between; margin-top: 33px;""><img src=""images/choice_trial_10.png"" style=""width: 408px; height: 417px; margin-right: 200px;""><img src=""images/choice_trial_3.png"" style=""width: 408px; height: 417px;""></div></div>","f","delaylearn","learning","trial","62d6dcf502178276f7fba480","rSbQ0cbLAmWNuyUmUETtLZDn6ex1","4","images/choice_trial_10.png","images/choice_trial_3.png","images/pattern_6.png","f","f","750","10","3","5","0","17","1","1","10","110","","","","",""
"html-keyboard-response","92","178022","0.0-40.0-1.0","","null","<div style=""display: flex; flex-direction: column; align-items: center; margin-top: -40px;""><img src=""images/pattern_6.png"" style=""width: 234px; height: 230px; margin-top: -50px;""><div style=""display: flex; justify-content: space-between; margin-top: 33px;""><img src=""images/choice_trial_10.png"" style=""width: 408px; height: 417px; margin-right: 608px;""></div></div>","null","delaylearn","learning","display_response","62d6dcf502178276f7fba480","rSbQ0cbLAmWNuyUmUETtLZDn6ex1","","","","","","","","","","","","","","","","","chosen stimuli: images/choice_trial_10.png","","","",""
"html-keyboard-response","93","178788","0.0-40.0-2.0","","null","","null","delaylearn","learning","feedback_duration_window","62d6dcf502178276f7fba480","rSbQ0cbLAmWNuyUmUETtLZDn6ex1","","","","","","","","","","","","","","","","","","750","","",""
"html-keyboard-response","94","180307","0.0-40.0-3.0","","null","<div style='margin:auto;width: auto; font-size: 150%'><span style='font-weight: bold; font-size: 100px; color: green;'>+10 points!</span><br><br></div>","null","delaylearn","learning","feedback_image_window","62d6dcf502178276f7fba480","rSbQ0cbLAmWNuyUmUETtLZDn6ex1","","","","","","","","","","","","","","","","","","","","",""
"html-keyboard-response","95","182773","0.0-41.0","","null","<div style=""font-size:100px;"">+</div>","null","delaylearn","learning","ITI","62d6dcf502178276f7fba480","rSbQ0cbLAmWNuyUmUETtLZDn6ex1","","","","","","","","","","","","","","","","","","","2449","",""
"html-keyboard-response","96","183560","0.0-42.0-0.0","","785.5","<div style=""display: flex; flex-direction: column; align-items: center; margin-top: -40px;""><img src=""images/pattern_4.png"" style=""width: 234px; height: 230px; margin-top: -50px;""><div style=""display: flex; justify-content: space-between; margin-top: 33px;""><img src=""images/choice_trial_7.png"" style=""width: 408px; height: 417px; margin-right: 200px;""><img src=""images/choice_trial_8.png"" style=""width: 408px; height: 417px;""></div></div>","f","delaylearn","learning","trial","62d6dcf502178276f7fba480","rSbQ0cbLAmWNuyUmUETtLZDn6ex1","4","images/choice_trial_7.png","images/choice_trial_8.png","images/pattern_4.png","j","j","7000","7","8","3","1","18","0","0","7","110","","","","",""
"html-keyboard-response","97","184571","0.0-42.0-1.0","","null","<div style=""display: flex; flex-direction: column; align-items: center; margin-top: -40px;""><img src=""images/pattern_4.png"" style=""width: 234px; height: 230px; margin-top: -50px;""><div style=""display: flex; justify-content: space-between; margin-top: 33px;""><img src=""images/choice_trial_7.png"" style=""width: 408px; height: 417px; margin-right: 608px;""></div></div>","null","delaylearn","learning","display_response","62d6dcf502178276f7fba480","rSbQ0cbLAmWNuyUmUETtLZDn6ex1","","","","","","","","","","","","","","","","","chosen stimuli: images/choice_trial_7.png","","","",""
"html-keyboard-response","98","191573","0.0-42.0-2.0","","null","","null","delaylearn","learning","feedback_duration_window","62d6dcf502178276f7fba480","rSbQ0cbLAmWNuyUmUETtLZDn6ex1","","","","","","","","","","","","","","","","","","7000","","",""
"html-keyboard-response","99","193089","0.0-42.0-3.0","","null","<div style='margin:auto;width: auto; font-size: 150%'><span style='font-weight: bold; font-size: 100px; color: red;'>0 points!</span><br><br></div>","null","delaylearn","learning","feedback_image_window","62d6dcf502178276f7fba480","rSbQ0cbLAmWNuyUmUETtLZDn6ex1","","","","","","","","","","","","","","","","","","","","",""
"html-keyboard-response","100","194855","0.0-43.0","","null","<div style=""font-size:100px;"">+</div>","null","delaylearn","learning","ITI","62d6dcf502178276f7fba480","rSbQ0cbLAmWNuyUmUETtLZDn6ex1","","","","","","","","","","","","","","","","","","","1752","",""
"html-keyboard-response","101","195541","0.0-44.0-0.0","","682.8000000119209","<div style=""display: flex; flex-direction: column; align-items: center; margin-top: -40px;""><img src=""images/pattern_7.png"" style=""width: 234px; height: 230px; margin-top: -50px;""><div style=""display: flex; justify-content: space-between; margin-top: 33px;""><img src=""images/choice_trial_13.png"" style=""width: 408px; height: 417px; margin-right: 200px;""><img src=""images/choice_trial_4.png"" style=""width: 408px; height: 417px;""></div></div>","f","delaylearn","learning","trial","62d6dcf502178276f7fba480","rSbQ0cbLAmWNuyUmUETtLZDn6ex1","4","images/choice_trial_13.png","images/choice_trial_4.png","images/pattern_7.png","j","f","750","13","4","6","0","19","1","0","13","110","","","","",""
"html-keyboard-response","102","196555","0.0-44.0-1.0","","null","<div style=""display: flex; flex-direction: column; align-items: center; margin-top: -40px;""><img src=""images/pattern_7.png"" style=""width: 234px; height: 230px; margin-top: -50px;""><div style=""display: flex; justify-content: space-between; margin-top: 33px;""><img src=""images/choice_trial_13.png"" style=""width: 408px; height: 417px; margin-right: 608px;""></div></div>","null","delaylearn","learning","display_response","62d6dcf502178276f7fba480","rSbQ0cbLAmWNuyUmUETtLZDn6ex1","","","","","","","","","","","","","","","","","chosen stimuli: images/choice_trial_13.png","","","",""
"html-keyboard-response","103","197323","0.0-44.0-2.0","","null","","null","delaylearn","learning","feedback_duration_window","62d6dcf502178276f7fba480","rSbQ0cbLAmWNuyUmUETtLZDn6ex1","","","","","","","","","","","","","","","","","","750","","",""
"html-keyboard-response","104","198839","0.0-44.0-3.0","","null","<div style='margin:auto;width: auto; font-size: 150%'><span style='font-weight: bold; font-size: 100px; color: red;'>0 points!</span><br><br></div>","null","delaylearn","learning","feedback_image_window","62d6dcf502178276f7fba480","rSbQ0cbLAmWNuyUmUETtLZDn6ex1","","","","","","","","","","","","","","","","","","","","",""
"html-keyboard-response","105","200523","0.0-45.0","","null","<div style=""font-size:100px;"">+</div>","null","delaylearn","learning","ITI","62d6dcf502178276f7fba480","rSbQ0cbLAmWNuyUmUETtLZDn6ex1","","","","","","","","","","","","","","","","","","","1665","",""
"html-keyboard-response","106","201489","0.0-46.0-0.0","","963.6000000238419","<div style=""display: flex; flex-direction: column; align-items: center; margin-top: -40px;""><img src=""images/pattern_1.png"" style=""width: 234px; height: 230px; margin-top: -50px;""><div style=""display: flex; justify-content: space-between; margin-top: 33px;""><img src=""images/choice_trial_1.png"" style=""width: 408px; height: 417px; margin-right: 200px;""><img src=""images/choice_trial_9.png"" style=""width: 408px; height: 417px;""></div></div>","j","delaylearn","learning","trial","62d6dcf502178276f7fba480","rSbQ0cbLAmWNuyUmUETtLZDn6ex1","4","images/choice_trial_1.png","images/choice_trial_9.png","images/pattern_1.png","f","f","7000","1","9","1","0","20","0","0","9","110","","","","",""
"html-keyboard-response","107","202507","0.0-46.0-1.0","","null","<div style=""display: flex; flex-direction: column; align-items: center; margin-top: -40px;""><img src=""images/pattern_1.png"" style=""width: 234px; height: 230px; margin-top: -50px;""><div style=""display: flex; justify-content: space-between; margin-top: 33px;""><img src=""images/choice_trial_9.png"" style=""width: 408px; height: 417px; margin-left:608px;""></div></div>","null","delaylearn","learning","display_response","62d6dcf502178276f7fba480","rSbQ0cbLAmWNuyUmUETtLZDn6ex1","","","","","","","","","","","","","","","","","chosen stimuli: images/choice_trial_9.png","","","",""
"html-keyboard-response","108","209521","0.0-46.0-2.0","","null","","null","delaylearn","learning","feedback_duration_window","62d6dcf502178276f7fba480","rSbQ0cbLAmWNuyUmUETtLZDn6ex1","","","","","","","","","","","","","","","","","","7000","","",""
"html-keyboard-response","109","211038","0.0-46.0-3.0","","null","<div style='margin:auto;width: auto; font-size: 150%'><span style='font-weight: bold; font-size: 100px; color: red;'>0 points!</span><br><br></div>","null","delaylearn","learning","feedback_image_window","62d6dcf502178276f7fba480","rSbQ0cbLAmWNuyUmUETtLZDn6ex1","","","","","","","","","","","","","","","","","","","","",""
"html-keyboard-response","110","212587","0.0-47.0","","null","<div style=""font-size:100px;"">+</div>","null","delaylearn","learning","ITI","62d6dcf502178276f7fba480","rSbQ0cbLAmWNuyUmUETtLZDn6ex1","","","","","","","","","","","","","","","","","","","1537","",""
"html-keyboard-response","111","213127","0.0-48.0-0.0","","537.2999999523163","<div style=""display: flex; flex-direction: column; align-items: center; margin-top: -40px;""><img src=""images/pattern_6.png"" style=""width: 234px; height: 230px; margin-top: -50px;""><div style=""display: flex; justify-content: space-between; margin-top: 33px;""><img src=""images/choice_trial_3.png"" style=""width: 408px; height: 417px; margin-right: 200px;""><img src=""images/choice_trial_10.png"" style=""width: 408px; height: 417px;""></div></div>","f","delaylearn","learning","trial","62d6dcf502178276f7fba480","rSbQ0cbLAmWNuyUmUETtLZDn6ex1","4","images/choice_trial_3.png","images/choice_trial_10.png","images/pattern_6.png","j","j","750","3","10","5","1","21","0","0","3","110","","","","",""
"html-keyboard-response","112","214140","0.0-48.0-1.0","","null","<div style=""display: flex; flex-direction: column; align-items: center; margin-top: -40px;""><img src=""images/pattern_6.png"" style=""width: 234px; height: 230px; margin-top: -50px;""><div style=""display: flex; justify-content: space-between; margin-top: 33px;""><img src=""images/choice_trial_3.png"" style=""width: 408px; height: 417px; margin-right: 608px;""></div></div>","null","delaylearn","learning","display_response","62d6dcf502178276f7fba480","rSbQ0cbLAmWNuyUmUETtLZDn6ex1","","","","","","","","","","","","","","","","","chosen stimuli: images/choice_trial_3.png","","","",""
"html-keyboard-response","113","214908","0.0-48.0-2.0","","null","","null","delaylearn","learning","feedback_duration_window","62d6dcf502178276f7fba480","rSbQ0cbLAmWNuyUmUETtLZDn6ex1","","","","","","","","","","","","","","","","","","750","","",""
"html-keyboard-response","114","216425","0.0-48.0-3.0","","null","<div style='margin:auto;width: auto; font-size: 150%'><span style='font-weight: bold; font-size: 100px; color: red;'>0 points!</span><br><br></div>","null","delaylearn","learning","feedback_image_window","62d6dcf502178276f7fba480","rSbQ0cbLAmWNuyUmUETtLZDn6ex1","","","","","","","","","","","","","","","","","","","","",""
"html-keyboard-response","115","218154","0.0-49.0","","null","<div style=""font-size:100px;"">+</div>","null","delaylearn","learning","ITI","62d6dcf502178276f7fba480","rSbQ0cbLAmWNuyUmUETtLZDn6ex1","","","","","","","","","","","","","","","","","","","1712","",""
"html-keyboard-response","116","218824","0.0-50.0-0.0","","665.8999999761581","<div style=""display: flex; flex-direction: column; align-items: center; margin-top: -40px;""><img src=""images/pattern_4.png"" style=""width: 234px; height: 230px; margin-top: -50px;""><div style=""display: flex; justify-content: space-between; margin-top: 33px;""><img src=""images/choice_trial_8.png"" style=""width: 408px; height: 417px; margin-right: 200px;""><img src=""images/choice_trial_7.png"" style=""width: 408px; height: 417px;""></div></div>","j","delaylearn","learning","trial","62d6dcf502178276f7fba480","rSbQ0cbLAmWNuyUmUETtLZDn6ex1","4","images/choice_trial_8.png","images/choice_trial_7.png","images/pattern_4.png","f","f","7000","8","7","3","0","22","0","0","7","110","","","","",""
"html-keyboard-response","117","219837","0.0-50.0-1.0","","null","<div style=""display: flex; flex-direction: column; align-items: center; margin-top: -40px;""><img src=""images/pattern_4.png"" style=""width: 234px; height: 230px; margin-top: -50px;""><div style=""display: flex; justify-content: space-between; margin-top: 33px;""><img src=""images/choice_trial_7.png"" style=""width: 408px; height: 417px; margin-left:608px;""></div></div>","null","delaylearn","learning","display_response","62d6dcf502178276f7fba480","rSbQ0cbLAmWNuyUmUETtLZDn6ex1","","","","","","","","","","","","","","","","","chosen stimuli: images/choice_trial_7.png","","","",""
"html-keyboard-response","118","226840","0.0-50.0-2.0","","null","","null","delaylearn","learning","feedback_duration_window","62d6dcf502178276f7fba480","rSbQ0cbLAmWNuyUmUETtLZDn6ex1","","","","","","","","","","","","","","","","","","7000","","",""
"html-keyboard-response","119","228354","0.0-50.0-3.0","","null","<div style='margin:auto;width: auto; font-size: 150%'><span style='font-weight: bold; font-size: 100px; color: red;'>0 points!</span><br><br></div>","null","delaylearn","learning","feedback_image_window","62d6dcf502178276f7fba480","rSbQ0cbLAmWNuyUmUETtLZDn6ex1","","","","","","","","","","","","","","","","","","","","",""
"html-keyboard-response","120","228871","0.0-51.0-0.0","","null","","null","","","mood_trial_fixation","","","","","","","","","","","","","","","","","","","","","","",""
"lmdlab-html-vas-response","121","232665","0.0-51.0-1.0","","2774","How happy are you right now?","0.46915988125460206","delaylearn","learning","mood_trial","62d6dcf502178276f7fba480","rSbQ0cbLAmWNuyUmUETtLZDn6ex1","","","","","","","","","","","","","","","","","","","","[""Very unhappy"",""Very happy""]",""
"html-keyboard-response","122","235168","0.0-52.0","","null","<div style=""font-size:100px;"">+</div>","null","delaylearn","learning","ITI","62d6dcf502178276f7fba480","rSbQ0cbLAmWNuyUmUETtLZDn6ex1","","","","","","","","","","","","","","","","","","","2491","",""
"html-keyboard-response","123","236350","0.0-53.0-0.0","","1177.9000000357628","<div style=""display: flex; flex-direction: column; align-items: center; margin-top: -40px;""><img src=""images/pattern_7.png"" style=""width: 234px; height: 230px; margin-top: -50px;""><div style=""display: flex; justify-content: space-between; margin-top: 33px;""><img src=""images/choice_trial_4.png"" style=""width: 408px; height: 417px; margin-right: 200px;""><img src=""images/choice_trial_13.png"" style=""width: 408px; height: 417px;""></div></div>","j","delaylearn","learning","trial","62d6dcf502178276f7fba480","rSbQ0cbLAmWNuyUmUETtLZDn6ex1","4","images/choice_trial_4.png","images/choice_trial_13.png","images/pattern_7.png","j","j","750","4","13","6","1","23","1","1","13","120","","","","",""
"html-keyboard-response","124","237355","0.0-53.0-1.0","","null","<div style=""display: flex; flex-direction: column; align-items: center; margin-top: -40px;""><img src=""images/pattern_7.png"" style=""width: 234px; height: 230px; margin-top: -50px;""><div style=""display: flex; justify-content: space-between; margin-top: 33px;""><img src=""images/choice_trial_13.png"" style=""width: 408px; height: 417px; margin-left:608px;""></div></div>","null","delaylearn","learning","display_response","62d6dcf502178276f7fba480","rSbQ0cbLAmWNuyUmUETtLZDn6ex1","","","","","","","","","","","","","","","","","chosen stimuli: images/choice_trial_13.png","","","",""
"html-keyboard-response","125","238107","0.0-53.0-2.0","","null","","null","delaylearn","learning","feedback_duration_window","62d6dcf502178276f7fba480","rSbQ0cbLAmWNuyUmUETtLZDn6ex1","","","","","","","","","","","","","","","","","","750","","",""
"html-keyboard-response","126","239622","0.0-53.0-3.0","","null","<div style='margin:auto;width: auto; font-size: 150%'><span style='font-weight: bold; font-size: 100px; color: green;'>+10 points!</span><br><br></div>","null","delaylearn","learning","feedback_image_window","62d6dcf502178276f7fba480","rSbQ0cbLAmWNuyUmUETtLZDn6ex1","","","","","","","","","","","","","","","","","","","","",""
"html-keyboard-response","127","241673","0.0-54.0","","null","<div style=""font-size:100px;"">+</div>","null","delaylearn","learning","ITI","62d6dcf502178276f7fba480","rSbQ0cbLAmWNuyUmUETtLZDn6ex1","","","","","","","","","","","","","","","","","","","2034","",""
"html-keyboard-response","128","242548","0.0-55.0-0.0","","872.5","<div style=""display: flex; flex-direction: column; align-items: center; margin-top: -40px;""><img src=""images/pattern_1.png"" style=""width: 234px; height: 230px; margin-top: -50px;""><div style=""display: flex; justify-content: space-between; margin-top: 33px;""><img src=""images/choice_trial_9.png"" style=""width: 408px; height: 417px; margin-right: 200px;""><img src=""images/choice_trial_1.png"" style=""width: 408px; height: 417px;""></div></div>","j","delaylearn","learning","trial","62d6dcf502178276f7fba480","rSbQ0cbLAmWNuyUmUETtLZDn6ex1","4","images/choice_trial_9.png","images/choice_trial_1.png","images/pattern_1.png","f","j","7000","9","1","1","1","24","1","0","1","120","","","","",""
"html-keyboard-response","129","243554","0.0-55.0-1.0","","null","<div style=""display: flex; flex-direction: column; align-items: center; margin-top: -40px;""><img src=""images/pattern_1.png"" style=""width: 234px; height: 230px; margin-top: -50px;""><div style=""display: flex; justify-content: space-between; margin-top: 33px;""><img src=""images/choice_trial_1.png"" style=""width: 408px; height: 417px; margin-left:608px;""></div></div>","null","delaylearn","learning","display_response","62d6dcf502178276f7fba480","rSbQ0cbLAmWNuyUmUETtLZDn6ex1","","","","","","","","","","","","","","","","","chosen stimuli: images/choice_trial_1.png","","","",""
"html-keyboard-response","130","250571","0.0-55.0-2.0","","null","","null","delaylearn","learning","feedback_duration_window","62d6dcf502178276f7fba480","rSbQ0cbLAmWNuyUmUETtLZDn6ex1","","","","","","","","","","","","","","","","","","7000","","",""
"html-keyboard-response","131","252074","0.0-55.0-3.0","","null","<div style='margin:auto;width: auto; font-size: 150%'><span style='font-weight: bold; font-size: 100px; color: red;'>0 points!</span><br><br></div>","null","delaylearn","learning","feedback_image_window","62d6dcf502178276f7fba480","rSbQ0cbLAmWNuyUmUETtLZDn6ex1","","","","","","","","","","","","","","","","","","","","",""
"html-keyboard-response","132","254573","0.0-56.0","","null","<div style=""font-size:100px;"">+</div>","null","delaylearn","learning","ITI","62d6dcf502178276f7fba480","rSbQ0cbLAmWNuyUmUETtLZDn6ex1","","","","","","","","","","","","","","","","","","","2483","",""
"html-keyboard-response","133","255556","0.0-57.0-0.0","","980.1000000238419","<div style=""display: flex; flex-direction: column; align-items: center; margin-top: -40px;""><img src=""images/pattern_5.png"" style=""width: 234px; height: 230px; margin-top: -50px;""><div style=""display: flex; justify-content: space-between; margin-top: 33px;""><img src=""images/choice_trial_15.png"" style=""width: 408px; height: 417px; margin-right: 200px;""><img src=""images/choice_trial_5.png"" style=""width: 408px; height: 417px;""></div></div>","f","delaylearn","learning","trial","62d6dcf502178276f7fba480","rSbQ0cbLAmWNuyUmUETtLZDn6ex1","4","images/choice_trial_15.png","images/choice_trial_5.png","images/pattern_5.png","j","j","750","15","5","4","1","25","0","0","15","120","","","","",""
"html-keyboard-response","134","256572","0.0-57.0-1.0","","null","<div style=""display: flex; flex-direction: column; align-items: center; margin-top: -40px;""><img src=""images/pattern_5.png"" style=""width: 234px; height: 230px; margin-top: -50px;""><div style=""display: flex; justify-content: space-between; margin-top: 33px;""><img src=""images/choice_trial_15.png"" style=""width: 408px; height: 417px; margin-right: 608px;""></div></div>","null","delaylearn","learning","display_response","62d6dcf502178276f7fba480","rSbQ0cbLAmWNuyUmUETtLZDn6ex1","","","","","","","","","","","","","","","","","chosen stimuli: images/choice_trial_15.png","","","",""
"html-keyboard-response","135","257338","0.0-57.0-2.0","","null","","null","delaylearn","learning","feedback_duration_window","62d6dcf502178276f7fba480","rSbQ0cbLAmWNuyUmUETtLZDn6ex1","","","","","","","","","","","","","","","","","","750","","",""
"html-keyboard-response","136","258855","0.0-57.0-3.0","","null","<div style='margin:auto;width: auto; font-size: 150%'><span style='font-weight: bold; font-size: 100px; color: red;'>0 points!</span><br><br></div>","null","delaylearn","learning","feedback_image_window","62d6dcf502178276f7fba480","rSbQ0cbLAmWNuyUmUETtLZDn6ex1","","","","","","","","","","","","","","","","","","","","",""
"html-keyboard-response","137","260909","0.0-58.0","","null","<div style=""font-size:100px;"">+</div>","null","delaylearn","learning","ITI","62d6dcf502178276f7fba480","rSbQ0cbLAmWNuyUmUETtLZDn6ex1","","","","","","","","","","","","","","","","","","","2038","",""
"html-keyboard-response","138","261732","0.0-59.0-0.0","","821.5","<div style=""display: flex; flex-direction: column; align-items: center; margin-top: -40px;""><img src=""images/pattern_3.png"" style=""width: 234px; height: 230px; margin-top: -50px;""><div style=""display: flex; justify-content: space-between; margin-top: 33px;""><img src=""images/choice_trial_6.png"" style=""width: 408px; height: 417px; margin-right: 200px;""><img src=""images/choice_trial_16.png"" style=""width: 408px; height: 417px;""></div></div>","f","delaylearn","learning","trial","62d6dcf502178276f7fba480","rSbQ0cbLAmWNuyUmUETtLZDn6ex1","4","images/choice_trial_6.png","images/choice_trial_16.png","images/pattern_3.png","j","j","7000","6","16","2","1","26","0","0","6","120","","","","",""
"html-keyboard-response","139","262739","0.0-59.0-1.0","","null","<div style=""display: flex; flex-direction: column; align-items: center; margin-top: -40px;""><img src=""images/pattern_3.png"" style=""width: 234px; height: 230px; margin-top: -50px;""><div style=""display: flex; justify-content: space-between; margin-top: 33px;""><img src=""images/choice_trial_6.png"" style=""width: 408px; height: 417px; margin-right: 608px;""></div></div>","null","delaylearn","learning","display_response","62d6dcf502178276f7fba480","rSbQ0cbLAmWNuyUmUETtLZDn6ex1","","","","","","","","","","","","","","","","","chosen stimuli: images/choice_trial_6.png","","","",""
"html-keyboard-response","140","269755","0.0-59.0-2.0","","null","","null","delaylearn","learning","feedback_duration_window","62d6dcf502178276f7fba480","rSbQ0cbLAmWNuyUmUETtLZDn6ex1","","","","","","","","","","","","","","","","","","7000","","",""
"html-keyboard-response","141","271271","0.0-59.0-3.0","","null","<div style='margin:auto;width: auto; font-size: 150%'><span style='font-weight: bold; font-size: 100px; color: red;'>0 points!</span><br><br></div>","null","delaylearn","learning","feedback_image_window","62d6dcf502178276f7fba480","rSbQ0cbLAmWNuyUmUETtLZDn6ex1","","","","","","","","","","","","","","","","","","","","",""
"lmdlab-html-vas-response","142","276286","0.0-60.0-0.0","","3503","*How <b><u>confident</u></b> are you feeling about your answers at this moment?*","0.31867278917699793","rewlearn","rate_confidence","","62d6dcf502178276f7fba480","rSbQ0cbLAmWNuyUmUETtLZDn6ex1","","","","","","","","","","","","","","","","","","","","[""No confidence"",""Complete confidence""]",""
"lmdlab-rest-trial-limit","143","562941","0.0-60.0-1.0","","285142.89999997616","<div style=""font-size:40px;""><b>Please take a break!</b><br><br><br><br><p>Great work: you earned 120 points.<br><br><br><p>You have completed part(s) 1 of 5.<br><br><br><br>When you are ready to continue<br><br><br>please click the button.</p><br><br>","0","delaylearn","learning","break","62d6dcf502178276f7fba480","rSbQ0cbLAmWNuyUmUETtLZDn6ex1","","","","","","","","","","","","","","","","","","","","","0"
"html-keyboard-response","144","565959","0.0-60.0-2.0","","null","<div style=""font-size:100px;"">+</div>","null","delaylearn","learning","pre_fixation","62d6dcf502178276f7fba480","","","","","","","","","","","","","","","","","","","","","",""
"lmdlab-html-vas-response","145","570466","0.0-60.0-3.0-0.0","","3490","How happy are you right now?","0.4942370405674197","delaylearn","learning","mood_baseline","62d6dcf502178276f7fba480","rSbQ0cbLAmWNuyUmUETtLZDn6ex1","","","","","","","","","","","","","","","","","","","","[""Very unhappy"",""Very happy""]",""
"html-keyboard-response","146","571973","0.0-60.0-3.0-1.0","","null","","null","","","mood_baseline_fixation","","","","","","","","","","","","","","","","","","","","","","",""
"html-keyboard-response","147","573674","0.0-61.0","","null","<div style=""font-size:100px;"">+</div>","null","delaylearn","learning","ITI","62d6dcf502178276f7fba480","rSbQ0cbLAmWNuyUmUETtLZDn6ex1","","","","","","","","","","","","","","","","","","","1690","",""
"html-keyboard-response","148","574590","0.0-62.0-0.0","","913.5","<div style=""display: flex; flex-direction: column; align-items: center; margin-top: -40px;""><img src=""images/pattern_7.png"" style=""width: 234px; height: 230px; margin-top: -50px;""><div style=""display: flex; justify-content: space-between; margin-top: 33px;""><img src=""images/choice_trial_4.png"" style=""width: 408px; height: 417px; margin-right: 200px;""><img src=""images/choice_trial_13.png"" style=""width: 408px; height: 417px;""></div></div>","j","delaylearn","learning","trial","62d6dcf502178276f7fba480","rSbQ0cbLAmWNuyUmUETtLZDn6ex1","4","images/choice_trial_4.png","images/choice_trial_13.png","images/pattern_7.png","j","j","750","4","13","6","1","27","1","1","13","130","","","","",""
"html-keyboard-response","149","575607","0.0-62.0-1.0","","null","<div style=""display: flex; flex-direction: column; align-items: center; margin-top: -40px;""><img src=""images/pattern_7.png"" style=""width: 234px; height: 230px; margin-top: -50px;""><div style=""display: flex; justify-content: space-between; margin-top: 33px;""><img src=""images/choice_trial_13.png"" style=""width: 408px; height: 417px; margin-left:608px;""></div></div>","null","delaylearn","learning","display_response","62d6dcf502178276f7fba480","rSbQ0cbLAmWNuyUmUETtLZDn6ex1","","","","","","","","","","","","","","","","","chosen stimuli: images/choice_trial_13.png","","","",""
"html-keyboard-response","150","576376","0.0-62.0-2.0","","null","","null","delaylearn","learning","feedback_duration_window","62d6dcf502178276f7fba480","rSbQ0cbLAmWNuyUmUETtLZDn6ex1","","","","","","","","","","","","","","","","","","750","","",""
"html-keyboard-response","151","577891","0.0-62.0-3.0","","null","<div style='margin:auto;width: auto; font-size: 150%'><span style='font-weight: bold; font-size: 100px; color: green;'>+10 points!</span><br><br></div>","null","delaylearn","learning","feedback_image_window","62d6dcf502178276f7fba480","rSbQ0cbLAmWNuyUmUETtLZDn6ex1","","","","","","","","","","","","","","","","","","","","",""
"html-keyboard-response","152","578407","0.0-63.0-0.0","","null","","null","","","mood_trial_fixation","","","","","","","","","","","","","","","","","","","","","","",""
"lmdlab-html-vas-response","153","582030","0.0-63.0-1.0","","2619","How happy are you right now?","0.5231722243899016","delaylearn","learning","mood_trial","62d6dcf502178276f7fba480","rSbQ0cbLAmWNuyUmUETtLZDn6ex1","","","","","","","","","","","","","","","","","","","","[""Very unhappy"",""Very happy""]",""
"html-keyboard-response","154","584158","0.0-64.0","","null","<div style=""font-size:100px;"">+</div>","null","delaylearn","learning","ITI","62d6dcf502178276f7fba480","rSbQ0cbLAmWNuyUmUETtLZDn6ex1","","","","","","","","","","","","","","","","","","","2119","",""
"html-keyboard-response","155","585252","0.0-65.0-0.0","","1091.3999999761581","<div style=""display: flex; flex-direction: column; align-items: center; margin-top: -40px;""><img src=""images/pattern_1.png"" style=""width: 234px; height: 230px; margin-top: -50px;""><div style=""display: flex; justify-content: space-between; margin-top: 33px;""><img src=""images/choice_trial_1.png"" style=""width: 408px; height: 417px; margin-right: 200px;""><img src=""images/choice_trial_9.png"" style=""width: 408px; height: 417px;""></div></div>","j","delaylearn","learning","trial","62d6dcf502178276f7fba480","rSbQ0cbLAmWNuyUmUETtLZDn6ex1","4","images/choice_trial_1.png","images/choice_trial_9.png","images/pattern_1.png","f","f","7000","1","9","1","0","28","0","0","9","130","","","","",""
"html-keyboard-response","156","586268","0.0-65.0-1.0","","null","<div style=""display: flex; flex-direction: column; align-items: center; margin-top: -40px;""><img src=""images/pattern_1.png"" style=""width: 234px; height: 230px; margin-top: -50px;""><div style=""display: flex; justify-content: space-between; margin-top: 33px;""><img src=""images/choice_trial_9.png"" style=""width: 408px; height: 417px; margin-left:608px;""></div></div>","null","delaylearn","learning","display_response","62d6dcf502178276f7fba480","rSbQ0cbLAmWNuyUmUETtLZDn6ex1","","","","","","","","","","","","","","","","","chosen stimuli: images/choice_trial_9.png","","","",""
"html-keyboard-response","157","593292","0.0-65.0-2.0","","null","","null","delaylearn","learning","feedback_duration_window","62d6dcf502178276f7fba480","rSbQ0cbLAmWNuyUmUETtLZDn6ex1","","","","","","","","","","","","","","","","","","7000","","",""
"html-keyboard-response","158","594807","0.0-65.0-3.0","","null","<div style='margin:auto;width: auto; font-size: 150%'><span style='font-weight: bold; font-size: 100px; color: red;'>0 points!</span><br><br></div>","null","delaylearn","learning","feedback_image_window","62d6dcf502178276f7fba480","rSbQ0cbLAmWNuyUmUETtLZDn6ex1","","","","","","","","","","","","","","","","","","","","",""
"html-keyboard-response","159","596874","0.0-66.0","","null","<div style=""font-size:100px;"">+</div>","null","delaylearn","learning","ITI","62d6dcf502178276f7fba480","rSbQ0cbLAmWNuyUmUETtLZDn6ex1","","","","","","","","","","","","","","","","","","","2054","",""
"html-keyboard-response","160","597862","0.0-67.0-0.0","","985.1000000238419","<div style=""display: flex; flex-direction: column; align-items: center; margin-top: -40px;""><img src=""images/pattern_5.png"" style=""width: 234px; height: 230px; margin-top: -50px;""><div style=""display: flex; justify-content: space-between; margin-top: 33px;""><img src=""images/choice_trial_5.png"" style=""width: 408px; height: 417px; margin-right: 200px;""><img src=""images/choice_trial_15.png"" style=""width: 408px; height: 417px;""></div></div>","f","delaylearn","learning","trial","62d6dcf502178276f7fba480","rSbQ0cbLAmWNuyUmUETtLZDn6ex1","4","images/choice_trial_5.png","images/choice_trial_15.png","images/pattern_5.png","f","f","750","5","15","4","0","29","1","1","5","140","","","","",""
"html-keyboard-response","161","598874","0.0-67.0-1.0","","null","<div style=""display: flex; flex-direction: column; align-items: center; margin-top: -40px;""><img src=""images/pattern_5.png"" style=""width: 234px; height: 230px; margin-top: -50px;""><div style=""display: flex; justify-content: space-between; margin-top: 33px;""><img src=""images/choice_trial_5.png"" style=""width: 408px; height: 417px; margin-right: 608px;""></div></div>","null","delaylearn","learning","display_response","62d6dcf502178276f7fba480","rSbQ0cbLAmWNuyUmUETtLZDn6ex1","","","","","","","","","","","","","","","","","chosen stimuli: images/choice_trial_5.png","","","",""
"html-keyboard-response","162","599642","0.0-67.0-2.0","","null","","null","delaylearn","learning","feedback_duration_window","62d6dcf502178276f7fba480","rSbQ0cbLAmWNuyUmUETtLZDn6ex1","","","","","","","","","","","","","","","","","","750","","",""
"html-keyboard-response","163","601157","0.0-67.0-3.0","","null","<div style='margin:auto;width: auto; font-size: 150%'><span style='font-weight: bold; font-size: 100px; color: green;'>+10 points!</span><br><br></div>","null","delaylearn","learning","feedback_image_window","62d6dcf502178276f7fba480","rSbQ0cbLAmWNuyUmUETtLZDn6ex1","","","","","","","","","","","","","","","","","","","","",""
"html-keyboard-response","164","602706","0.0-68.0","","null","<div style=""font-size:100px;"">+</div>","null","delaylearn","learning","ITI","62d6dcf502178276f7fba480","rSbQ0cbLAmWNuyUmUETtLZDn6ex1","","","","","","","","","","","","","","","","","","","1533","",""
"html-keyboard-response","165","603497","0.0-69.0-0.0","","789.3999999761581","<div style=""display: flex; flex-direction: column; align-items: center; margin-top: -40px;""><img src=""images/pattern_6.png"" style=""width: 234px; height: 230px; margin-top: -50px;""><div style=""display: flex; justify-content: space-between; margin-top: 33px;""><img src=""images/choice_trial_3.png"" style=""width: 408px; height: 417px; margin-right: 200px;""><img src=""images/choice_trial_10.png"" style=""width: 408px; height: 417px;""></div></div>","j","delaylearn","learning","trial","62d6dcf502178276f7fba480","rSbQ0cbLAmWNuyUmUETtLZDn6ex1","4","images/choice_trial_3.png","images/choice_trial_10.png","images/pattern_6.png","j","j","750","3","10","5","1","30","1","1","10","150","","","","",""
"html-keyboard-response","166","604506","0.0-69.0-1.0","","null","<div style=""display: flex; flex-direction: column; align-items: center; margin-top: -40px;""><img src=""images/pattern_6.png"" style=""width: 234px; height: 230px; margin-top: -50px;""><div style=""display: flex; justify-content: space-between; margin-top: 33px;""><img src=""images/choice_trial_10.png"" style=""width: 408px; height: 417px; margin-left:608px;""></div></div>","null","delaylearn","learning","display_response","62d6dcf502178276f7fba480","rSbQ0cbLAmWNuyUmUETtLZDn6ex1","","","","","","","","","","","","","","","","","chosen stimuli: images/choice_trial_10.png","","","",""
"html-keyboard-response","167","605272","0.0-69.0-2.0","","null","","null","delaylearn","learning","feedback_duration_window","62d6dcf502178276f7fba480","rSbQ0cbLAmWNuyUmUETtLZDn6ex1","","","","","","","","","","","","","","","","","","750","","",""
"html-keyboard-response","168","606774","0.0-69.0-3.0","","null","<div style='margin:auto;width: auto; font-size: 150%'><span style='font-weight: bold; font-size: 100px; color: green;'>+10 points!</span><br><br></div>","null","delaylearn","learning","feedback_image_window","62d6dcf502178276f7fba480","rSbQ0cbLAmWNuyUmUETtLZDn6ex1","","","","","","","","","","","","","","","","","","","","",""
"html-keyboard-response","169","607290","0.0-70.0-0.0","","null","","null","","","mood_trial_fixation","","","","","","","","","","","","","","","","","","","","","","",""
"lmdlab-html-vas-response","170","610833","0.0-70.0-1.0","","2523","How happy are you right now?","0.5405333346833907","delaylearn","learning","mood_trial","62d6dcf502178276f7fba480","rSbQ0cbLAmWNuyUmUETtLZDn6ex1","","","","","","","","","","","","","","","","","","","","[""Very unhappy"",""Very happy""]",""
"html-keyboard-response","171","612809","0.0-71.0","","null","<div style=""font-size:100px;"">+</div>","null","delaylearn","learning","ITI","62d6dcf502178276f7fba480","rSbQ0cbLAmWNuyUmUETtLZDn6ex1","","","","","","","","","","","","","","","","","","","1973","",""
"html-keyboard-response","172","613460","0.0-72.0-0.0","","647.8999999761581","<div style=""display: flex; flex-direction: column; align-items: center; margin-top: -40px;""><img src=""images/pattern_4.png"" style=""width: 234px; height: 230px; margin-top: -50px;""><div style=""display: flex; justify-content: space-between; margin-top: 33px;""><img src=""images/choice_trial_7.png"" style=""width: 408px; height: 417px; margin-right: 200px;""><img src=""images/choice_trial_8.png"" style=""width: 408px; height: 417px;""></div></div>","f","delaylearn","learning","trial","62d6dcf502178276f7fba480","rSbQ0cbLAmWNuyUmUETtLZDn6ex1","4","images/choice_trial_7.png","images/choice_trial_8.png","images/pattern_4.png","j","j","7000","7","8","3","1","31","0","0","7","150","","","","",""
"html-keyboard-response","173","614475","0.0-72.0-1.0","","null","<div style=""display: flex; flex-direction: column; align-items: center; margin-top: -40px;""><img src=""images/pattern_4.png"" style=""width: 234px; height: 230px; margin-top: -50px;""><div style=""display: flex; justify-content: space-between; margin-top: 33px;""><img src=""images/choice_trial_7.png"" style=""width: 408px; height: 417px; margin-right: 608px;""></div></div>","null","delaylearn","learning","display_response","62d6dcf502178276f7fba480","rSbQ0cbLAmWNuyUmUETtLZDn6ex1","","","","","","","","","","","","","","","","","chosen stimuli: images/choice_trial_7.png","","","",""
"html-keyboard-response","174","621491","0.0-72.0-2.0","","null","","null","delaylearn","learning","feedback_duration_window","62d6dcf502178276f7fba480","rSbQ0cbLAmWNuyUmUETtLZDn6ex1","","","","","","","","","","","","","","","","","","7000","","",""
"html-keyboard-response","175","623008","0.0-72.0-3.0","","null","<div style='margin:auto;width: auto; font-size: 150%'><span style='font-weight: bold; font-size: 100px; color: red;'>0 points!</span><br><br></div>","null","delaylearn","learning","feedback_image_window","62d6dcf502178276f7fba480","rSbQ0cbLAmWNuyUmUETtLZDn6ex1","","","","","","","","","","","","","","","","","","","","",""
"html-keyboard-response","176","624876","0.0-73.0","","null","<div style=""font-size:100px;"">+</div>","null","delaylearn","learning","ITI","62d6dcf502178276f7fba480","rSbQ0cbLAmWNuyUmUETtLZDn6ex1","","","","","","","","","","","","","","","","","","","1857","",""
"html-keyboard-response","177","625740","0.0-74.0-0.0","","861.5","<div style=""display: flex; flex-direction: column; align-items: center; margin-top: -40px;""><img src=""images/pattern_3.png"" style=""width: 234px; height: 230px; margin-top: -50px;""><div style=""display: flex; justify-content: space-between; margin-top: 33px;""><img src=""images/choice_trial_6.png"" style=""width: 408px; height: 417px; margin-right: 200px;""><img src=""images/choice_trial_16.png"" style=""width: 408px; height: 417px;""></div></div>","j","delaylearn","learning","trial","62d6dcf502178276f7fba480","rSbQ0cbLAmWNuyUmUETtLZDn6ex1","4","images/choice_trial_6.png","images/choice_trial_16.png","images/pattern_3.png","j","j","7000","6","16","2","1","32","1","1","16","160","","","","",""
"html-keyboard-response","178","626757","0.0-74.0-1.0","","null","<div style=""display: flex; flex-direction: column; align-items: center; margin-top: -40px;""><img src=""images/pattern_3.png"" style=""width: 234px; height: 230px; margin-top: -50px;""><div style=""display: flex; justify-content: space-between; margin-top: 33px;""><img src=""images/choice_trial_16.png"" style=""width: 408px; height: 417px; margin-left:608px;""></div></div>","null","delaylearn","learning","display_response","62d6dcf502178276f7fba480","rSbQ0cbLAmWNuyUmUETtLZDn6ex1","","","","","","","","","","","","","","","","","chosen stimuli: images/choice_trial_16.png","","","",""
"html-keyboard-response","179","633759","0.0-74.0-2.0","","null","","null","delaylearn","learning","feedback_duration_window","62d6dcf502178276f7fba480","rSbQ0cbLAmWNuyUmUETtLZDn6ex1","","","","","","","","","","","","","","","","","","7000","","",""
"html-keyboard-response","180","635274","0.0-74.0-3.0","","null","<div style='margin:auto;width: auto; font-size: 150%'><span style='font-weight: bold; font-size: 100px; color: green;'>+10 points!</span><br><br></div>","null","delaylearn","learning","feedback_image_window","62d6dcf502178276f7fba480","rSbQ0cbLAmWNuyUmUETtLZDn6ex1","","","","","","","","","","","","","","","","","","","","",""
"html-keyboard-response","181","637240","0.0-75.0","","null","<div style=""font-size:100px;"">+</div>","null","delaylearn","learning","ITI","62d6dcf502178276f7fba480","rSbQ0cbLAmWNuyUmUETtLZDn6ex1","","","","","","","","","","","","","","","","","","","1963","",""
"html-keyboard-response","182","638709","0.0-76.0-0.0","","1466.4000000357628","<div style=""display: flex; flex-direction: column; align-items: center; margin-top: -40px;""><img src=""images/pattern_5.png"" style=""width: 234px; height: 230px; margin-top: -50px;""><div style=""display: flex; justify-content: space-between; margin-top: 33px;""><img src=""images/choice_trial_5.png"" style=""width: 408px; height: 417px; margin-right: 200px;""><img src=""images/choice_trial_15.png"" style=""width: 408px; height: 417px;""></div></div>","j","delaylearn","learning","trial","62d6dcf502178276f7fba480","rSbQ0cbLAmWNuyUmUETtLZDn6ex1","4","images/choice_trial_5.png","images/choice_trial_15.png","images/pattern_5.png","j","f","750","5","15","4","0","33","0","1","15","170","","","","",""
"html-keyboard-response","183","639726","0.0-76.0-1.0","","null","<div style=""display: flex; flex-direction: column; align-items: center; margin-top: -40px;""><img src=""images/pattern_5.png"" style=""width: 234px; height: 230px; margin-top: -50px;""><div style=""display: flex; justify-content: space-between; margin-top: 33px;""><img src=""images/choice_trial_15.png"" style=""width: 408px; height: 417px; margin-left:608px;""></div></div>","null","delaylearn","learning","display_response","62d6dcf502178276f7fba480","rSbQ0cbLAmWNuyUmUETtLZDn6ex1","","","","","","","","","","","","","","","","","chosen stimuli: images/choice_trial_15.png","","","",""
"html-keyboard-response","184","640491","0.0-76.0-2.0","","null","","null","delaylearn","learning","feedback_duration_window","62d6dcf502178276f7fba480","rSbQ0cbLAmWNuyUmUETtLZDn6ex1","","","","","","","","","","","","","","","","","","750","","",""
"html-keyboard-response","185","642009","0.0-76.0-3.0","","null","<div style='margin:auto;width: auto; font-size: 150%'><span style='font-weight: bold; font-size: 100px; color: green;'>+10 points!</span><br><br></div>","null","delaylearn","learning","feedback_image_window","62d6dcf502178276f7fba480","rSbQ0cbLAmWNuyUmUETtLZDn6ex1","","","","","","","","","","","","","","","","","","","","",""
"html-keyboard-response","186","643575","0.0-77.0","","null","<div style=""font-size:100px;"">+</div>","null","delaylearn","learning","ITI","62d6dcf502178276f7fba480","rSbQ0cbLAmWNuyUmUETtLZDn6ex1","","","","","","","","","","","","","","","","","","","1556","",""
"html-keyboard-response","187","644808","0.0-78.0-0.0","","1230","<div style=""display: flex; flex-direction: column; align-items: center; margin-top: -40px;""><img src=""images/pattern_1.png"" style=""width: 234px; height: 230px; margin-top: -50px;""><div style=""display: flex; justify-content: space-between; margin-top: 33px;""><img src=""images/choice_trial_1.png"" style=""width: 408px; height: 417px; margin-right: 200px;""><img src=""images/choice_trial_9.png"" style=""width: 408px; height: 417px;""></div></div>","f","delaylearn","learning","trial","62d6dcf502178276f7fba480","rSbQ0cbLAmWNuyUmUETtLZDn6ex1","4","images/choice_trial_1.png","images/choice_trial_9.png","images/pattern_1.png","f","f","7000","1","9","1","0","34","1","1","1","180","","","","",""
"html-keyboard-response","188","645823","0.0-78.0-1.0","","null","<div style=""display: flex; flex-direction: column; align-items: center; margin-top: -40px;""><img src=""images/pattern_1.png"" style=""width: 234px; height: 230px; margin-top: -50px;""><div style=""display: flex; justify-content: space-between; margin-top: 33px;""><img src=""images/choice_trial_1.png"" style=""width: 408px; height: 417px; margin-right: 608px;""></div></div>","null","delaylearn","learning","display_response","62d6dcf502178276f7fba480","rSbQ0cbLAmWNuyUmUETtLZDn6ex1","","","","","","","","","","","","","","","","","chosen stimuli: images/choice_trial_1.png","","","",""
"html-keyboard-response","189","652841","0.0-78.0-2.0","","null","","null","delaylearn","learning","feedback_duration_window","62d6dcf502178276f7fba480","rSbQ0cbLAmWNuyUmUETtLZDn6ex1","","","","","","","","","","","","","","","","","","7000","","",""
"html-keyboard-response","190","654355","0.0-78.0-3.0","","null","<div style='margin:auto;width: auto; font-size: 150%'><span style='font-weight: bold; font-size: 100px; color: green;'>+10 points!</span><br><br></div>","null","delaylearn","learning","feedback_image_window","62d6dcf502178276f7fba480","rSbQ0cbLAmWNuyUmUETtLZDn6ex1","","","","","","","","","","","","","","","","","","","","",""
"html-keyboard-response","191","654874","0.0-79.0-0.0","","null","","null","","","mood_trial_fixation","","","","","","","","","","","","","","","","","","","","","","",""
"lmdlab-html-vas-response","192","658510","0.0-79.0-1.0","","2616","How happy are you right now?","0.5463203714478871","delaylearn","learning","mood_trial","62d6dcf502178276f7fba480","rSbQ0cbLAmWNuyUmUETtLZDn6ex1","","","","","","","","","","","","","","","","","","","","[""Very unhappy"",""Very happy""]",""
"html-keyboard-response","193","660257","0.0-80.0","","null","<div style=""font-size:100px;"">+</div>","null","delaylearn","learning","ITI","62d6dcf502178276f7fba480","rSbQ0cbLAmWNuyUmUETtLZDn6ex1","","","","","","","","","","","","","","","","","","","1734","",""
"html-keyboard-response","194","660825","0.0-81.0-0.0","","565.2000000476837","<div style=""display: flex; flex-direction: column; align-items: center; margin-top: -40px;""><img src=""images/pattern_6.png"" style=""width: 234px; height: 230px; margin-top: -50px;""><div style=""display: flex; justify-content: space-between; margin-top: 33px;""><img src=""images/choice_trial_10.png"" style=""width: 408px; height: 417px; margin-right: 200px;""><img src=""images/choice_trial_3.png"" style=""width: 408px; height: 417px;""></div></div>","j","delaylearn","learning","trial","62d6dcf502178276f7fba480","rSbQ0cbLAmWNuyUmUETtLZDn6ex1","4","images/choice_trial_10.png","images/choice_trial_3.png","images/pattern_6.png","j","f","750","10","3","5","0","35","0","1","3","190","","","","",""
"html-keyboard-response","195","661840","0.0-81.0-1.0","","null","<div style=""display: flex; flex-direction: column; align-items: center; margin-top: -40px;""><img src=""images/pattern_6.png"" style=""width: 234px; height: 230px; margin-top: -50px;""><div style=""display: flex; justify-content: space-between; margin-top: 33px;""><img src=""images/choice_trial_3.png"" style=""width: 408px; height: 417px; margin-left:608px;""></div></div>","null","delaylearn","learning","display_response","62d6dcf502178276f7fba480","rSbQ0cbLAmWNuyUmUETtLZDn6ex1","","","","","","","","","","","","","","","","","chosen stimuli: images/choice_trial_3.png","","","",""
"html-keyboard-response","196","662607","0.0-81.0-2.0","","null","","null","delaylearn","learning","feedback_duration_window","62d6dcf502178276f7fba480","rSbQ0cbLAmWNuyUmUETtLZDn6ex1","","","","","","","","","","","","","","","","","","750","","",""
"html-keyboard-response","197","664124","0.0-81.0-3.0","","null","<div style='margin:auto;width: auto; font-size: 150%'><span style='font-weight: bold; font-size: 100px; color: green;'>+10 points!</span><br><br></div>","null","delaylearn","learning","feedback_image_window","62d6dcf502178276f7fba480","rSbQ0cbLAmWNuyUmUETtLZDn6ex1","","","","","","","","","","","","","","","","","","","","",""
"html-keyboard-response","198","666341","0.0-82.0","","null","<div style=""font-size:100px;"">+</div>","null","delaylearn","learning","ITI","62d6dcf502178276f7fba480","rSbQ0cbLAmWNuyUmUETtLZDn6ex1","","","","","","","","","","","","","","","","","","","2212","",""
"html-keyboard-response","199","667317","0.0-83.0-0.0","","972.7000000476837","<div style=""display: flex; flex-direction: column; align-items: center; margin-top: -40px;""><img src=""images/pattern_3.png"" style=""width: 234px; height: 230px; margin-top: -50px;""><div style=""display: flex; justify-content: space-between; margin-top: 33px;""><img src=""images/choice_trial_6.png"" style=""width: 408px; height: 417px; margin-right: 200px;""><img src=""images/choice_trial_16.png"" style=""width: 408px; height: 417px;""></div></div>","f","delaylearn","learning","trial","62d6dcf502178276f7fba480","rSbQ0cbLAmWNuyUmUETtLZDn6ex1","4","images/choice_trial_6.png","images/choice_trial_16.png","images/pattern_3.png","j","j","7000","6","16","2","1","36","0","0","6","190","","","","",""
"html-keyboard-response","200","668326","0.0-83.0-1.0","","null","<div style=""display: flex; flex-direction: column; align-items: center; margin-top: -40px;""><img src=""images/pattern_3.png"" style=""width: 234px; height: 230px; margin-top: -50px;""><div style=""display: flex; justify-content: space-between; margin-top: 33px;""><img src=""images/choice_trial_6.png"" style=""width: 408px; height: 417px; margin-right: 608px;""></div></div>","null","delaylearn","learning","display_response","62d6dcf502178276f7fba480","rSbQ0cbLAmWNuyUmUETtLZDn6ex1","","","","","","","","","","","","","","","","","chosen stimuli: images/choice_trial_6.png","","","",""
"html-keyboard-response","201","675340","0.0-83.0-2.0","","null","","null","delaylearn","learning","feedback_duration_window","62d6dcf502178276f7fba480","rSbQ0cbLAmWNuyUmUETtLZDn6ex1","","","","","","","","","","","","","","","","","","7000","","",""
"html-keyboard-response","202","676857","0.0-83.0-3.0","","null","<div style='margin:auto;width: auto; font-size: 150%'><span style='font-weight: bold; font-size: 100px; color: red;'>0 points!</span><br><br></div>","null","delaylearn","learning","feedback_image_window","62d6dcf502178276f7fba480","rSbQ0cbLAmWNuyUmUETtLZDn6ex1","","","","","","","","","","","","","","","","","","","","",""
"html-keyboard-response","203","678990","0.0-84.0","","null","<div style=""font-size:100px;"">+</div>","null","delaylearn","learning","ITI","62d6dcf502178276f7fba480","rSbQ0cbLAmWNuyUmUETtLZDn6ex1","","","","","","","","","","","","","","","","","","","2127","",""
"html-keyboard-response","204","679654","0.0-85.0-0.0","","660.6999999880791","<div style=""display: flex; flex-direction: column; align-items: center; margin-top: -40px;""><img src=""images/pattern_4.png"" style=""width: 234px; height: 230px; margin-top: -50px;""><div style=""display: flex; justify-content: space-between; margin-top: 33px;""><img src=""images/choice_trial_7.png"" style=""width: 408px; height: 417px; margin-right: 200px;""><img src=""images/choice_trial_8.png"" style=""width: 408px; height: 417px;""></div></div>","j","delaylearn","learning","trial","62d6dcf502178276f7fba480","rSbQ0cbLAmWNuyUmUETtLZDn6ex1","4","images/choice_trial_7.png","images/choice_trial_8.png","images/pattern_4.png","f","j","7000","7","8","3","1","37","1","0","8","190","","","","",""
"html-keyboard-response","205","680658","0.0-85.0-1.0","","null","<div style=""display: flex; flex-direction: column; align-items: center; margin-top: -40px;""><img src=""images/pattern_4.png"" style=""width: 234px; height: 230px; margin-top: -50px;""><div style=""display: flex; justify-content: space-between; margin-top: 33px;""><img src=""images/choice_trial_8.png"" style=""width: 408px; height: 417px; margin-left:608px;""></div></div>","null","delaylearn","learning","display_response","62d6dcf502178276f7fba480","rSbQ0cbLAmWNuyUmUETtLZDn6ex1","","","","","","","","","","","","","","","","","chosen stimuli: images/choice_trial_8.png","","","",""
"html-keyboard-response","206","687674","0.0-85.0-2.0","","null","","null","delaylearn","learning","feedback_duration_window","62d6dcf502178276f7fba480","rSbQ0cbLAmWNuyUmUETtLZDn6ex1","","","","","","","","","","","","","","","","","","7000","","",""
"html-keyboard-response","207","689191","0.0-85.0-3.0","","null","<div style='margin:auto;width: auto; font-size: 150%'><span style='font-weight: bold; font-size: 100px; color: red;'>0 points!</span><br><br></div>","null","delaylearn","learning","feedback_image_window","62d6dcf502178276f7fba480","rSbQ0cbLAmWNuyUmUETtLZDn6ex1","","","","","","","","","","","","","","","","","","","","",""
"html-keyboard-response","208","691659","0.0-86.0","","null","<div style=""font-size:100px;"">+</div>","null","delaylearn","learning","ITI","62d6dcf502178276f7fba480","rSbQ0cbLAmWNuyUmUETtLZDn6ex1","","","","","","","","","","","","","","","","","","","2461","",""
"html-keyboard-response","209","692481","0.0-87.0-0.0","","819.3999999761581","<div style=""display: flex; flex-direction: column; align-items: center; margin-top: -40px;""><img src=""images/pattern_7.png"" style=""width: 234px; height: 230px; margin-top: -50px;""><div style=""display: flex; justify-content: space-between; margin-top: 33px;""><img src=""images/choice_trial_13.png"" style=""width: 408px; height: 417px; margin-right: 200px;""><img src=""images/choice_trial_4.png"" style=""width: 408px; height: 417px;""></div></div>","f","delaylearn","learning","trial","62d6dcf502178276f7fba480","rSbQ0cbLAmWNuyUmUETtLZDn6ex1","4","images/choice_trial_13.png","images/choice_trial_4.png","images/pattern_7.png","f","f","750","13","4","6","0","38","1","1","13","200","","","","",""
"html-keyboard-response","210","693491","0.0-87.0-1.0","","null","<div style=""display: flex; flex-direction: column; align-items: center; margin-top: -40px;""><img src=""images/pattern_7.png"" style=""width: 234px; height: 230px; margin-top: -50px;""><div style=""display: flex; justify-content: space-between; margin-top: 33px;""><img src=""images/choice_trial_13.png"" style=""width: 408px; height: 417px; margin-right: 608px;""></div></div>","null","delaylearn","learning","display_response","62d6dcf502178276f7fba480","rSbQ0cbLAmWNuyUmUETtLZDn6ex1","","","","","","","","","","","","","","","","","chosen stimuli: images/choice_trial_13.png","","","",""
"html-keyboard-response","211","694257","0.0-87.0-2.0","","null","","null","delaylearn","learning","feedback_duration_window","62d6dcf502178276f7fba480","rSbQ0cbLAmWNuyUmUETtLZDn6ex1","","","","","","","","","","","","","","","","","","750","","",""
"html-keyboard-response","212","695761","0.0-87.0-3.0","","null","<div style='margin:auto;width: auto; font-size: 150%'><span style='font-weight: bold; font-size: 100px; color: green;'>+10 points!</span><br><br></div>","null","delaylearn","learning","feedback_image_window","62d6dcf502178276f7fba480","rSbQ0cbLAmWNuyUmUETtLZDn6ex1","","","","","","","","","","","","","","","","","","","","",""
"html-keyboard-response","213","697509","0.0-88.0","","null","<div style=""font-size:100px;"">+</div>","null","delaylearn","learning","ITI","62d6dcf502178276f7fba480","rSbQ0cbLAmWNuyUmUETtLZDn6ex1","","","","","","","","","","","","","","","","","","","1733","",""
"html-keyboard-response","214","698366","0.0-89.0-0.0","","853.3000000119209","<div style=""display: flex; flex-direction: column; align-items: center; margin-top: -40px;""><img src=""images/pattern_1.png"" style=""width: 234px; height: 230px; margin-top: -50px;""><div style=""display: flex; justify-content: space-between; margin-top: 33px;""><img src=""images/choice_trial_1.png"" style=""width: 408px; height: 417px; margin-right: 200px;""><img src=""images/choice_trial_9.png"" style=""width: 408px; height: 417px;""></div></div>","j","delaylearn","learning","trial","62d6dcf502178276f7fba480","rSbQ0cbLAmWNuyUmUETtLZDn6ex1","4","images/choice_trial_1.png","images/choice_trial_9.png","images/pattern_1.png","f","f","7000","1","9","1","0","39","0","0","9","200","","","","",""
"html-keyboard-response","215","699374","0.0-89.0-1.0","","null","<div style=""display: flex; flex-direction: column; align-items: center; margin-top: -40px;""><img src=""images/pattern_1.png"" style=""width: 234px; height: 230px; margin-top: -50px;""><div style=""display: flex; justify-content: space-between; margin-top: 33px;""><img src=""images/choice_trial_9.png"" style=""width: 408px; height: 417px; margin-left:608px;""></div></div>","null","delaylearn","learning","display_response","62d6dcf502178276f7fba480","rSbQ0cbLAmWNuyUmUETtLZDn6ex1","","","","","","","","","","","","","","","","","chosen stimuli: images/choice_trial_9.png","","","",""
"html-keyboard-response","216","706391","0.0-89.0-2.0","","null","","null","delaylearn","learning","feedback_duration_window","62d6dcf502178276f7fba480","rSbQ0cbLAmWNuyUmUETtLZDn6ex1","","","","","","","","","","","","","","","","","","7000","","",""
"html-keyboard-response","217","707906","0.0-89.0-3.0","","null","<div style='margin:auto;width: auto; font-size: 150%'><span style='font-weight: bold; font-size: 100px; color: red;'>0 points!</span><br><br></div>","null","delaylearn","learning","feedback_image_window","62d6dcf502178276f7fba480","rSbQ0cbLAmWNuyUmUETtLZDn6ex1","","","","","","","","","","","","","","","","","","","","",""
"html-keyboard-response","218","708422","0.0-90.0-0.0","","null","","null","","","mood_trial_fixation","","","","","","","","","","","","","","","","","","","","","","",""
"lmdlab-html-vas-response","219","712464","0.0-90.0-1.0","","3037","How happy are you right now?","0.5656104939962083","delaylearn","learning","mood_trial","62d6dcf502178276f7fba480","rSbQ0cbLAmWNuyUmUETtLZDn6ex1","","","","","","","","","","","","","","","","","","","","[""Very unhappy"",""Very happy""]",""
"html-keyboard-response","220","714742","0.0-91.0","","null","<div style=""font-size:100px;"">+</div>","null","delaylearn","learning","ITI","62d6dcf502178276f7fba480","rSbQ0cbLAmWNuyUmUETtLZDn6ex1","","","","","","","","","","","","","","","","","","","2264","",""
