"trial_type","trial_index","time_elapsed","internal_node_id","participant","rt","stimulus","response","exp_name","exp_stage","test_part","subjectID","databaseID","counterbal","choice_stimuli_1","choice_stimuli_2","pattern_stimuli","rewarded_answer","correct_answer","feedback_duration_times","stim_left","stim_right","pair","leftright_counter","trial","response_correct","response_rewarded","chosen_stim","counter","displayed_choice","feedback_durations","ITI_duration","labels","rest_warning"
"pavlovia","0","426","0.0-0.0","","","","","","","","","","","","","","","","","","","","","","","","","","","","","",""
"html-keyboard-response","1","3430","0.0-1.0","","null","<div style=""font-size:100px;"">+</div>","null","delaylearn","learning","pre_fixation","60b0cc1bfdbeb3b7d4f55485","","","","","","","","","","","","","","","","","","","","","",""
"html-keyboard-response","2","3642","0.0-2.0-0.0","","210","<div style=""display: flex; flex-direction: column; align-items: center; margin-top: -40px;""><img src=""images/demo_images/pattern_1.png"" style=""width: 234px; height: 230px; margin-top: -50px;""><div style=""display: flex; justify-content: space-between; margin-top: 33px;""><img src=""images/demo_images/choice_trial_2.png"" style=""width: 408px; height: 417px; margin-right: 200px;""><img src=""images/demo_images/choice_trial_1.png"" style=""width: 408px; height: 417px;""></div></div>","f","delaylearn","learning","trial","60b0cc1bfdbeb3b7d4f55485","Q2vPyA5lRlVSq6aO3OiwVFpP9m33","4","images/demo_images/choice_trial_2.png","images/demo_images/choice_trial_1.png","images/demo_images/pattern_1.png","j","j","3000","2","1","20","1","1","0","0","2","0","","","","",""
"html-keyboard-response","3","4646","0.0-2.0-1.0","","null","<div style=""display: flex; flex-direction: column; align-items: center; margin-top: -40px;""><img src=""images/demo_images/pattern_1.png"" style=""width: 234px; height: 230px; margin-top: -50px;""><div style=""display: flex; justify-content: space-between; margin-top: 33px;""><img src=""images/demo_images/choice_trial_2.png"" style=""width: 408px; height: 417px; margin-right: 608px;""></div></div>","null","delaylearn","learning","display_response","60b0cc1bfdbeb3b7d4f55485","Q2vPyA5lRlVSq6aO3OiwVFpP9m33","","","","","","","","","","","","","","","","","chosen stimuli: images/demo_images/choice_trial_2.png","","","",""
"html-keyboard-response","4","7649","0.0-2.0-2.0","","null","","null","delaylearn","learning","feedback_duration_window","60b0cc1bfdbeb3b7d4f55485","Q2vPyA5lRlVSq6aO3OiwVFpP9m33","","","","","","","","","","","","","","","","","","3000","","",""
"html-keyboard-response","5","9152","0.0-2.0-3.0","","null","<div style='margin:auto;width: auto; font-size: 150%'><span style='font-weight: bold; font-size: 100px; color: red;'>0 points!</span><br><br></div>","null","delaylearn","learning","feedback_image_window","60b0cc1bfdbeb3b7d4f55485","Q2vPyA5lRlVSq6aO3OiwVFpP9m33","","","","","","","","","","","","","","","","","","","","",""
"html-keyboard-response","6","11260","0.0-3.0","","null","<div style=""font-size:100px;"">+</div>","null","delaylearn","learning","ITI","60b0cc1bfdbeb3b7d4f55485","Q2vPyA5lRlVSq6aO3OiwVFpP9m33","","","","","","","","","","","","","","","","","","","2105","",""
"html-keyboard-response","7","11938","0.0-4.0-0.0","","675","<div style=""display: flex; flex-direction: column; align-items: center; margin-top: -40px;""><img src=""images/demo_images/pattern_1.png"" style=""width: 234px; height: 230px; margin-top: -50px;""><div style=""display: flex; justify-content: space-between; margin-top: 33px;""><img src=""images/demo_images/choice_trial_2.png"" style=""width: 408px; height: 417px; margin-right: 200px;""><img src=""images/demo_images/choice_trial_1.png"" style=""width: 408px; height: 417px;""></div></div>","j","delaylearn","learning","trial","60b0cc1bfdbeb3b7d4f55485","Q2vPyA5lRlVSq6aO3OiwVFpP9m33","4","images/demo_images/choice_trial_2.png","images/demo_images/choice_trial_1.png","images/demo_images/pattern_1.png","j","j","3000","2","1","20","1","2","1","1","1","10","","","","",""
"html-keyboard-response","8","12940","0.0-4.0-1.0","","null","<div style=""display: flex; flex-direction: column; align-items: center; margin-top: -40px;""><img src=""images/demo_images/pattern_1.png"" style=""width: 234px; height: 230px; margin-top: -50px;""><div style=""display: flex; justify-content: space-between; margin-top: 33px;""><img src=""images/demo_images/choice_trial_1.png"" style=""width: 408px; height: 417px; margin-left:608px;""></div></div>","null","delaylearn","learning","display_response","60b0cc1bfdbeb3b7d4f55485","Q2vPyA5lRlVSq6aO3OiwVFpP9m33","","","","","","","","","","","","","","","","","chosen stimuli: images/demo_images/choice_trial_1.png","","","",""
"html-keyboard-response","9","15943","0.0-4.0-2.0","","null","","null","delaylearn","learning","feedback_duration_window","60b0cc1bfdbeb3b7d4f55485","Q2vPyA5lRlVSq6aO3OiwVFpP9m33","","","","","","","","","","","","","","","","","","3000","","",""
"html-keyboard-response","10","17445","0.0-4.0-3.0","","null","<div style='margin:auto;width: auto; font-size: 150%'><span style='font-weight: bold; font-size: 100px; color: green;'>+10 points!</span><br><br></div>","null","delaylearn","learning","feedback_image_window","60b0cc1bfdbeb3b7d4f55485","Q2vPyA5lRlVSq6aO3OiwVFpP9m33","","","","","","","","","","","","","","","","","","","","",""
"html-keyboard-response","11","19665","0.0-5.0","","null","<div style=""font-size:100px;"">+</div>","null","delaylearn","learning","ITI","60b0cc1bfdbeb3b7d4f55485","Q2vPyA5lRlVSq6aO3OiwVFpP9m33","","","","","","","","","","","","","","","","","","","2217","",""
"html-keyboard-response","12","20397","0.0-6.0-0.0","","730","<div style=""display: flex; flex-direction: column; align-items: center; margin-top: -40px;""><img src=""images/demo_images/pattern_1.png"" style=""width: 234px; height: 230px; margin-top: -50px;""><div style=""display: flex; justify-content: space-between; margin-top: 33px;""><img src=""images/demo_images/choice_trial_1.png"" style=""width: 408px; height: 417px; margin-right: 200px;""><img src=""images/demo_images/choice_trial_2.png"" style=""width: 408px; height: 417px;""></div></div>","f","delaylearn","learning","trial","60b0cc1bfdbeb3b7d4f55485","Q2vPyA5lRlVSq6aO3OiwVFpP9m33","4","images/demo_images/choice_trial_1.png","images/demo_images/choice_trial_2.png","images/demo_images/pattern_1.png","j","f","3000","1","2","20","0","3","1","0","1","10","","","","",""
"html-keyboard-response","13","21400","0.0-6.0-1.0","","null","<div style=""display: flex; flex-direction: column; align-items: center; margin-top: -40px;""><img src=""images/demo_images/pattern_1.png"" style=""width: 234px; height: 230px; margin-top: -50px;""><div style=""display: flex; justify-content: space-between; margin-top: 33px;""><img src=""images/demo_images/choice_trial_1.png"" style=""width: 408px; height: 417px; margin-right: 608px;""></div></div>","null","delaylearn","learning","display_response","60b0cc1bfdbeb3b7d4f55485","Q2vPyA5lRlVSq6aO3OiwVFpP9m33","","","","","","","","","","","","","","","","","chosen stimuli: images/demo_images/choice_trial_1.png","","","",""
"html-keyboard-response","14","24402","0.0-6.0-2.0","","null","","null","delaylearn","learning","feedback_duration_window","60b0cc1bfdbeb3b7d4f55485","Q2vPyA5lRlVSq6aO3OiwVFpP9m33","","","","","","","","","","","","","","","","","","3000","","",""
"html-keyboard-response","15","25904","0.0-6.0-3.0","","null","<div style='margin:auto;width: auto; font-size: 150%'><span style='font-weight: bold; font-size: 100px; color: red;'>0 points!</span><br><br></div>","null","delaylearn","learning","feedback_image_window","60b0cc1bfdbeb3b7d4f55485","Q2vPyA5lRlVSq6aO3OiwVFpP9m33","","","","","","","","","","","","","","","","","","","","",""
"html-keyboard-response","16","28126","0.0-7.0","","null","<div style=""font-size:100px;"">+</div>","null","delaylearn","learning","ITI","60b0cc1bfdbeb3b7d4f55485","Q2vPyA5lRlVSq6aO3OiwVFpP9m33","","","","","","","","","","","","","","","","","","","2220","",""
"html-keyboard-response","17","28901","0.0-8.0-0.0","","771","<div style=""display: flex; flex-direction: column; align-items: center; margin-top: -40px;""><img src=""images/demo_images/pattern_1.png"" style=""width: 234px; height: 230px; margin-top: -50px;""><div style=""display: flex; justify-content: space-between; margin-top: 33px;""><img src=""images/demo_images/choice_trial_1.png"" style=""width: 408px; height: 417px; margin-right: 200px;""><img src=""images/demo_images/choice_trial_2.png"" style=""width: 408px; height: 417px;""></div></div>","f","delaylearn","learning","trial","60b0cc1bfdbeb3b7d4f55485","Q2vPyA5lRlVSq6aO3OiwVFpP9m33","4","images/demo_images/choice_trial_1.png","images/demo_images/choice_trial_2.png","images/demo_images/pattern_1.png","f","f","3000","1","2","20","0","4","1","1","1","20","","","","",""
"html-keyboard-response","18","29904","0.0-8.0-1.0","","null","<div style=""display: flex; flex-direction: column; align-items: center; margin-top: -40px;""><img src=""images/demo_images/pattern_1.png"" style=""width: 234px; height: 230px; margin-top: -50px;""><div style=""display: flex; justify-content: space-between; margin-top: 33px;""><img src=""images/demo_images/choice_trial_1.png"" style=""width: 408px; height: 417px; margin-right: 608px;""></div></div>","null","delaylearn","learning","display_response","60b0cc1bfdbeb3b7d4f55485","Q2vPyA5lRlVSq6aO3OiwVFpP9m33","","","","","","","","","","","","","","","","","chosen stimuli: images/demo_images/choice_trial_1.png","","","",""
"html-keyboard-response","19","32906","0.0-8.0-2.0","","null","","null","delaylearn","learning","feedback_duration_window","60b0cc1bfdbeb3b7d4f55485","Q2vPyA5lRlVSq6aO3OiwVFpP9m33","","","","","","","","","","","","","","","","","","3000","","",""
"html-keyboard-response","20","34409","0.0-8.0-3.0","","null","<div style='margin:auto;width: auto; font-size: 150%'><span style='font-weight: bold; font-size: 100px; color: green;'>+10 points!</span><br><br></div>","null","delaylearn","learning","feedback_image_window","60b0cc1bfdbeb3b7d4f55485","Q2vPyA5lRlVSq6aO3OiwVFpP9m33","","","","","","","","","","","","","","","","","","","","",""
"html-keyboard-response","21","34911","0.0-9.0-0.0","","null","","null","","","mood_trial_fixation","","","","","","","","","","","","","","","","","","","","","","",""
"lmdlab-html-vas-response","22","38738","0.0-9.0-1.0","","2818","How happy are you right now?","0.47962962962962963","delaylearn","learning","mood_trial","60b0cc1bfdbeb3b7d4f55485","Q2vPyA5lRlVSq6aO3OiwVFpP9m33","","","","","","","","","","","","","","","","","","","","[""Very unhappy"",""Very happy""]",""
"html-keyboard-response","23","40854","0.0-10.0","","null","<div style=""font-size:100px;"">+</div>","null","delaylearn","learning","ITI","60b0cc1bfdbeb3b7d4f55485","Q2vPyA5lRlVSq6aO3OiwVFpP9m33","","","","","","","","","","","","","","","","","","","2112","",""
"html-keyboard-response","24","41439","0.0-11.0-0.0","","581.9999999999709","<div style=""display: flex; flex-direction: column; align-items: center; margin-top: -40px;""><img src=""images/demo_images/pattern_1.png"" style=""width: 234px; height: 230px; margin-top: -50px;""><div style=""display: flex; justify-content: space-between; margin-top: 33px;""><img src=""images/demo_images/choice_trial_2.png"" style=""width: 408px; height: 417px; margin-right: 200px;""><img src=""images/demo_images/choice_trial_1.png"" style=""width: 408px; height: 417px;""></div></div>","j","delaylearn","learning","trial","60b0cc1bfdbeb3b7d4f55485","Q2vPyA5lRlVSq6aO3OiwVFpP9m33","4","images/demo_images/choice_trial_2.png","images/demo_images/choice_trial_1.png","images/demo_images/pattern_1.png","j","j","3000","2","1","20","1","5","1","1","1","30","","","","",""
"html-keyboard-response","25","42442","0.0-11.0-1.0","","null","<div style=""display: flex; flex-direction: column; align-items: center; margin-top: -40px;""><img src=""images/demo_images/pattern_1.png"" style=""width: 234px; height: 230px; margin-top: -50px;""><div style=""display: flex; justify-content: space-between; margin-top: 33px;""><img src=""images/demo_images/choice_trial_1.png"" style=""width: 408px; height: 417px; margin-left:608px;""></div></div>","null","delaylearn","learning","display_response","60b0cc1bfdbeb3b7d4f55485","Q2vPyA5lRlVSq6aO3OiwVFpP9m33","","","","","","","","","","","","","","","","","chosen stimuli: images/demo_images/choice_trial_1.png","","","",""
"html-keyboard-response","26","45444","0.0-11.0-2.0","","null","","null","delaylearn","learning","feedback_duration_window","60b0cc1bfdbeb3b7d4f55485","Q2vPyA5lRlVSq6aO3OiwVFpP9m33","","","","","","","","","","","","","","","","","","3000","","",""
"html-keyboard-response","27","46947","0.0-11.0-3.0","","null","<div style='margin:auto;width: auto; font-size: 150%'><span style='font-weight: bold; font-size: 100px; color: green;'>+10 points!</span><br><br></div>","null","delaylearn","learning","feedback_image_window","60b0cc1bfdbeb3b7d4f55485","Q2vPyA5lRlVSq6aO3OiwVFpP9m33","","","","","","","","","","","","","","","","","","","","",""
"html-keyboard-response","28","49399","0.0-12.0","","null","<div style=""font-size:100px;"">+</div>","null","delaylearn","learning","ITI","60b0cc1bfdbeb3b7d4f55485","Q2vPyA5lRlVSq6aO3OiwVFpP9m33","","","","","","","","","","","","","","","","","","","2450","",""
"html-keyboard-response","29","50417","0.0-13.0-0.0","","1016","<div style=""display: flex; flex-direction: column; align-items: center; margin-top: -40px;""><img src=""images/demo_images/pattern_1.png"" style=""width: 234px; height: 230px; margin-top: -50px;""><div style=""display: flex; justify-content: space-between; margin-top: 33px;""><img src=""images/demo_images/choice_trial_1.png"" style=""width: 408px; height: 417px; margin-right: 200px;""><img src=""images/demo_images/choice_trial_2.png"" style=""width: 408px; height: 417px;""></div></div>","f","delaylearn","learning","trial","60b0cc1bfdbeb3b7d4f55485","Q2vPyA5lRlVSq6aO3OiwVFpP9m33","4","images/demo_images/choice_trial_1.png","images/demo_images/choice_trial_2.png","images/demo_images/pattern_1.png","f","f","3000","1","2","20","0","6","1","1","1","40","","","","",""
"html-keyboard-response","30","51420","0.0-13.0-1.0","","null","<div style=""display: flex; flex-direction: column; align-items: center; margin-top: -40px;""><img src=""images/demo_images/pattern_1.png"" style=""width: 234px; height: 230px; margin-top: -50px;""><div style=""display: flex; justify-content: space-between; margin-top: 33px;""><img src=""images/demo_images/choice_trial_1.png"" style=""width: 408px; height: 417px; margin-right: 608px;""></div></div>","null","delaylearn","learning","display_response","60b0cc1bfdbeb3b7d4f55485","Q2vPyA5lRlVSq6aO3OiwVFpP9m33","","","","","","","","","","","","","","","","","chosen stimuli: images/demo_images/choice_trial_1.png","","","",""
"html-keyboard-response","31","54422","0.0-13.0-2.0","","null","","null","delaylearn","learning","feedback_duration_window","60b0cc1bfdbeb3b7d4f55485","Q2vPyA5lRlVSq6aO3OiwVFpP9m33","","","","","","","","","","","","","","","","","","3000","","",""
"html-keyboard-response","32","55925","0.0-13.0-3.0","","null","<div style='margin:auto;width: auto; font-size: 150%'><span style='font-weight: bold; font-size: 100px; color: green;'>+10 points!</span><br><br></div>","null","delaylearn","learning","feedback_image_window","60b0cc1bfdbeb3b7d4f55485","Q2vPyA5lRlVSq6aO3OiwVFpP9m33","","","","","","","","","","","","","","","","","","","","",""
"html-keyboard-response","33","57766","0.0-14.0","","null","<div style=""font-size:100px;"">+</div>","null","delaylearn","learning","ITI","60b0cc1bfdbeb3b7d4f55485","Q2vPyA5lRlVSq6aO3OiwVFpP9m33","","","","","","","","","","","","","","","","","","","1839","",""
"html-keyboard-response","34","58886","0.0-15.0-0.0","","1116.999999999971","<div style=""display: flex; flex-direction: column; align-items: center; margin-top: -40px;""><img src=""images/demo_images/pattern_1.png"" style=""width: 234px; height: 230px; margin-top: -50px;""><div style=""display: flex; justify-content: space-between; margin-top: 33px;""><img src=""images/demo_images/choice_trial_2.png"" style=""width: 408px; height: 417px; margin-right: 200px;""><img src=""images/demo_images/choice_trial_1.png"" style=""width: 408px; height: 417px;""></div></div>","j","delaylearn","learning","trial","60b0cc1bfdbeb3b7d4f55485","Q2vPyA5lRlVSq6aO3OiwVFpP9m33","4","images/demo_images/choice_trial_2.png","images/demo_images/choice_trial_1.png","images/demo_images/pattern_1.png","j","j","3000","2","1","20","1","7","1","1","1","50","","","","",""
"html-keyboard-response","35","59889","0.0-15.0-1.0","","null","<div style=""display: flex; flex-direction: column; align-items: center; margin-top: -40px;""><img src=""images/demo_images/pattern_1.png"" style=""width: 234px; height: 230px; margin-top: -50px;""><div style=""display: flex; justify-content: space-between; margin-top: 33px;""><img src=""images/demo_images/choice_trial_1.png"" style=""width: 408px; height: 417px; margin-left:608px;""></div></div>","null","delaylearn","learning","display_response","60b0cc1bfdbeb3b7d4f55485","Q2vPyA5lRlVSq6aO3OiwVFpP9m33","","","","","","","","","","","","","","","","","chosen stimuli: images/demo_images/choice_trial_1.png","","","",""
"html-keyboard-response","36","62891","0.0-15.0-2.0","","null","","null","delaylearn","learning","feedback_duration_window","60b0cc1bfdbeb3b7d4f55485","Q2vPyA5lRlVSq6aO3OiwVFpP9m33","","","","","","","","","","","","","","","","","","3000","","",""
"html-keyboard-response","37","64394","0.0-15.0-3.0","","null","<div style='margin:auto;width: auto; font-size: 150%'><span style='font-weight: bold; font-size: 100px; color: green;'>+10 points!</span><br><br></div>","null","delaylearn","learning","feedback_image_window","60b0cc1bfdbeb3b7d4f55485","Q2vPyA5lRlVSq6aO3OiwVFpP9m33","","","","","","","","","","","","","","","","","","","","",""
"html-keyboard-response","38","66822","0.0-16.0","","null","<div style=""font-size:100px;"">+</div>","null","delaylearn","learning","ITI","60b0cc1bfdbeb3b7d4f55485","Q2vPyA5lRlVSq6aO3OiwVFpP9m33","","","","","","","","","","","","","","","","","","","2425","",""
"html-keyboard-response","39","67820","0.0-17.0-0.0","","994","<div style=""display: flex; flex-direction: column; align-items: center; margin-top: -40px;""><img src=""images/demo_images/pattern_1.png"" style=""width: 234px; height: 230px; margin-top: -50px;""><div style=""display: flex; justify-content: space-between; margin-top: 33px;""><img src=""images/demo_images/choice_trial_1.png"" style=""width: 408px; height: 417px; margin-right: 200px;""><img src=""images/demo_images/choice_trial_2.png"" style=""width: 408px; height: 417px;""></div></div>","f","delaylearn","learning","trial","60b0cc1bfdbeb3b7d4f55485","Q2vPyA5lRlVSq6aO3OiwVFpP9m33","4","images/demo_images/choice_trial_1.png","images/demo_images/choice_trial_2.png","images/demo_images/pattern_1.png","f","f","3000","1","2","20","0","8","1","1","1","60","","","","",""
"html-keyboard-response","40","68822","0.0-17.0-1.0","","null","<div style=""display: flex; flex-direction: column; align-items: center; margin-top: -40px;""><img src=""images/demo_images/pattern_1.png"" style=""width: 234px; height: 230px; margin-top: -50px;""><div style=""display: flex; justify-content: space-between; margin-top: 33px;""><img src=""images/demo_images/choice_trial_1.png"" style=""width: 408px; height: 417px; margin-right: 608px;""></div></div>","null","delaylearn","learning","display_response","60b0cc1bfdbeb3b7d4f55485","Q2vPyA5lRlVSq6aO3OiwVFpP9m33","","","","","","","","","","","","","","","","","chosen stimuli: images/demo_images/choice_trial_1.png","","","",""
"html-keyboard-response","41","71824","0.0-17.0-2.0","","null","","null","delaylearn","learning","feedback_duration_window","60b0cc1bfdbeb3b7d4f55485","Q2vPyA5lRlVSq6aO3OiwVFpP9m33","","","","","","","","","","","","","","","","","","3000","","",""
"html-keyboard-response","42","73327","0.0-17.0-3.0","","null","<div style='margin:auto;width: auto; font-size: 150%'><span style='font-weight: bold; font-size: 100px; color: green;'>+10 points!</span><br><br></div>","null","delaylearn","learning","feedback_image_window","60b0cc1bfdbeb3b7d4f55485","Q2vPyA5lRlVSq6aO3OiwVFpP9m33","","","","","","","","","","","","","","","","","","","","",""
"html-button-response","43","79095","0.0-18.0","","5764.999999999971","
  <div style=""display: flex; align-items: center; justify-content: center; height: 80vh;"">
  <div>
          <img src=""images/inst_demo_finish.png"" style=""width: 80vw; height:auto;"">
          <br><br>
      </div>
      <br><br>
  </div>","0","","","","","","","","","","","","","","","","","","","","","","","","","",""
"html-keyboard-response","44","84236","0.0-19.0","","5137.999999999971","
  <div style=""display: flex; align-items: center; justify-content: center; height: 80vh;"">
  <div>
          <img src=""images/inst_6.png"" style=""width: 80vw; height:auto;"">
          <br><br>
      </div>
      <br><br>
  </div>","f","","","","","","","","","","","","","","","","","","","","","","","","","",""
"html-keyboard-response","45","87239","0.0-20.0","","null","<div style=""font-size:100px;"">+</div>","null","delaylearn","learning","pre_fixation","60b0cc1bfdbeb3b7d4f55485","","","","","","","","","","","","","","","","","","","","","",""
"html-keyboard-response","46","88838","0.0-21.0","","null","<div style=""font-size:100px;"">+</div>","null","delaylearn","learning","ITI","60b0cc1bfdbeb3b7d4f55485","Q2vPyA5lRlVSq6aO3OiwVFpP9m33","","","","","","","","","","","","","","","","","","","1596","",""
"html-keyboard-response","47","89787","0.0-22.0-0.0","","947","<div style=""display: flex; flex-direction: column; align-items: center; margin-top: -40px;""><img src=""images/pattern_3.png"" style=""width: 234px; height: 230px; margin-top: -50px;""><div style=""display: flex; justify-content: space-between; margin-top: 33px;""><img src=""images/choice_trial_16.png"" style=""width: 408px; height: 417px; margin-right: 200px;""><img src=""images/choice_trial_6.png"" style=""width: 408px; height: 417px;""></div></div>","f","delaylearn","learning","trial","60b0cc1bfdbeb3b7d4f55485","Q2vPyA5lRlVSq6aO3OiwVFpP9m33","4","images/choice_trial_16.png","images/choice_trial_6.png","images/pattern_3.png","f","f","7000","16","6","2","0","9","1","1","16","70","","","","",""
"html-keyboard-response","48","90789","0.0-22.0-1.0","","null","<div style=""display: flex; flex-direction: column; align-items: center; margin-top: -40px;""><img src=""images/pattern_3.png"" style=""width: 234px; height: 230px; margin-top: -50px;""><div style=""display: flex; justify-content: space-between; margin-top: 33px;""><img src=""images/choice_trial_16.png"" style=""width: 408px; height: 417px; margin-right: 608px;""></div></div>","null","delaylearn","learning","display_response","60b0cc1bfdbeb3b7d4f55485","Q2vPyA5lRlVSq6aO3OiwVFpP9m33","","","","","","","","","","","","","","","","","chosen stimuli: images/choice_trial_16.png","","","",""
"html-keyboard-response","49","97790","0.0-22.0-2.0","","null","","null","delaylearn","learning","feedback_duration_window","60b0cc1bfdbeb3b7d4f55485","Q2vPyA5lRlVSq6aO3OiwVFpP9m33","","","","","","","","","","","","","","","","","","7000","","",""
"html-keyboard-response","50","99293","0.0-22.0-3.0","","null","<div style='margin:auto;width: auto; font-size: 150%'><span style='font-weight: bold; font-size: 100px; color: green;'>+10 points!</span><br><br></div>","null","delaylearn","learning","feedback_image_window","60b0cc1bfdbeb3b7d4f55485","Q2vPyA5lRlVSq6aO3OiwVFpP9m33","","","","","","","","","","","","","","","","","","","","",""
"html-keyboard-response","51","101765","0.0-23.0","","null","<div style=""font-size:100px;"">+</div>","null","delaylearn","learning","ITI","60b0cc1bfdbeb3b7d4f55485","Q2vPyA5lRlVSq6aO3OiwVFpP9m33","","","","","","","","","","","","","","","","","","","2469","",""
"html-keyboard-response","52","102820","0.0-24.0-0.0","","1053","<div style=""display: flex; flex-direction: column; align-items: center; margin-top: -40px;""><img src=""images/pattern_7.png"" style=""width: 234px; height: 230px; margin-top: -50px;""><div style=""display: flex; justify-content: space-between; margin-top: 33px;""><img src=""images/choice_trial_4.png"" style=""width: 408px; height: 417px; margin-right: 200px;""><img src=""images/choice_trial_13.png"" style=""width: 408px; height: 417px;""></div></div>","f","delaylearn","learning","trial","60b0cc1bfdbeb3b7d4f55485","Q2vPyA5lRlVSq6aO3OiwVFpP9m33","4","images/choice_trial_4.png","images/choice_trial_13.png","images/pattern_7.png","j","j","750","4","13","6","1","10","0","0","4","70","","","","",""
"html-keyboard-response","53","103823","0.0-24.0-1.0","","null","<div style=""display: flex; flex-direction: column; align-items: center; margin-top: -40px;""><img src=""images/pattern_7.png"" style=""width: 234px; height: 230px; margin-top: -50px;""><div style=""display: flex; justify-content: space-between; margin-top: 33px;""><img src=""images/choice_trial_4.png"" style=""width: 408px; height: 417px; margin-right: 608px;""></div></div>","null","delaylearn","learning","display_response","60b0cc1bfdbeb3b7d4f55485","Q2vPyA5lRlVSq6aO3OiwVFpP9m33","","","","","","","","","","","","","","","","","chosen stimuli: images/choice_trial_4.png","","","",""
"html-keyboard-response","54","104576","0.0-24.0-2.0","","null","","null","delaylearn","learning","feedback_duration_window","60b0cc1bfdbeb3b7d4f55485","Q2vPyA5lRlVSq6aO3OiwVFpP9m33","","","","","","","","","","","","","","","","","","750","","",""
"html-keyboard-response","55","106079","0.0-24.0-3.0","","null","<div style='margin:auto;width: auto; font-size: 150%'><span style='font-weight: bold; font-size: 100px; color: red;'>0 points!</span><br><br></div>","null","delaylearn","learning","feedback_image_window","60b0cc1bfdbeb3b7d4f55485","Q2vPyA5lRlVSq6aO3OiwVFpP9m33","","","","","","","","","","","","","","","","","","","","",""
"html-keyboard-response","56","107834","0.0-25.0","","null","<div style=""font-size:100px;"">+</div>","null","delaylearn","learning","ITI","60b0cc1bfdbeb3b7d4f55485","Q2vPyA5lRlVSq6aO3OiwVFpP9m33","","","","","","","","","","","","","","","","","","","1753","",""
"html-keyboard-response","57","108830","0.0-26.0-0.0","","991.9999999999418","<div style=""display: flex; flex-direction: column; align-items: center; margin-top: -40px;""><img src=""images/pattern_4.png"" style=""width: 234px; height: 230px; margin-top: -50px;""><div style=""display: flex; justify-content: space-between; margin-top: 33px;""><img src=""images/choice_trial_8.png"" style=""width: 408px; height: 417px; margin-right: 200px;""><img src=""images/choice_trial_7.png"" style=""width: 408px; height: 417px;""></div></div>","j","delaylearn","learning","trial","60b0cc1bfdbeb3b7d4f55485","Q2vPyA5lRlVSq6aO3OiwVFpP9m33","4","images/choice_trial_8.png","images/choice_trial_7.png","images/pattern_4.png","f","f","7000","8","7","3","0","11","0","0","7","70","","","","",""
"html-keyboard-response","58","109833","0.0-26.0-1.0","","null","<div style=""display: flex; flex-direction: column; align-items: center; margin-top: -40px;""><img src=""images/pattern_4.png"" style=""width: 234px; height: 230px; margin-top: -50px;""><div style=""display: flex; justify-content: space-between; margin-top: 33px;""><img src=""images/choice_trial_7.png"" style=""width: 408px; height: 417px; margin-left:608px;""></div></div>","null","delaylearn","learning","display_response","60b0cc1bfdbeb3b7d4f55485","Q2vPyA5lRlVSq6aO3OiwVFpP9m33","","","","","","","","","","","","","","","","","chosen stimuli: images/choice_trial_7.png","","","",""
"html-keyboard-response","59","116835","0.0-26.0-2.0","","null","","null","delaylearn","learning","feedback_duration_window","60b0cc1bfdbeb3b7d4f55485","Q2vPyA5lRlVSq6aO3OiwVFpP9m33","","","","","","","","","","","","","","","","","","7000","","",""
"html-keyboard-response","60","118338","0.0-26.0-3.0","","null","<div style='margin:auto;width: auto; font-size: 150%'><span style='font-weight: bold; font-size: 100px; color: red;'>0 points!</span><br><br></div>","null","delaylearn","learning","feedback_image_window","60b0cc1bfdbeb3b7d4f55485","Q2vPyA5lRlVSq6aO3OiwVFpP9m33","","","","","","","","","","","","","","","","","","","","",""
"html-keyboard-response","61","120631","0.0-27.0","","null","<div style=""font-size:100px;"">+</div>","null","delaylearn","learning","ITI","60b0cc1bfdbeb3b7d4f55485","Q2vPyA5lRlVSq6aO3OiwVFpP9m33","","","","","","","","","","","","","","","","","","","2291","",""
"html-keyboard-response","62","121456","0.0-28.0-0.0","","822","<div style=""display: flex; flex-direction: column; align-items: center; margin-top: -40px;""><img src=""images/pattern_5.png"" style=""width: 234px; height: 230px; margin-top: -50px;""><div style=""display: flex; justify-content: space-between; margin-top: 33px;""><img src=""images/choice_trial_15.png"" style=""width: 408px; height: 417px; margin-right: 200px;""><img src=""images/choice_trial_5.png"" style=""width: 408px; height: 417px;""></div></div>","f","delaylearn","learning","trial","60b0cc1bfdbeb3b7d4f55485","Q2vPyA5lRlVSq6aO3OiwVFpP9m33","4","images/choice_trial_15.png","images/choice_trial_5.png","images/pattern_5.png","j","j","750","15","5","4","1","12","0","0","15","70","","","","",""
"html-keyboard-response","63","122458","0.0-28.0-1.0","","null","<div style=""display: flex; flex-direction: column; align-items: center; margin-top: -40px;""><img src=""images/pattern_5.png"" style=""width: 234px; height: 230px; margin-top: -50px;""><div style=""display: flex; justify-content: space-between; margin-top: 33px;""><img src=""images/choice_trial_15.png"" style=""width: 408px; height: 417px; margin-right: 608px;""></div></div>","null","delaylearn","learning","display_response","60b0cc1bfdbeb3b7d4f55485","Q2vPyA5lRlVSq6aO3OiwVFpP9m33","","","","","","","","","","","","","","","","","chosen stimuli: images/choice_trial_15.png","","","",""
"html-keyboard-response","64","123211","0.0-28.0-2.0","","null","","null","delaylearn","learning","feedback_duration_window","60b0cc1bfdbeb3b7d4f55485","Q2vPyA5lRlVSq6aO3OiwVFpP9m33","","","","","","","","","","","","","","","","","","750","","",""
"html-keyboard-response","65","124713","0.0-28.0-3.0","","null","<div style='margin:auto;width: auto; font-size: 150%'><span style='font-weight: bold; font-size: 100px; color: red;'>0 points!</span><br><br></div>","null","delaylearn","learning","feedback_image_window","60b0cc1bfdbeb3b7d4f55485","Q2vPyA5lRlVSq6aO3OiwVFpP9m33","","","","","","","","","","","","","","","","","","","","",""
"html-keyboard-response","66","126646","0.0-29.0","","null","<div style=""font-size:100px;"">+</div>","null","delaylearn","learning","ITI","60b0cc1bfdbeb3b7d4f55485","Q2vPyA5lRlVSq6aO3OiwVFpP9m33","","","","","","","","","","","","","","","","","","","1930","",""
"html-keyboard-response","67","127377","0.0-30.0-0.0","","728.9999999999418","<div style=""display: flex; flex-direction: column; align-items: center; margin-top: -40px;""><img src=""images/pattern_6.png"" style=""width: 234px; height: 230px; margin-top: -50px;""><div style=""display: flex; justify-content: space-between; margin-top: 33px;""><img src=""images/choice_trial_10.png"" style=""width: 408px; height: 417px; margin-right: 200px;""><img src=""images/choice_trial_3.png"" style=""width: 408px; height: 417px;""></div></div>","f","delaylearn","learning","trial","60b0cc1bfdbeb3b7d4f55485","Q2vPyA5lRlVSq6aO3OiwVFpP9m33","4","images/choice_trial_10.png","images/choice_trial_3.png","images/pattern_6.png","j","f","750","10","3","5","0","13","1","0","10","70","","","","",""
"html-keyboard-response","68","128380","0.0-30.0-1.0","","null","<div style=""display: flex; flex-direction: column; align-items: center; margin-top: -40px;""><img src=""images/pattern_6.png"" style=""width: 234px; height: 230px; margin-top: -50px;""><div style=""display: flex; justify-content: space-between; margin-top: 33px;""><img src=""images/choice_trial_10.png"" style=""width: 408px; height: 417px; margin-right: 608px;""></div></div>","null","delaylearn","learning","display_response","60b0cc1bfdbeb3b7d4f55485","Q2vPyA5lRlVSq6aO3OiwVFpP9m33","","","","","","","","","","","","","","","","","chosen stimuli: images/choice_trial_10.png","","","",""
"html-keyboard-response","69","129132","0.0-30.0-2.0","","null","","null","delaylearn","learning","feedback_duration_window","60b0cc1bfdbeb3b7d4f55485","Q2vPyA5lRlVSq6aO3OiwVFpP9m33","","","","","","","","","","","","","","","","","","750","","",""
"html-keyboard-response","70","130634","0.0-30.0-3.0","","null","<div style='margin:auto;width: auto; font-size: 150%'><span style='font-weight: bold; font-size: 100px; color: red;'>0 points!</span><br><br></div>","null","delaylearn","learning","feedback_image_window","60b0cc1bfdbeb3b7d4f55485","Q2vPyA5lRlVSq6aO3OiwVFpP9m33","","","","","","","","","","","","","","","","","","","","",""
"html-keyboard-response","71","131136","0.0-31.0-0.0","","null","","null","","","mood_trial_fixation","","","","","","","","","","","","","","","","","","","","","","",""
"lmdlab-html-vas-response","72","135635","0.0-31.0-1.0","","3493","How happy are you right now?","0.003703703703703704","delaylearn","learning","mood_trial","60b0cc1bfdbeb3b7d4f55485","Q2vPyA5lRlVSq6aO3OiwVFpP9m33","","","","","","","","","","","","","","","","","","","","[""Very unhappy"",""Very happy""]",""
"html-keyboard-response","73","138052","0.0-32.0","","null","<div style=""font-size:100px;"">+</div>","null","delaylearn","learning","ITI","60b0cc1bfdbeb3b7d4f55485","Q2vPyA5lRlVSq6aO3OiwVFpP9m33","","","","","","","","","","","","","","","","","","","2416","",""
"html-keyboard-response","74","138774","0.0-33.0-0.0","","720","<div style=""display: flex; flex-direction: column; align-items: center; margin-top: -40px;""><img src=""images/pattern_1.png"" style=""width: 234px; height: 230px; margin-top: -50px;""><div style=""display: flex; justify-content: space-between; margin-top: 33px;""><img src=""images/choice_trial_9.png"" style=""width: 408px; height: 417px; margin-right: 200px;""><img src=""images/choice_trial_1.png"" style=""width: 408px; height: 417px;""></div></div>","j","delaylearn","learning","trial","60b0cc1bfdbeb3b7d4f55485","Q2vPyA5lRlVSq6aO3OiwVFpP9m33","4","images/choice_trial_9.png","images/choice_trial_1.png","images/pattern_1.png","j","j","7000","9","1","1","1","14","1","1","1","80","","","","",""
"html-keyboard-response","75","139777","0.0-33.0-1.0","","null","<div style=""display: flex; flex-direction: column; align-items: center; margin-top: -40px;""><img src=""images/pattern_1.png"" style=""width: 234px; height: 230px; margin-top: -50px;""><div style=""display: flex; justify-content: space-between; margin-top: 33px;""><img src=""images/choice_trial_1.png"" style=""width: 408px; height: 417px; margin-left:608px;""></div></div>","null","delaylearn","learning","display_response","60b0cc1bfdbeb3b7d4f55485","Q2vPyA5lRlVSq6aO3OiwVFpP9m33","","","","","","","","","","","","","","","","","chosen stimuli: images/choice_trial_1.png","","","",""
"html-keyboard-response","76","146779","0.0-33.0-2.0","","null","","null","delaylearn","learning","feedback_duration_window","60b0cc1bfdbeb3b7d4f55485","Q2vPyA5lRlVSq6aO3OiwVFpP9m33","","","","","","","","","","","","","","","","","","7000","","",""
"html-keyboard-response","77","148282","0.0-33.0-3.0","","null","<div style='margin:auto;width: auto; font-size: 150%'><span style='font-weight: bold; font-size: 100px; color: green;'>+10 points!</span><br><br></div>","null","delaylearn","learning","feedback_image_window","60b0cc1bfdbeb3b7d4f55485","Q2vPyA5lRlVSq6aO3OiwVFpP9m33","","","","","","","","","","","","","","","","","","","","",""
"html-keyboard-response","78","150157","0.0-34.0","","null","<div style=""font-size:100px;"">+</div>","null","delaylearn","learning","ITI","60b0cc1bfdbeb3b7d4f55485","Q2vPyA5lRlVSq6aO3OiwVFpP9m33","","","","","","","","","","","","","","","","","","","1872","",""
"html-keyboard-response","79","151240","0.0-35.0-0.0","","1079.9999999999418","<div style=""display: flex; flex-direction: column; align-items: center; margin-top: -40px;""><img src=""images/pattern_3.png"" style=""width: 234px; height: 230px; margin-top: -50px;""><div style=""display: flex; justify-content: space-between; margin-top: 33px;""><img src=""images/choice_trial_6.png"" style=""width: 408px; height: 417px; margin-right: 200px;""><img src=""images/choice_trial_16.png"" style=""width: 408px; height: 417px;""></div></div>","f","delaylearn","learning","trial","60b0cc1bfdbeb3b7d4f55485","Q2vPyA5lRlVSq6aO3OiwVFpP9m33","4","images/choice_trial_6.png","images/choice_trial_16.png","images/pattern_3.png","f","j","7000","6","16","2","1","15","0","1","6","90","","","","",""
"html-keyboard-response","80","152242","0.0-35.0-1.0","","null","<div style=""display: flex; flex-direction: column; align-items: center; margin-top: -40px;""><img src=""images/pattern_3.png"" style=""width: 234px; height: 230px; margin-top: -50px;""><div style=""display: flex; justify-content: space-between; margin-top: 33px;""><img src=""images/choice_trial_6.png"" style=""width: 408px; height: 417px; margin-right: 608px;""></div></div>","null","delaylearn","learning","display_response","60b0cc1bfdbeb3b7d4f55485","Q2vPyA5lRlVSq6aO3OiwVFpP9m33","","","","","","","","","","","","","","","","","chosen stimuli: images/choice_trial_6.png","","","",""
"html-keyboard-response","81","159244","0.0-35.0-2.0","","null","","null","delaylearn","learning","feedback_duration_window","60b0cc1bfdbeb3b7d4f55485","Q2vPyA5lRlVSq6aO3OiwVFpP9m33","","","","","","","","","","","","","","","","","","7000","","",""
"html-keyboard-response","82","160747","0.0-35.0-3.0","","null","<div style='margin:auto;width: auto; font-size: 150%'><span style='font-weight: bold; font-size: 100px; color: green;'>+10 points!</span><br><br></div>","null","delaylearn","learning","feedback_image_window","60b0cc1bfdbeb3b7d4f55485","Q2vPyA5lRlVSq6aO3OiwVFpP9m33","","","","","","","","","","","","","","","","","","","","",""
"html-keyboard-response","83","163046","0.0-36.0","","null","<div style=""font-size:100px;"">+</div>","null","delaylearn","learning","ITI","60b0cc1bfdbeb3b7d4f55485","Q2vPyA5lRlVSq6aO3OiwVFpP9m33","","","","","","","","","","","","","","","","","","","2297","",""
"html-keyboard-response","84","163918","0.0-37.0-0.0","","870","<div style=""display: flex; flex-direction: column; align-items: center; margin-top: -40px;""><img src=""images/pattern_5.png"" style=""width: 234px; height: 230px; margin-top: -50px;""><div style=""display: flex; justify-content: space-between; margin-top: 33px;""><img src=""images/choice_trial_5.png"" style=""width: 408px; height: 417px; margin-right: 200px;""><img src=""images/choice_trial_15.png"" style=""width: 408px; height: 417px;""></div></div>","f","delaylearn","learning","trial","60b0cc1bfdbeb3b7d4f55485","Q2vPyA5lRlVSq6aO3OiwVFpP9m33","4","images/choice_trial_5.png","images/choice_trial_15.png","images/pattern_5.png","f","f","750","5","15","4","0","16","1","1","5","100","","","","",""
"html-keyboard-response","85","164921","0.0-37.0-1.0","","null","<div style=""display: flex; flex-direction: column; align-items: center; margin-top: -40px;""><img src=""images/pattern_5.png"" style=""width: 234px; height: 230px; margin-top: -50px;""><div style=""display: flex; justify-content: space-between; margin-top: 33px;""><img src=""images/choice_trial_5.png"" style=""width: 408px; height: 417px; margin-right: 608px;""></div></div>","null","delaylearn","learning","display_response","60b0cc1bfdbeb3b7d4f55485","Q2vPyA5lRlVSq6aO3OiwVFpP9m33","","","","","","","","","","","","","","","","","chosen stimuli: images/choice_trial_5.png","","","",""
"html-keyboard-response","86","165672","0.0-37.0-2.0","","null","","null","delaylearn","learning","feedback_duration_window","60b0cc1bfdbeb3b7d4f55485","Q2vPyA5lRlVSq6aO3OiwVFpP9m33","","","","","","","","","","","","","","","","","","750","","",""
"html-keyboard-response","87","167175","0.0-37.0-3.0","","null","<div style='margin:auto;width: auto; font-size: 150%'><span style='font-weight: bold; font-size: 100px; color: green;'>+10 points!</span><br><br></div>","null","delaylearn","learning","feedback_image_window","60b0cc1bfdbeb3b7d4f55485","Q2vPyA5lRlVSq6aO3OiwVFpP9m33","","","","","","","","","","","","","","","","","","","","",""
"html-keyboard-response","88","167678","0.0-38.0-0.0","","null","","null","","","mood_trial_fixation","","","","","","","","","","","","","","","","","","","","","","",""
"lmdlab-html-vas-response","89","171008","0.0-38.0-1.0","","2324","How happy are you right now?","0.9388888888888889","delaylearn","learning","mood_trial","60b0cc1bfdbeb3b7d4f55485","Q2vPyA5lRlVSq6aO3OiwVFpP9m33","","","","","","","","","","","","","","","","","","","","[""Very unhappy"",""Very happy""]",""
"html-keyboard-response","90","172996","0.0-39.0","","null","<div style=""font-size:100px;"">+</div>","null","delaylearn","learning","ITI","60b0cc1bfdbeb3b7d4f55485","Q2vPyA5lRlVSq6aO3OiwVFpP9m33","","","","","","","","","","","","","","","","","","","1986","",""
"html-keyboard-response","91","173783","0.0-40.0-0.0","","782.9999999999418","<div style=""display: flex; flex-direction: column; align-items: center; margin-top: -40px;""><img src=""images/pattern_6.png"" style=""width: 234px; height: 230px; margin-top: -50px;""><div style=""display: flex; justify-content: space-between; margin-top: 33px;""><img src=""images/choice_trial_10.png"" style=""width: 408px; height: 417px; margin-right: 200px;""><img src=""images/choice_trial_3.png"" style=""width: 408px; height: 417px;""></div></div>","f","delaylearn","learning","trial","60b0cc1bfdbeb3b7d4f55485","Q2vPyA5lRlVSq6aO3OiwVFpP9m33","4","images/choice_trial_10.png","images/choice_trial_3.png","images/pattern_6.png","f","f","750","10","3","5","0","17","1","1","10","110","","","","",""
"html-keyboard-response","92","174786","0.0-40.0-1.0","","null","<div style=""display: flex; flex-direction: column; align-items: center; margin-top: -40px;""><img src=""images/pattern_6.png"" style=""width: 234px; height: 230px; margin-top: -50px;""><div style=""display: flex; justify-content: space-between; margin-top: 33px;""><img src=""images/choice_trial_10.png"" style=""width: 408px; height: 417px; margin-right: 608px;""></div></div>","null","delaylearn","learning","display_response","60b0cc1bfdbeb3b7d4f55485","Q2vPyA5lRlVSq6aO3OiwVFpP9m33","","","","","","","","","","","","","","","","","chosen stimuli: images/choice_trial_10.png","","","",""
"html-keyboard-response","93","175538","0.0-40.0-2.0","","null","","null","delaylearn","learning","feedback_duration_window","60b0cc1bfdbeb3b7d4f55485","Q2vPyA5lRlVSq6aO3OiwVFpP9m33","","","","","","","","","","","","","","","","","","750","","",""
"html-keyboard-response","94","177040","0.0-40.0-3.0","","null","<div style='margin:auto;width: auto; font-size: 150%'><span style='font-weight: bold; font-size: 100px; color: green;'>+10 points!</span><br><br></div>","null","delaylearn","learning","feedback_image_window","60b0cc1bfdbeb3b7d4f55485","Q2vPyA5lRlVSq6aO3OiwVFpP9m33","","","","","","","","","","","","","","","","","","","","",""
"html-keyboard-response","95","179410","0.0-41.0","","null","<div style=""font-size:100px;"">+</div>","null","delaylearn","learning","ITI","60b0cc1bfdbeb3b7d4f55485","Q2vPyA5lRlVSq6aO3OiwVFpP9m33","","","","","","","","","","","","","","","","","","","2367","",""
"html-keyboard-response","96","180514","0.0-42.0-0.0","","1102","<div style=""display: flex; flex-direction: column; align-items: center; margin-top: -40px;""><img src=""images/pattern_4.png"" style=""width: 234px; height: 230px; margin-top: -50px;""><div style=""display: flex; justify-content: space-between; margin-top: 33px;""><img src=""images/choice_trial_7.png"" style=""width: 408px; height: 417px; margin-right: 200px;""><img src=""images/choice_trial_8.png"" style=""width: 408px; height: 417px;""></div></div>","f","delaylearn","learning","trial","60b0cc1bfdbeb3b7d4f55485","Q2vPyA5lRlVSq6aO3OiwVFpP9m33","4","images/choice_trial_7.png","images/choice_trial_8.png","images/pattern_4.png","j","j","7000","7","8","3","1","18","0","0","7","110","","","","",""
"html-keyboard-response","97","181517","0.0-42.0-1.0","","null","<div style=""display: flex; flex-direction: column; align-items: center; margin-top: -40px;""><img src=""images/pattern_4.png"" style=""width: 234px; height: 230px; margin-top: -50px;""><div style=""display: flex; justify-content: space-between; margin-top: 33px;""><img src=""images/choice_trial_7.png"" style=""width: 408px; height: 417px; margin-right: 608px;""></div></div>","null","delaylearn","learning","display_response","60b0cc1bfdbeb3b7d4f55485","Q2vPyA5lRlVSq6aO3OiwVFpP9m33","","","","","","","","","","","","","","","","","chosen stimuli: images/choice_trial_7.png","","","",""
"html-keyboard-response","98","188519","0.0-42.0-2.0","","null","","null","delaylearn","learning","feedback_duration_window","60b0cc1bfdbeb3b7d4f55485","Q2vPyA5lRlVSq6aO3OiwVFpP9m33","","","","","","","","","","","","","","","","","","7000","","",""
"html-keyboard-response","99","190021","0.0-42.0-3.0","","null","<div style='margin:auto;width: auto; font-size: 150%'><span style='font-weight: bold; font-size: 100px; color: red;'>0 points!</span><br><br></div>","null","delaylearn","learning","feedback_image_window","60b0cc1bfdbeb3b7d4f55485","Q2vPyA5lRlVSq6aO3OiwVFpP9m33","","","","","","","","","","","","","","","","","","","","",""
"html-keyboard-response","100","191834","0.0-43.0","","null","<div style=""font-size:100px;"">+</div>","null","delaylearn","learning","ITI","60b0cc1bfdbeb3b7d4f55485","Q2vPyA5lRlVSq6aO3OiwVFpP9m33","","","","","","","","","","","","","","","","","","","1810","",""
"html-keyboard-response","101","192670","0.0-44.0-0.0","","834","<div style=""display: flex; flex-direction: column; align-items: center; margin-top: -40px;""><img src=""images/pattern_7.png"" style=""width: 234px; height: 230px; margin-top: -50px;""><div style=""display: flex; justify-content: space-between; margin-top: 33px;""><img src=""images/choice_trial_13.png"" style=""width: 408px; height: 417px; margin-right: 200px;""><img src=""images/choice_trial_4.png"" style=""width: 408px; height: 417px;""></div></div>","j","delaylearn","learning","trial","60b0cc1bfdbeb3b7d4f55485","Q2vPyA5lRlVSq6aO3OiwVFpP9m33","4","images/choice_trial_13.png","images/choice_trial_4.png","images/pattern_7.png","j","f","750","13","4","6","0","19","0","1","4","120","","","","",""
"html-keyboard-response","102","193672","0.0-44.0-1.0","","null","<div style=""display: flex; flex-direction: column; align-items: center; margin-top: -40px;""><img src=""images/pattern_7.png"" style=""width: 234px; height: 230px; margin-top: -50px;""><div style=""display: flex; justify-content: space-between; margin-top: 33px;""><img src=""images/choice_trial_4.png"" style=""width: 408px; height: 417px; margin-left:608px;""></div></div>","null","delaylearn","learning","display_response","60b0cc1bfdbeb3b7d4f55485","Q2vPyA5lRlVSq6aO3OiwVFpP9m33","","","","","","","","","","","","","","","","","chosen stimuli: images/choice_trial_4.png","","","",""
"html-keyboard-response","103","194425","0.0-44.0-2.0","","null","","null","delaylearn","learning","feedback_duration_window","60b0cc1bfdbeb3b7d4f55485","Q2vPyA5lRlVSq6aO3OiwVFpP9m33","","","","","","","","","","","","","","","","","","750","","",""
"html-keyboard-response","104","195928","0.0-44.0-3.0","","null","<div style='margin:auto;width: auto; font-size: 150%'><span style='font-weight: bold; font-size: 100px; color: green;'>+10 points!</span><br><br></div>","null","delaylearn","learning","feedback_image_window","60b0cc1bfdbeb3b7d4f55485","Q2vPyA5lRlVSq6aO3OiwVFpP9m33","","","","","","","","","","","","","","","","","","","","",""
"html-keyboard-response","105","197898","0.0-45.0","","null","<div style=""font-size:100px;"">+</div>","null","delaylearn","learning","ITI","60b0cc1bfdbeb3b7d4f55485","Q2vPyA5lRlVSq6aO3OiwVFpP9m33","","","","","","","","","","","","","","","","","","","1967","",""
"html-keyboard-response","106","198938","0.0-46.0-0.0","","1037","<div style=""display: flex; flex-direction: column; align-items: center; margin-top: -40px;""><img src=""images/pattern_1.png"" style=""width: 234px; height: 230px; margin-top: -50px;""><div style=""display: flex; justify-content: space-between; margin-top: 33px;""><img src=""images/choice_trial_1.png"" style=""width: 408px; height: 417px; margin-right: 200px;""><img src=""images/choice_trial_9.png"" style=""width: 408px; height: 417px;""></div></div>","j","delaylearn","learning","trial","60b0cc1bfdbeb3b7d4f55485","Q2vPyA5lRlVSq6aO3OiwVFpP9m33","4","images/choice_trial_1.png","images/choice_trial_9.png","images/pattern_1.png","f","f","7000","1","9","1","0","20","0","0","9","120","","","","",""
"html-keyboard-response","107","199941","0.0-46.0-1.0","","null","<div style=""display: flex; flex-direction: column; align-items: center; margin-top: -40px;""><img src=""images/pattern_1.png"" style=""width: 234px; height: 230px; margin-top: -50px;""><div style=""display: flex; justify-content: space-between; margin-top: 33px;""><img src=""images/choice_trial_9.png"" style=""width: 408px; height: 417px; margin-left:608px;""></div></div>","null","delaylearn","learning","display_response","60b0cc1bfdbeb3b7d4f55485","Q2vPyA5lRlVSq6aO3OiwVFpP9m33","","","","","","","","","","","","","","","","","chosen stimuli: images/choice_trial_9.png","","","",""
"html-keyboard-response","108","206944","0.0-46.0-2.0","","null","","null","delaylearn","learning","feedback_duration_window","60b0cc1bfdbeb3b7d4f55485","Q2vPyA5lRlVSq6aO3OiwVFpP9m33","","","","","","","","","","","","","","","","","","7000","","",""
"html-keyboard-response","109","208446","0.0-46.0-3.0","","null","<div style='margin:auto;width: auto; font-size: 150%'><span style='font-weight: bold; font-size: 100px; color: red;'>0 points!</span><br><br></div>","null","delaylearn","learning","feedback_image_window","60b0cc1bfdbeb3b7d4f55485","Q2vPyA5lRlVSq6aO3OiwVFpP9m33","","","","","","","","","","","","","","","","","","","","",""
"html-keyboard-response","110","210835","0.0-47.0","","null","<div style=""font-size:100px;"">+</div>","null","delaylearn","learning","ITI","60b0cc1bfdbeb3b7d4f55485","Q2vPyA5lRlVSq6aO3OiwVFpP9m33","","","","","","","","","","","","","","","","","","","2387","",""
"html-keyboard-response","111","211860","0.0-48.0-0.0","","1022","<div style=""display: flex; flex-direction: column; align-items: center; margin-top: -40px;""><img src=""images/pattern_6.png"" style=""width: 234px; height: 230px; margin-top: -50px;""><div style=""display: flex; justify-content: space-between; margin-top: 33px;""><img src=""images/choice_trial_3.png"" style=""width: 408px; height: 417px; margin-right: 200px;""><img src=""images/choice_trial_10.png"" style=""width: 408px; height: 417px;""></div></div>","f","delaylearn","learning","trial","60b0cc1bfdbeb3b7d4f55485","Q2vPyA5lRlVSq6aO3OiwVFpP9m33","4","images/choice_trial_3.png","images/choice_trial_10.png","images/pattern_6.png","j","j","750","3","10","5","1","21","0","0","3","120","","","","",""
"html-keyboard-response","112","212863","0.0-48.0-1.0","","null","<div style=""display: flex; flex-direction: column; align-items: center; margin-top: -40px;""><img src=""images/pattern_6.png"" style=""width: 234px; height: 230px; margin-top: -50px;""><div style=""display: flex; justify-content: space-between; margin-top: 33px;""><img src=""images/choice_trial_3.png"" style=""width: 408px; height: 417px; margin-right: 608px;""></div></div>","null","delaylearn","learning","display_response","60b0cc1bfdbeb3b7d4f55485","Q2vPyA5lRlVSq6aO3OiwVFpP9m33","","","","","","","","","","","","","","","","","chosen stimuli: images/choice_trial_3.png","","","",""
"html-keyboard-response","113","213615","0.0-48.0-2.0","","null","","null","delaylearn","learning","feedback_duration_window","60b0cc1bfdbeb3b7d4f55485","Q2vPyA5lRlVSq6aO3OiwVFpP9m33","","","","","","","","","","","","","","","","","","750","","",""
"html-keyboard-response","114","215117","0.0-48.0-3.0","","null","<div style='margin:auto;width: auto; font-size: 150%'><span style='font-weight: bold; font-size: 100px; color: red;'>0 points!</span><br><br></div>","null","delaylearn","learning","feedback_image_window","60b0cc1bfdbeb3b7d4f55485","Q2vPyA5lRlVSq6aO3OiwVFpP9m33","","","","","","","","","","","","","","","","","","","","",""
"html-keyboard-response","115","216843","0.0-49.0","","null","<div style=""font-size:100px;"">+</div>","null","delaylearn","learning","ITI","60b0cc1bfdbeb3b7d4f55485","Q2vPyA5lRlVSq6aO3OiwVFpP9m33","","","","","","","","","","","","","","","","","","","1724","",""
"html-keyboard-response","116","217856","0.0-50.0-0.0","","1010","<div style=""display: flex; flex-direction: column; align-items: center; margin-top: -40px;""><img src=""images/pattern_4.png"" style=""width: 234px; height: 230px; margin-top: -50px;""><div style=""display: flex; justify-content: space-between; margin-top: 33px;""><img src=""images/choice_trial_8.png"" style=""width: 408px; height: 417px; margin-right: 200px;""><img src=""images/choice_trial_7.png"" style=""width: 408px; height: 417px;""></div></div>","j","delaylearn","learning","trial","60b0cc1bfdbeb3b7d4f55485","Q2vPyA5lRlVSq6aO3OiwVFpP9m33","4","images/choice_trial_8.png","images/choice_trial_7.png","images/pattern_4.png","f","f","7000","8","7","3","0","22","0","0","7","120","","","","",""
"html-keyboard-response","117","218858","0.0-50.0-1.0","","null","<div style=""display: flex; flex-direction: column; align-items: center; margin-top: -40px;""><img src=""images/pattern_4.png"" style=""width: 234px; height: 230px; margin-top: -50px;""><div style=""display: flex; justify-content: space-between; margin-top: 33px;""><img src=""images/choice_trial_7.png"" style=""width: 408px; height: 417px; margin-left:608px;""></div></div>","null","delaylearn","learning","display_response","60b0cc1bfdbeb3b7d4f55485","Q2vPyA5lRlVSq6aO3OiwVFpP9m33","","","","","","","","","","","","","","","","","chosen stimuli: images/choice_trial_7.png","","","",""
"html-keyboard-response","118","225861","0.0-50.0-2.0","","null","","null","delaylearn","learning","feedback_duration_window","60b0cc1bfdbeb3b7d4f55485","Q2vPyA5lRlVSq6aO3OiwVFpP9m33","","","","","","","","","","","","","","","","","","7000","","",""
"html-keyboard-response","119","227363","0.0-50.0-3.0","","null","<div style='margin:auto;width: auto; font-size: 150%'><span style='font-weight: bold; font-size: 100px; color: red;'>0 points!</span><br><br></div>","null","delaylearn","learning","feedback_image_window","60b0cc1bfdbeb3b7d4f55485","Q2vPyA5lRlVSq6aO3OiwVFpP9m33","","","","","","","","","","","","","","","","","","","","",""
"html-keyboard-response","120","227866","0.0-51.0-0.0","","null","","null","","","mood_trial_fixation","","","","","","","","","","","","","","","","","","","","","","",""
"lmdlab-html-vas-response","121","231492","0.0-51.0-1.0","","2612","How happy are you right now?","0.2962962962962963","delaylearn","learning","mood_trial","60b0cc1bfdbeb3b7d4f55485","Q2vPyA5lRlVSq6aO3OiwVFpP9m33","","","","","","","","","","","","","","","","","","","","[""Very unhappy"",""Very happy""]",""
"html-keyboard-response","122","233099","0.0-52.0","","null","<div style=""font-size:100px;"">+</div>","null","delaylearn","learning","ITI","60b0cc1bfdbeb3b7d4f55485","Q2vPyA5lRlVSq6aO3OiwVFpP9m33","","","","","","","","","","","","","","","","","","","1605","",""
"html-keyboard-response","123","233947","0.0-53.0-0.0","","843.9999999999418","<div style=""display: flex; flex-direction: column; align-items: center; margin-top: -40px;""><img src=""images/pattern_7.png"" style=""width: 234px; height: 230px; margin-top: -50px;""><div style=""display: flex; justify-content: space-between; margin-top: 33px;""><img src=""images/choice_trial_4.png"" style=""width: 408px; height: 417px; margin-right: 200px;""><img src=""images/choice_trial_13.png"" style=""width: 408px; height: 417px;""></div></div>","f","delaylearn","learning","trial","60b0cc1bfdbeb3b7d4f55485","Q2vPyA5lRlVSq6aO3OiwVFpP9m33","4","images/choice_trial_4.png","images/choice_trial_13.png","images/pattern_7.png","j","j","750","4","13","6","1","23","0","0","4","120","","","","",""
"html-keyboard-response","124","234948","0.0-53.0-1.0","","null","<div style=""display: flex; flex-direction: column; align-items: center; margin-top: -40px;""><img src=""images/pattern_7.png"" style=""width: 234px; height: 230px; margin-top: -50px;""><div style=""display: flex; justify-content: space-between; margin-top: 33px;""><img src=""images/choice_trial_4.png"" style=""width: 408px; height: 417px; margin-right: 608px;""></div></div>","null","delaylearn","learning","display_response","60b0cc1bfdbeb3b7d4f55485","Q2vPyA5lRlVSq6aO3OiwVFpP9m33","","","","","","","","","","","","","","","","","chosen stimuli: images/choice_trial_4.png","","","",""
"html-keyboard-response","125","235701","0.0-53.0-2.0","","null","","null","delaylearn","learning","feedback_duration_window","60b0cc1bfdbeb3b7d4f55485","Q2vPyA5lRlVSq6aO3OiwVFpP9m33","","","","","","","","","","","","","","","","","","750","","",""
"html-keyboard-response","126","237203","0.0-53.0-3.0","","null","<div style='margin:auto;width: auto; font-size: 150%'><span style='font-weight: bold; font-size: 100px; color: red;'>0 points!</span><br><br></div>","null","delaylearn","learning","feedback_image_window","60b0cc1bfdbeb3b7d4f55485","Q2vPyA5lRlVSq6aO3OiwVFpP9m33","","","","","","","","","","","","","","","","","","","","",""
"html-keyboard-response","127","239172","0.0-54.0","","null","<div style=""font-size:100px;"">+</div>","null","delaylearn","learning","ITI","60b0cc1bfdbeb3b7d4f55485","Q2vPyA5lRlVSq6aO3OiwVFpP9m33","","","","","","","","","","","","","","","","","","","1967","",""
"html-keyboard-response","128","240055","0.0-55.0-0.0","","880","<div style=""display: flex; flex-direction: column; align-items: center; margin-top: -40px;""><img src=""images/pattern_1.png"" style=""width: 234px; height: 230px; margin-top: -50px;""><div style=""display: flex; justify-content: space-between; margin-top: 33px;""><img src=""images/choice_trial_9.png"" style=""width: 408px; height: 417px; margin-right: 200px;""><img src=""images/choice_trial_1.png"" style=""width: 408px; height: 417px;""></div></div>","f","delaylearn","learning","trial","60b0cc1bfdbeb3b7d4f55485","Q2vPyA5lRlVSq6aO3OiwVFpP9m33","4","images/choice_trial_9.png","images/choice_trial_1.png","images/pattern_1.png","f","j","7000","9","1","1","1","24","0","1","9","130","","","","",""
"html-keyboard-response","129","241057","0.0-55.0-1.0","","null","<div style=""display: flex; flex-direction: column; align-items: center; margin-top: -40px;""><img src=""images/pattern_1.png"" style=""width: 234px; height: 230px; margin-top: -50px;""><div style=""display: flex; justify-content: space-between; margin-top: 33px;""><img src=""images/choice_trial_9.png"" style=""width: 408px; height: 417px; margin-right: 608px;""></div></div>","null","delaylearn","learning","display_response","60b0cc1bfdbeb3b7d4f55485","Q2vPyA5lRlVSq6aO3OiwVFpP9m33","","","","","","","","","","","","","","","","","chosen stimuli: images/choice_trial_9.png","","","",""
"html-keyboard-response","130","248060","0.0-55.0-2.0","","null","","null","delaylearn","learning","feedback_duration_window","60b0cc1bfdbeb3b7d4f55485","Q2vPyA5lRlVSq6aO3OiwVFpP9m33","","","","","","","","","","","","","","","","","","7000","","",""
"html-keyboard-response","131","249562","0.0-55.0-3.0","","null","<div style='margin:auto;width: auto; font-size: 150%'><span style='font-weight: bold; font-size: 100px; color: green;'>+10 points!</span><br><br></div>","null","delaylearn","learning","feedback_image_window","60b0cc1bfdbeb3b7d4f55485","Q2vPyA5lRlVSq6aO3OiwVFpP9m33","","","","","","","","","","","","","","","","","","","","",""
"html-keyboard-response","132","251713","0.0-56.0","","null","<div style=""font-size:100px;"">+</div>","null","delaylearn","learning","ITI","60b0cc1bfdbeb3b7d4f55485","Q2vPyA5lRlVSq6aO3OiwVFpP9m33","","","","","","","","","","","","","","","","","","","2148","",""
"html-keyboard-response","133","252552","0.0-57.0-0.0","","835","<div style=""display: flex; flex-direction: column; align-items: center; margin-top: -40px;""><img src=""images/pattern_5.png"" style=""width: 234px; height: 230px; margin-top: -50px;""><div style=""display: flex; justify-content: space-between; margin-top: 33px;""><img src=""images/choice_trial_15.png"" style=""width: 408px; height: 417px; margin-right: 200px;""><img src=""images/choice_trial_5.png"" style=""width: 408px; height: 417px;""></div></div>","j","delaylearn","learning","trial","60b0cc1bfdbeb3b7d4f55485","Q2vPyA5lRlVSq6aO3OiwVFpP9m33","4","images/choice_trial_15.png","images/choice_trial_5.png","images/pattern_5.png","j","j","750","15","5","4","1","25","1","1","5","140","","","","",""
"html-keyboard-response","134","253555","0.0-57.0-1.0","","null","<div style=""display: flex; flex-direction: column; align-items: center; margin-top: -40px;""><img src=""images/pattern_5.png"" style=""width: 234px; height: 230px; margin-top: -50px;""><div style=""display: flex; justify-content: space-between; margin-top: 33px;""><img src=""images/choice_trial_5.png"" style=""width: 408px; height: 417px; margin-left:608px;""></div></div>","null","delaylearn","learning","display_response","60b0cc1bfdbeb3b7d4f55485","Q2vPyA5lRlVSq6aO3OiwVFpP9m33","","","","","","","","","","","","","","","","","chosen stimuli: images/choice_trial_5.png","","","",""
"html-keyboard-response","135","254307","0.0-57.0-2.0","","null","","null","delaylearn","learning","feedback_duration_window","60b0cc1bfdbeb3b7d4f55485","Q2vPyA5lRlVSq6aO3OiwVFpP9m33","","","","","","","","","","","","","","","","","","750","","",""
"html-keyboard-response","136","255809","0.0-57.0-3.0","","null","<div style='margin:auto;width: auto; font-size: 150%'><span style='font-weight: bold; font-size: 100px; color: green;'>+10 points!</span><br><br></div>","null","delaylearn","learning","feedback_image_window","60b0cc1bfdbeb3b7d4f55485","Q2vPyA5lRlVSq6aO3OiwVFpP9m33","","","","","","","","","","","","","","","","","","","","",""
"html-keyboard-response","137","257526","0.0-58.0","","null","<div style=""font-size:100px;"">+</div>","null","delaylearn","learning","ITI","60b0cc1bfdbeb3b7d4f55485","Q2vPyA5lRlVSq6aO3OiwVFpP9m33","","","","","","","","","","","","","","","","","","","1714","",""
"html-keyboard-response","138","258421","0.0-59.0-0.0","","892","<div style=""display: flex; flex-direction: column; align-items: center; margin-top: -40px;""><img src=""images/pattern_3.png"" style=""width: 234px; height: 230px; margin-top: -50px;""><div style=""display: flex; justify-content: space-between; margin-top: 33px;""><img src=""images/choice_trial_6.png"" style=""width: 408px; height: 417px; margin-right: 200px;""><img src=""images/choice_trial_16.png"" style=""width: 408px; height: 417px;""></div></div>","f","delaylearn","learning","trial","60b0cc1bfdbeb3b7d4f55485","Q2vPyA5lRlVSq6aO3OiwVFpP9m33","4","images/choice_trial_6.png","images/choice_trial_16.png","images/pattern_3.png","j","j","7000","6","16","2","1","26","0","0","6","140","","","","",""
"html-keyboard-response","139","259424","0.0-59.0-1.0","","null","<div style=""display: flex; flex-direction: column; align-items: center; margin-top: -40px;""><img src=""images/pattern_3.png"" style=""width: 234px; height: 230px; margin-top: -50px;""><div style=""display: flex; justify-content: space-between; margin-top: 33px;""><img src=""images/choice_trial_6.png"" style=""width: 408px; height: 417px; margin-right: 608px;""></div></div>","null","delaylearn","learning","display_response","60b0cc1bfdbeb3b7d4f55485","Q2vPyA5lRlVSq6aO3OiwVFpP9m33","","","","","","","","","","","","","","","","","chosen stimuli: images/choice_trial_6.png","","","",""
"html-keyboard-response","140","266426","0.0-59.0-2.0","","null","","null","delaylearn","learning","feedback_duration_window","60b0cc1bfdbeb3b7d4f55485","Q2vPyA5lRlVSq6aO3OiwVFpP9m33","","","","","","","","","","","","","","","","","","7000","","",""
"html-keyboard-response","141","267929","0.0-59.0-3.0","","null","<div style='margin:auto;width: auto; font-size: 150%'><span style='font-weight: bold; font-size: 100px; color: red;'>0 points!</span><br><br></div>","null","delaylearn","learning","feedback_image_window","60b0cc1bfdbeb3b7d4f55485","Q2vPyA5lRlVSq6aO3OiwVFpP9m33","","","","","","","","","","","","","","","","","","","","",""
"lmdlab-html-vas-response","142","275388","0.0-60.0-0.0","","5952","*How <b><u>confident</u></b> are you feeling about your answers at this moment?*","0.5222222222222223","rewlearn","rate_confidence","","60b0cc1bfdbeb3b7d4f55485","Q2vPyA5lRlVSq6aO3OiwVFpP9m33","","","","","","","","","","","","","","","","","","","","[""No confidence"",""Complete confidence""]",""
"lmdlab-rest-trial-limit","143","282126","0.0-60.0-1.0","","5235","<div style=""font-size:40px;""><b>Please take a break!</b><br><br><br><br><p>Great work: you earned 140 points.<br><br><br><p>You have completed part(s) 1 of 5.<br><br><br><br>When you are ready to continue<br><br><br>please click the button.</p><br><br>","0","delaylearn","learning","break","60b0cc1bfdbeb3b7d4f55485","Q2vPyA5lRlVSq6aO3OiwVFpP9m33","","","","","","","","","","","","","","","","","","","","","0"
"html-keyboard-response","144","285128","0.0-60.0-2.0","","null","<div style=""font-size:100px;"">+</div>","null","delaylearn","learning","pre_fixation","60b0cc1bfdbeb3b7d4f55485","","","","","","","","","","","","","","","","","","","","","",""
"lmdlab-html-vas-response","145","291185","0.0-60.0-3.0-0.0","","5050","How happy are you right now?","0.32592592592592595","delaylearn","learning","mood_baseline","60b0cc1bfdbeb3b7d4f55485","Q2vPyA5lRlVSq6aO3OiwVFpP9m33","","","","","","","","","","","","","","","","","","","","[""Very unhappy"",""Very happy""]",""
"html-keyboard-response","146","292687","0.0-60.0-3.0-1.0","","null","","null","","","mood_baseline_fixation","","","","","","","","","","","","","","","","","","","","","","",""
"html-keyboard-response","147","294226","0.0-61.0","","null","<div style=""font-size:100px;"">+</div>","null","delaylearn","learning","ITI","60b0cc1bfdbeb3b7d4f55485","Q2vPyA5lRlVSq6aO3OiwVFpP9m33","","","","","","","","","","","","","","","","","","","1536","",""
"html-keyboard-response","148","295426","0.0-62.0-0.0","","1197","<div style=""display: flex; flex-direction: column; align-items: center; margin-top: -40px;""><img src=""images/pattern_7.png"" style=""width: 234px; height: 230px; margin-top: -50px;""><div style=""display: flex; justify-content: space-between; margin-top: 33px;""><img src=""images/choice_trial_4.png"" style=""width: 408px; height: 417px; margin-right: 200px;""><img src=""images/choice_trial_13.png"" style=""width: 408px; height: 417px;""></div></div>","f","delaylearn","learning","trial","60b0cc1bfdbeb3b7d4f55485","Q2vPyA5lRlVSq6aO3OiwVFpP9m33","4","images/choice_trial_4.png","images/choice_trial_13.png","images/pattern_7.png","j","j","750","4","13","6","1","27","0","0","4","140","","","","",""
"html-keyboard-response","149","296431","0.0-62.0-1.0","","null","<div style=""display: flex; flex-direction: column; align-items: center; margin-top: -40px;""><img src=""images/pattern_7.png"" style=""width: 234px; height: 230px; margin-top: -50px;""><div style=""display: flex; justify-content: space-between; margin-top: 33px;""><img src=""images/choice_trial_4.png"" style=""width: 408px; height: 417px; margin-right: 608px;""></div></div>","null","delaylearn","learning","display_response","60b0cc1bfdbeb3b7d4f55485","Q2vPyA5lRlVSq6aO3OiwVFpP9m33","","","","","","","","","","","","","","","","","chosen stimuli: images/choice_trial_4.png","","","",""
"html-keyboard-response","150","297184","0.0-62.0-2.0","","null","","null","delaylearn","learning","feedback_duration_window","60b0cc1bfdbeb3b7d4f55485","Q2vPyA5lRlVSq6aO3OiwVFpP9m33","","","","","","","","","","","","","","","","","","750","","",""
"html-keyboard-response","151","298687","0.0-62.0-3.0","","null","<div style='margin:auto;width: auto; font-size: 150%'><span style='font-weight: bold; font-size: 100px; color: red;'>0 points!</span><br><br></div>","null","delaylearn","learning","feedback_image_window","60b0cc1bfdbeb3b7d4f55485","Q2vPyA5lRlVSq6aO3OiwVFpP9m33","","","","","","","","","","","","","","","","","","","","",""
"html-keyboard-response","152","299189","0.0-63.0-0.0","","null","","null","","","mood_trial_fixation","","","","","","","","","","","","","","","","","","","","","","",""
"lmdlab-html-vas-response","153","302558","0.0-63.0-1.0","","2362","How happy are you right now?","0.2222222222222222","delaylearn","learning","mood_trial","60b0cc1bfdbeb3b7d4f55485","Q2vPyA5lRlVSq6aO3OiwVFpP9m33","","","","","","","","","","","","","","","","","","","","[""Very unhappy"",""Very happy""]",""
"html-keyboard-response","154","304772","0.0-64.0","","null","<div style=""font-size:100px;"">+</div>","null","delaylearn","learning","ITI","60b0cc1bfdbeb3b7d4f55485","Q2vPyA5lRlVSq6aO3OiwVFpP9m33","","","","","","","","","","","","","","","","","","","2213","",""
"html-keyboard-response","155","305591","0.0-65.0-0.0","","816","<div style=""display: flex; flex-direction: column; align-items: center; margin-top: -40px;""><img src=""images/pattern_1.png"" style=""width: 234px; height: 230px; margin-top: -50px;""><div style=""display: flex; justify-content: space-between; margin-top: 33px;""><img src=""images/choice_trial_1.png"" style=""width: 408px; height: 417px; margin-right: 200px;""><img src=""images/choice_trial_9.png"" style=""width: 408px; height: 417px;""></div></div>","j","delaylearn","learning","trial","60b0cc1bfdbeb3b7d4f55485","Q2vPyA5lRlVSq6aO3OiwVFpP9m33","4","images/choice_trial_1.png","images/choice_trial_9.png","images/pattern_1.png","f","f","7000","1","9","1","0","28","0","0","9","140","","","","",""
"html-keyboard-response","156","306593","0.0-65.0-1.0","","null","<div style=""display: flex; flex-direction: column; align-items: center; margin-top: -40px;""><img src=""images/pattern_1.png"" style=""width: 234px; height: 230px; margin-top: -50px;""><div style=""display: flex; justify-content: space-between; margin-top: 33px;""><img src=""images/choice_trial_9.png"" style=""width: 408px; height: 417px; margin-left:608px;""></div></div>","null","delaylearn","learning","display_response","60b0cc1bfdbeb3b7d4f55485","Q2vPyA5lRlVSq6aO3OiwVFpP9m33","","","","","","","","","","","","","","","","","chosen stimuli: images/choice_trial_9.png","","","",""
"html-keyboard-response","157","313596","0.0-65.0-2.0","","null","","null","delaylearn","learning","feedback_duration_window","60b0cc1bfdbeb3b7d4f55485","Q2vPyA5lRlVSq6aO3OiwVFpP9m33","","","","","","","","","","","","","","","","","","7000","","",""
"html-keyboard-response","158","315098","0.0-65.0-3.0","","null","<div style='margin:auto;width: auto; font-size: 150%'><span style='font-weight: bold; font-size: 100px; color: red;'>0 points!</span><br><br></div>","null","delaylearn","learning","feedback_image_window","60b0cc1bfdbeb3b7d4f55485","Q2vPyA5lRlVSq6aO3OiwVFpP9m33","","","","","","","","","","","","","","","","","","","","",""
"html-keyboard-response","159","316873","0.0-66.0","","null","<div style=""font-size:100px;"">+</div>","null","delaylearn","learning","ITI","60b0cc1bfdbeb3b7d4f55485","Q2vPyA5lRlVSq6aO3OiwVFpP9m33","","","","","","","","","","","","","","","","","","","1772","",""
"html-keyboard-response","160","317788","0.0-67.0-0.0","","913","<div style=""display: flex; flex-direction: column; align-items: center; margin-top: -40px;""><img src=""images/pattern_5.png"" style=""width: 234px; height: 230px; margin-top: -50px;""><div style=""display: flex; justify-content: space-between; margin-top: 33px;""><img src=""images/choice_trial_5.png"" style=""width: 408px; height: 417px; margin-right: 200px;""><img src=""images/choice_trial_15.png"" style=""width: 408px; height: 417px;""></div></div>","f","delaylearn","learning","trial","60b0cc1bfdbeb3b7d4f55485","Q2vPyA5lRlVSq6aO3OiwVFpP9m33","4","images/choice_trial_5.png","images/choice_trial_15.png","images/pattern_5.png","f","f","750","5","15","4","0","29","1","1","5","150","","","","",""
"html-keyboard-response","161","318789","0.0-67.0-1.0","","null","<div style=""display: flex; flex-direction: column; align-items: center; margin-top: -40px;""><img src=""images/pattern_5.png"" style=""width: 234px; height: 230px; margin-top: -50px;""><div style=""display: flex; justify-content: space-between; margin-top: 33px;""><img src=""images/choice_trial_5.png"" style=""width: 408px; height: 417px; margin-right: 608px;""></div></div>","null","delaylearn","learning","display_response","60b0cc1bfdbeb3b7d4f55485","Q2vPyA5lRlVSq6aO3OiwVFpP9m33","","","","","","","","","","","","","","","","","chosen stimuli: images/choice_trial_5.png","","","",""
"html-keyboard-response","162","319541","0.0-67.0-2.0","","null","","null","delaylearn","learning","feedback_duration_window","60b0cc1bfdbeb3b7d4f55485","Q2vPyA5lRlVSq6aO3OiwVFpP9m33","","","","","","","","","","","","","","","","","","750","","",""
"html-keyboard-response","163","321042","0.0-67.0-3.0","","null","<div style='margin:auto;width: auto; font-size: 150%'><span style='font-weight: bold; font-size: 100px; color: green;'>+10 points!</span><br><br></div>","null","delaylearn","learning","feedback_image_window","60b0cc1bfdbeb3b7d4f55485","Q2vPyA5lRlVSq6aO3OiwVFpP9m33","","","","","","","","","","","","","","","","","","","","",""
"html-keyboard-response","164","323361","0.0-68.0","","null","<div style=""font-size:100px;"">+</div>","null","delaylearn","learning","ITI","60b0cc1bfdbeb3b7d4f55485","Q2vPyA5lRlVSq6aO3OiwVFpP9m33","","","","","","","","","","","","","","","","","","","2317","",""
"html-keyboard-response","165","324480","0.0-69.0-0.0","","1116","<div style=""display: flex; flex-direction: column; align-items: center; margin-top: -40px;""><img src=""images/pattern_6.png"" style=""width: 234px; height: 230px; margin-top: -50px;""><div style=""display: flex; justify-content: space-between; margin-top: 33px;""><img src=""images/choice_trial_3.png"" style=""width: 408px; height: 417px; margin-right: 200px;""><img src=""images/choice_trial_10.png"" style=""width: 408px; height: 417px;""></div></div>","f","delaylearn","learning","trial","60b0cc1bfdbeb3b7d4f55485","Q2vPyA5lRlVSq6aO3OiwVFpP9m33","4","images/choice_trial_3.png","images/choice_trial_10.png","images/pattern_6.png","j","j","750","3","10","5","1","30","0","0","3","150","","","","",""
"html-keyboard-response","166","325483","0.0-69.0-1.0","","null","<div style=""display: flex; flex-direction: column; align-items: center; margin-top: -40px;""><img src=""images/pattern_6.png"" style=""width: 234px; height: 230px; margin-top: -50px;""><div style=""display: flex; justify-content: space-between; margin-top: 33px;""><img src=""images/choice_trial_3.png"" style=""width: 408px; height: 417px; margin-right: 608px;""></div></div>","null","delaylearn","learning","display_response","60b0cc1bfdbeb3b7d4f55485","Q2vPyA5lRlVSq6aO3OiwVFpP9m33","","","","","","","","","","","","","","","","","chosen stimuli: images/choice_trial_3.png","","","",""
"html-keyboard-response","167","326235","0.0-69.0-2.0","","null","","null","delaylearn","learning","feedback_duration_window","60b0cc1bfdbeb3b7d4f55485","Q2vPyA5lRlVSq6aO3OiwVFpP9m33","","","","","","","","","","","","","","","","","","750","","",""
"html-keyboard-response","168","327737","0.0-69.0-3.0","","null","<div style='margin:auto;width: auto; font-size: 150%'><span style='font-weight: bold; font-size: 100px; color: red;'>0 points!</span><br><br></div>","null","delaylearn","learning","feedback_image_window","60b0cc1bfdbeb3b7d4f55485","Q2vPyA5lRlVSq6aO3OiwVFpP9m33","","","","","","","","","","","","","","","","","","","","",""
"html-keyboard-response","169","328238","0.0-70.0-0.0","","null","","null","","","mood_trial_fixation","","","","","","","","","","","","","","","","","","","","","","",""
"lmdlab-html-vas-response","170","331694","0.0-70.0-1.0","","2450","How happy are you right now?","0.2074074074074074","delaylearn","learning","mood_trial","60b0cc1bfdbeb3b7d4f55485","Q2vPyA5lRlVSq6aO3OiwVFpP9m33","","","","","","","","","","","","","","","","","","","","[""Very unhappy"",""Very happy""]",""
"html-keyboard-response","171","333525","0.0-71.0","","null","<div style=""font-size:100px;"">+</div>","null","delaylearn","learning","ITI","60b0cc1bfdbeb3b7d4f55485","Q2vPyA5lRlVSq6aO3OiwVFpP9m33","","","","","","","","","","","","","","","","","","","1829","",""
"html-keyboard-response","172","335030","0.0-72.0-0.0","","1501","<div style=""display: flex; flex-direction: column; align-items: center; margin-top: -40px;""><img src=""images/pattern_4.png"" style=""width: 234px; height: 230px; margin-top: -50px;""><div style=""display: flex; justify-content: space-between; margin-top: 33px;""><img src=""images/choice_trial_7.png"" style=""width: 408px; height: 417px; margin-right: 200px;""><img src=""images/choice_trial_8.png"" style=""width: 408px; height: 417px;""></div></div>","f","delaylearn","learning","trial","60b0cc1bfdbeb3b7d4f55485","Q2vPyA5lRlVSq6aO3OiwVFpP9m33","4","images/choice_trial_7.png","images/choice_trial_8.png","images/pattern_4.png","j","j","7000","7","8","3","1","31","0","0","7","150","","","","",""
"html-keyboard-response","173","336033","0.0-72.0-1.0","","null","<div style=""display: flex; flex-direction: column; align-items: center; margin-top: -40px;""><img src=""images/pattern_4.png"" style=""width: 234px; height: 230px; margin-top: -50px;""><div style=""display: flex; justify-content: space-between; margin-top: 33px;""><img src=""images/choice_trial_7.png"" style=""width: 408px; height: 417px; margin-right: 608px;""></div></div>","null","delaylearn","learning","display_response","60b0cc1bfdbeb3b7d4f55485","Q2vPyA5lRlVSq6aO3OiwVFpP9m33","","","","","","","","","","","","","","","","","chosen stimuli: images/choice_trial_7.png","","","",""
"html-keyboard-response","174","343036","0.0-72.0-2.0","","null","","null","delaylearn","learning","feedback_duration_window","60b0cc1bfdbeb3b7d4f55485","Q2vPyA5lRlVSq6aO3OiwVFpP9m33","","","","","","","","","","","","","","","","","","7000","","",""
"html-keyboard-response","175","344538","0.0-72.0-3.0","","null","<div style='margin:auto;width: auto; font-size: 150%'><span style='font-weight: bold; font-size: 100px; color: red;'>0 points!</span><br><br></div>","null","delaylearn","learning","feedback_image_window","60b0cc1bfdbeb3b7d4f55485","Q2vPyA5lRlVSq6aO3OiwVFpP9m33","","","","","","","","","","","","","","","","","","","","",""
"html-keyboard-response","176","346287","0.0-73.0","","null","<div style=""font-size:100px;"">+</div>","null","delaylearn","learning","ITI","60b0cc1bfdbeb3b7d4f55485","Q2vPyA5lRlVSq6aO3OiwVFpP9m33","","","","","","","","","","","","","","","","","","","1747","",""
"html-keyboard-response","177","347224","0.0-74.0-0.0","","932","<div style=""display: flex; flex-direction: column; align-items: center; margin-top: -40px;""><img src=""images/pattern_3.png"" style=""width: 234px; height: 230px; margin-top: -50px;""><div style=""display: flex; justify-content: space-between; margin-top: 33px;""><img src=""images/choice_trial_6.png"" style=""width: 408px; height: 417px; margin-right: 200px;""><img src=""images/choice_trial_16.png"" style=""width: 408px; height: 417px;""></div></div>","f","delaylearn","learning","trial","60b0cc1bfdbeb3b7d4f55485","Q2vPyA5lRlVSq6aO3OiwVFpP9m33","4","images/choice_trial_6.png","images/choice_trial_16.png","images/pattern_3.png","j","j","7000","6","16","2","1","32","0","0","6","150","","","","",""
"html-keyboard-response","178","348226","0.0-74.0-1.0","","null","<div style=""display: flex; flex-direction: column; align-items: center; margin-top: -40px;""><img src=""images/pattern_3.png"" style=""width: 234px; height: 230px; margin-top: -50px;""><div style=""display: flex; justify-content: space-between; margin-top: 33px;""><img src=""images/choice_trial_6.png"" style=""width: 408px; height: 417px; margin-right: 608px;""></div></div>","null","delaylearn","learning","display_response","60b0cc1bfdbeb3b7d4f55485","Q2vPyA5lRlVSq6aO3OiwVFpP9m33","","","","","","","","","","","","","","","","","chosen stimuli: images/choice_trial_6.png","","","",""
"html-keyboard-response","179","355228","0.0-74.0-2.0","","null","","null","delaylearn","learning","feedback_duration_window","60b0cc1bfdbeb3b7d4f55485","Q2vPyA5lRlVSq6aO3OiwVFpP9m33","","","","","","","","","","","","","","","","","","7000","","",""
"html-keyboard-response","180","356731","0.0-74.0-3.0","","null","<div style='margin:auto;width: auto; font-size: 150%'><span style='font-weight: bold; font-size: 100px; color: red;'>0 points!</span><br><br></div>","null","delaylearn","learning","feedback_image_window","60b0cc1bfdbeb3b7d4f55485","Q2vPyA5lRlVSq6aO3OiwVFpP9m33","","","","","","","","","","","","","","","","","","","","",""
"html-keyboard-response","181","359081","0.0-75.0","","null","<div style=""font-size:100px;"">+</div>","null","delaylearn","learning","ITI","60b0cc1bfdbeb3b7d4f55485","Q2vPyA5lRlVSq6aO3OiwVFpP9m33","","","","","","","","","","","","","","","","","","","2348","",""
"html-keyboard-response","182","359922","0.0-76.0-0.0","","838","<div style=""display: flex; flex-direction: column; align-items: center; margin-top: -40px;""><img src=""images/pattern_5.png"" style=""width: 234px; height: 230px; margin-top: -50px;""><div style=""display: flex; justify-content: space-between; margin-top: 33px;""><img src=""images/choice_trial_5.png"" style=""width: 408px; height: 417px; margin-right: 200px;""><img src=""images/choice_trial_15.png"" style=""width: 408px; height: 417px;""></div></div>","f","delaylearn","learning","trial","60b0cc1bfdbeb3b7d4f55485","Q2vPyA5lRlVSq6aO3OiwVFpP9m33","4","images/choice_trial_5.png","images/choice_trial_15.png","images/pattern_5.png","j","f","750","5","15","4","0","33","1","0","5","150","","","","",""
"html-keyboard-response","183","360925","0.0-76.0-1.0","","null","<div style=""display: flex; flex-direction: column; align-items: center; margin-top: -40px;""><img src=""images/pattern_5.png"" style=""width: 234px; height: 230px; margin-top: -50px;""><div style=""display: flex; justify-content: space-between; margin-top: 33px;""><img src=""images/choice_trial_5.png"" style=""width: 408px; height: 417px; margin-right: 608px;""></div></div>","null","delaylearn","learning","display_response","60b0cc1bfdbeb3b7d4f55485","Q2vPyA5lRlVSq6aO3OiwVFpP9m33","","","","","","","","","","","","","","","","","chosen stimuli: images/choice_trial_5.png","","","",""
"html-keyboard-response","184","361677","0.0-76.0-2.0","","null","","null","delaylearn","learning","feedback_duration_window","60b0cc1bfdbeb3b7d4f55485","Q2vPyA5lRlVSq6aO3OiwVFpP9m33","","","","","","","","","","","","","","","","","","750","","",""
"html-keyboard-response","185","363180","0.0-76.0-3.0","","null","<div style='margin:auto;width: auto; font-size: 150%'><span style='font-weight: bold; font-size: 100px; color: red;'>0 points!</span><br><br></div>","null","delaylearn","learning","feedback_image_window","60b0cc1bfdbeb3b7d4f55485","Q2vPyA5lRlVSq6aO3OiwVFpP9m33","","","","","","","","","","","","","","","","","","","","",""
"html-keyboard-response","186","365418","0.0-77.0","","null","<div style=""font-size:100px;"">+</div>","null","delaylearn","learning","ITI","60b0cc1bfdbeb3b7d4f55485","Q2vPyA5lRlVSq6aO3OiwVFpP9m33","","","","","","","","","","","","","","","","","","","2235","",""
"html-keyboard-response","187","366163","0.0-78.0-0.0","","741","<div style=""display: flex; flex-direction: column; align-items: center; margin-top: -40px;""><img src=""images/pattern_1.png"" style=""width: 234px; height: 230px; margin-top: -50px;""><div style=""display: flex; justify-content: space-between; margin-top: 33px;""><img src=""images/choice_trial_1.png"" style=""width: 408px; height: 417px; margin-right: 200px;""><img src=""images/choice_trial_9.png"" style=""width: 408px; height: 417px;""></div></div>","f","delaylearn","learning","trial","60b0cc1bfdbeb3b7d4f55485","Q2vPyA5lRlVSq6aO3OiwVFpP9m33","4","images/choice_trial_1.png","images/choice_trial_9.png","images/pattern_1.png","f","f","7000","1","9","1","0","34","1","1","1","160","","","","",""
"html-keyboard-response","188","367166","0.0-78.0-1.0","","null","<div style=""display: flex; flex-direction: column; align-items: center; margin-top: -40px;""><img src=""images/pattern_1.png"" style=""width: 234px; height: 230px; margin-top: -50px;""><div style=""display: flex; justify-content: space-between; margin-top: 33px;""><img src=""images/choice_trial_1.png"" style=""width: 408px; height: 417px; margin-right: 608px;""></div></div>","null","delaylearn","learning","display_response","60b0cc1bfdbeb3b7d4f55485","Q2vPyA5lRlVSq6aO3OiwVFpP9m33","","","","","","","","","","","","","","","","","chosen stimuli: images/choice_trial_1.png","","","",""
"html-keyboard-response","189","374169","0.0-78.0-2.0","","null","","null","delaylearn","learning","feedback_duration_window","60b0cc1bfdbeb3b7d4f55485","Q2vPyA5lRlVSq6aO3OiwVFpP9m33","","","","","","","","","","","","","","","","","","7000","","",""
"html-keyboard-response","190","375672","0.0-78.0-3.0","","null","<div style='margin:auto;width: auto; font-size: 150%'><span style='font-weight: bold; font-size: 100px; color: green;'>+10 points!</span><br><br></div>","null","delaylearn","learning","feedback_image_window","60b0cc1bfdbeb3b7d4f55485","Q2vPyA5lRlVSq6aO3OiwVFpP9m33","","","","","","","","","","","","","","","","","","","","",""
"html-keyboard-response","191","376174","0.0-79.0-0.0","","null","","null","","","mood_trial_fixation","","","","","","","","","","","","","","","","","","","","","","",""
"lmdlab-html-vas-response","192","379521","0.0-79.0-1.0","","2342","How happy are you right now?","0.16666666666666666","delaylearn","learning","mood_trial","60b0cc1bfdbeb3b7d4f55485","Q2vPyA5lRlVSq6aO3OiwVFpP9m33","","","","","","","","","","","","","","","","","","","","[""Very unhappy"",""Very happy""]",""
"html-keyboard-response","193","381204","0.0-80.0","","null","<div style=""font-size:100px;"">+</div>","null","delaylearn","learning","ITI","60b0cc1bfdbeb3b7d4f55485","Q2vPyA5lRlVSq6aO3OiwVFpP9m33","","","","","","","","","","","","","","","","","","","1681","",""
"html-keyboard-response","194","382365","0.0-81.0-0.0","","1157.9999999998836","<div style=""display: flex; flex-direction: column; align-items: center; margin-top: -40px;""><img src=""images/pattern_6.png"" style=""width: 234px; height: 230px; margin-top: -50px;""><div style=""display: flex; justify-content: space-between; margin-top: 33px;""><img src=""images/choice_trial_10.png"" style=""width: 408px; height: 417px; margin-right: 200px;""><img src=""images/choice_trial_3.png"" style=""width: 408px; height: 417px;""></div></div>","j","delaylearn","learning","trial","60b0cc1bfdbeb3b7d4f55485","Q2vPyA5lRlVSq6aO3OiwVFpP9m33","4","images/choice_trial_10.png","images/choice_trial_3.png","images/pattern_6.png","j","f","750","10","3","5","0","35","0","1","3","170","","","","",""
"html-keyboard-response","195","383368","0.0-81.0-1.0","","null","<div style=""display: flex; flex-direction: column; align-items: center; margin-top: -40px;""><img src=""images/pattern_6.png"" style=""width: 234px; height: 230px; margin-top: -50px;""><div style=""display: flex; justify-content: space-between; margin-top: 33px;""><img src=""images/choice_trial_3.png"" style=""width: 408px; height: 417px; margin-left:608px;""></div></div>","null","delaylearn","learning","display_response","60b0cc1bfdbeb3b7d4f55485","Q2vPyA5lRlVSq6aO3OiwVFpP9m33","","","","","","","","","","","","","","","","","chosen stimuli: images/choice_trial_3.png","","","",""
"html-keyboard-response","196","384120","0.0-81.0-2.0","","null","","null","delaylearn","learning","feedback_duration_window","60b0cc1bfdbeb3b7d4f55485","Q2vPyA5lRlVSq6aO3OiwVFpP9m33","","","","","","","","","","","","","","","","","","750","","",""
"html-keyboard-response","197","385622","0.0-81.0-3.0","","null","<div style='margin:auto;width: auto; font-size: 150%'><span style='font-weight: bold; font-size: 100px; color: green;'>+10 points!</span><br><br></div>","null","delaylearn","learning","feedback_image_window","60b0cc1bfdbeb3b7d4f55485","Q2vPyA5lRlVSq6aO3OiwVFpP9m33","","","","","","","","","","","","","","","","","","","","",""
"html-keyboard-response","198","387174","0.0-82.0","","null","<div style=""font-size:100px;"">+</div>","null","delaylearn","learning","ITI","60b0cc1bfdbeb3b7d4f55485","Q2vPyA5lRlVSq6aO3OiwVFpP9m33","","","","","","","","","","","","","","","","","","","1549","",""
"html-keyboard-response","199","388686","0.0-83.0-0.0","","1509","<div style=""display: flex; flex-direction: column; align-items: center; margin-top: -40px;""><img src=""images/pattern_3.png"" style=""width: 234px; height: 230px; margin-top: -50px;""><div style=""display: flex; justify-content: space-between; margin-top: 33px;""><img src=""images/choice_trial_6.png"" style=""width: 408px; height: 417px; margin-right: 200px;""><img src=""images/choice_trial_16.png"" style=""width: 408px; height: 417px;""></div></div>","j","delaylearn","learning","trial","60b0cc1bfdbeb3b7d4f55485","Q2vPyA5lRlVSq6aO3OiwVFpP9m33","4","images/choice_trial_6.png","images/choice_trial_16.png","images/pattern_3.png","j","j","7000","6","16","2","1","36","1","1","16","180","","","","",""
"html-keyboard-response","200","389688","0.0-83.0-1.0","","null","<div style=""display: flex; flex-direction: column; align-items: center; margin-top: -40px;""><img src=""images/pattern_3.png"" style=""width: 234px; height: 230px; margin-top: -50px;""><div style=""display: flex; justify-content: space-between; margin-top: 33px;""><img src=""images/choice_trial_16.png"" style=""width: 408px; height: 417px; margin-left:608px;""></div></div>","null","delaylearn","learning","display_response","60b0cc1bfdbeb3b7d4f55485","Q2vPyA5lRlVSq6aO3OiwVFpP9m33","","","","","","","","","","","","","","","","","chosen stimuli: images/choice_trial_16.png","","","",""
"html-keyboard-response","201","396689","0.0-83.0-2.0","","null","","null","delaylearn","learning","feedback_duration_window","60b0cc1bfdbeb3b7d4f55485","Q2vPyA5lRlVSq6aO3OiwVFpP9m33","","","","","","","","","","","","","","","","","","7000","","",""
"html-keyboard-response","202","398192","0.0-83.0-3.0","","null","<div style='margin:auto;width: auto; font-size: 150%'><span style='font-weight: bold; font-size: 100px; color: green;'>+10 points!</span><br><br></div>","null","delaylearn","learning","feedback_image_window","60b0cc1bfdbeb3b7d4f55485","Q2vPyA5lRlVSq6aO3OiwVFpP9m33","","","","","","","","","","","","","","","","","","","","",""
"html-keyboard-response","203","400306","0.0-84.0","","null","<div style=""font-size:100px;"">+</div>","null","delaylearn","learning","ITI","60b0cc1bfdbeb3b7d4f55485","Q2vPyA5lRlVSq6aO3OiwVFpP9m33","","","","","","","","","","","","","","","","","","","2112","",""
"html-keyboard-response","204","401820","0.0-85.0-0.0","","1506","<div style=""display: flex; flex-direction: column; align-items: center; margin-top: -40px;""><img src=""images/pattern_4.png"" style=""width: 234px; height: 230px; margin-top: -50px;""><div style=""display: flex; justify-content: space-between; margin-top: 33px;""><img src=""images/choice_trial_7.png"" style=""width: 408px; height: 417px; margin-right: 200px;""><img src=""images/choice_trial_8.png"" style=""width: 408px; height: 417px;""></div></div>","f","delaylearn","learning","trial","60b0cc1bfdbeb3b7d4f55485","Q2vPyA5lRlVSq6aO3OiwVFpP9m33","4","images/choice_trial_7.png","images/choice_trial_8.png","images/pattern_4.png","f","j","7000","7","8","3","1","37","0","1","7","190","","","","",""
"html-keyboard-response","205","402823","0.0-85.0-1.0","","null","<div style=""display: flex; flex-direction: column; align-items: center; margin-top: -40px;""><img src=""images/pattern_4.png"" style=""width: 234px; height: 230px; margin-top: -50px;""><div style=""display: flex; justify-content: space-between; margin-top: 33px;""><img src=""images/choice_trial_7.png"" style=""width: 408px; height: 417px; margin-right: 608px;""></div></div>","null","delaylearn","learning","display_response","60b0cc1bfdbeb3b7d4f55485","Q2vPyA5lRlVSq6aO3OiwVFpP9m33","","","","","","","","","","","","","","","","","chosen stimuli: images/choice_trial_7.png","","","",""
"html-keyboard-response","206","409826","0.0-85.0-2.0","","null","","null","delaylearn","learning","feedback_duration_window","60b0cc1bfdbeb3b7d4f55485","Q2vPyA5lRlVSq6aO3OiwVFpP9m33","","","","","","","","","","","","","","","","","","7000","","",""
"html-keyboard-response","207","411329","0.0-85.0-3.0","","null","<div style='margin:auto;width: auto; font-size: 150%'><span style='font-weight: bold; font-size: 100px; color: green;'>+10 points!</span><br><br></div>","null","delaylearn","learning","feedback_image_window","60b0cc1bfdbeb3b7d4f55485","Q2vPyA5lRlVSq6aO3OiwVFpP9m33","","","","","","","","","","","","","","","","","","","","",""
"html-keyboard-response","208","413313","0.0-86.0","","null","<div style=""font-size:100px;"">+</div>","null","delaylearn","learning","ITI","60b0cc1bfdbeb3b7d4f55485","Q2vPyA5lRlVSq6aO3OiwVFpP9m33","","","","","","","","","","","","","","","","","","","1981","",""
"html-keyboard-response","209","414504","0.0-87.0-0.0","","1187","<div style=""display: flex; flex-direction: column; align-items: center; margin-top: -40px;""><img src=""images/pattern_7.png"" style=""width: 234px; height: 230px; margin-top: -50px;""><div style=""display: flex; justify-content: space-between; margin-top: 33px;""><img src=""images/choice_trial_13.png"" style=""width: 408px; height: 417px; margin-right: 200px;""><img src=""images/choice_trial_4.png"" style=""width: 408px; height: 417px;""></div></div>","j","delaylearn","learning","trial","60b0cc1bfdbeb3b7d4f55485","Q2vPyA5lRlVSq6aO3OiwVFpP9m33","4","images/choice_trial_13.png","images/choice_trial_4.png","images/pattern_7.png","f","f","750","13","4","6","0","38","0","0","4","190","","","","",""
"html-keyboard-response","210","415506","0.0-87.0-1.0","","null","<div style=""display: flex; flex-direction: column; align-items: center; margin-top: -40px;""><img src=""images/pattern_7.png"" style=""width: 234px; height: 230px; margin-top: -50px;""><div style=""display: flex; justify-content: space-between; margin-top: 33px;""><img src=""images/choice_trial_4.png"" style=""width: 408px; height: 417px; margin-left:608px;""></div></div>","null","delaylearn","learning","display_response","60b0cc1bfdbeb3b7d4f55485","Q2vPyA5lRlVSq6aO3OiwVFpP9m33","","","","","","","","","","","","","","","","","chosen stimuli: images/choice_trial_4.png","","","",""
"html-keyboard-response","211","416258","0.0-87.0-2.0","","null","","null","delaylearn","learning","feedback_duration_window","60b0cc1bfdbeb3b7d4f55485","Q2vPyA5lRlVSq6aO3OiwVFpP9m33","","","","","","","","","","","","","","","","","","750","","",""
"html-keyboard-response","212","417760","0.0-87.0-3.0","","null","<div style='margin:auto;width: auto; font-size: 150%'><span style='font-weight: bold; font-size: 100px; color: red;'>0 points!</span><br><br></div>","null","delaylearn","learning","feedback_image_window","60b0cc1bfdbeb3b7d4f55485","Q2vPyA5lRlVSq6aO3OiwVFpP9m33","","","","","","","","","","","","","","","","","","","","",""
"html-keyboard-response","213","420247","0.0-88.0","","null","<div style=""font-size:100px;"">+</div>","null","delaylearn","learning","ITI","60b0cc1bfdbeb3b7d4f55485","Q2vPyA5lRlVSq6aO3OiwVFpP9m33","","","","","","","","","","","","","","","","","","","2485","",""
"html-keyboard-response","214","422175","0.0-89.0-0.0","","1925","<div style=""display: flex; flex-direction: column; align-items: center; margin-top: -40px;""><img src=""images/pattern_1.png"" style=""width: 234px; height: 230px; margin-top: -50px;""><div style=""display: flex; justify-content: space-between; margin-top: 33px;""><img src=""images/choice_trial_1.png"" style=""width: 408px; height: 417px; margin-right: 200px;""><img src=""images/choice_trial_9.png"" style=""width: 408px; height: 417px;""></div></div>","f","delaylearn","learning","trial","60b0cc1bfdbeb3b7d4f55485","Q2vPyA5lRlVSq6aO3OiwVFpP9m33","4","images/choice_trial_1.png","images/choice_trial_9.png","images/pattern_1.png","f","f","7000","1","9","1","0","39","1","1","1","200","","","","",""
"html-keyboard-response","215","423177","0.0-89.0-1.0","","null","<div style=""display: flex; flex-direction: column; align-items: center; margin-top: -40px;""><img src=""images/pattern_1.png"" style=""width: 234px; height: 230px; margin-top: -50px;""><div style=""display: flex; justify-content: space-between; margin-top: 33px;""><img src=""images/choice_trial_1.png"" style=""width: 408px; height: 417px; margin-right: 608px;""></div></div>","null","delaylearn","learning","display_response","60b0cc1bfdbeb3b7d4f55485","Q2vPyA5lRlVSq6aO3OiwVFpP9m33","","","","","","","","","","","","","","","","","chosen stimuli: images/choice_trial_1.png","","","",""
"html-keyboard-response","216","430178","0.0-89.0-2.0","","null","","null","delaylearn","learning","feedback_duration_window","60b0cc1bfdbeb3b7d4f55485","Q2vPyA5lRlVSq6aO3OiwVFpP9m33","","","","","","","","","","","","","","","","","","7000","","",""
"html-keyboard-response","217","431680","0.0-89.0-3.0","","null","<div style='margin:auto;width: auto; font-size: 150%'><span style='font-weight: bold; font-size: 100px; color: green;'>+10 points!</span><br><br></div>","null","delaylearn","learning","feedback_image_window","60b0cc1bfdbeb3b7d4f55485","Q2vPyA5lRlVSq6aO3OiwVFpP9m33","","","","","","","","","","","","","","","","","","","","",""
"html-keyboard-response","218","432182","0.0-90.0-0.0","","null","","null","","","mood_trial_fixation","","","","","","","","","","","","","","","","","","","","","","",""
"lmdlab-html-vas-response","219","440560","0.0-90.0-1.0","","7370","How happy are you right now?","0.5981481481481481","delaylearn","learning","mood_trial","60b0cc1bfdbeb3b7d4f55485","Q2vPyA5lRlVSq6aO3OiwVFpP9m33","","","","","","","","","","","","","","","","","","","","[""Very unhappy"",""Very happy""]",""
"html-keyboard-response","220","442593","0.0-91.0","","null","<div style=""font-size:100px;"">+</div>","null","delaylearn","learning","ITI","60b0cc1bfdbeb3b7d4f55485","Q2vPyA5lRlVSq6aO3OiwVFpP9m33","","","","","","","","","","","","","","","","","","","2031","",""
