"trial_type","trial_index","time_elapsed","internal_node_id","participant","rt","stimulus","response","exp_name","exp_stage","test_part","subjectID","databaseID","counterbal","choice_stimuli_1","choice_stimuli_2","pattern_stimuli","rewarded_answer","correct_answer","feedback_duration_times","stim_left","stim_right","pair","leftright_counter","trial","response_correct","response_rewarded","chosen_stim","counter","displayed_choice","feedback_durations","ITI_duration","labels","rest_warning"
"pavlovia","0","638","0.0-0.0","","","","","","","","","","","","","","","","","","","","","","","","","","","","","",""
"html-keyboard-response","1","3643","0.0-1.0","","null","<div style=""font-size:100px;"">+</div>","null","delaylearn","learning","pre_fixation","63615b34abde8debee56c5b8","","","","","","","","","","","","","","","","","","","","","",""
"html-keyboard-response","2","4063","0.0-2.0-0.0","","415.5","<div style=""display: flex; flex-direction: column; align-items: center; margin-top: -40px;""><img src=""images/demo_images/pattern_1.png"" style=""width: 234px; height: 230px; margin-top: -50px;""><div style=""display: flex; justify-content: space-between; margin-top: 33px;""><img src=""images/demo_images/choice_trial_2.png"" style=""width: 408px; height: 417px; margin-right: 200px;""><img src=""images/demo_images/choice_trial_1.png"" style=""width: 408px; height: 417px;""></div></div>","f","delaylearn","learning","trial","63615b34abde8debee56c5b8","1oDK1wGJjcaaYZTxrywJ4g8acRM2","2","images/demo_images/choice_trial_2.png","images/demo_images/choice_trial_1.png","images/demo_images/pattern_1.png","j","j","3000","2","1","20","1","1","0","0","2","0","","","","",""
"html-keyboard-response","3","5080","0.0-2.0-1.0","","null","<div style=""display: flex; flex-direction: column; align-items: center; margin-top: -40px;""><img src=""images/demo_images/pattern_1.png"" style=""width: 234px; height: 230px; margin-top: -50px;""><div style=""display: flex; justify-content: space-between; margin-top: 33px;""><img src=""images/demo_images/choice_trial_2.png"" style=""width: 408px; height: 417px; margin-right: 608px;""></div></div>","null","delaylearn","learning","display_response","63615b34abde8debee56c5b8","1oDK1wGJjcaaYZTxrywJ4g8acRM2","","","","","","","","","","","","","","","","","chosen stimuli: images/demo_images/choice_trial_2.png","","","",""
"html-keyboard-response","4","8094","0.0-2.0-2.0","","null","","null","delaylearn","learning","feedback_duration_window","63615b34abde8debee56c5b8","1oDK1wGJjcaaYZTxrywJ4g8acRM2","","","","","","","","","","","","","","","","","","3000","","",""
"html-keyboard-response","5","9599","0.0-2.0-3.0","","null","<div style='margin:auto;width: auto; font-size: 150%'><span style='font-weight: bold; font-size: 100px; color: red;'>0 points!</span><br><br></div>","null","delaylearn","learning","feedback_image_window","63615b34abde8debee56c5b8","1oDK1wGJjcaaYZTxrywJ4g8acRM2","","","","","","","","","","","","","","","","","","","","",""
"html-keyboard-response","6","11661","0.0-3.0","","null","<div style=""font-size:100px;"">+</div>","null","delaylearn","learning","ITI","63615b34abde8debee56c5b8","1oDK1wGJjcaaYZTxrywJ4g8acRM2","","","","","","","","","","","","","","","","","","","2048","",""
"html-keyboard-response","7","14666","0.0-4.0-0.0","","null","<div style=""display: flex; flex-direction: column; align-items: center; margin-top: -40px;""><img src=""images/demo_images/pattern_1.png"" style=""width: 234px; height: 230px; margin-top: -50px;""><div style=""display: flex; justify-content: space-between; margin-top: 33px;""><img src=""images/demo_images/choice_trial_2.png"" style=""width: 408px; height: 417px; margin-right: 200px;""><img src=""images/demo_images/choice_trial_1.png"" style=""width: 408px; height: 417px;""></div></div>","null","delaylearn","learning","trial","63615b34abde8debee56c5b8","1oDK1wGJjcaaYZTxrywJ4g8acRM2","2","images/demo_images/choice_trial_2.png","images/demo_images/choice_trial_1.png","images/demo_images/pattern_1.png","j","j","3000","2","1","20","1","2","0","0","0","0","","","","",""
"html-keyboard-response","8","15676","0.0-4.0-1.0","","null","<div style='font-weight: bold; font-size: 75px; color: red;'>Missed Trial <br><br><br><br> Please respond faster</div>","null","delaylearn","learning","display_response","63615b34abde8debee56c5b8","1oDK1wGJjcaaYZTxrywJ4g8acRM2","","","","","","","","","","","","","","","","","Missed trial","","","",""
"html-keyboard-response","9","15692","0.0-4.0-2.0","","null","","null","delaylearn","learning","feedback_duration_window","63615b34abde8debee56c5b8","1oDK1wGJjcaaYZTxrywJ4g8acRM2","","","","","","","","","","","","","","","","","","0","","",""
"html-keyboard-response","10","15707","0.0-4.0-3.0","","null","","null","delaylearn","learning","feedback_image_window","63615b34abde8debee56c5b8","1oDK1wGJjcaaYZTxrywJ4g8acRM2","","","","","","","","","","","","","","","","","","","","",""
"html-keyboard-response","11","17480","0.0-5.0","","null","<div style=""font-size:100px;"">+</div>","null","delaylearn","learning","ITI","63615b34abde8debee56c5b8","1oDK1wGJjcaaYZTxrywJ4g8acRM2","","","","","","","","","","","","","","","","","","","1755","",""
"html-keyboard-response","12","20486","0.0-6.0-0.0","","null","<div style=""display: flex; flex-direction: column; align-items: center; margin-top: -40px;""><img src=""images/demo_images/pattern_1.png"" style=""width: 234px; height: 230px; margin-top: -50px;""><div style=""display: flex; justify-content: space-between; margin-top: 33px;""><img src=""images/demo_images/choice_trial_1.png"" style=""width: 408px; height: 417px; margin-right: 200px;""><img src=""images/demo_images/choice_trial_2.png"" style=""width: 408px; height: 417px;""></div></div>","null","delaylearn","learning","trial","63615b34abde8debee56c5b8","1oDK1wGJjcaaYZTxrywJ4g8acRM2","2","images/demo_images/choice_trial_1.png","images/demo_images/choice_trial_2.png","images/demo_images/pattern_1.png","j","f","3000","1","2","20","0","3","0","0","0","0","","","","",""
"html-keyboard-response","13","21493","0.0-6.0-1.0","","null","<div style='font-weight: bold; font-size: 75px; color: red;'>Missed Trial <br><br><br><br> Please respond faster</div>","null","delaylearn","learning","display_response","63615b34abde8debee56c5b8","1oDK1wGJjcaaYZTxrywJ4g8acRM2","","","","","","","","","","","","","","","","","Missed trial","","","",""
"html-keyboard-response","14","21508","0.0-6.0-2.0","","null","","null","delaylearn","learning","feedback_duration_window","63615b34abde8debee56c5b8","1oDK1wGJjcaaYZTxrywJ4g8acRM2","","","","","","","","","","","","","","","","","","0","","",""
"html-keyboard-response","15","21514","0.0-6.0-3.0","","null","","null","delaylearn","learning","feedback_image_window","63615b34abde8debee56c5b8","1oDK1wGJjcaaYZTxrywJ4g8acRM2","","","","","","","","","","","","","","","","","","","","",""
"html-keyboard-response","16","23460","0.0-7.0","","null","<div style=""font-size:100px;"">+</div>","null","delaylearn","learning","ITI","63615b34abde8debee56c5b8","1oDK1wGJjcaaYZTxrywJ4g8acRM2","","","","","","","","","","","","","","","","","","","1938","",""
"html-keyboard-response","17","24518","0.0-8.0-0.0","","1053.7000000029802","<div style=""display: flex; flex-direction: column; align-items: center; margin-top: -40px;""><img src=""images/demo_images/pattern_1.png"" style=""width: 234px; height: 230px; margin-top: -50px;""><div style=""display: flex; justify-content: space-between; margin-top: 33px;""><img src=""images/demo_images/choice_trial_1.png"" style=""width: 408px; height: 417px; margin-right: 200px;""><img src=""images/demo_images/choice_trial_2.png"" style=""width: 408px; height: 417px;""></div></div>","f","delaylearn","learning","trial","63615b34abde8debee56c5b8","1oDK1wGJjcaaYZTxrywJ4g8acRM2","2","images/demo_images/choice_trial_1.png","images/demo_images/choice_trial_2.png","images/demo_images/pattern_1.png","f","f","3000","1","2","20","0","4","1","1","1","10","","","","",""
"html-keyboard-response","18","25522","0.0-8.0-1.0","","null","<div style=""display: flex; flex-direction: column; align-items: center; margin-top: -40px;""><img src=""images/demo_images/pattern_1.png"" style=""width: 234px; height: 230px; margin-top: -50px;""><div style=""display: flex; justify-content: space-between; margin-top: 33px;""><img src=""images/demo_images/choice_trial_1.png"" style=""width: 408px; height: 417px; margin-right: 608px;""></div></div>","null","delaylearn","learning","display_response","63615b34abde8debee56c5b8","1oDK1wGJjcaaYZTxrywJ4g8acRM2","","","","","","","","","","","","","","","","","chosen stimuli: images/demo_images/choice_trial_1.png","","","",""
"html-keyboard-response","19","28525","0.0-8.0-2.0","","null","","null","delaylearn","learning","feedback_duration_window","63615b34abde8debee56c5b8","1oDK1wGJjcaaYZTxrywJ4g8acRM2","","","","","","","","","","","","","","","","","","3000","","",""
"html-keyboard-response","20","30043","0.0-8.0-3.0","","null","<div style='margin:auto;width: auto; font-size: 150%'><span style='font-weight: bold; font-size: 100px; color: green;'>+10 points!</span><br><br></div>","null","delaylearn","learning","feedback_image_window","63615b34abde8debee56c5b8","1oDK1wGJjcaaYZTxrywJ4g8acRM2","","","","","","","","","","","","","","","","","","","","",""
"html-keyboard-response","21","30551","0.0-9.0-0.0","","null","","null","","","mood_trial_fixation","","","","","","","","","","","","","","","","","","","","","","",""
"lmdlab-html-vas-response","22","37296","0.0-9.0-1.0","","5721","How happy are you right now?","0.6180555555555556","delaylearn","learning","mood_trial","63615b34abde8debee56c5b8","1oDK1wGJjcaaYZTxrywJ4g8acRM2","","","","","","","","","","","","","","","","","","","","[""Very unhappy"",""Very happy""]",""
"html-keyboard-response","23","39252","0.0-10.0","","null","<div style=""font-size:100px;"">+</div>","null","delaylearn","learning","ITI","63615b34abde8debee56c5b8","1oDK1wGJjcaaYZTxrywJ4g8acRM2","","","","","","","","","","","","","","","","","","","1937","",""
"html-keyboard-response","24","40294","0.0-11.0-0.0","","1037.7999999970198","<div style=""display: flex; flex-direction: column; align-items: center; margin-top: -40px;""><img src=""images/demo_images/pattern_1.png"" style=""width: 234px; height: 230px; margin-top: -50px;""><div style=""display: flex; justify-content: space-between; margin-top: 33px;""><img src=""images/demo_images/choice_trial_2.png"" style=""width: 408px; height: 417px; margin-right: 200px;""><img src=""images/demo_images/choice_trial_1.png"" style=""width: 408px; height: 417px;""></div></div>","f","delaylearn","learning","trial","63615b34abde8debee56c5b8","1oDK1wGJjcaaYZTxrywJ4g8acRM2","2","images/demo_images/choice_trial_2.png","images/demo_images/choice_trial_1.png","images/demo_images/pattern_1.png","j","j","3000","2","1","20","1","5","0","0","2","10","","","","",""
"html-keyboard-response","25","41298","0.0-11.0-1.0","","null","<div style=""display: flex; flex-direction: column; align-items: center; margin-top: -40px;""><img src=""images/demo_images/pattern_1.png"" style=""width: 234px; height: 230px; margin-top: -50px;""><div style=""display: flex; justify-content: space-between; margin-top: 33px;""><img src=""images/demo_images/choice_trial_2.png"" style=""width: 408px; height: 417px; margin-right: 608px;""></div></div>","null","delaylearn","learning","display_response","63615b34abde8debee56c5b8","1oDK1wGJjcaaYZTxrywJ4g8acRM2","","","","","","","","","","","","","","","","","chosen stimuli: images/demo_images/choice_trial_2.png","","","",""
"html-keyboard-response","26","44313","0.0-11.0-2.0","","null","","null","delaylearn","learning","feedback_duration_window","63615b34abde8debee56c5b8","1oDK1wGJjcaaYZTxrywJ4g8acRM2","","","","","","","","","","","","","","","","","","3000","","",""
"html-keyboard-response","27","45818","0.0-11.0-3.0","","null","<div style='margin:auto;width: auto; font-size: 150%'><span style='font-weight: bold; font-size: 100px; color: red;'>0 points!</span><br><br></div>","null","delaylearn","learning","feedback_image_window","63615b34abde8debee56c5b8","1oDK1wGJjcaaYZTxrywJ4g8acRM2","","","","","","","","","","","","","","","","","","","","",""
"html-keyboard-response","28","47615","0.0-12.0","","null","<div style=""font-size:100px;"">+</div>","null","delaylearn","learning","ITI","63615b34abde8debee56c5b8","1oDK1wGJjcaaYZTxrywJ4g8acRM2","","","","","","","","","","","","","","","","","","","1791","",""
"html-keyboard-response","29","47649","0.0-13.0-0.0","","31.600000008940697","<div style=""display: flex; flex-direction: column; align-items: center; margin-top: -40px;""><img src=""images/demo_images/pattern_1.png"" style=""width: 234px; height: 230px; margin-top: -50px;""><div style=""display: flex; justify-content: space-between; margin-top: 33px;""><img src=""images/demo_images/choice_trial_1.png"" style=""width: 408px; height: 417px; margin-right: 200px;""><img src=""images/demo_images/choice_trial_2.png"" style=""width: 408px; height: 417px;""></div></div>","f","delaylearn","learning","trial","63615b34abde8debee56c5b8","1oDK1wGJjcaaYZTxrywJ4g8acRM2","2","images/demo_images/choice_trial_1.png","images/demo_images/choice_trial_2.png","images/demo_images/pattern_1.png","f","f","3000","1","2","20","0","6","1","1","1","20","","","","",""
"html-keyboard-response","30","48662","0.0-13.0-1.0","","null","<div style=""display: flex; flex-direction: column; align-items: center; margin-top: -40px;""><img src=""images/demo_images/pattern_1.png"" style=""width: 234px; height: 230px; margin-top: -50px;""><div style=""display: flex; justify-content: space-between; margin-top: 33px;""><img src=""images/demo_images/choice_trial_1.png"" style=""width: 408px; height: 417px; margin-right: 608px;""></div></div>","null","delaylearn","learning","display_response","63615b34abde8debee56c5b8","1oDK1wGJjcaaYZTxrywJ4g8acRM2","","","","","","","","","","","","","","","","","chosen stimuli: images/demo_images/choice_trial_1.png","","","",""
"html-keyboard-response","31","51676","0.0-13.0-2.0","","null","","null","delaylearn","learning","feedback_duration_window","63615b34abde8debee56c5b8","1oDK1wGJjcaaYZTxrywJ4g8acRM2","","","","","","","","","","","","","","","","","","3000","","",""
"html-keyboard-response","32","53184","0.0-13.0-3.0","","null","<div style='margin:auto;width: auto; font-size: 150%'><span style='font-weight: bold; font-size: 100px; color: green;'>+10 points!</span><br><br></div>","null","delaylearn","learning","feedback_image_window","63615b34abde8debee56c5b8","1oDK1wGJjcaaYZTxrywJ4g8acRM2","","","","","","","","","","","","","","","","","","","","",""
"html-keyboard-response","33","55367","0.0-14.0","","null","<div style=""font-size:100px;"">+</div>","null","delaylearn","learning","ITI","63615b34abde8debee56c5b8","1oDK1wGJjcaaYZTxrywJ4g8acRM2","","","","","","","","","","","","","","","","","","","2172","",""
"html-keyboard-response","34","55779","0.0-15.0-0.0","","407.80000001192093","<div style=""display: flex; flex-direction: column; align-items: center; margin-top: -40px;""><img src=""images/demo_images/pattern_1.png"" style=""width: 234px; height: 230px; margin-top: -50px;""><div style=""display: flex; justify-content: space-between; margin-top: 33px;""><img src=""images/demo_images/choice_trial_2.png"" style=""width: 408px; height: 417px; margin-right: 200px;""><img src=""images/demo_images/choice_trial_1.png"" style=""width: 408px; height: 417px;""></div></div>","j","delaylearn","learning","trial","63615b34abde8debee56c5b8","1oDK1wGJjcaaYZTxrywJ4g8acRM2","2","images/demo_images/choice_trial_2.png","images/demo_images/choice_trial_1.png","images/demo_images/pattern_1.png","j","j","3000","2","1","20","1","7","1","1","1","30","","","","",""
"html-keyboard-response","35","56796","0.0-15.0-1.0","","null","<div style=""display: flex; flex-direction: column; align-items: center; margin-top: -40px;""><img src=""images/demo_images/pattern_1.png"" style=""width: 234px; height: 230px; margin-top: -50px;""><div style=""display: flex; justify-content: space-between; margin-top: 33px;""><img src=""images/demo_images/choice_trial_1.png"" style=""width: 408px; height: 417px; margin-left:608px;""></div></div>","null","delaylearn","learning","display_response","63615b34abde8debee56c5b8","1oDK1wGJjcaaYZTxrywJ4g8acRM2","","","","","","","","","","","","","","","","","chosen stimuli: images/demo_images/choice_trial_1.png","","","",""
"html-keyboard-response","36","59799","0.0-15.0-2.0","","null","","null","delaylearn","learning","feedback_duration_window","63615b34abde8debee56c5b8","1oDK1wGJjcaaYZTxrywJ4g8acRM2","","","","","","","","","","","","","","","","","","3000","","",""
"html-keyboard-response","37","61308","0.0-15.0-3.0","","null","<div style='margin:auto;width: auto; font-size: 150%'><span style='font-weight: bold; font-size: 100px; color: green;'>+10 points!</span><br><br></div>","null","delaylearn","learning","feedback_image_window","63615b34abde8debee56c5b8","1oDK1wGJjcaaYZTxrywJ4g8acRM2","","","","","","","","","","","","","","","","","","","","",""
"html-keyboard-response","38","62849","0.0-16.0","","null","<div style=""font-size:100px;"">+</div>","null","delaylearn","learning","ITI","63615b34abde8debee56c5b8","1oDK1wGJjcaaYZTxrywJ4g8acRM2","","","","","","","","","","","","","","","","","","","1539","",""
"html-keyboard-response","39","63679","0.0-17.0-0.0","","827.7999999970198","<div style=""display: flex; flex-direction: column; align-items: center; margin-top: -40px;""><img src=""images/demo_images/pattern_1.png"" style=""width: 234px; height: 230px; margin-top: -50px;""><div style=""display: flex; justify-content: space-between; margin-top: 33px;""><img src=""images/demo_images/choice_trial_1.png"" style=""width: 408px; height: 417px; margin-right: 200px;""><img src=""images/demo_images/choice_trial_2.png"" style=""width: 408px; height: 417px;""></div></div>","j","delaylearn","learning","trial","63615b34abde8debee56c5b8","1oDK1wGJjcaaYZTxrywJ4g8acRM2","2","images/demo_images/choice_trial_1.png","images/demo_images/choice_trial_2.png","images/demo_images/pattern_1.png","f","f","3000","1","2","20","0","8","0","0","2","30","","","","",""
"html-keyboard-response","40","64689","0.0-17.0-1.0","","null","<div style=""display: flex; flex-direction: column; align-items: center; margin-top: -40px;""><img src=""images/demo_images/pattern_1.png"" style=""width: 234px; height: 230px; margin-top: -50px;""><div style=""display: flex; justify-content: space-between; margin-top: 33px;""><img src=""images/demo_images/choice_trial_2.png"" style=""width: 408px; height: 417px; margin-left:608px;""></div></div>","null","delaylearn","learning","display_response","63615b34abde8debee56c5b8","1oDK1wGJjcaaYZTxrywJ4g8acRM2","","","","","","","","","","","","","","","","","chosen stimuli: images/demo_images/choice_trial_2.png","","","",""
"html-keyboard-response","41","67703","0.0-17.0-2.0","","null","","null","delaylearn","learning","feedback_duration_window","63615b34abde8debee56c5b8","1oDK1wGJjcaaYZTxrywJ4g8acRM2","","","","","","","","","","","","","","","","","","3000","","",""
"html-keyboard-response","42","69210","0.0-17.0-3.0","","null","<div style='margin:auto;width: auto; font-size: 150%'><span style='font-weight: bold; font-size: 100px; color: red;'>0 points!</span><br><br></div>","null","delaylearn","learning","feedback_image_window","63615b34abde8debee56c5b8","1oDK1wGJjcaaYZTxrywJ4g8acRM2","","","","","","","","","","","","","","","","","","","","",""
"html-button-response","43","74417","0.0-18.0","","5203.4000000059605","
  <div style=""display: flex; align-items: center; justify-content: center; height: 80vh;"">
  <div>
          <img src=""images/inst_demo_finish.png"" style=""width: 80vw; height:auto;"">
          <br><br>
      </div>
      <br><br>
  </div>","0","","","","","","","","","","","","","","","","","","","","","","","","","",""
"html-keyboard-response","44","76020","0.0-19.0","","1600.5999999940395","
  <div style=""display: flex; align-items: center; justify-content: center; height: 80vh;"">
  <div>
          <img src=""images/inst_6.png"" style=""width: 80vw; height:auto;"">
          <br><br>
      </div>
      <br><br>
  </div>","f","","","","","","","","","","","","","","","","","","","","","","","","","",""
"html-keyboard-response","45","79023","0.0-20.0","","null","<div style=""font-size:100px;"">+</div>","null","delaylearn","learning","pre_fixation","63615b34abde8debee56c5b8","","","","","","","","","","","","","","","","","","","","","",""
"html-keyboard-response","46","81070","0.0-21.0","","null","<div style=""font-size:100px;"">+</div>","null","delaylearn","learning","ITI","63615b34abde8debee56c5b8","1oDK1wGJjcaaYZTxrywJ4g8acRM2","","","","","","","","","","","","","","","","","","","2042","",""
"html-keyboard-response","47","84083","0.0-22.0-0.0","","null","<div style=""display: flex; flex-direction: column; align-items: center; margin-top: -40px;""><img src=""images/pattern_3.png"" style=""width: 234px; height: 230px; margin-top: -50px;""><div style=""display: flex; justify-content: space-between; margin-top: 33px;""><img src=""images/choice_trial_12.png"" style=""width: 408px; height: 417px; margin-right: 200px;""><img src=""images/choice_trial_14.png"" style=""width: 408px; height: 417px;""></div></div>","null","delaylearn","learning","trial","63615b34abde8debee56c5b8","1oDK1wGJjcaaYZTxrywJ4g8acRM2","2","images/choice_trial_12.png","images/choice_trial_14.png","images/pattern_3.png","f","f","7000","12","14","2","0","9","0","0","0","30","","","","",""
"html-keyboard-response","48","85092","0.0-22.0-1.0","","null","<div style='font-weight: bold; font-size: 75px; color: red;'>Missed Trial <br><br><br><br> Please respond faster</div>","null","delaylearn","learning","display_response","63615b34abde8debee56c5b8","1oDK1wGJjcaaYZTxrywJ4g8acRM2","","","","","","","","","","","","","","","","","Missed trial","","","",""
"html-keyboard-response","49","85108","0.0-22.0-2.0","","null","","null","delaylearn","learning","feedback_duration_window","63615b34abde8debee56c5b8","1oDK1wGJjcaaYZTxrywJ4g8acRM2","","","","","","","","","","","","","","","","","","0","","",""
"html-keyboard-response","50","85115","0.0-22.0-3.0","","null","","null","delaylearn","learning","feedback_image_window","63615b34abde8debee56c5b8","1oDK1wGJjcaaYZTxrywJ4g8acRM2","","","","","","","","","","","","","","","","","","","","",""
"html-keyboard-response","51","87474","0.0-23.0","","null","<div style=""font-size:100px;"">+</div>","null","delaylearn","learning","ITI","63615b34abde8debee56c5b8","1oDK1wGJjcaaYZTxrywJ4g8acRM2","","","","","","","","","","","","","","","","","","","2349","",""
"html-keyboard-response","52","88259","0.0-24.0-0.0","","781.7999999970198","<div style=""display: flex; flex-direction: column; align-items: center; margin-top: -40px;""><img src=""images/pattern_7.png"" style=""width: 234px; height: 230px; margin-top: -50px;""><div style=""display: flex; justify-content: space-between; margin-top: 33px;""><img src=""images/choice_trial_15.png"" style=""width: 408px; height: 417px; margin-right: 200px;""><img src=""images/choice_trial_8.png"" style=""width: 408px; height: 417px;""></div></div>","j","delaylearn","learning","trial","63615b34abde8debee56c5b8","1oDK1wGJjcaaYZTxrywJ4g8acRM2","2","images/choice_trial_15.png","images/choice_trial_8.png","images/pattern_7.png","j","j","750","15","8","6","1","10","1","1","8","40","","","","",""
"html-keyboard-response","53","89271","0.0-24.0-1.0","","null","<div style=""display: flex; flex-direction: column; align-items: center; margin-top: -40px;""><img src=""images/pattern_7.png"" style=""width: 234px; height: 230px; margin-top: -50px;""><div style=""display: flex; justify-content: space-between; margin-top: 33px;""><img src=""images/choice_trial_8.png"" style=""width: 408px; height: 417px; margin-left:608px;""></div></div>","null","delaylearn","learning","display_response","63615b34abde8debee56c5b8","1oDK1wGJjcaaYZTxrywJ4g8acRM2","","","","","","","","","","","","","","","","","chosen stimuli: images/choice_trial_8.png","","","",""
"html-keyboard-response","54","90033","0.0-24.0-2.0","","null","","null","delaylearn","learning","feedback_duration_window","63615b34abde8debee56c5b8","1oDK1wGJjcaaYZTxrywJ4g8acRM2","","","","","","","","","","","","","","","","","","750","","",""
"html-keyboard-response","55","91541","0.0-24.0-3.0","","null","<div style='margin:auto;width: auto; font-size: 150%'><span style='font-weight: bold; font-size: 100px; color: green;'>+10 points!</span><br><br></div>","null","delaylearn","learning","feedback_image_window","63615b34abde8debee56c5b8","1oDK1wGJjcaaYZTxrywJ4g8acRM2","","","","","","","","","","","","","","","","","","","","",""
"html-keyboard-response","56","93762","0.0-25.0","","null","<div style=""font-size:100px;"">+</div>","null","delaylearn","learning","ITI","63615b34abde8debee56c5b8","1oDK1wGJjcaaYZTxrywJ4g8acRM2","","","","","","","","","","","","","","","","","","","2210","",""
"html-keyboard-response","57","93932","0.0-26.0-0.0","","166.1000000089407","<div style=""display: flex; flex-direction: column; align-items: center; margin-top: -40px;""><img src=""images/pattern_4.png"" style=""width: 234px; height: 230px; margin-top: -50px;""><div style=""display: flex; justify-content: space-between; margin-top: 33px;""><img src=""images/choice_trial_4.png"" style=""width: 408px; height: 417px; margin-right: 200px;""><img src=""images/choice_trial_16.png"" style=""width: 408px; height: 417px;""></div></div>","j","delaylearn","learning","trial","63615b34abde8debee56c5b8","1oDK1wGJjcaaYZTxrywJ4g8acRM2","2","images/choice_trial_4.png","images/choice_trial_16.png","images/pattern_4.png","f","f","7000","4","16","3","0","11","0","0","16","40","","","","",""
"html-keyboard-response","58","94935","0.0-26.0-1.0","","null","<div style=""display: flex; flex-direction: column; align-items: center; margin-top: -40px;""><img src=""images/pattern_4.png"" style=""width: 234px; height: 230px; margin-top: -50px;""><div style=""display: flex; justify-content: space-between; margin-top: 33px;""><img src=""images/choice_trial_16.png"" style=""width: 408px; height: 417px; margin-left:608px;""></div></div>","null","delaylearn","learning","display_response","63615b34abde8debee56c5b8","1oDK1wGJjcaaYZTxrywJ4g8acRM2","","","","","","","","","","","","","","","","","chosen stimuli: images/choice_trial_16.png","","","",""
"html-keyboard-response","59","101955","0.0-26.0-2.0","","null","","null","delaylearn","learning","feedback_duration_window","63615b34abde8debee56c5b8","1oDK1wGJjcaaYZTxrywJ4g8acRM2","","","","","","","","","","","","","","","","","","7000","","",""
"html-keyboard-response","60","103466","0.0-26.0-3.0","","null","<div style='margin:auto;width: auto; font-size: 150%'><span style='font-weight: bold; font-size: 100px; color: red;'>0 points!</span><br><br></div>","null","delaylearn","learning","feedback_image_window","63615b34abde8debee56c5b8","1oDK1wGJjcaaYZTxrywJ4g8acRM2","","","","","","","","","","","","","","","","","","","","",""
"html-keyboard-response","61","105842","0.0-27.0","","null","<div style=""font-size:100px;"">+</div>","null","delaylearn","learning","ITI","63615b34abde8debee56c5b8","1oDK1wGJjcaaYZTxrywJ4g8acRM2","","","","","","","","","","","","","","","","","","","2360","",""
"html-keyboard-response","62","105952","0.0-28.0-0.0","","107.1000000089407","<div style=""display: flex; flex-direction: column; align-items: center; margin-top: -40px;""><img src=""images/pattern_5.png"" style=""width: 234px; height: 230px; margin-top: -50px;""><div style=""display: flex; justify-content: space-between; margin-top: 33px;""><img src=""images/choice_trial_9.png"" style=""width: 408px; height: 417px; margin-right: 200px;""><img src=""images/choice_trial_2.png"" style=""width: 408px; height: 417px;""></div></div>","j","delaylearn","learning","trial","63615b34abde8debee56c5b8","1oDK1wGJjcaaYZTxrywJ4g8acRM2","2","images/choice_trial_9.png","images/choice_trial_2.png","images/pattern_5.png","j","j","750","9","2","4","1","12","1","1","2","50","","","","",""
"html-keyboard-response","63","106971","0.0-28.0-1.0","","null","<div style=""display: flex; flex-direction: column; align-items: center; margin-top: -40px;""><img src=""images/pattern_5.png"" style=""width: 234px; height: 230px; margin-top: -50px;""><div style=""display: flex; justify-content: space-between; margin-top: 33px;""><img src=""images/choice_trial_2.png"" style=""width: 408px; height: 417px; margin-left:608px;""></div></div>","null","delaylearn","learning","display_response","63615b34abde8debee56c5b8","1oDK1wGJjcaaYZTxrywJ4g8acRM2","","","","","","","","","","","","","","","","","chosen stimuli: images/choice_trial_2.png","","","",""
"html-keyboard-response","64","107733","0.0-28.0-2.0","","null","","null","delaylearn","learning","feedback_duration_window","63615b34abde8debee56c5b8","1oDK1wGJjcaaYZTxrywJ4g8acRM2","","","","","","","","","","","","","","","","","","750","","",""
"html-keyboard-response","65","109241","0.0-28.0-3.0","","null","<div style='margin:auto;width: auto; font-size: 150%'><span style='font-weight: bold; font-size: 100px; color: green;'>+10 points!</span><br><br></div>","null","delaylearn","learning","feedback_image_window","63615b34abde8debee56c5b8","1oDK1wGJjcaaYZTxrywJ4g8acRM2","","","","","","","","","","","","","","","","","","","","",""
"html-keyboard-response","66","110902","0.0-29.0","","null","<div style=""font-size:100px;"">+</div>","null","delaylearn","learning","ITI","63615b34abde8debee56c5b8","1oDK1wGJjcaaYZTxrywJ4g8acRM2","","","","","","","","","","","","","","","","","","","1645","",""
"html-keyboard-response","67","111140","0.0-30.0-0.0","","235.40000000596046","<div style=""display: flex; flex-direction: column; align-items: center; margin-top: -40px;""><img src=""images/pattern_6.png"" style=""width: 234px; height: 230px; margin-top: -50px;""><div style=""display: flex; justify-content: space-between; margin-top: 33px;""><img src=""images/choice_trial_11.png"" style=""width: 408px; height: 417px; margin-right: 200px;""><img src=""images/choice_trial_5.png"" style=""width: 408px; height: 417px;""></div></div>","f","delaylearn","learning","trial","63615b34abde8debee56c5b8","1oDK1wGJjcaaYZTxrywJ4g8acRM2","2","images/choice_trial_11.png","images/choice_trial_5.png","images/pattern_6.png","j","f","750","11","5","5","0","13","1","0","11","50","","","","",""
"html-keyboard-response","68","112153","0.0-30.0-1.0","","null","<div style=""display: flex; flex-direction: column; align-items: center; margin-top: -40px;""><img src=""images/pattern_6.png"" style=""width: 234px; height: 230px; margin-top: -50px;""><div style=""display: flex; justify-content: space-between; margin-top: 33px;""><img src=""images/choice_trial_11.png"" style=""width: 408px; height: 417px; margin-right: 608px;""></div></div>","null","delaylearn","learning","display_response","63615b34abde8debee56c5b8","1oDK1wGJjcaaYZTxrywJ4g8acRM2","","","","","","","","","","","","","","","","","chosen stimuli: images/choice_trial_11.png","","","",""
"html-keyboard-response","69","112912","0.0-30.0-2.0","","null","","null","delaylearn","learning","feedback_duration_window","63615b34abde8debee56c5b8","1oDK1wGJjcaaYZTxrywJ4g8acRM2","","","","","","","","","","","","","","","","","","750","","",""
"html-keyboard-response","70","114425","0.0-30.0-3.0","","null","<div style='margin:auto;width: auto; font-size: 150%'><span style='font-weight: bold; font-size: 100px; color: red;'>0 points!</span><br><br></div>","null","delaylearn","learning","feedback_image_window","63615b34abde8debee56c5b8","1oDK1wGJjcaaYZTxrywJ4g8acRM2","","","","","","","","","","","","","","","","","","","","",""
"html-keyboard-response","71","114932","0.0-31.0-0.0","","null","","null","","","mood_trial_fixation","","","","","","","","","","","","","","","","","","","","","","",""
"lmdlab-html-vas-response","72","138989","0.0-31.0-1.0","","null","How happy are you right now?","","delaylearn","learning","mood_trial","63615b34abde8debee56c5b8","1oDK1wGJjcaaYZTxrywJ4g8acRM2","","","","","","","","","","","","","","","","","","","","[""Very unhappy"",""Very happy""]",""
"html-keyboard-response","73","141064","0.0-32.0","","null","<div style=""font-size:100px;"">+</div>","null","delaylearn","learning","ITI","63615b34abde8debee56c5b8","1oDK1wGJjcaaYZTxrywJ4g8acRM2","","","","","","","","","","","","","","","","","","","2062","",""
"html-keyboard-response","74","141419","0.0-33.0-0.0","","351.29999999701977","<div style=""display: flex; flex-direction: column; align-items: center; margin-top: -40px;""><img src=""images/pattern_1.png"" style=""width: 234px; height: 230px; margin-top: -50px;""><div style=""display: flex; justify-content: space-between; margin-top: 33px;""><img src=""images/choice_trial_10.png"" style=""width: 408px; height: 417px; margin-right: 200px;""><img src=""images/choice_trial_3.png"" style=""width: 408px; height: 417px;""></div></div>","j","delaylearn","learning","trial","63615b34abde8debee56c5b8","1oDK1wGJjcaaYZTxrywJ4g8acRM2","2","images/choice_trial_10.png","images/choice_trial_3.png","images/pattern_1.png","j","j","7000","10","3","1","1","14","1","1","3","60","","","","",""
"html-keyboard-response","75","142428","0.0-33.0-1.0","","null","<div style=""display: flex; flex-direction: column; align-items: center; margin-top: -40px;""><img src=""images/pattern_1.png"" style=""width: 234px; height: 230px; margin-top: -50px;""><div style=""display: flex; justify-content: space-between; margin-top: 33px;""><img src=""images/choice_trial_3.png"" style=""width: 408px; height: 417px; margin-left:608px;""></div></div>","null","delaylearn","learning","display_response","63615b34abde8debee56c5b8","1oDK1wGJjcaaYZTxrywJ4g8acRM2","","","","","","","","","","","","","","","","","chosen stimuli: images/choice_trial_3.png","","","",""
"html-keyboard-response","76","149432","0.0-33.0-2.0","","null","","null","delaylearn","learning","feedback_duration_window","63615b34abde8debee56c5b8","1oDK1wGJjcaaYZTxrywJ4g8acRM2","","","","","","","","","","","","","","","","","","7000","","",""
"html-keyboard-response","77","150936","0.0-33.0-3.0","","null","<div style='margin:auto;width: auto; font-size: 150%'><span style='font-weight: bold; font-size: 100px; color: green;'>+10 points!</span><br><br></div>","null","delaylearn","learning","feedback_image_window","63615b34abde8debee56c5b8","1oDK1wGJjcaaYZTxrywJ4g8acRM2","","","","","","","","","","","","","","","","","","","","",""
"html-keyboard-response","78","153130","0.0-34.0","","null","<div style=""font-size:100px;"">+</div>","null","delaylearn","learning","ITI","63615b34abde8debee56c5b8","1oDK1wGJjcaaYZTxrywJ4g8acRM2","","","","","","","","","","","","","","","","","","","2186","",""
"html-keyboard-response","79","153550","0.0-35.0-0.0","","416.8999999910593","<div style=""display: flex; flex-direction: column; align-items: center; margin-top: -40px;""><img src=""images/pattern_3.png"" style=""width: 234px; height: 230px; margin-top: -50px;""><div style=""display: flex; justify-content: space-between; margin-top: 33px;""><img src=""images/choice_trial_14.png"" style=""width: 408px; height: 417px; margin-right: 200px;""><img src=""images/choice_trial_12.png"" style=""width: 408px; height: 417px;""></div></div>","f","delaylearn","learning","trial","63615b34abde8debee56c5b8","1oDK1wGJjcaaYZTxrywJ4g8acRM2","2","images/choice_trial_14.png","images/choice_trial_12.png","images/pattern_3.png","f","j","7000","14","12","2","1","15","0","1","14","70","","","","",""
"html-keyboard-response","80","154555","0.0-35.0-1.0","","null","<div style=""display: flex; flex-direction: column; align-items: center; margin-top: -40px;""><img src=""images/pattern_3.png"" style=""width: 234px; height: 230px; margin-top: -50px;""><div style=""display: flex; justify-content: space-between; margin-top: 33px;""><img src=""images/choice_trial_14.png"" style=""width: 408px; height: 417px; margin-right: 608px;""></div></div>","null","delaylearn","learning","display_response","63615b34abde8debee56c5b8","1oDK1wGJjcaaYZTxrywJ4g8acRM2","","","","","","","","","","","","","","","","","chosen stimuli: images/choice_trial_14.png","","","",""
"html-keyboard-response","81","161566","0.0-35.0-2.0","","null","","null","delaylearn","learning","feedback_duration_window","63615b34abde8debee56c5b8","1oDK1wGJjcaaYZTxrywJ4g8acRM2","","","","","","","","","","","","","","","","","","7000","","",""
"html-keyboard-response","82","163072","0.0-35.0-3.0","","null","<div style='margin:auto;width: auto; font-size: 150%'><span style='font-weight: bold; font-size: 100px; color: green;'>+10 points!</span><br><br></div>","null","delaylearn","learning","feedback_image_window","63615b34abde8debee56c5b8","1oDK1wGJjcaaYZTxrywJ4g8acRM2","","","","","","","","","","","","","","","","","","","","",""
"html-keyboard-response","83","165224","0.0-36.0","","null","<div style=""font-size:100px;"">+</div>","null","delaylearn","learning","ITI","63615b34abde8debee56c5b8","1oDK1wGJjcaaYZTxrywJ4g8acRM2","","","","","","","","","","","","","","","","","","","2142","",""
"html-keyboard-response","84","166098","0.0-37.0-0.0","","870.5","<div style=""display: flex; flex-direction: column; align-items: center; margin-top: -40px;""><img src=""images/pattern_5.png"" style=""width: 234px; height: 230px; margin-top: -50px;""><div style=""display: flex; justify-content: space-between; margin-top: 33px;""><img src=""images/choice_trial_2.png"" style=""width: 408px; height: 417px; margin-right: 200px;""><img src=""images/choice_trial_9.png"" style=""width: 408px; height: 417px;""></div></div>","f","delaylearn","learning","trial","63615b34abde8debee56c5b8","1oDK1wGJjcaaYZTxrywJ4g8acRM2","2","images/choice_trial_2.png","images/choice_trial_9.png","images/pattern_5.png","f","f","750","2","9","4","0","16","1","1","2","80","","","","",""
"html-keyboard-response","85","167111","0.0-37.0-1.0","","null","<div style=""display: flex; flex-direction: column; align-items: center; margin-top: -40px;""><img src=""images/pattern_5.png"" style=""width: 234px; height: 230px; margin-top: -50px;""><div style=""display: flex; justify-content: space-between; margin-top: 33px;""><img src=""images/choice_trial_2.png"" style=""width: 408px; height: 417px; margin-right: 608px;""></div></div>","null","delaylearn","learning","display_response","63615b34abde8debee56c5b8","1oDK1wGJjcaaYZTxrywJ4g8acRM2","","","","","","","","","","","","","","","","","chosen stimuli: images/choice_trial_2.png","","","",""
"html-keyboard-response","86","167873","0.0-37.0-2.0","","null","","null","delaylearn","learning","feedback_duration_window","63615b34abde8debee56c5b8","1oDK1wGJjcaaYZTxrywJ4g8acRM2","","","","","","","","","","","","","","","","","","750","","",""
"html-keyboard-response","87","169378","0.0-37.0-3.0","","null","<div style='margin:auto;width: auto; font-size: 150%'><span style='font-weight: bold; font-size: 100px; color: green;'>+10 points!</span><br><br></div>","null","delaylearn","learning","feedback_image_window","63615b34abde8debee56c5b8","1oDK1wGJjcaaYZTxrywJ4g8acRM2","","","","","","","","","","","","","","","","","","","","",""
"html-keyboard-response","88","169889","0.0-38.0-0.0","","null","","null","","","mood_trial_fixation","","","","","","","","","","","","","","","","","","","","","","",""
"lmdlab-html-vas-response","89","176746","0.0-38.0-1.0","","5837","How happy are you right now?","0.8055555555555556","delaylearn","learning","mood_trial","63615b34abde8debee56c5b8","1oDK1wGJjcaaYZTxrywJ4g8acRM2","","","","","","","","","","","","","","","","","","","","[""Very unhappy"",""Very happy""]",""
"html-keyboard-response","90","178306","0.0-39.0","","null","<div style=""font-size:100px;"">+</div>","null","delaylearn","learning","ITI","63615b34abde8debee56c5b8","1oDK1wGJjcaaYZTxrywJ4g8acRM2","","","","","","","","","","","","","","","","","","","1541","",""
"html-keyboard-response","91","178776","0.0-40.0-0.0","","466.6000000089407","<div style=""display: flex; flex-direction: column; align-items: center; margin-top: -40px;""><img src=""images/pattern_6.png"" style=""width: 234px; height: 230px; margin-top: -50px;""><div style=""display: flex; justify-content: space-between; margin-top: 33px;""><img src=""images/choice_trial_11.png"" style=""width: 408px; height: 417px; margin-right: 200px;""><img src=""images/choice_trial_5.png"" style=""width: 408px; height: 417px;""></div></div>","j","delaylearn","learning","trial","63615b34abde8debee56c5b8","1oDK1wGJjcaaYZTxrywJ4g8acRM2","2","images/choice_trial_11.png","images/choice_trial_5.png","images/pattern_6.png","f","f","750","11","5","5","0","17","0","0","5","80","","","","",""
"html-keyboard-response","92","179784","0.0-40.0-1.0","","null","<div style=""display: flex; flex-direction: column; align-items: center; margin-top: -40px;""><img src=""images/pattern_6.png"" style=""width: 234px; height: 230px; margin-top: -50px;""><div style=""display: flex; justify-content: space-between; margin-top: 33px;""><img src=""images/choice_trial_5.png"" style=""width: 408px; height: 417px; margin-left:608px;""></div></div>","null","delaylearn","learning","display_response","63615b34abde8debee56c5b8","1oDK1wGJjcaaYZTxrywJ4g8acRM2","","","","","","","","","","","","","","","","","chosen stimuli: images/choice_trial_5.png","","","",""
"html-keyboard-response","93","180544","0.0-40.0-2.0","","null","","null","delaylearn","learning","feedback_duration_window","63615b34abde8debee56c5b8","1oDK1wGJjcaaYZTxrywJ4g8acRM2","","","","","","","","","","","","","","","","","","750","","",""
"html-keyboard-response","94","182051","0.0-40.0-3.0","","null","<div style='margin:auto;width: auto; font-size: 150%'><span style='font-weight: bold; font-size: 100px; color: red;'>0 points!</span><br><br></div>","null","delaylearn","learning","feedback_image_window","63615b34abde8debee56c5b8","1oDK1wGJjcaaYZTxrywJ4g8acRM2","","","","","","","","","","","","","","","","","","","","",""
"html-keyboard-response","95","184520","0.0-41.0","","null","<div style=""font-size:100px;"">+</div>","null","delaylearn","learning","ITI","63615b34abde8debee56c5b8","1oDK1wGJjcaaYZTxrywJ4g8acRM2","","","","","","","","","","","","","","","","","","","2463","",""
"html-keyboard-response","96","185036","0.0-42.0-0.0","","512.2000000029802","<div style=""display: flex; flex-direction: column; align-items: center; margin-top: -40px;""><img src=""images/pattern_4.png"" style=""width: 234px; height: 230px; margin-top: -50px;""><div style=""display: flex; justify-content: space-between; margin-top: 33px;""><img src=""images/choice_trial_16.png"" style=""width: 408px; height: 417px; margin-right: 200px;""><img src=""images/choice_trial_4.png"" style=""width: 408px; height: 417px;""></div></div>","j","delaylearn","learning","trial","63615b34abde8debee56c5b8","1oDK1wGJjcaaYZTxrywJ4g8acRM2","2","images/choice_trial_16.png","images/choice_trial_4.png","images/pattern_4.png","j","j","7000","16","4","3","1","18","1","1","4","90","","","","",""
"html-keyboard-response","97","186041","0.0-42.0-1.0","","null","<div style=""display: flex; flex-direction: column; align-items: center; margin-top: -40px;""><img src=""images/pattern_4.png"" style=""width: 234px; height: 230px; margin-top: -50px;""><div style=""display: flex; justify-content: space-between; margin-top: 33px;""><img src=""images/choice_trial_4.png"" style=""width: 408px; height: 417px; margin-left:608px;""></div></div>","null","delaylearn","learning","display_response","63615b34abde8debee56c5b8","1oDK1wGJjcaaYZTxrywJ4g8acRM2","","","","","","","","","","","","","","","","","chosen stimuli: images/choice_trial_4.png","","","",""
"html-keyboard-response","98","193048","0.0-42.0-2.0","","null","","null","delaylearn","learning","feedback_duration_window","63615b34abde8debee56c5b8","1oDK1wGJjcaaYZTxrywJ4g8acRM2","","","","","","","","","","","","","","","","","","7000","","",""
"html-keyboard-response","99","194555","0.0-42.0-3.0","","null","<div style='margin:auto;width: auto; font-size: 150%'><span style='font-weight: bold; font-size: 100px; color: green;'>+10 points!</span><br><br></div>","null","delaylearn","learning","feedback_image_window","63615b34abde8debee56c5b8","1oDK1wGJjcaaYZTxrywJ4g8acRM2","","","","","","","","","","","","","","","","","","","","",""
"html-keyboard-response","100","196663","0.0-43.0","","null","<div style=""font-size:100px;"">+</div>","null","delaylearn","learning","ITI","63615b34abde8debee56c5b8","1oDK1wGJjcaaYZTxrywJ4g8acRM2","","","","","","","","","","","","","","","","","","","2094","",""
"html-keyboard-response","101","197428","0.0-44.0-0.0","","761.0999999940395","<div style=""display: flex; flex-direction: column; align-items: center; margin-top: -40px;""><img src=""images/pattern_7.png"" style=""width: 234px; height: 230px; margin-top: -50px;""><div style=""display: flex; justify-content: space-between; margin-top: 33px;""><img src=""images/choice_trial_8.png"" style=""width: 408px; height: 417px; margin-right: 200px;""><img src=""images/choice_trial_15.png"" style=""width: 408px; height: 417px;""></div></div>","j","delaylearn","learning","trial","63615b34abde8debee56c5b8","1oDK1wGJjcaaYZTxrywJ4g8acRM2","2","images/choice_trial_8.png","images/choice_trial_15.png","images/pattern_7.png","j","f","750","8","15","6","0","19","0","1","15","100","","","","",""
"html-keyboard-response","102","198434","0.0-44.0-1.0","","null","<div style=""display: flex; flex-direction: column; align-items: center; margin-top: -40px;""><img src=""images/pattern_7.png"" style=""width: 234px; height: 230px; margin-top: -50px;""><div style=""display: flex; justify-content: space-between; margin-top: 33px;""><img src=""images/choice_trial_15.png"" style=""width: 408px; height: 417px; margin-left:608px;""></div></div>","null","delaylearn","learning","display_response","63615b34abde8debee56c5b8","1oDK1wGJjcaaYZTxrywJ4g8acRM2","","","","","","","","","","","","","","","","","chosen stimuli: images/choice_trial_15.png","","","",""
"html-keyboard-response","103","199194","0.0-44.0-2.0","","null","","null","delaylearn","learning","feedback_duration_window","63615b34abde8debee56c5b8","1oDK1wGJjcaaYZTxrywJ4g8acRM2","","","","","","","","","","","","","","","","","","750","","",""
"html-keyboard-response","104","200699","0.0-44.0-3.0","","null","<div style='margin:auto;width: auto; font-size: 150%'><span style='font-weight: bold; font-size: 100px; color: green;'>+10 points!</span><br><br></div>","null","delaylearn","learning","feedback_image_window","63615b34abde8debee56c5b8","1oDK1wGJjcaaYZTxrywJ4g8acRM2","","","","","","","","","","","","","","","","","","","","",""
"html-keyboard-response","105","202263","0.0-45.0","","null","<div style=""font-size:100px;"">+</div>","null","delaylearn","learning","ITI","63615b34abde8debee56c5b8","1oDK1wGJjcaaYZTxrywJ4g8acRM2","","","","","","","","","","","","","","","","","","","1553","",""
"html-keyboard-response","106","202630","0.0-46.0-0.0","","363.80000001192093","<div style=""display: flex; flex-direction: column; align-items: center; margin-top: -40px;""><img src=""images/pattern_1.png"" style=""width: 234px; height: 230px; margin-top: -50px;""><div style=""display: flex; justify-content: space-between; margin-top: 33px;""><img src=""images/choice_trial_3.png"" style=""width: 408px; height: 417px; margin-right: 200px;""><img src=""images/choice_trial_10.png"" style=""width: 408px; height: 417px;""></div></div>","j","delaylearn","learning","trial","63615b34abde8debee56c5b8","1oDK1wGJjcaaYZTxrywJ4g8acRM2","2","images/choice_trial_3.png","images/choice_trial_10.png","images/pattern_1.png","f","f","7000","3","10","1","0","20","0","0","10","100","","","","",""
"html-keyboard-response","107","203645","0.0-46.0-1.0","","null","<div style=""display: flex; flex-direction: column; align-items: center; margin-top: -40px;""><img src=""images/pattern_1.png"" style=""width: 234px; height: 230px; margin-top: -50px;""><div style=""display: flex; justify-content: space-between; margin-top: 33px;""><img src=""images/choice_trial_10.png"" style=""width: 408px; height: 417px; margin-left:608px;""></div></div>","null","delaylearn","learning","display_response","63615b34abde8debee56c5b8","1oDK1wGJjcaaYZTxrywJ4g8acRM2","","","","","","","","","","","","","","","","","chosen stimuli: images/choice_trial_10.png","","","",""
"html-keyboard-response","108","210649","0.0-46.0-2.0","","null","","null","delaylearn","learning","feedback_duration_window","63615b34abde8debee56c5b8","1oDK1wGJjcaaYZTxrywJ4g8acRM2","","","","","","","","","","","","","","","","","","7000","","",""
"html-keyboard-response","109","212153","0.0-46.0-3.0","","null","<div style='margin:auto;width: auto; font-size: 150%'><span style='font-weight: bold; font-size: 100px; color: red;'>0 points!</span><br><br></div>","null","delaylearn","learning","feedback_image_window","63615b34abde8debee56c5b8","1oDK1wGJjcaaYZTxrywJ4g8acRM2","","","","","","","","","","","","","","","","","","","","",""
"html-keyboard-response","110","214090","0.0-47.0","","null","<div style=""font-size:100px;"">+</div>","null","delaylearn","learning","ITI","63615b34abde8debee56c5b8","1oDK1wGJjcaaYZTxrywJ4g8acRM2","","","","","","","","","","","","","","","","","","","1921","",""
"html-keyboard-response","111","214838","0.0-48.0-0.0","","745.6999999880791","<div style=""display: flex; flex-direction: column; align-items: center; margin-top: -40px;""><img src=""images/pattern_6.png"" style=""width: 234px; height: 230px; margin-top: -50px;""><div style=""display: flex; justify-content: space-between; margin-top: 33px;""><img src=""images/choice_trial_5.png"" style=""width: 408px; height: 417px; margin-right: 200px;""><img src=""images/choice_trial_11.png"" style=""width: 408px; height: 417px;""></div></div>","j","delaylearn","learning","trial","63615b34abde8debee56c5b8","1oDK1wGJjcaaYZTxrywJ4g8acRM2","2","images/choice_trial_5.png","images/choice_trial_11.png","images/pattern_6.png","j","j","750","5","11","5","1","21","1","1","11","110","","","","",""
"html-keyboard-response","112","215849","0.0-48.0-1.0","","null","<div style=""display: flex; flex-direction: column; align-items: center; margin-top: -40px;""><img src=""images/pattern_6.png"" style=""width: 234px; height: 230px; margin-top: -50px;""><div style=""display: flex; justify-content: space-between; margin-top: 33px;""><img src=""images/choice_trial_11.png"" style=""width: 408px; height: 417px; margin-left:608px;""></div></div>","null","delaylearn","learning","display_response","63615b34abde8debee56c5b8","1oDK1wGJjcaaYZTxrywJ4g8acRM2","","","","","","","","","","","","","","","","","chosen stimuli: images/choice_trial_11.png","","","",""
"html-keyboard-response","113","216609","0.0-48.0-2.0","","null","","null","delaylearn","learning","feedback_duration_window","63615b34abde8debee56c5b8","1oDK1wGJjcaaYZTxrywJ4g8acRM2","","","","","","","","","","","","","","","","","","750","","",""
"html-keyboard-response","114","218121","0.0-48.0-3.0","","null","<div style='margin:auto;width: auto; font-size: 150%'><span style='font-weight: bold; font-size: 100px; color: green;'>+10 points!</span><br><br></div>","null","delaylearn","learning","feedback_image_window","63615b34abde8debee56c5b8","1oDK1wGJjcaaYZTxrywJ4g8acRM2","","","","","","","","","","","","","","","","","","","","",""
"html-keyboard-response","115","220148","0.0-49.0","","null","<div style=""font-size:100px;"">+</div>","null","delaylearn","learning","ITI","63615b34abde8debee56c5b8","1oDK1wGJjcaaYZTxrywJ4g8acRM2","","","","","","","","","","","","","","","","","","","2023","",""
"html-keyboard-response","116","221045","0.0-50.0-0.0","","892.7000000029802","<div style=""display: flex; flex-direction: column; align-items: center; margin-top: -40px;""><img src=""images/pattern_4.png"" style=""width: 234px; height: 230px; margin-top: -50px;""><div style=""display: flex; justify-content: space-between; margin-top: 33px;""><img src=""images/choice_trial_4.png"" style=""width: 408px; height: 417px; margin-right: 200px;""><img src=""images/choice_trial_16.png"" style=""width: 408px; height: 417px;""></div></div>","j","delaylearn","learning","trial","63615b34abde8debee56c5b8","1oDK1wGJjcaaYZTxrywJ4g8acRM2","2","images/choice_trial_4.png","images/choice_trial_16.png","images/pattern_4.png","f","f","7000","4","16","3","0","22","0","0","16","110","","","","",""
"html-keyboard-response","117","222058","0.0-50.0-1.0","","null","<div style=""display: flex; flex-direction: column; align-items: center; margin-top: -40px;""><img src=""images/pattern_4.png"" style=""width: 234px; height: 230px; margin-top: -50px;""><div style=""display: flex; justify-content: space-between; margin-top: 33px;""><img src=""images/choice_trial_16.png"" style=""width: 408px; height: 417px; margin-left:608px;""></div></div>","null","delaylearn","learning","display_response","63615b34abde8debee56c5b8","1oDK1wGJjcaaYZTxrywJ4g8acRM2","","","","","","","","","","","","","","","","","chosen stimuli: images/choice_trial_16.png","","","",""
"html-keyboard-response","118","229065","0.0-50.0-2.0","","null","","null","delaylearn","learning","feedback_duration_window","63615b34abde8debee56c5b8","1oDK1wGJjcaaYZTxrywJ4g8acRM2","","","","","","","","","","","","","","","","","","7000","","",""
"html-keyboard-response","119","230573","0.0-50.0-3.0","","null","<div style='margin:auto;width: auto; font-size: 150%'><span style='font-weight: bold; font-size: 100px; color: red;'>0 points!</span><br><br></div>","null","delaylearn","learning","feedback_image_window","63615b34abde8debee56c5b8","1oDK1wGJjcaaYZTxrywJ4g8acRM2","","","","","","","","","","","","","","","","","","","","",""
"html-keyboard-response","120","231076","0.0-51.0-0.0","","null","","null","","","mood_trial_fixation","","","","","","","","","","","","","","","","","","","","","","",""
"lmdlab-html-vas-response","121","234658","0.0-51.0-1.0","","2574","How happy are you right now?","0.7013888888888888","delaylearn","learning","mood_trial","63615b34abde8debee56c5b8","1oDK1wGJjcaaYZTxrywJ4g8acRM2","","","","","","","","","","","","","","","","","","","","[""Very unhappy"",""Very happy""]",""
"html-keyboard-response","122","236433","0.0-52.0","","null","<div style=""font-size:100px;"">+</div>","null","delaylearn","learning","ITI","63615b34abde8debee56c5b8","1oDK1wGJjcaaYZTxrywJ4g8acRM2","","","","","","","","","","","","","","","","","","","1773","",""
"html-keyboard-response","123","236989","0.0-53.0-0.0","","552.2000000029802","<div style=""display: flex; flex-direction: column; align-items: center; margin-top: -40px;""><img src=""images/pattern_7.png"" style=""width: 234px; height: 230px; margin-top: -50px;""><div style=""display: flex; justify-content: space-between; margin-top: 33px;""><img src=""images/choice_trial_15.png"" style=""width: 408px; height: 417px; margin-right: 200px;""><img src=""images/choice_trial_8.png"" style=""width: 408px; height: 417px;""></div></div>","j","delaylearn","learning","trial","63615b34abde8debee56c5b8","1oDK1wGJjcaaYZTxrywJ4g8acRM2","2","images/choice_trial_15.png","images/choice_trial_8.png","images/pattern_7.png","j","j","750","15","8","6","1","23","1","1","8","120","","","","",""
"html-keyboard-response","124","238006","0.0-53.0-1.0","","null","<div style=""display: flex; flex-direction: column; align-items: center; margin-top: -40px;""><img src=""images/pattern_7.png"" style=""width: 234px; height: 230px; margin-top: -50px;""><div style=""display: flex; justify-content: space-between; margin-top: 33px;""><img src=""images/choice_trial_8.png"" style=""width: 408px; height: 417px; margin-left:608px;""></div></div>","null","delaylearn","learning","display_response","63615b34abde8debee56c5b8","1oDK1wGJjcaaYZTxrywJ4g8acRM2","","","","","","","","","","","","","","","","","chosen stimuli: images/choice_trial_8.png","","","",""
"html-keyboard-response","125","238767","0.0-53.0-2.0","","null","","null","delaylearn","learning","feedback_duration_window","63615b34abde8debee56c5b8","1oDK1wGJjcaaYZTxrywJ4g8acRM2","","","","","","","","","","","","","","","","","","750","","",""
"html-keyboard-response","126","240285","0.0-53.0-3.0","","null","<div style='margin:auto;width: auto; font-size: 150%'><span style='font-weight: bold; font-size: 100px; color: green;'>+10 points!</span><br><br></div>","null","delaylearn","learning","feedback_image_window","63615b34abde8debee56c5b8","1oDK1wGJjcaaYZTxrywJ4g8acRM2","","","","","","","","","","","","","","","","","","","","",""
"html-keyboard-response","127","241872","0.0-54.0","","null","<div style=""font-size:100px;"">+</div>","null","delaylearn","learning","ITI","63615b34abde8debee56c5b8","1oDK1wGJjcaaYZTxrywJ4g8acRM2","","","","","","","","","","","","","","","","","","","1583","",""
"html-keyboard-response","128","242430","0.0-55.0-0.0","","554.7999999970198","<div style=""display: flex; flex-direction: column; align-items: center; margin-top: -40px;""><img src=""images/pattern_1.png"" style=""width: 234px; height: 230px; margin-top: -50px;""><div style=""display: flex; justify-content: space-between; margin-top: 33px;""><img src=""images/choice_trial_10.png"" style=""width: 408px; height: 417px; margin-right: 200px;""><img src=""images/choice_trial_3.png"" style=""width: 408px; height: 417px;""></div></div>","j","delaylearn","learning","trial","63615b34abde8debee56c5b8","1oDK1wGJjcaaYZTxrywJ4g8acRM2","2","images/choice_trial_10.png","images/choice_trial_3.png","images/pattern_1.png","f","j","7000","10","3","1","1","24","1","0","3","120","","","","",""
"html-keyboard-response","129","243446","0.0-55.0-1.0","","null","<div style=""display: flex; flex-direction: column; align-items: center; margin-top: -40px;""><img src=""images/pattern_1.png"" style=""width: 234px; height: 230px; margin-top: -50px;""><div style=""display: flex; justify-content: space-between; margin-top: 33px;""><img src=""images/choice_trial_3.png"" style=""width: 408px; height: 417px; margin-left:608px;""></div></div>","null","delaylearn","learning","display_response","63615b34abde8debee56c5b8","1oDK1wGJjcaaYZTxrywJ4g8acRM2","","","","","","","","","","","","","","","","","chosen stimuli: images/choice_trial_3.png","","","",""
"html-keyboard-response","130","250463","0.0-55.0-2.0","","null","","null","delaylearn","learning","feedback_duration_window","63615b34abde8debee56c5b8","1oDK1wGJjcaaYZTxrywJ4g8acRM2","","","","","","","","","","","","","","","","","","7000","","",""
"html-keyboard-response","131","251970","0.0-55.0-3.0","","null","<div style='margin:auto;width: auto; font-size: 150%'><span style='font-weight: bold; font-size: 100px; color: red;'>0 points!</span><br><br></div>","null","delaylearn","learning","feedback_image_window","63615b34abde8debee56c5b8","1oDK1wGJjcaaYZTxrywJ4g8acRM2","","","","","","","","","","","","","","","","","","","","",""
"html-keyboard-response","132","254238","0.0-56.0","","null","<div style=""font-size:100px;"">+</div>","null","delaylearn","learning","ITI","63615b34abde8debee56c5b8","1oDK1wGJjcaaYZTxrywJ4g8acRM2","","","","","","","","","","","","","","","","","","","2257","",""
"html-keyboard-response","133","254735","0.0-57.0-0.0","","493.59999999403954","<div style=""display: flex; flex-direction: column; align-items: center; margin-top: -40px;""><img src=""images/pattern_5.png"" style=""width: 234px; height: 230px; margin-top: -50px;""><div style=""display: flex; justify-content: space-between; margin-top: 33px;""><img src=""images/choice_trial_9.png"" style=""width: 408px; height: 417px; margin-right: 200px;""><img src=""images/choice_trial_2.png"" style=""width: 408px; height: 417px;""></div></div>","j","delaylearn","learning","trial","63615b34abde8debee56c5b8","1oDK1wGJjcaaYZTxrywJ4g8acRM2","2","images/choice_trial_9.png","images/choice_trial_2.png","images/pattern_5.png","j","j","750","9","2","4","1","25","1","1","2","130","","","","",""
"html-keyboard-response","134","255745","0.0-57.0-1.0","","null","<div style=""display: flex; flex-direction: column; align-items: center; margin-top: -40px;""><img src=""images/pattern_5.png"" style=""width: 234px; height: 230px; margin-top: -50px;""><div style=""display: flex; justify-content: space-between; margin-top: 33px;""><img src=""images/choice_trial_2.png"" style=""width: 408px; height: 417px; margin-left:608px;""></div></div>","null","delaylearn","learning","display_response","63615b34abde8debee56c5b8","1oDK1wGJjcaaYZTxrywJ4g8acRM2","","","","","","","","","","","","","","","","","chosen stimuli: images/choice_trial_2.png","","","",""
"html-keyboard-response","135","256509","0.0-57.0-2.0","","null","","null","delaylearn","learning","feedback_duration_window","63615b34abde8debee56c5b8","1oDK1wGJjcaaYZTxrywJ4g8acRM2","","","","","","","","","","","","","","","","","","750","","",""
"html-keyboard-response","136","258016","0.0-57.0-3.0","","null","<div style='margin:auto;width: auto; font-size: 150%'><span style='font-weight: bold; font-size: 100px; color: green;'>+10 points!</span><br><br></div>","null","delaylearn","learning","feedback_image_window","63615b34abde8debee56c5b8","1oDK1wGJjcaaYZTxrywJ4g8acRM2","","","","","","","","","","","","","","","","","","","","",""
"html-keyboard-response","137","259900","0.0-58.0","","null","<div style=""font-size:100px;"">+</div>","null","delaylearn","learning","ITI","63615b34abde8debee56c5b8","1oDK1wGJjcaaYZTxrywJ4g8acRM2","","","","","","","","","","","","","","","","","","","1871","",""
"html-keyboard-response","138","260365","0.0-59.0-0.0","","461.8999999910593","<div style=""display: flex; flex-direction: column; align-items: center; margin-top: -40px;""><img src=""images/pattern_3.png"" style=""width: 234px; height: 230px; margin-top: -50px;""><div style=""display: flex; justify-content: space-between; margin-top: 33px;""><img src=""images/choice_trial_14.png"" style=""width: 408px; height: 417px; margin-right: 200px;""><img src=""images/choice_trial_12.png"" style=""width: 408px; height: 417px;""></div></div>","f","delaylearn","learning","trial","63615b34abde8debee56c5b8","1oDK1wGJjcaaYZTxrywJ4g8acRM2","2","images/choice_trial_14.png","images/choice_trial_12.png","images/pattern_3.png","j","j","7000","14","12","2","1","26","0","0","14","130","","","","",""
"html-keyboard-response","139","261376","0.0-59.0-1.0","","null","<div style=""display: flex; flex-direction: column; align-items: center; margin-top: -40px;""><img src=""images/pattern_3.png"" style=""width: 234px; height: 230px; margin-top: -50px;""><div style=""display: flex; justify-content: space-between; margin-top: 33px;""><img src=""images/choice_trial_14.png"" style=""width: 408px; height: 417px; margin-right: 608px;""></div></div>","null","delaylearn","learning","display_response","63615b34abde8debee56c5b8","1oDK1wGJjcaaYZTxrywJ4g8acRM2","","","","","","","","","","","","","","","","","chosen stimuli: images/choice_trial_14.png","","","",""
"html-keyboard-response","140","268383","0.0-59.0-2.0","","null","","null","delaylearn","learning","feedback_duration_window","63615b34abde8debee56c5b8","1oDK1wGJjcaaYZTxrywJ4g8acRM2","","","","","","","","","","","","","","","","","","7000","","",""
"html-keyboard-response","141","269889","0.0-59.0-3.0","","null","<div style='margin:auto;width: auto; font-size: 150%'><span style='font-weight: bold; font-size: 100px; color: red;'>0 points!</span><br><br></div>","null","delaylearn","learning","feedback_image_window","63615b34abde8debee56c5b8","1oDK1wGJjcaaYZTxrywJ4g8acRM2","","","","","","","","","","","","","","","","","","","","",""
"lmdlab-html-vas-response","142","273909","0.0-60.0-0.0","","2491","*How <b><u>confident</u></b> are you feeling about your answers at this moment?*","0.6365740740740741","rewlearn","rate_confidence","","63615b34abde8debee56c5b8","1oDK1wGJjcaaYZTxrywJ4g8acRM2","","","","","","","","","","","","","","","","","","","","[""No confidence"",""Complete confidence""]",""
"lmdlab-rest-trial-limit","143","1066417","0.0-60.0-1.0","","791007","<div style=""font-size:40px;""><b>Please take a break!</b><br><br><br><br><p>Great work: you earned 130 points.<br><br><br><p>You have completed part(s) 1 of 5.<br><br><br><br>When you are ready to continue<br><br><br>please click the button.</p><br><br>","0","delaylearn","learning","break","63615b34abde8debee56c5b8","1oDK1wGJjcaaYZTxrywJ4g8acRM2","","","","","","","","","","","","","","","","","","","","","1"
"html-keyboard-response","144","1069424","0.0-60.0-2.0","","null","<div style=""font-size:100px;"">+</div>","null","delaylearn","learning","pre_fixation","63615b34abde8debee56c5b8","","","","","","","","","","","","","","","","","","","","","",""
"lmdlab-html-vas-response","145","1073076","0.0-60.0-3.0-0.0","","2631","How happy are you right now?","0.7384259259259259","delaylearn","learning","mood_baseline","63615b34abde8debee56c5b8","1oDK1wGJjcaaYZTxrywJ4g8acRM2","","","","","","","","","","","","","","","","","","","","[""Very unhappy"",""Very happy""]",""
"html-keyboard-response","146","1074580","0.0-60.0-3.0-1.0","","null","","null","","","mood_baseline_fixation","","","","","","","","","","","","","","","","","","","","","","",""
"html-keyboard-response","147","1076992","0.0-61.0","","null","<div style=""font-size:100px;"">+</div>","null","delaylearn","learning","ITI","63615b34abde8debee56c5b8","1oDK1wGJjcaaYZTxrywJ4g8acRM2","","","","","","","","","","","","","","","","","","","2396","",""
"html-keyboard-response","148","1077140","0.0-62.0-0.0","","142.80000001192093","<div style=""display: flex; flex-direction: column; align-items: center; margin-top: -40px;""><img src=""images/pattern_7.png"" style=""width: 234px; height: 230px; margin-top: -50px;""><div style=""display: flex; justify-content: space-between; margin-top: 33px;""><img src=""images/choice_trial_15.png"" style=""width: 408px; height: 417px; margin-right: 200px;""><img src=""images/choice_trial_8.png"" style=""width: 408px; height: 417px;""></div></div>","j","delaylearn","learning","trial","63615b34abde8debee56c5b8","1oDK1wGJjcaaYZTxrywJ4g8acRM2","2","images/choice_trial_15.png","images/choice_trial_8.png","images/pattern_7.png","j","j","750","15","8","6","1","27","1","1","8","140","","","","",""
"html-keyboard-response","149","1078153","0.0-62.0-1.0","","null","<div style=""display: flex; flex-direction: column; align-items: center; margin-top: -40px;""><img src=""images/pattern_7.png"" style=""width: 234px; height: 230px; margin-top: -50px;""><div style=""display: flex; justify-content: space-between; margin-top: 33px;""><img src=""images/choice_trial_8.png"" style=""width: 408px; height: 417px; margin-left:608px;""></div></div>","null","delaylearn","learning","display_response","63615b34abde8debee56c5b8","1oDK1wGJjcaaYZTxrywJ4g8acRM2","","","","","","","","","","","","","","","","","chosen stimuli: images/choice_trial_8.png","","","",""
"html-keyboard-response","150","1078912","0.0-62.0-2.0","","null","","null","delaylearn","learning","feedback_duration_window","63615b34abde8debee56c5b8","1oDK1wGJjcaaYZTxrywJ4g8acRM2","","","","","","","","","","","","","","","","","","750","","",""
"html-keyboard-response","151","1080420","0.0-62.0-3.0","","null","<div style='margin:auto;width: auto; font-size: 150%'><span style='font-weight: bold; font-size: 100px; color: green;'>+10 points!</span><br><br></div>","null","delaylearn","learning","feedback_image_window","63615b34abde8debee56c5b8","1oDK1wGJjcaaYZTxrywJ4g8acRM2","","","","","","","","","","","","","","","","","","","","",""
"html-keyboard-response","152","1080926","0.0-63.0-0.0","","null","","null","","","mood_trial_fixation","","","","","","","","","","","","","","","","","","","","","","",""
"lmdlab-html-vas-response","153","1084854","0.0-63.0-1.0","","2910","How happy are you right now?","0.7523148148148148","delaylearn","learning","mood_trial","63615b34abde8debee56c5b8","1oDK1wGJjcaaYZTxrywJ4g8acRM2","","","","","","","","","","","","","","","","","","","","[""Very unhappy"",""Very happy""]",""
"html-keyboard-response","154","1086946","0.0-64.0","","null","<div style=""font-size:100px;"">+</div>","null","delaylearn","learning","ITI","63615b34abde8debee56c5b8","1oDK1wGJjcaaYZTxrywJ4g8acRM2","","","","","","","","","","","","","","","","","","","2079","",""
"html-keyboard-response","155","1086959","0.0-65.0-0.0","","8.600000008940697","<div style=""display: flex; flex-direction: column; align-items: center; margin-top: -40px;""><img src=""images/pattern_1.png"" style=""width: 234px; height: 230px; margin-top: -50px;""><div style=""display: flex; justify-content: space-between; margin-top: 33px;""><img src=""images/choice_trial_3.png"" style=""width: 408px; height: 417px; margin-right: 200px;""><img src=""images/choice_trial_10.png"" style=""width: 408px; height: 417px;""></div></div>","j","delaylearn","learning","trial","63615b34abde8debee56c5b8","1oDK1wGJjcaaYZTxrywJ4g8acRM2","2","images/choice_trial_3.png","images/choice_trial_10.png","images/pattern_1.png","f","f","7000","3","10","1","0","28","0","0","10","140","","","","",""
"html-keyboard-response","156","1087969","0.0-65.0-1.0","","null","<div style=""display: flex; flex-direction: column; align-items: center; margin-top: -40px;""><img src=""images/pattern_1.png"" style=""width: 234px; height: 230px; margin-top: -50px;""><div style=""display: flex; justify-content: space-between; margin-top: 33px;""><img src=""images/choice_trial_10.png"" style=""width: 408px; height: 417px; margin-left:608px;""></div></div>","null","delaylearn","learning","display_response","63615b34abde8debee56c5b8","1oDK1wGJjcaaYZTxrywJ4g8acRM2","","","","","","","","","","","","","","","","","chosen stimuli: images/choice_trial_10.png","","","",""
"html-keyboard-response","157","1094971","0.0-65.0-2.0","","null","","null","delaylearn","learning","feedback_duration_window","63615b34abde8debee56c5b8","1oDK1wGJjcaaYZTxrywJ4g8acRM2","","","","","","","","","","","","","","","","","","7000","","",""
"html-keyboard-response","158","1096479","0.0-65.0-3.0","","null","<div style='margin:auto;width: auto; font-size: 150%'><span style='font-weight: bold; font-size: 100px; color: red;'>0 points!</span><br><br></div>","null","delaylearn","learning","feedback_image_window","63615b34abde8debee56c5b8","1oDK1wGJjcaaYZTxrywJ4g8acRM2","","","","","","","","","","","","","","","","","","","","",""
"html-keyboard-response","159","1098286","0.0-66.0","","null","<div style=""font-size:100px;"">+</div>","null","delaylearn","learning","ITI","63615b34abde8debee56c5b8","1oDK1wGJjcaaYZTxrywJ4g8acRM2","","","","","","","","","","","","","","","","","","","1800","",""
"html-keyboard-response","160","1098522","0.0-67.0-0.0","","231.70000000298023","<div style=""display: flex; flex-direction: column; align-items: center; margin-top: -40px;""><img src=""images/pattern_5.png"" style=""width: 234px; height: 230px; margin-top: -50px;""><div style=""display: flex; justify-content: space-between; margin-top: 33px;""><img src=""images/choice_trial_2.png"" style=""width: 408px; height: 417px; margin-right: 200px;""><img src=""images/choice_trial_9.png"" style=""width: 408px; height: 417px;""></div></div>","j","delaylearn","learning","trial","63615b34abde8debee56c5b8","1oDK1wGJjcaaYZTxrywJ4g8acRM2","2","images/choice_trial_2.png","images/choice_trial_9.png","images/pattern_5.png","f","f","750","2","9","4","0","29","0","0","9","140","","","","",""
"html-keyboard-response","161","1099527","0.0-67.0-1.0","","null","<div style=""display: flex; flex-direction: column; align-items: center; margin-top: -40px;""><img src=""images/pattern_5.png"" style=""width: 234px; height: 230px; margin-top: -50px;""><div style=""display: flex; justify-content: space-between; margin-top: 33px;""><img src=""images/choice_trial_9.png"" style=""width: 408px; height: 417px; margin-left:608px;""></div></div>","null","delaylearn","learning","display_response","63615b34abde8debee56c5b8","1oDK1wGJjcaaYZTxrywJ4g8acRM2","","","","","","","","","","","","","","","","","chosen stimuli: images/choice_trial_9.png","","","",""
"html-keyboard-response","162","1100293","0.0-67.0-2.0","","null","","null","delaylearn","learning","feedback_duration_window","63615b34abde8debee56c5b8","1oDK1wGJjcaaYZTxrywJ4g8acRM2","","","","","","","","","","","","","","","","","","750","","",""
"html-keyboard-response","163","1101801","0.0-67.0-3.0","","null","<div style='margin:auto;width: auto; font-size: 150%'><span style='font-weight: bold; font-size: 100px; color: red;'>0 points!</span><br><br></div>","null","delaylearn","learning","feedback_image_window","63615b34abde8debee56c5b8","1oDK1wGJjcaaYZTxrywJ4g8acRM2","","","","","","","","","","","","","","","","","","","","",""
"html-keyboard-response","164","1103485","0.0-68.0","","null","<div style=""font-size:100px;"">+</div>","null","delaylearn","learning","ITI","63615b34abde8debee56c5b8","1oDK1wGJjcaaYZTxrywJ4g8acRM2","","","","","","","","","","","","","","","","","","","1671","",""
"html-keyboard-response","165","1103585","0.0-69.0-0.0","","96.90000000596046","<div style=""display: flex; flex-direction: column; align-items: center; margin-top: -40px;""><img src=""images/pattern_6.png"" style=""width: 234px; height: 230px; margin-top: -50px;""><div style=""display: flex; justify-content: space-between; margin-top: 33px;""><img src=""images/choice_trial_5.png"" style=""width: 408px; height: 417px; margin-right: 200px;""><img src=""images/choice_trial_11.png"" style=""width: 408px; height: 417px;""></div></div>","j","delaylearn","learning","trial","63615b34abde8debee56c5b8","1oDK1wGJjcaaYZTxrywJ4g8acRM2","2","images/choice_trial_5.png","images/choice_trial_11.png","images/pattern_6.png","j","j","750","5","11","5","1","30","1","1","11","150","","","","",""
"html-keyboard-response","166","1104598","0.0-69.0-1.0","","null","<div style=""display: flex; flex-direction: column; align-items: center; margin-top: -40px;""><img src=""images/pattern_6.png"" style=""width: 234px; height: 230px; margin-top: -50px;""><div style=""display: flex; justify-content: space-between; margin-top: 33px;""><img src=""images/choice_trial_11.png"" style=""width: 408px; height: 417px; margin-left:608px;""></div></div>","null","delaylearn","learning","display_response","63615b34abde8debee56c5b8","1oDK1wGJjcaaYZTxrywJ4g8acRM2","","","","","","","","","","","","","","","","","chosen stimuli: images/choice_trial_11.png","","","",""
"html-keyboard-response","167","1105360","0.0-69.0-2.0","","null","","null","delaylearn","learning","feedback_duration_window","63615b34abde8debee56c5b8","1oDK1wGJjcaaYZTxrywJ4g8acRM2","","","","","","","","","","","","","","","","","","750","","",""
"html-keyboard-response","168","1106866","0.0-69.0-3.0","","null","<div style='margin:auto;width: auto; font-size: 150%'><span style='font-weight: bold; font-size: 100px; color: green;'>+10 points!</span><br><br></div>","null","delaylearn","learning","feedback_image_window","63615b34abde8debee56c5b8","1oDK1wGJjcaaYZTxrywJ4g8acRM2","","","","","","","","","","","","","","","","","","","","",""
"html-keyboard-response","169","1107375","0.0-70.0-0.0","","null","","null","","","mood_trial_fixation","","","","","","","","","","","","","","","","","","","","","","",""
"lmdlab-html-vas-response","170","1110775","0.0-70.0-1.0","","2376","How happy are you right now?","0.7870370370370371","delaylearn","learning","mood_trial","63615b34abde8debee56c5b8","1oDK1wGJjcaaYZTxrywJ4g8acRM2","","","","","","","","","","","","","","","","","","","","[""Very unhappy"",""Very happy""]",""
"html-keyboard-response","171","1112477","0.0-71.0","","null","<div style=""font-size:100px;"">+</div>","null","delaylearn","learning","ITI","63615b34abde8debee56c5b8","1oDK1wGJjcaaYZTxrywJ4g8acRM2","","","","","","","","","","","","","","","","","","","1687","",""
"html-keyboard-response","172","1112504","0.0-72.0-0.0","","22.900000005960464","<div style=""display: flex; flex-direction: column; align-items: center; margin-top: -40px;""><img src=""images/pattern_4.png"" style=""width: 234px; height: 230px; margin-top: -50px;""><div style=""display: flex; justify-content: space-between; margin-top: 33px;""><img src=""images/choice_trial_16.png"" style=""width: 408px; height: 417px; margin-right: 200px;""><img src=""images/choice_trial_4.png"" style=""width: 408px; height: 417px;""></div></div>","j","delaylearn","learning","trial","63615b34abde8debee56c5b8","1oDK1wGJjcaaYZTxrywJ4g8acRM2","2","images/choice_trial_16.png","images/choice_trial_4.png","images/pattern_4.png","j","j","7000","16","4","3","1","31","1","1","4","160","","","","",""
"html-keyboard-response","173","1113513","0.0-72.0-1.0","","null","<div style=""display: flex; flex-direction: column; align-items: center; margin-top: -40px;""><img src=""images/pattern_4.png"" style=""width: 234px; height: 230px; margin-top: -50px;""><div style=""display: flex; justify-content: space-between; margin-top: 33px;""><img src=""images/choice_trial_4.png"" style=""width: 408px; height: 417px; margin-left:608px;""></div></div>","null","delaylearn","learning","display_response","63615b34abde8debee56c5b8","1oDK1wGJjcaaYZTxrywJ4g8acRM2","","","","","","","","","","","","","","","","","chosen stimuli: images/choice_trial_4.png","","","",""
"html-keyboard-response","174","1120535","0.0-72.0-2.0","","null","","null","delaylearn","learning","feedback_duration_window","63615b34abde8debee56c5b8","1oDK1wGJjcaaYZTxrywJ4g8acRM2","","","","","","","","","","","","","","","","","","7000","","",""
"html-keyboard-response","175","1122042","0.0-72.0-3.0","","null","<div style='margin:auto;width: auto; font-size: 150%'><span style='font-weight: bold; font-size: 100px; color: green;'>+10 points!</span><br><br></div>","null","delaylearn","learning","feedback_image_window","63615b34abde8debee56c5b8","1oDK1wGJjcaaYZTxrywJ4g8acRM2","","","","","","","","","","","","","","","","","","","","",""
"html-keyboard-response","176","1124278","0.0-73.0","","null","<div style=""font-size:100px;"">+</div>","null","delaylearn","learning","ITI","63615b34abde8debee56c5b8","1oDK1wGJjcaaYZTxrywJ4g8acRM2","","","","","","","","","","","","","","","","","","","2233","",""
"html-keyboard-response","177","1126839","0.0-74.0-0.0","","2557","<div style=""display: flex; flex-direction: column; align-items: center; margin-top: -40px;""><img src=""images/pattern_3.png"" style=""width: 234px; height: 230px; margin-top: -50px;""><div style=""display: flex; justify-content: space-between; margin-top: 33px;""><img src=""images/choice_trial_14.png"" style=""width: 408px; height: 417px; margin-right: 200px;""><img src=""images/choice_trial_12.png"" style=""width: 408px; height: 417px;""></div></div>","j","delaylearn","learning","trial","63615b34abde8debee56c5b8","1oDK1wGJjcaaYZTxrywJ4g8acRM2","2","images/choice_trial_14.png","images/choice_trial_12.png","images/pattern_3.png","j","j","7000","14","12","2","1","32","1","1","12","170","","","","",""
"html-keyboard-response","178","1127855","0.0-74.0-1.0","","null","<div style=""display: flex; flex-direction: column; align-items: center; margin-top: -40px;""><img src=""images/pattern_3.png"" style=""width: 234px; height: 230px; margin-top: -50px;""><div style=""display: flex; justify-content: space-between; margin-top: 33px;""><img src=""images/choice_trial_12.png"" style=""width: 408px; height: 417px; margin-left:608px;""></div></div>","null","delaylearn","learning","display_response","63615b34abde8debee56c5b8","1oDK1wGJjcaaYZTxrywJ4g8acRM2","","","","","","","","","","","","","","","","","chosen stimuli: images/choice_trial_12.png","","","",""
"html-keyboard-response","179","1134870","0.0-74.0-2.0","","null","","null","delaylearn","learning","feedback_duration_window","63615b34abde8debee56c5b8","1oDK1wGJjcaaYZTxrywJ4g8acRM2","","","","","","","","","","","","","","","","","","7000","","",""
"html-keyboard-response","180","1136375","0.0-74.0-3.0","","null","<div style='margin:auto;width: auto; font-size: 150%'><span style='font-weight: bold; font-size: 100px; color: green;'>+10 points!</span><br><br></div>","null","delaylearn","learning","feedback_image_window","63615b34abde8debee56c5b8","1oDK1wGJjcaaYZTxrywJ4g8acRM2","","","","","","","","","","","","","","","","","","","","",""
"html-keyboard-response","181","1138280","0.0-75.0","","null","<div style=""font-size:100px;"">+</div>","null","delaylearn","learning","ITI","63615b34abde8debee56c5b8","1oDK1wGJjcaaYZTxrywJ4g8acRM2","","","","","","","","","","","","","","","","","","","1901","",""
"html-keyboard-response","182","1138969","0.0-76.0-0.0","","684.7999999970198","<div style=""display: flex; flex-direction: column; align-items: center; margin-top: -40px;""><img src=""images/pattern_5.png"" style=""width: 234px; height: 230px; margin-top: -50px;""><div style=""display: flex; justify-content: space-between; margin-top: 33px;""><img src=""images/choice_trial_2.png"" style=""width: 408px; height: 417px; margin-right: 200px;""><img src=""images/choice_trial_9.png"" style=""width: 408px; height: 417px;""></div></div>","j","delaylearn","learning","trial","63615b34abde8debee56c5b8","1oDK1wGJjcaaYZTxrywJ4g8acRM2","2","images/choice_trial_2.png","images/choice_trial_9.png","images/pattern_5.png","j","f","750","2","9","4","0","33","0","1","9","180","","","","",""
"html-keyboard-response","183","1139977","0.0-76.0-1.0","","null","<div style=""display: flex; flex-direction: column; align-items: center; margin-top: -40px;""><img src=""images/pattern_5.png"" style=""width: 234px; height: 230px; margin-top: -50px;""><div style=""display: flex; justify-content: space-between; margin-top: 33px;""><img src=""images/choice_trial_9.png"" style=""width: 408px; height: 417px; margin-left:608px;""></div></div>","null","delaylearn","learning","display_response","63615b34abde8debee56c5b8","1oDK1wGJjcaaYZTxrywJ4g8acRM2","","","","","","","","","","","","","","","","","chosen stimuli: images/choice_trial_9.png","","","",""
"html-keyboard-response","184","1140740","0.0-76.0-2.0","","null","","null","delaylearn","learning","feedback_duration_window","63615b34abde8debee56c5b8","1oDK1wGJjcaaYZTxrywJ4g8acRM2","","","","","","","","","","","","","","","","","","750","","",""
"html-keyboard-response","185","1142245","0.0-76.0-3.0","","null","<div style='margin:auto;width: auto; font-size: 150%'><span style='font-weight: bold; font-size: 100px; color: green;'>+10 points!</span><br><br></div>","null","delaylearn","learning","feedback_image_window","63615b34abde8debee56c5b8","1oDK1wGJjcaaYZTxrywJ4g8acRM2","","","","","","","","","","","","","","","","","","","","",""
"html-keyboard-response","186","1144684","0.0-77.0","","null","<div style=""font-size:100px;"">+</div>","null","delaylearn","learning","ITI","63615b34abde8debee56c5b8","1oDK1wGJjcaaYZTxrywJ4g8acRM2","","","","","","","","","","","","","","","","","","","2433","",""
"html-keyboard-response","187","1144966","0.0-78.0-0.0","","277.5","<div style=""display: flex; flex-direction: column; align-items: center; margin-top: -40px;""><img src=""images/pattern_1.png"" style=""width: 234px; height: 230px; margin-top: -50px;""><div style=""display: flex; justify-content: space-between; margin-top: 33px;""><img src=""images/choice_trial_3.png"" style=""width: 408px; height: 417px; margin-right: 200px;""><img src=""images/choice_trial_10.png"" style=""width: 408px; height: 417px;""></div></div>","j","delaylearn","learning","trial","63615b34abde8debee56c5b8","1oDK1wGJjcaaYZTxrywJ4g8acRM2","2","images/choice_trial_3.png","images/choice_trial_10.png","images/pattern_1.png","f","f","7000","3","10","1","0","34","0","0","10","180","","","","",""
"html-keyboard-response","188","1145969","0.0-78.0-1.0","","null","<div style=""display: flex; flex-direction: column; align-items: center; margin-top: -40px;""><img src=""images/pattern_1.png"" style=""width: 234px; height: 230px; margin-top: -50px;""><div style=""display: flex; justify-content: space-between; margin-top: 33px;""><img src=""images/choice_trial_10.png"" style=""width: 408px; height: 417px; margin-left:608px;""></div></div>","null","delaylearn","learning","display_response","63615b34abde8debee56c5b8","1oDK1wGJjcaaYZTxrywJ4g8acRM2","","","","","","","","","","","","","","","","","chosen stimuli: images/choice_trial_10.png","","","",""
"html-keyboard-response","189","1152981","0.0-78.0-2.0","","null","","null","delaylearn","learning","feedback_duration_window","63615b34abde8debee56c5b8","1oDK1wGJjcaaYZTxrywJ4g8acRM2","","","","","","","","","","","","","","","","","","7000","","",""
"html-keyboard-response","190","1154488","0.0-78.0-3.0","","null","<div style='margin:auto;width: auto; font-size: 150%'><span style='font-weight: bold; font-size: 100px; color: red;'>0 points!</span><br><br></div>","null","delaylearn","learning","feedback_image_window","63615b34abde8debee56c5b8","1oDK1wGJjcaaYZTxrywJ4g8acRM2","","","","","","","","","","","","","","","","","","","","",""
"html-keyboard-response","191","1154997","0.0-79.0-0.0","","null","","null","","","mood_trial_fixation","","","","","","","","","","","","","","","","","","","","","","",""
"lmdlab-html-vas-response","192","1158784","0.0-79.0-1.0","","2770","How happy are you right now?","0.7199074074074074","delaylearn","learning","mood_trial","63615b34abde8debee56c5b8","1oDK1wGJjcaaYZTxrywJ4g8acRM2","","","","","","","","","","","","","","","","","","","","[""Very unhappy"",""Very happy""]",""
"html-keyboard-response","193","1160849","0.0-80.0","","null","<div style=""font-size:100px;"">+</div>","null","delaylearn","learning","ITI","63615b34abde8debee56c5b8","1oDK1wGJjcaaYZTxrywJ4g8acRM2","","","","","","","","","","","","","","","","","","","2054","",""
"html-keyboard-response","194","1161110","0.0-81.0-0.0","","256.1000000089407","<div style=""display: flex; flex-direction: column; align-items: center; margin-top: -40px;""><img src=""images/pattern_6.png"" style=""width: 234px; height: 230px; margin-top: -50px;""><div style=""display: flex; justify-content: space-between; margin-top: 33px;""><img src=""images/choice_trial_11.png"" style=""width: 408px; height: 417px; margin-right: 200px;""><img src=""images/choice_trial_5.png"" style=""width: 408px; height: 417px;""></div></div>","f","delaylearn","learning","trial","63615b34abde8debee56c5b8","1oDK1wGJjcaaYZTxrywJ4g8acRM2","2","images/choice_trial_11.png","images/choice_trial_5.png","images/pattern_6.png","j","f","750","11","5","5","0","35","1","0","11","180","","","","",""
"html-keyboard-response","195","1162121","0.0-81.0-1.0","","null","<div style=""display: flex; flex-direction: column; align-items: center; margin-top: -40px;""><img src=""images/pattern_6.png"" style=""width: 234px; height: 230px; margin-top: -50px;""><div style=""display: flex; justify-content: space-between; margin-top: 33px;""><img src=""images/choice_trial_11.png"" style=""width: 408px; height: 417px; margin-right: 608px;""></div></div>","null","delaylearn","learning","display_response","63615b34abde8debee56c5b8","1oDK1wGJjcaaYZTxrywJ4g8acRM2","","","","","","","","","","","","","","","","","chosen stimuli: images/choice_trial_11.png","","","",""
"html-keyboard-response","196","1162879","0.0-81.0-2.0","","null","","null","delaylearn","learning","feedback_duration_window","63615b34abde8debee56c5b8","1oDK1wGJjcaaYZTxrywJ4g8acRM2","","","","","","","","","","","","","","","","","","750","","",""
"html-keyboard-response","197","1164386","0.0-81.0-3.0","","null","<div style='margin:auto;width: auto; font-size: 150%'><span style='font-weight: bold; font-size: 100px; color: red;'>0 points!</span><br><br></div>","null","delaylearn","learning","feedback_image_window","63615b34abde8debee56c5b8","1oDK1wGJjcaaYZTxrywJ4g8acRM2","","","","","","","","","","","","","","","","","","","","",""
"html-keyboard-response","198","1166778","0.0-82.0","","null","<div style=""font-size:100px;"">+</div>","null","delaylearn","learning","ITI","63615b34abde8debee56c5b8","1oDK1wGJjcaaYZTxrywJ4g8acRM2","","","","","","","","","","","","","","","","","","","2381","",""
"html-keyboard-response","199","1167273","0.0-83.0-0.0","","489.79999999701977","<div style=""display: flex; flex-direction: column; align-items: center; margin-top: -40px;""><img src=""images/pattern_3.png"" style=""width: 234px; height: 230px; margin-top: -50px;""><div style=""display: flex; justify-content: space-between; margin-top: 33px;""><img src=""images/choice_trial_14.png"" style=""width: 408px; height: 417px; margin-right: 200px;""><img src=""images/choice_trial_12.png"" style=""width: 408px; height: 417px;""></div></div>","j","delaylearn","learning","trial","63615b34abde8debee56c5b8","1oDK1wGJjcaaYZTxrywJ4g8acRM2","2","images/choice_trial_14.png","images/choice_trial_12.png","images/pattern_3.png","j","j","7000","14","12","2","1","36","1","1","12","190","","","","",""
"html-keyboard-response","200","1168292","0.0-83.0-1.0","","null","<div style=""display: flex; flex-direction: column; align-items: center; margin-top: -40px;""><img src=""images/pattern_3.png"" style=""width: 234px; height: 230px; margin-top: -50px;""><div style=""display: flex; justify-content: space-between; margin-top: 33px;""><img src=""images/choice_trial_12.png"" style=""width: 408px; height: 417px; margin-left:608px;""></div></div>","null","delaylearn","learning","display_response","63615b34abde8debee56c5b8","1oDK1wGJjcaaYZTxrywJ4g8acRM2","","","","","","","","","","","","","","","","","chosen stimuli: images/choice_trial_12.png","","","",""
"html-keyboard-response","201","1175310","0.0-83.0-2.0","","null","","null","delaylearn","learning","feedback_duration_window","63615b34abde8debee56c5b8","1oDK1wGJjcaaYZTxrywJ4g8acRM2","","","","","","","","","","","","","","","","","","7000","","",""
"html-keyboard-response","202","1176818","0.0-83.0-3.0","","null","<div style='margin:auto;width: auto; font-size: 150%'><span style='font-weight: bold; font-size: 100px; color: green;'>+10 points!</span><br><br></div>","null","delaylearn","learning","feedback_image_window","63615b34abde8debee56c5b8","1oDK1wGJjcaaYZTxrywJ4g8acRM2","","","","","","","","","","","","","","","","","","","","",""
"html-keyboard-response","203","1179103","0.0-84.0","","null","<div style=""font-size:100px;"">+</div>","null","delaylearn","learning","ITI","63615b34abde8debee56c5b8","1oDK1wGJjcaaYZTxrywJ4g8acRM2","","","","","","","","","","","","","","","","","","","2278","",""
"html-keyboard-response","204","1180883","0.0-85.0-0.0","","1788.9000000059605","<div style=""display: flex; flex-direction: column; align-items: center; margin-top: -40px;""><img src=""images/pattern_4.png"" style=""width: 234px; height: 230px; margin-top: -50px;""><div style=""display: flex; justify-content: space-between; margin-top: 33px;""><img src=""images/choice_trial_16.png"" style=""width: 408px; height: 417px; margin-right: 200px;""><img src=""images/choice_trial_4.png"" style=""width: 408px; height: 417px;""></div></div>","j","delaylearn","learning","trial","63615b34abde8debee56c5b8","1oDK1wGJjcaaYZTxrywJ4g8acRM2","2","images/choice_trial_16.png","images/choice_trial_4.png","images/pattern_4.png","f","j","7000","16","4","3","1","37","1","0","4","190","","","","",""
"html-keyboard-response","205","1181900","0.0-85.0-1.0","","null","<div style=""display: flex; flex-direction: column; align-items: center; margin-top: -40px;""><img src=""images/pattern_4.png"" style=""width: 234px; height: 230px; margin-top: -50px;""><div style=""display: flex; justify-content: space-between; margin-top: 33px;""><img src=""images/choice_trial_4.png"" style=""width: 408px; height: 417px; margin-left:608px;""></div></div>","null","delaylearn","learning","display_response","63615b34abde8debee56c5b8","1oDK1wGJjcaaYZTxrywJ4g8acRM2","","","","","","","","","","","","","","","","","chosen stimuli: images/choice_trial_4.png","","","",""
"html-keyboard-response","206","1188913","0.0-85.0-2.0","","null","","null","delaylearn","learning","feedback_duration_window","63615b34abde8debee56c5b8","1oDK1wGJjcaaYZTxrywJ4g8acRM2","","","","","","","","","","","","","","","","","","7000","","",""
"html-keyboard-response","207","1190418","0.0-85.0-3.0","","null","<div style='margin:auto;width: auto; font-size: 150%'><span style='font-weight: bold; font-size: 100px; color: red;'>0 points!</span><br><br></div>","null","delaylearn","learning","feedback_image_window","63615b34abde8debee56c5b8","1oDK1wGJjcaaYZTxrywJ4g8acRM2","","","","","","","","","","","","","","","","","","","","",""
"html-keyboard-response","208","1192364","0.0-86.0","","null","<div style=""font-size:100px;"">+</div>","null","delaylearn","learning","ITI","63615b34abde8debee56c5b8","1oDK1wGJjcaaYZTxrywJ4g8acRM2","","","","","","","","","","","","","","","","","","","1944","",""
"html-keyboard-response","209","1192529","0.0-87.0-0.0","","161.1000000089407","<div style=""display: flex; flex-direction: column; align-items: center; margin-top: -40px;""><img src=""images/pattern_7.png"" style=""width: 234px; height: 230px; margin-top: -50px;""><div style=""display: flex; justify-content: space-between; margin-top: 33px;""><img src=""images/choice_trial_8.png"" style=""width: 408px; height: 417px; margin-right: 200px;""><img src=""images/choice_trial_15.png"" style=""width: 408px; height: 417px;""></div></div>","j","delaylearn","learning","trial","63615b34abde8debee56c5b8","1oDK1wGJjcaaYZTxrywJ4g8acRM2","2","images/choice_trial_8.png","images/choice_trial_15.png","images/pattern_7.png","f","f","750","8","15","6","0","38","0","0","15","190","","","","",""
"html-keyboard-response","210","1193546","0.0-87.0-1.0","","null","<div style=""display: flex; flex-direction: column; align-items: center; margin-top: -40px;""><img src=""images/pattern_7.png"" style=""width: 234px; height: 230px; margin-top: -50px;""><div style=""display: flex; justify-content: space-between; margin-top: 33px;""><img src=""images/choice_trial_15.png"" style=""width: 408px; height: 417px; margin-left:608px;""></div></div>","null","delaylearn","learning","display_response","63615b34abde8debee56c5b8","1oDK1wGJjcaaYZTxrywJ4g8acRM2","","","","","","","","","","","","","","","","","chosen stimuli: images/choice_trial_15.png","","","",""
"html-keyboard-response","211","1194307","0.0-87.0-2.0","","null","","null","delaylearn","learning","feedback_duration_window","63615b34abde8debee56c5b8","1oDK1wGJjcaaYZTxrywJ4g8acRM2","","","","","","","","","","","","","","","","","","750","","",""
"html-keyboard-response","212","1195814","0.0-87.0-3.0","","null","<div style='margin:auto;width: auto; font-size: 150%'><span style='font-weight: bold; font-size: 100px; color: red;'>0 points!</span><br><br></div>","null","delaylearn","learning","feedback_image_window","63615b34abde8debee56c5b8","1oDK1wGJjcaaYZTxrywJ4g8acRM2","","","","","","","","","","","","","","","","","","","","",""
"html-keyboard-response","213","1198160","0.0-88.0","","null","<div style=""font-size:100px;"">+</div>","null","delaylearn","learning","ITI","63615b34abde8debee56c5b8","1oDK1wGJjcaaYZTxrywJ4g8acRM2","","","","","","","","","","","","","","","","","","","2341","",""
"html-keyboard-response","214","1199929","0.0-89.0-0.0","","1765.2000000029802","<div style=""display: flex; flex-direction: column; align-items: center; margin-top: -40px;""><img src=""images/pattern_1.png"" style=""width: 234px; height: 230px; margin-top: -50px;""><div style=""display: flex; justify-content: space-between; margin-top: 33px;""><img src=""images/choice_trial_3.png"" style=""width: 408px; height: 417px; margin-right: 200px;""><img src=""images/choice_trial_10.png"" style=""width: 408px; height: 417px;""></div></div>","j","delaylearn","learning","trial","63615b34abde8debee56c5b8","1oDK1wGJjcaaYZTxrywJ4g8acRM2","2","images/choice_trial_3.png","images/choice_trial_10.png","images/pattern_1.png","f","f","7000","3","10","1","0","39","0","0","10","190","","","","",""
"html-keyboard-response","215","1200937","0.0-89.0-1.0","","null","<div style=""display: flex; flex-direction: column; align-items: center; margin-top: -40px;""><img src=""images/pattern_1.png"" style=""width: 234px; height: 230px; margin-top: -50px;""><div style=""display: flex; justify-content: space-between; margin-top: 33px;""><img src=""images/choice_trial_10.png"" style=""width: 408px; height: 417px; margin-left:608px;""></div></div>","null","delaylearn","learning","display_response","63615b34abde8debee56c5b8","1oDK1wGJjcaaYZTxrywJ4g8acRM2","","","","","","","","","","","","","","","","","chosen stimuli: images/choice_trial_10.png","","","",""
"html-keyboard-response","216","1207948","0.0-89.0-2.0","","null","","null","delaylearn","learning","feedback_duration_window","63615b34abde8debee56c5b8","1oDK1wGJjcaaYZTxrywJ4g8acRM2","","","","","","","","","","","","","","","","","","7000","","",""
"html-keyboard-response","217","1209455","0.0-89.0-3.0","","null","<div style='margin:auto;width: auto; font-size: 150%'><span style='font-weight: bold; font-size: 100px; color: red;'>0 points!</span><br><br></div>","null","delaylearn","learning","feedback_image_window","63615b34abde8debee56c5b8","1oDK1wGJjcaaYZTxrywJ4g8acRM2","","","","","","","","","","","","","","","","","","","","",""
"html-keyboard-response","218","1209962","0.0-90.0-0.0","","null","","null","","","mood_trial_fixation","","","","","","","","","","","","","","","","","","","","","","",""
"lmdlab-html-vas-response","219","1215315","0.0-90.0-1.0","","4335","How happy are you right now?","0.6157407407407407","delaylearn","learning","mood_trial","63615b34abde8debee56c5b8","1oDK1wGJjcaaYZTxrywJ4g8acRM2","","","","","","","","","","","","","","","","","","","","[""Very unhappy"",""Very happy""]",""
"html-keyboard-response","220","1217071","0.0-91.0","","null","<div style=""font-size:100px;"">+</div>","null","delaylearn","learning","ITI","63615b34abde8debee56c5b8","1oDK1wGJjcaaYZTxrywJ4g8acRM2","","","","","","","","","","","","","","","","","","","1748","",""
"html-keyboard-response","221","1220079","0.0-92.0-0.0","","null","<div style=""display: flex; flex-direction: column; align-items: center; margin-top: -40px;""><img src=""images/pattern_3.png"" style=""width: 234px; height: 230px; margin-top: -50px;""><div style=""display: flex; justify-content: space-between; margin-top: 33px;""><img src=""images/choice_trial_12.png"" style=""width: 408px; height: 417px; margin-right: 200px;""><img src=""images/choice_trial_14.png"" style=""width: 408px; height: 417px;""></div></div>","null","delaylearn","learning","trial","63615b34abde8debee56c5b8","1oDK1wGJjcaaYZTxrywJ4g8acRM2","2","images/choice_trial_12.png","images/choice_trial_14.png","images/pattern_3.png","j","f","7000","12","14","2","0","40","0","0","0","190","","","","",""
"html-keyboard-response","222","1221094","0.0-92.0-1.0","","null","<div style='font-weight: bold; font-size: 75px; color: red;'>Missed Trial <br><br><br><br> Please respond faster</div>","null","delaylearn","learning","display_response","63615b34abde8debee56c5b8","1oDK1wGJjcaaYZTxrywJ4g8acRM2","","","","","","","","","","","","","","","","","Missed trial","","","",""
"html-keyboard-response","223","1221109","0.0-92.0-2.0","","null","","null","delaylearn","learning","feedback_duration_window","63615b34abde8debee56c5b8","1oDK1wGJjcaaYZTxrywJ4g8acRM2","","","","","","","","","","","","","","","","","","0","","",""
