"trial_type","trial_index","time_elapsed","internal_node_id","participant","rt","stimulus","response","exp_name","exp_stage","test_part","subjectID","databaseID","counterbal","choice_stimuli_1","choice_stimuli_2","pattern_stimuli","rewarded_answer","correct_answer","feedback_duration_times","stim_left","stim_right","pair","leftright_counter","trial","response_correct","response_rewarded","chosen_stim","counter","displayed_choice","feedback_durations","ITI_duration","labels","rest_warning"
"pavlovia","0","567","0.0-0.0","","","","","","","","","","","","","","","","","","","","","","","","","","","","","",""
"html-keyboard-response","1","3580","0.0-1.0","","null","<div style=""font-size:100px;"">+</div>","null","delaylearn","learning","pre_fixation","5b64d7b82aee58000132e2b9","","","","","","","","","","","","","","","","","","","","","",""
"html-keyboard-response","2","5563","0.0-2.0-0.0","","1980.5999999642372","<div style=""display: flex; flex-direction: column; align-items: center; margin-top: -40px;""><img src=""images/demo_images/pattern_1.png"" style=""width: 234px; height: 230px; margin-top: -50px;""><div style=""display: flex; justify-content: space-between; margin-top: 33px;""><img src=""images/demo_images/choice_trial_2.png"" style=""width: 408px; height: 417px; margin-right: 200px;""><img src=""images/demo_images/choice_trial_1.png"" style=""width: 408px; height: 417px;""></div></div>","j","delaylearn","learning","trial","5b64d7b82aee58000132e2b9","SwWFIKzQIpPq6BahuY0siQn03SA2","3","images/demo_images/choice_trial_2.png","images/demo_images/choice_trial_1.png","images/demo_images/pattern_1.png","j","j","3000","2","1","20","1","1","1","1","1","10","","","","",""
"html-keyboard-response","3","6577","0.0-2.0-1.0","","null","<div style=""display: flex; flex-direction: column; align-items: center; margin-top: -40px;""><img src=""images/demo_images/pattern_1.png"" style=""width: 234px; height: 230px; margin-top: -50px;""><div style=""display: flex; justify-content: space-between; margin-top: 33px;""><img src=""images/demo_images/choice_trial_1.png"" style=""width: 408px; height: 417px; margin-left:608px;""></div></div>","null","delaylearn","learning","display_response","5b64d7b82aee58000132e2b9","SwWFIKzQIpPq6BahuY0siQn03SA2","","","","","","","","","","","","","","","","","chosen stimuli: images/demo_images/choice_trial_1.png","","","",""
"html-keyboard-response","4","9593","0.0-2.0-2.0","","null","","null","delaylearn","learning","feedback_duration_window","5b64d7b82aee58000132e2b9","SwWFIKzQIpPq6BahuY0siQn03SA2","","","","","","","","","","","","","","","","","","3000","","",""
"html-keyboard-response","5","11100","0.0-2.0-3.0","","null","<div style='margin:auto;width: auto; font-size: 150%'><span style='font-weight: bold; font-size: 100px; color: green;'>+10 points!</span><br><br></div>","null","delaylearn","learning","feedback_image_window","5b64d7b82aee58000132e2b9","SwWFIKzQIpPq6BahuY0siQn03SA2","","","","","","","","","","","","","","","","","","","","",""
"html-keyboard-response","6","12713","0.0-3.0","","null","<div style=""font-size:100px;"">+</div>","null","delaylearn","learning","ITI","5b64d7b82aee58000132e2b9","SwWFIKzQIpPq6BahuY0siQn03SA2","","","","","","","","","","","","","","","","","","","1610","",""
"html-keyboard-response","7","13446","0.0-4.0-0.0","","730.3000000119209","<div style=""display: flex; flex-direction: column; align-items: center; margin-top: -40px;""><img src=""images/demo_images/pattern_1.png"" style=""width: 234px; height: 230px; margin-top: -50px;""><div style=""display: flex; justify-content: space-between; margin-top: 33px;""><img src=""images/demo_images/choice_trial_2.png"" style=""width: 408px; height: 417px; margin-right: 200px;""><img src=""images/demo_images/choice_trial_1.png"" style=""width: 408px; height: 417px;""></div></div>","j","delaylearn","learning","trial","5b64d7b82aee58000132e2b9","SwWFIKzQIpPq6BahuY0siQn03SA2","3","images/demo_images/choice_trial_2.png","images/demo_images/choice_trial_1.png","images/demo_images/pattern_1.png","j","j","3000","2","1","20","1","2","1","1","1","20","","","","",""
"html-keyboard-response","8","14457","0.0-4.0-1.0","","null","<div style=""display: flex; flex-direction: column; align-items: center; margin-top: -40px;""><img src=""images/demo_images/pattern_1.png"" style=""width: 234px; height: 230px; margin-top: -50px;""><div style=""display: flex; justify-content: space-between; margin-top: 33px;""><img src=""images/demo_images/choice_trial_1.png"" style=""width: 408px; height: 417px; margin-left:608px;""></div></div>","null","delaylearn","learning","display_response","5b64d7b82aee58000132e2b9","SwWFIKzQIpPq6BahuY0siQn03SA2","","","","","","","","","","","","","","","","","chosen stimuli: images/demo_images/choice_trial_1.png","","","",""
"html-keyboard-response","9","17465","0.0-4.0-2.0","","null","","null","delaylearn","learning","feedback_duration_window","5b64d7b82aee58000132e2b9","SwWFIKzQIpPq6BahuY0siQn03SA2","","","","","","","","","","","","","","","","","","3000","","",""
"html-keyboard-response","10","18979","0.0-4.0-3.0","","null","<div style='margin:auto;width: auto; font-size: 150%'><span style='font-weight: bold; font-size: 100px; color: green;'>+10 points!</span><br><br></div>","null","delaylearn","learning","feedback_image_window","5b64d7b82aee58000132e2b9","SwWFIKzQIpPq6BahuY0siQn03SA2","","","","","","","","","","","","","","","","","","","","",""
"html-keyboard-response","11","21457","0.0-5.0","","null","<div style=""font-size:100px;"">+</div>","null","delaylearn","learning","ITI","5b64d7b82aee58000132e2b9","SwWFIKzQIpPq6BahuY0siQn03SA2","","","","","","","","","","","","","","","","","","","2461","",""
"html-keyboard-response","12","22562","0.0-6.0-0.0","","1104","<div style=""display: flex; flex-direction: column; align-items: center; margin-top: -40px;""><img src=""images/demo_images/pattern_1.png"" style=""width: 234px; height: 230px; margin-top: -50px;""><div style=""display: flex; justify-content: space-between; margin-top: 33px;""><img src=""images/demo_images/choice_trial_1.png"" style=""width: 408px; height: 417px; margin-right: 200px;""><img src=""images/demo_images/choice_trial_2.png"" style=""width: 408px; height: 417px;""></div></div>","f","delaylearn","learning","trial","5b64d7b82aee58000132e2b9","SwWFIKzQIpPq6BahuY0siQn03SA2","3","images/demo_images/choice_trial_1.png","images/demo_images/choice_trial_2.png","images/demo_images/pattern_1.png","j","f","3000","1","2","20","0","3","1","0","1","20","","","","",""
"html-keyboard-response","13","23568","0.0-6.0-1.0","","null","<div style=""display: flex; flex-direction: column; align-items: center; margin-top: -40px;""><img src=""images/demo_images/pattern_1.png"" style=""width: 234px; height: 230px; margin-top: -50px;""><div style=""display: flex; justify-content: space-between; margin-top: 33px;""><img src=""images/demo_images/choice_trial_1.png"" style=""width: 408px; height: 417px; margin-right: 608px;""></div></div>","null","delaylearn","learning","display_response","5b64d7b82aee58000132e2b9","SwWFIKzQIpPq6BahuY0siQn03SA2","","","","","","","","","","","","","","","","","chosen stimuli: images/demo_images/choice_trial_1.png","","","",""
"html-keyboard-response","14","26583","0.0-6.0-2.0","","null","","null","delaylearn","learning","feedback_duration_window","5b64d7b82aee58000132e2b9","SwWFIKzQIpPq6BahuY0siQn03SA2","","","","","","","","","","","","","","","","","","3000","","",""
"html-keyboard-response","15","28094","0.0-6.0-3.0","","null","<div style='margin:auto;width: auto; font-size: 150%'><span style='font-weight: bold; font-size: 100px; color: red;'>0 points!</span><br><br></div>","null","delaylearn","learning","feedback_image_window","5b64d7b82aee58000132e2b9","SwWFIKzQIpPq6BahuY0siQn03SA2","","","","","","","","","","","","","","","","","","","","",""
"html-keyboard-response","16","30476","0.0-7.0","","null","<div style=""font-size:100px;"">+</div>","null","delaylearn","learning","ITI","5b64d7b82aee58000132e2b9","SwWFIKzQIpPq6BahuY0siQn03SA2","","","","","","","","","","","","","","","","","","","2367","",""
"html-keyboard-response","17","32750","0.0-8.0-0.0","","2270.199999988079","<div style=""display: flex; flex-direction: column; align-items: center; margin-top: -40px;""><img src=""images/demo_images/pattern_1.png"" style=""width: 234px; height: 230px; margin-top: -50px;""><div style=""display: flex; justify-content: space-between; margin-top: 33px;""><img src=""images/demo_images/choice_trial_1.png"" style=""width: 408px; height: 417px; margin-right: 200px;""><img src=""images/demo_images/choice_trial_2.png"" style=""width: 408px; height: 417px;""></div></div>","j","delaylearn","learning","trial","5b64d7b82aee58000132e2b9","SwWFIKzQIpPq6BahuY0siQn03SA2","3","images/demo_images/choice_trial_1.png","images/demo_images/choice_trial_2.png","images/demo_images/pattern_1.png","f","f","3000","1","2","20","0","4","0","0","2","20","","","","",""
"html-keyboard-response","18","33765","0.0-8.0-1.0","","null","<div style=""display: flex; flex-direction: column; align-items: center; margin-top: -40px;""><img src=""images/demo_images/pattern_1.png"" style=""width: 234px; height: 230px; margin-top: -50px;""><div style=""display: flex; justify-content: space-between; margin-top: 33px;""><img src=""images/demo_images/choice_trial_2.png"" style=""width: 408px; height: 417px; margin-left:608px;""></div></div>","null","delaylearn","learning","display_response","5b64d7b82aee58000132e2b9","SwWFIKzQIpPq6BahuY0siQn03SA2","","","","","","","","","","","","","","","","","chosen stimuli: images/demo_images/choice_trial_2.png","","","",""
"html-keyboard-response","19","36773","0.0-8.0-2.0","","null","","null","delaylearn","learning","feedback_duration_window","5b64d7b82aee58000132e2b9","SwWFIKzQIpPq6BahuY0siQn03SA2","","","","","","","","","","","","","","","","","","3000","","",""
"html-keyboard-response","20","38275","0.0-8.0-3.0","","null","<div style='margin:auto;width: auto; font-size: 150%'><span style='font-weight: bold; font-size: 100px; color: red;'>0 points!</span><br><br></div>","null","delaylearn","learning","feedback_image_window","5b64d7b82aee58000132e2b9","SwWFIKzQIpPq6BahuY0siQn03SA2","","","","","","","","","","","","","","","","","","","","",""
"html-keyboard-response","21","38796","0.0-9.0-0.0","","null","","null","","","mood_trial_fixation","","","","","","","","","","","","","","","","","","","","","","",""
"lmdlab-html-vas-response","22","43233","0.0-9.0-1.0","","3419","How happy are you right now?","0.49616605282225185","delaylearn","learning","mood_trial","5b64d7b82aee58000132e2b9","SwWFIKzQIpPq6BahuY0siQn03SA2","","","","","","","","","","","","","","","","","","","","[""Very unhappy"",""Very happy""]",""
"html-keyboard-response","23","45427","0.0-10.0","","null","<div style=""font-size:100px;"">+</div>","null","delaylearn","learning","ITI","5b64d7b82aee58000132e2b9","SwWFIKzQIpPq6BahuY0siQn03SA2","","","","","","","","","","","","","","","","","","","2184","",""
"html-keyboard-response","24","47985","0.0-11.0-0.0","","2556.199999988079","<div style=""display: flex; flex-direction: column; align-items: center; margin-top: -40px;""><img src=""images/demo_images/pattern_1.png"" style=""width: 234px; height: 230px; margin-top: -50px;""><div style=""display: flex; justify-content: space-between; margin-top: 33px;""><img src=""images/demo_images/choice_trial_2.png"" style=""width: 408px; height: 417px; margin-right: 200px;""><img src=""images/demo_images/choice_trial_1.png"" style=""width: 408px; height: 417px;""></div></div>","j","delaylearn","learning","trial","5b64d7b82aee58000132e2b9","SwWFIKzQIpPq6BahuY0siQn03SA2","3","images/demo_images/choice_trial_2.png","images/demo_images/choice_trial_1.png","images/demo_images/pattern_1.png","j","j","3000","2","1","20","1","5","1","1","1","30","","","","",""
"html-keyboard-response","25","48992","0.0-11.0-1.0","","null","<div style=""display: flex; flex-direction: column; align-items: center; margin-top: -40px;""><img src=""images/demo_images/pattern_1.png"" style=""width: 234px; height: 230px; margin-top: -50px;""><div style=""display: flex; justify-content: space-between; margin-top: 33px;""><img src=""images/demo_images/choice_trial_1.png"" style=""width: 408px; height: 417px; margin-left:608px;""></div></div>","null","delaylearn","learning","display_response","5b64d7b82aee58000132e2b9","SwWFIKzQIpPq6BahuY0siQn03SA2","","","","","","","","","","","","","","","","","chosen stimuli: images/demo_images/choice_trial_1.png","","","",""
"html-keyboard-response","26","51995","0.0-11.0-2.0","","null","","null","delaylearn","learning","feedback_duration_window","5b64d7b82aee58000132e2b9","SwWFIKzQIpPq6BahuY0siQn03SA2","","","","","","","","","","","","","","","","","","3000","","",""
"html-keyboard-response","27","53516","0.0-11.0-3.0","","null","<div style='margin:auto;width: auto; font-size: 150%'><span style='font-weight: bold; font-size: 100px; color: green;'>+10 points!</span><br><br></div>","null","delaylearn","learning","feedback_image_window","5b64d7b82aee58000132e2b9","SwWFIKzQIpPq6BahuY0siQn03SA2","","","","","","","","","","","","","","","","","","","","",""
"html-keyboard-response","28","55639","0.0-12.0","","null","<div style=""font-size:100px;"">+</div>","null","delaylearn","learning","ITI","5b64d7b82aee58000132e2b9","SwWFIKzQIpPq6BahuY0siQn03SA2","","","","","","","","","","","","","","","","","","","2120","",""
"html-keyboard-response","29","57949","0.0-13.0-0.0","","2307.300000011921","<div style=""display: flex; flex-direction: column; align-items: center; margin-top: -40px;""><img src=""images/demo_images/pattern_1.png"" style=""width: 234px; height: 230px; margin-top: -50px;""><div style=""display: flex; justify-content: space-between; margin-top: 33px;""><img src=""images/demo_images/choice_trial_1.png"" style=""width: 408px; height: 417px; margin-right: 200px;""><img src=""images/demo_images/choice_trial_2.png"" style=""width: 408px; height: 417px;""></div></div>","f","delaylearn","learning","trial","5b64d7b82aee58000132e2b9","SwWFIKzQIpPq6BahuY0siQn03SA2","3","images/demo_images/choice_trial_1.png","images/demo_images/choice_trial_2.png","images/demo_images/pattern_1.png","f","f","3000","1","2","20","0","6","1","1","1","40","","","","",""
"html-keyboard-response","30","58955","0.0-13.0-1.0","","null","<div style=""display: flex; flex-direction: column; align-items: center; margin-top: -40px;""><img src=""images/demo_images/pattern_1.png"" style=""width: 234px; height: 230px; margin-top: -50px;""><div style=""display: flex; justify-content: space-between; margin-top: 33px;""><img src=""images/demo_images/choice_trial_1.png"" style=""width: 408px; height: 417px; margin-right: 608px;""></div></div>","null","delaylearn","learning","display_response","5b64d7b82aee58000132e2b9","SwWFIKzQIpPq6BahuY0siQn03SA2","","","","","","","","","","","","","","","","","chosen stimuli: images/demo_images/choice_trial_1.png","","","",""
"html-keyboard-response","31","61971","0.0-13.0-2.0","","null","","null","delaylearn","learning","feedback_duration_window","5b64d7b82aee58000132e2b9","SwWFIKzQIpPq6BahuY0siQn03SA2","","","","","","","","","","","","","","","","","","3000","","",""
"html-keyboard-response","32","63482","0.0-13.0-3.0","","null","<div style='margin:auto;width: auto; font-size: 150%'><span style='font-weight: bold; font-size: 100px; color: green;'>+10 points!</span><br><br></div>","null","delaylearn","learning","feedback_image_window","5b64d7b82aee58000132e2b9","SwWFIKzQIpPq6BahuY0siQn03SA2","","","","","","","","","","","","","","","","","","","","",""
"html-keyboard-response","33","65575","0.0-14.0","","null","<div style=""font-size:100px;"">+</div>","null","delaylearn","learning","ITI","5b64d7b82aee58000132e2b9","SwWFIKzQIpPq6BahuY0siQn03SA2","","","","","","","","","","","","","","","","","","","2088","",""
"html-keyboard-response","34","68586","0.0-15.0-0.0","","null","<div style=""display: flex; flex-direction: column; align-items: center; margin-top: -40px;""><img src=""images/demo_images/pattern_1.png"" style=""width: 234px; height: 230px; margin-top: -50px;""><div style=""display: flex; justify-content: space-between; margin-top: 33px;""><img src=""images/demo_images/choice_trial_2.png"" style=""width: 408px; height: 417px; margin-right: 200px;""><img src=""images/demo_images/choice_trial_1.png"" style=""width: 408px; height: 417px;""></div></div>","null","delaylearn","learning","trial","5b64d7b82aee58000132e2b9","SwWFIKzQIpPq6BahuY0siQn03SA2","3","images/demo_images/choice_trial_2.png","images/demo_images/choice_trial_1.png","images/demo_images/pattern_1.png","j","j","3000","2","1","20","1","7","0","0","0","40","","","","",""
"html-keyboard-response","35","69603","0.0-15.0-1.0","","null","<div style='font-weight: bold; font-size: 75px; color: red;'>Missed Trial <br><br><br><br> Please respond faster</div>","null","delaylearn","learning","display_response","5b64d7b82aee58000132e2b9","SwWFIKzQIpPq6BahuY0siQn03SA2","","","","","","","","","","","","","","","","","Missed trial","","","",""
"html-keyboard-response","36","69608","0.0-15.0-2.0","","null","","null","delaylearn","learning","feedback_duration_window","5b64d7b82aee58000132e2b9","SwWFIKzQIpPq6BahuY0siQn03SA2","","","","","","","","","","","","","","","","","","0","","",""
"html-keyboard-response","37","69625","0.0-15.0-3.0","","null","","null","delaylearn","learning","feedback_image_window","5b64d7b82aee58000132e2b9","SwWFIKzQIpPq6BahuY0siQn03SA2","","","","","","","","","","","","","","","","","","","","",""
"html-keyboard-response","38","72114","0.0-16.0","","null","<div style=""font-size:100px;"">+</div>","null","delaylearn","learning","ITI","5b64d7b82aee58000132e2b9","SwWFIKzQIpPq6BahuY0siQn03SA2","","","","","","","","","","","","","","","","","","","2474","",""
"html-keyboard-response","39","73861","0.0-17.0-0.0","","1743.300000011921","<div style=""display: flex; flex-direction: column; align-items: center; margin-top: -40px;""><img src=""images/demo_images/pattern_1.png"" style=""width: 234px; height: 230px; margin-top: -50px;""><div style=""display: flex; justify-content: space-between; margin-top: 33px;""><img src=""images/demo_images/choice_trial_1.png"" style=""width: 408px; height: 417px; margin-right: 200px;""><img src=""images/demo_images/choice_trial_2.png"" style=""width: 408px; height: 417px;""></div></div>","f","delaylearn","learning","trial","5b64d7b82aee58000132e2b9","SwWFIKzQIpPq6BahuY0siQn03SA2","3","images/demo_images/choice_trial_1.png","images/demo_images/choice_trial_2.png","images/demo_images/pattern_1.png","f","f","3000","1","2","20","0","8","1","1","1","50","","","","",""
"html-keyboard-response","40","74864","0.0-17.0-1.0","","null","<div style=""display: flex; flex-direction: column; align-items: center; margin-top: -40px;""><img src=""images/demo_images/pattern_1.png"" style=""width: 234px; height: 230px; margin-top: -50px;""><div style=""display: flex; justify-content: space-between; margin-top: 33px;""><img src=""images/demo_images/choice_trial_1.png"" style=""width: 408px; height: 417px; margin-right: 608px;""></div></div>","null","delaylearn","learning","display_response","5b64d7b82aee58000132e2b9","SwWFIKzQIpPq6BahuY0siQn03SA2","","","","","","","","","","","","","","","","","chosen stimuli: images/demo_images/choice_trial_1.png","","","",""
"html-keyboard-response","41","77880","0.0-17.0-2.0","","null","","null","delaylearn","learning","feedback_duration_window","5b64d7b82aee58000132e2b9","SwWFIKzQIpPq6BahuY0siQn03SA2","","","","","","","","","","","","","","","","","","3000","","",""
"html-keyboard-response","42","79387","0.0-17.0-3.0","","null","<div style='margin:auto;width: auto; font-size: 150%'><span style='font-weight: bold; font-size: 100px; color: green;'>+10 points!</span><br><br></div>","null","delaylearn","learning","feedback_image_window","5b64d7b82aee58000132e2b9","SwWFIKzQIpPq6BahuY0siQn03SA2","","","","","","","","","","","","","","","","","","","","",""
"html-button-response","43","81407","0.0-18.0","","2017.699999988079","
  <div style=""display: flex; align-items: center; justify-content: center; height: 80vh;"">
  <div>
          <img src=""images/inst_demo_finish.png"" style=""width: 80vw; height:auto;"">
          <br><br>
      </div>
      <br><br>
  </div>","0","","","","","","","","","","","","","","","","","","","","","","","","","",""
"html-keyboard-response","44","84467","0.0-19.0","","3057.900000035763","
  <div style=""display: flex; align-items: center; justify-content: center; height: 80vh;"">
  <div>
          <img src=""images/inst_6.png"" style=""width: 80vw; height:auto;"">
          <br><br>
      </div>
      <br><br>
  </div>","f","","","","","","","","","","","","","","","","","","","","","","","","","",""
"html-keyboard-response","45","87483","0.0-20.0","","null","<div style=""font-size:100px;"">+</div>","null","delaylearn","learning","pre_fixation","5b64d7b82aee58000132e2b9","","","","","","","","","","","","","","","","","","","","","",""
"html-keyboard-response","46","89429","0.0-21.0","","null","<div style=""font-size:100px;"">+</div>","null","delaylearn","learning","ITI","5b64d7b82aee58000132e2b9","SwWFIKzQIpPq6BahuY0siQn03SA2","","","","","","","","","","","","","","","","","","","1943","",""
"html-keyboard-response","47","91502","0.0-22.0-0.0","","2071","<div style=""display: flex; flex-direction: column; align-items: center; margin-top: -40px;""><img src=""images/pattern_3.png"" style=""width: 234px; height: 230px; margin-top: -50px;""><div style=""display: flex; justify-content: space-between; margin-top: 33px;""><img src=""images/choice_trial_13.png"" style=""width: 408px; height: 417px; margin-right: 200px;""><img src=""images/choice_trial_10.png"" style=""width: 408px; height: 417px;""></div></div>","j","delaylearn","learning","trial","5b64d7b82aee58000132e2b9","SwWFIKzQIpPq6BahuY0siQn03SA2","3","images/choice_trial_13.png","images/choice_trial_10.png","images/pattern_3.png","f","f","7000","13","10","2","0","9","0","0","10","50","","","","",""
"html-keyboard-response","48","92508","0.0-22.0-1.0","","null","<div style=""display: flex; flex-direction: column; align-items: center; margin-top: -40px;""><img src=""images/pattern_3.png"" style=""width: 234px; height: 230px; margin-top: -50px;""><div style=""display: flex; justify-content: space-between; margin-top: 33px;""><img src=""images/choice_trial_10.png"" style=""width: 408px; height: 417px; margin-left:608px;""></div></div>","null","delaylearn","learning","display_response","5b64d7b82aee58000132e2b9","SwWFIKzQIpPq6BahuY0siQn03SA2","","","","","","","","","","","","","","","","","chosen stimuli: images/choice_trial_10.png","","","",""
"html-keyboard-response","49","99517","0.0-22.0-2.0","","null","","null","delaylearn","learning","feedback_duration_window","5b64d7b82aee58000132e2b9","SwWFIKzQIpPq6BahuY0siQn03SA2","","","","","","","","","","","","","","","","","","7000","","",""
"html-keyboard-response","50","101020","0.0-22.0-3.0","","null","<div style='margin:auto;width: auto; font-size: 150%'><span style='font-weight: bold; font-size: 100px; color: red;'>0 points!</span><br><br></div>","null","delaylearn","learning","feedback_image_window","5b64d7b82aee58000132e2b9","SwWFIKzQIpPq6BahuY0siQn03SA2","","","","","","","","","","","","","","","","","","","","",""
"html-keyboard-response","51","102643","0.0-23.0","","null","<div style=""font-size:100px;"">+</div>","null","delaylearn","learning","ITI","5b64d7b82aee58000132e2b9","SwWFIKzQIpPq6BahuY0siQn03SA2","","","","","","","","","","","","","","","","","","","1607","",""
"html-keyboard-response","52","104876","0.0-24.0-0.0","","2231.100000023842","<div style=""display: flex; flex-direction: column; align-items: center; margin-top: -40px;""><img src=""images/pattern_7.png"" style=""width: 234px; height: 230px; margin-top: -50px;""><div style=""display: flex; justify-content: space-between; margin-top: 33px;""><img src=""images/choice_trial_12.png"" style=""width: 408px; height: 417px; margin-right: 200px;""><img src=""images/choice_trial_6.png"" style=""width: 408px; height: 417px;""></div></div>","f","delaylearn","learning","trial","5b64d7b82aee58000132e2b9","SwWFIKzQIpPq6BahuY0siQn03SA2","3","images/choice_trial_12.png","images/choice_trial_6.png","images/pattern_7.png","j","j","750","12","6","6","1","10","0","0","12","50","","","","",""
"html-keyboard-response","53","105880","0.0-24.0-1.0","","null","<div style=""display: flex; flex-direction: column; align-items: center; margin-top: -40px;""><img src=""images/pattern_7.png"" style=""width: 234px; height: 230px; margin-top: -50px;""><div style=""display: flex; justify-content: space-between; margin-top: 33px;""><img src=""images/choice_trial_12.png"" style=""width: 408px; height: 417px; margin-right: 608px;""></div></div>","null","delaylearn","learning","display_response","5b64d7b82aee58000132e2b9","SwWFIKzQIpPq6BahuY0siQn03SA2","","","","","","","","","","","","","","","","","chosen stimuli: images/choice_trial_12.png","","","",""
"html-keyboard-response","54","106642","0.0-24.0-2.0","","null","","null","delaylearn","learning","feedback_duration_window","5b64d7b82aee58000132e2b9","SwWFIKzQIpPq6BahuY0siQn03SA2","","","","","","","","","","","","","","","","","","750","","",""
"html-keyboard-response","55","108156","0.0-24.0-3.0","","null","<div style='margin:auto;width: auto; font-size: 150%'><span style='font-weight: bold; font-size: 100px; color: red;'>0 points!</span><br><br></div>","null","delaylearn","learning","feedback_image_window","5b64d7b82aee58000132e2b9","SwWFIKzQIpPq6BahuY0siQn03SA2","","","","","","","","","","","","","","","","","","","","",""
"html-keyboard-response","56","109696","0.0-25.0","","null","<div style=""font-size:100px;"">+</div>","null","delaylearn","learning","ITI","5b64d7b82aee58000132e2b9","SwWFIKzQIpPq6BahuY0siQn03SA2","","","","","","","","","","","","","","","","","","","1529","",""
"html-keyboard-response","57","111840","0.0-26.0-0.0","","2140.800000011921","<div style=""display: flex; flex-direction: column; align-items: center; margin-top: -40px;""><img src=""images/pattern_4.png"" style=""width: 234px; height: 230px; margin-top: -50px;""><div style=""display: flex; justify-content: space-between; margin-top: 33px;""><img src=""images/choice_trial_15.png"" style=""width: 408px; height: 417px; margin-right: 200px;""><img src=""images/choice_trial_9.png"" style=""width: 408px; height: 417px;""></div></div>","j","delaylearn","learning","trial","5b64d7b82aee58000132e2b9","SwWFIKzQIpPq6BahuY0siQn03SA2","3","images/choice_trial_15.png","images/choice_trial_9.png","images/pattern_4.png","f","f","7000","15","9","3","0","11","0","0","9","50","","","","",""
"html-keyboard-response","58","112850","0.0-26.0-1.0","","null","<div style=""display: flex; flex-direction: column; align-items: center; margin-top: -40px;""><img src=""images/pattern_4.png"" style=""width: 234px; height: 230px; margin-top: -50px;""><div style=""display: flex; justify-content: space-between; margin-top: 33px;""><img src=""images/choice_trial_9.png"" style=""width: 408px; height: 417px; margin-left:608px;""></div></div>","null","delaylearn","learning","display_response","5b64d7b82aee58000132e2b9","SwWFIKzQIpPq6BahuY0siQn03SA2","","","","","","","","","","","","","","","","","chosen stimuli: images/choice_trial_9.png","","","",""
"html-keyboard-response","59","119858","0.0-26.0-2.0","","null","","null","delaylearn","learning","feedback_duration_window","5b64d7b82aee58000132e2b9","SwWFIKzQIpPq6BahuY0siQn03SA2","","","","","","","","","","","","","","","","","","7000","","",""
"html-keyboard-response","60","121369","0.0-26.0-3.0","","null","<div style='margin:auto;width: auto; font-size: 150%'><span style='font-weight: bold; font-size: 100px; color: red;'>0 points!</span><br><br></div>","null","delaylearn","learning","feedback_image_window","5b64d7b82aee58000132e2b9","SwWFIKzQIpPq6BahuY0siQn03SA2","","","","","","","","","","","","","","","","","","","","",""
"html-keyboard-response","61","123557","0.0-27.0","","null","<div style=""font-size:100px;"">+</div>","null","delaylearn","learning","ITI","5b64d7b82aee58000132e2b9","SwWFIKzQIpPq6BahuY0siQn03SA2","","","","","","","","","","","","","","","","","","","2173","",""
"html-keyboard-response","62","125736","0.0-28.0-0.0","","2176.399999976158","<div style=""display: flex; flex-direction: column; align-items: center; margin-top: -40px;""><img src=""images/pattern_5.png"" style=""width: 234px; height: 230px; margin-top: -50px;""><div style=""display: flex; justify-content: space-between; margin-top: 33px;""><img src=""images/choice_trial_2.png"" style=""width: 408px; height: 417px; margin-right: 200px;""><img src=""images/choice_trial_11.png"" style=""width: 408px; height: 417px;""></div></div>","f","delaylearn","learning","trial","5b64d7b82aee58000132e2b9","SwWFIKzQIpPq6BahuY0siQn03SA2","3","images/choice_trial_2.png","images/choice_trial_11.png","images/pattern_5.png","j","j","750","2","11","4","1","12","0","0","2","50","","","","",""
"html-keyboard-response","63","126743","0.0-28.0-1.0","","null","<div style=""display: flex; flex-direction: column; align-items: center; margin-top: -40px;""><img src=""images/pattern_5.png"" style=""width: 234px; height: 230px; margin-top: -50px;""><div style=""display: flex; justify-content: space-between; margin-top: 33px;""><img src=""images/choice_trial_2.png"" style=""width: 408px; height: 417px; margin-right: 608px;""></div></div>","null","delaylearn","learning","display_response","5b64d7b82aee58000132e2b9","SwWFIKzQIpPq6BahuY0siQn03SA2","","","","","","","","","","","","","","","","","chosen stimuli: images/choice_trial_2.png","","","",""
"html-keyboard-response","64","127495","0.0-28.0-2.0","","null","","null","delaylearn","learning","feedback_duration_window","5b64d7b82aee58000132e2b9","SwWFIKzQIpPq6BahuY0siQn03SA2","","","","","","","","","","","","","","","","","","750","","",""
"html-keyboard-response","65","128998","0.0-28.0-3.0","","null","<div style='margin:auto;width: auto; font-size: 150%'><span style='font-weight: bold; font-size: 100px; color: red;'>0 points!</span><br><br></div>","null","delaylearn","learning","feedback_image_window","5b64d7b82aee58000132e2b9","SwWFIKzQIpPq6BahuY0siQn03SA2","","","","","","","","","","","","","","","","","","","","",""
"html-keyboard-response","66","131009","0.0-29.0","","null","<div style=""font-size:100px;"">+</div>","null","delaylearn","learning","ITI","5b64d7b82aee58000132e2b9","SwWFIKzQIpPq6BahuY0siQn03SA2","","","","","","","","","","","","","","","","","","","2000","",""
"html-keyboard-response","67","133180","0.0-30.0-0.0","","2169.599999964237","<div style=""display: flex; flex-direction: column; align-items: center; margin-top: -40px;""><img src=""images/pattern_6.png"" style=""width: 234px; height: 230px; margin-top: -50px;""><div style=""display: flex; justify-content: space-between; margin-top: 33px;""><img src=""images/choice_trial_16.png"" style=""width: 408px; height: 417px; margin-right: 200px;""><img src=""images/choice_trial_3.png"" style=""width: 408px; height: 417px;""></div></div>","j","delaylearn","learning","trial","5b64d7b82aee58000132e2b9","SwWFIKzQIpPq6BahuY0siQn03SA2","3","images/choice_trial_16.png","images/choice_trial_3.png","images/pattern_6.png","j","f","750","16","3","5","0","13","0","1","3","60","","","","",""
"html-keyboard-response","68","134187","0.0-30.0-1.0","","null","<div style=""display: flex; flex-direction: column; align-items: center; margin-top: -40px;""><img src=""images/pattern_6.png"" style=""width: 234px; height: 230px; margin-top: -50px;""><div style=""display: flex; justify-content: space-between; margin-top: 33px;""><img src=""images/choice_trial_3.png"" style=""width: 408px; height: 417px; margin-left:608px;""></div></div>","null","delaylearn","learning","display_response","5b64d7b82aee58000132e2b9","SwWFIKzQIpPq6BahuY0siQn03SA2","","","","","","","","","","","","","","","","","chosen stimuli: images/choice_trial_3.png","","","",""
"html-keyboard-response","69","134951","0.0-30.0-2.0","","null","","null","delaylearn","learning","feedback_duration_window","5b64d7b82aee58000132e2b9","SwWFIKzQIpPq6BahuY0siQn03SA2","","","","","","","","","","","","","","","","","","750","","",""
"html-keyboard-response","70","136455","0.0-30.0-3.0","","null","<div style='margin:auto;width: auto; font-size: 150%'><span style='font-weight: bold; font-size: 100px; color: green;'>+10 points!</span><br><br></div>","null","delaylearn","learning","feedback_image_window","5b64d7b82aee58000132e2b9","SwWFIKzQIpPq6BahuY0siQn03SA2","","","","","","","","","","","","","","","","","","","","",""
"html-keyboard-response","71","136959","0.0-31.0-0.0","","null","","null","","","mood_trial_fixation","","","","","","","","","","","","","","","","","","","","","","",""
"lmdlab-html-vas-response","72","140400","0.0-31.0-1.0","","2429","How happy are you right now?","0.407431489099974","delaylearn","learning","mood_trial","5b64d7b82aee58000132e2b9","SwWFIKzQIpPq6BahuY0siQn03SA2","","","","","","","","","","","","","","","","","","","","[""Very unhappy"",""Very happy""]",""
"html-keyboard-response","73","142490","0.0-32.0","","null","<div style=""font-size:100px;"">+</div>","null","delaylearn","learning","ITI","5b64d7b82aee58000132e2b9","SwWFIKzQIpPq6BahuY0siQn03SA2","","","","","","","","","","","","","","","","","","","2078","",""
"html-keyboard-response","74","144706","0.0-33.0-0.0","","2211.5","<div style=""display: flex; flex-direction: column; align-items: center; margin-top: -40px;""><img src=""images/pattern_1.png"" style=""width: 234px; height: 230px; margin-top: -50px;""><div style=""display: flex; justify-content: space-between; margin-top: 33px;""><img src=""images/choice_trial_8.png"" style=""width: 408px; height: 417px; margin-right: 200px;""><img src=""images/choice_trial_14.png"" style=""width: 408px; height: 417px;""></div></div>","j","delaylearn","learning","trial","5b64d7b82aee58000132e2b9","SwWFIKzQIpPq6BahuY0siQn03SA2","3","images/choice_trial_8.png","images/choice_trial_14.png","images/pattern_1.png","j","j","7000","8","14","1","1","14","1","1","14","70","","","","",""
"html-keyboard-response","75","145714","0.0-33.0-1.0","","null","<div style=""display: flex; flex-direction: column; align-items: center; margin-top: -40px;""><img src=""images/pattern_1.png"" style=""width: 234px; height: 230px; margin-top: -50px;""><div style=""display: flex; justify-content: space-between; margin-top: 33px;""><img src=""images/choice_trial_14.png"" style=""width: 408px; height: 417px; margin-left:608px;""></div></div>","null","delaylearn","learning","display_response","5b64d7b82aee58000132e2b9","SwWFIKzQIpPq6BahuY0siQn03SA2","","","","","","","","","","","","","","","","","chosen stimuli: images/choice_trial_14.png","","","",""
"html-keyboard-response","76","152730","0.0-33.0-2.0","","null","","null","delaylearn","learning","feedback_duration_window","5b64d7b82aee58000132e2b9","SwWFIKzQIpPq6BahuY0siQn03SA2","","","","","","","","","","","","","","","","","","7000","","",""
"html-keyboard-response","77","154242","0.0-33.0-3.0","","null","<div style='margin:auto;width: auto; font-size: 150%'><span style='font-weight: bold; font-size: 100px; color: green;'>+10 points!</span><br><br></div>","null","delaylearn","learning","feedback_image_window","5b64d7b82aee58000132e2b9","SwWFIKzQIpPq6BahuY0siQn03SA2","","","","","","","","","","","","","","","","","","","","",""
"html-keyboard-response","78","156090","0.0-34.0","","null","<div style=""font-size:100px;"">+</div>","null","delaylearn","learning","ITI","5b64d7b82aee58000132e2b9","SwWFIKzQIpPq6BahuY0siQn03SA2","","","","","","","","","","","","","","","","","","","1832","",""
"html-keyboard-response","79","158501","0.0-35.0-0.0","","2409.900000035763","<div style=""display: flex; flex-direction: column; align-items: center; margin-top: -40px;""><img src=""images/pattern_3.png"" style=""width: 234px; height: 230px; margin-top: -50px;""><div style=""display: flex; justify-content: space-between; margin-top: 33px;""><img src=""images/choice_trial_10.png"" style=""width: 408px; height: 417px; margin-right: 200px;""><img src=""images/choice_trial_13.png"" style=""width: 408px; height: 417px;""></div></div>","j","delaylearn","learning","trial","5b64d7b82aee58000132e2b9","SwWFIKzQIpPq6BahuY0siQn03SA2","3","images/choice_trial_10.png","images/choice_trial_13.png","images/pattern_3.png","f","j","7000","10","13","2","1","15","1","0","13","70","","","","",""
"html-keyboard-response","80","159508","0.0-35.0-1.0","","null","<div style=""display: flex; flex-direction: column; align-items: center; margin-top: -40px;""><img src=""images/pattern_3.png"" style=""width: 234px; height: 230px; margin-top: -50px;""><div style=""display: flex; justify-content: space-between; margin-top: 33px;""><img src=""images/choice_trial_13.png"" style=""width: 408px; height: 417px; margin-left:608px;""></div></div>","null","delaylearn","learning","display_response","5b64d7b82aee58000132e2b9","SwWFIKzQIpPq6BahuY0siQn03SA2","","","","","","","","","","","","","","","","","chosen stimuli: images/choice_trial_13.png","","","",""
"html-keyboard-response","81","166514","0.0-35.0-2.0","","null","","null","delaylearn","learning","feedback_duration_window","5b64d7b82aee58000132e2b9","SwWFIKzQIpPq6BahuY0siQn03SA2","","","","","","","","","","","","","","","","","","7000","","",""
"html-keyboard-response","82","168023","0.0-35.0-3.0","","null","<div style='margin:auto;width: auto; font-size: 150%'><span style='font-weight: bold; font-size: 100px; color: red;'>0 points!</span><br><br></div>","null","delaylearn","learning","feedback_image_window","5b64d7b82aee58000132e2b9","SwWFIKzQIpPq6BahuY0siQn03SA2","","","","","","","","","","","","","","","","","","","","",""
"html-keyboard-response","83","169972","0.0-36.0","","null","<div style=""font-size:100px;"">+</div>","null","delaylearn","learning","ITI","5b64d7b82aee58000132e2b9","SwWFIKzQIpPq6BahuY0siQn03SA2","","","","","","","","","","","","","","","","","","","1941","",""
"html-keyboard-response","84","171883","0.0-37.0-0.0","","1909.5999999642372","<div style=""display: flex; flex-direction: column; align-items: center; margin-top: -40px;""><img src=""images/pattern_5.png"" style=""width: 234px; height: 230px; margin-top: -50px;""><div style=""display: flex; justify-content: space-between; margin-top: 33px;""><img src=""images/choice_trial_11.png"" style=""width: 408px; height: 417px; margin-right: 200px;""><img src=""images/choice_trial_2.png"" style=""width: 408px; height: 417px;""></div></div>","f","delaylearn","learning","trial","5b64d7b82aee58000132e2b9","SwWFIKzQIpPq6BahuY0siQn03SA2","3","images/choice_trial_11.png","images/choice_trial_2.png","images/pattern_5.png","f","f","750","11","2","4","0","16","1","1","11","80","","","","",""
"html-keyboard-response","85","172886","0.0-37.0-1.0","","null","<div style=""display: flex; flex-direction: column; align-items: center; margin-top: -40px;""><img src=""images/pattern_5.png"" style=""width: 234px; height: 230px; margin-top: -50px;""><div style=""display: flex; justify-content: space-between; margin-top: 33px;""><img src=""images/choice_trial_11.png"" style=""width: 408px; height: 417px; margin-right: 608px;""></div></div>","null","delaylearn","learning","display_response","5b64d7b82aee58000132e2b9","SwWFIKzQIpPq6BahuY0siQn03SA2","","","","","","","","","","","","","","","","","chosen stimuli: images/choice_trial_11.png","","","",""
"html-keyboard-response","86","173640","0.0-37.0-2.0","","null","","null","delaylearn","learning","feedback_duration_window","5b64d7b82aee58000132e2b9","SwWFIKzQIpPq6BahuY0siQn03SA2","","","","","","","","","","","","","","","","","","750","","",""
"html-keyboard-response","87","175158","0.0-37.0-3.0","","null","<div style='margin:auto;width: auto; font-size: 150%'><span style='font-weight: bold; font-size: 100px; color: green;'>+10 points!</span><br><br></div>","null","delaylearn","learning","feedback_image_window","5b64d7b82aee58000132e2b9","SwWFIKzQIpPq6BahuY0siQn03SA2","","","","","","","","","","","","","","","","","","","","",""
"html-keyboard-response","88","175673","0.0-38.0-0.0","","null","","null","","","mood_trial_fixation","","","","","","","","","","","","","","","","","","","","","","",""
"lmdlab-html-vas-response","89","180052","0.0-38.0-1.0","","3371","How happy are you right now?","0.5501783959575514","delaylearn","learning","mood_trial","5b64d7b82aee58000132e2b9","SwWFIKzQIpPq6BahuY0siQn03SA2","","","","","","","","","","","","","","","","","","","","[""Very unhappy"",""Very happy""]",""
"html-keyboard-response","90","182453","0.0-39.0","","null","<div style=""font-size:100px;"">+</div>","null","delaylearn","learning","ITI","5b64d7b82aee58000132e2b9","SwWFIKzQIpPq6BahuY0siQn03SA2","","","","","","","","","","","","","","","","","","","2384","",""
"html-keyboard-response","91","184182","0.0-40.0-0.0","","1724.800000011921","<div style=""display: flex; flex-direction: column; align-items: center; margin-top: -40px;""><img src=""images/pattern_6.png"" style=""width: 234px; height: 230px; margin-top: -50px;""><div style=""display: flex; justify-content: space-between; margin-top: 33px;""><img src=""images/choice_trial_16.png"" style=""width: 408px; height: 417px; margin-right: 200px;""><img src=""images/choice_trial_3.png"" style=""width: 408px; height: 417px;""></div></div>","f","delaylearn","learning","trial","5b64d7b82aee58000132e2b9","SwWFIKzQIpPq6BahuY0siQn03SA2","3","images/choice_trial_16.png","images/choice_trial_3.png","images/pattern_6.png","f","f","750","16","3","5","0","17","1","1","16","90","","","","",""
"html-keyboard-response","92","185190","0.0-40.0-1.0","","null","<div style=""display: flex; flex-direction: column; align-items: center; margin-top: -40px;""><img src=""images/pattern_6.png"" style=""width: 234px; height: 230px; margin-top: -50px;""><div style=""display: flex; justify-content: space-between; margin-top: 33px;""><img src=""images/choice_trial_16.png"" style=""width: 408px; height: 417px; margin-right: 608px;""></div></div>","null","delaylearn","learning","display_response","5b64d7b82aee58000132e2b9","SwWFIKzQIpPq6BahuY0siQn03SA2","","","","","","","","","","","","","","","","","chosen stimuli: images/choice_trial_16.png","","","",""
"html-keyboard-response","93","185943","0.0-40.0-2.0","","null","","null","delaylearn","learning","feedback_duration_window","5b64d7b82aee58000132e2b9","SwWFIKzQIpPq6BahuY0siQn03SA2","","","","","","","","","","","","","","","","","","750","","",""
"html-keyboard-response","94","187453","0.0-40.0-3.0","","null","<div style='margin:auto;width: auto; font-size: 150%'><span style='font-weight: bold; font-size: 100px; color: green;'>+10 points!</span><br><br></div>","null","delaylearn","learning","feedback_image_window","5b64d7b82aee58000132e2b9","SwWFIKzQIpPq6BahuY0siQn03SA2","","","","","","","","","","","","","","","","","","","","",""
"html-keyboard-response","95","189069","0.0-41.0","","null","<div style=""font-size:100px;"">+</div>","null","delaylearn","learning","ITI","5b64d7b82aee58000132e2b9","SwWFIKzQIpPq6BahuY0siQn03SA2","","","","","","","","","","","","","","","","","","","1601","",""
"html-keyboard-response","96","190535","0.0-42.0-0.0","","1463.8999999761581","<div style=""display: flex; flex-direction: column; align-items: center; margin-top: -40px;""><img src=""images/pattern_4.png"" style=""width: 234px; height: 230px; margin-top: -50px;""><div style=""display: flex; justify-content: space-between; margin-top: 33px;""><img src=""images/choice_trial_9.png"" style=""width: 408px; height: 417px; margin-right: 200px;""><img src=""images/choice_trial_15.png"" style=""width: 408px; height: 417px;""></div></div>","j","delaylearn","learning","trial","5b64d7b82aee58000132e2b9","SwWFIKzQIpPq6BahuY0siQn03SA2","3","images/choice_trial_9.png","images/choice_trial_15.png","images/pattern_4.png","j","j","7000","9","15","3","1","18","1","1","15","100","","","","",""
"html-keyboard-response","97","191544","0.0-42.0-1.0","","null","<div style=""display: flex; flex-direction: column; align-items: center; margin-top: -40px;""><img src=""images/pattern_4.png"" style=""width: 234px; height: 230px; margin-top: -50px;""><div style=""display: flex; justify-content: space-between; margin-top: 33px;""><img src=""images/choice_trial_15.png"" style=""width: 408px; height: 417px; margin-left:608px;""></div></div>","null","delaylearn","learning","display_response","5b64d7b82aee58000132e2b9","SwWFIKzQIpPq6BahuY0siQn03SA2","","","","","","","","","","","","","","","","","chosen stimuli: images/choice_trial_15.png","","","",""
"html-keyboard-response","98","198546","0.0-42.0-2.0","","null","","null","delaylearn","learning","feedback_duration_window","5b64d7b82aee58000132e2b9","SwWFIKzQIpPq6BahuY0siQn03SA2","","","","","","","","","","","","","","","","","","7000","","",""
"html-keyboard-response","99","200049","0.0-42.0-3.0","","null","<div style='margin:auto;width: auto; font-size: 150%'><span style='font-weight: bold; font-size: 100px; color: green;'>+10 points!</span><br><br></div>","null","delaylearn","learning","feedback_image_window","5b64d7b82aee58000132e2b9","SwWFIKzQIpPq6BahuY0siQn03SA2","","","","","","","","","","","","","","","","","","","","",""
"html-keyboard-response","100","202067","0.0-43.0","","null","<div style=""font-size:100px;"">+</div>","null","delaylearn","learning","ITI","5b64d7b82aee58000132e2b9","SwWFIKzQIpPq6BahuY0siQn03SA2","","","","","","","","","","","","","","","","","","","2010","",""
"html-keyboard-response","101","204912","0.0-44.0-0.0","","2842.399999976158","<div style=""display: flex; flex-direction: column; align-items: center; margin-top: -40px;""><img src=""images/pattern_7.png"" style=""width: 234px; height: 230px; margin-top: -50px;""><div style=""display: flex; justify-content: space-between; margin-top: 33px;""><img src=""images/choice_trial_6.png"" style=""width: 408px; height: 417px; margin-right: 200px;""><img src=""images/choice_trial_12.png"" style=""width: 408px; height: 417px;""></div></div>","f","delaylearn","learning","trial","5b64d7b82aee58000132e2b9","SwWFIKzQIpPq6BahuY0siQn03SA2","3","images/choice_trial_6.png","images/choice_trial_12.png","images/pattern_7.png","j","f","750","6","12","6","0","19","1","0","6","100","","","","",""
"html-keyboard-response","102","205925","0.0-44.0-1.0","","null","<div style=""display: flex; flex-direction: column; align-items: center; margin-top: -40px;""><img src=""images/pattern_7.png"" style=""width: 234px; height: 230px; margin-top: -50px;""><div style=""display: flex; justify-content: space-between; margin-top: 33px;""><img src=""images/choice_trial_6.png"" style=""width: 408px; height: 417px; margin-right: 608px;""></div></div>","null","delaylearn","learning","display_response","5b64d7b82aee58000132e2b9","SwWFIKzQIpPq6BahuY0siQn03SA2","","","","","","","","","","","","","","","","","chosen stimuli: images/choice_trial_6.png","","","",""
"html-keyboard-response","103","206681","0.0-44.0-2.0","","null","","null","delaylearn","learning","feedback_duration_window","5b64d7b82aee58000132e2b9","SwWFIKzQIpPq6BahuY0siQn03SA2","","","","","","","","","","","","","","","","","","750","","",""
"html-keyboard-response","104","208182","0.0-44.0-3.0","","null","<div style='margin:auto;width: auto; font-size: 150%'><span style='font-weight: bold; font-size: 100px; color: red;'>0 points!</span><br><br></div>","null","delaylearn","learning","feedback_image_window","5b64d7b82aee58000132e2b9","SwWFIKzQIpPq6BahuY0siQn03SA2","","","","","","","","","","","","","","","","","","","","",""
"html-keyboard-response","105","210273","0.0-45.0","","null","<div style=""font-size:100px;"">+</div>","null","delaylearn","learning","ITI","5b64d7b82aee58000132e2b9","SwWFIKzQIpPq6BahuY0siQn03SA2","","","","","","","","","","","","","","","","","","","2086","",""
"html-keyboard-response","106","212935","0.0-46.0-0.0","","2658.7000000476837","<div style=""display: flex; flex-direction: column; align-items: center; margin-top: -40px;""><img src=""images/pattern_1.png"" style=""width: 234px; height: 230px; margin-top: -50px;""><div style=""display: flex; justify-content: space-between; margin-top: 33px;""><img src=""images/choice_trial_14.png"" style=""width: 408px; height: 417px; margin-right: 200px;""><img src=""images/choice_trial_8.png"" style=""width: 408px; height: 417px;""></div></div>","j","delaylearn","learning","trial","5b64d7b82aee58000132e2b9","SwWFIKzQIpPq6BahuY0siQn03SA2","3","images/choice_trial_14.png","images/choice_trial_8.png","images/pattern_1.png","f","f","7000","14","8","1","0","20","0","0","8","100","","","","",""
"html-keyboard-response","107","213937","0.0-46.0-1.0","","null","<div style=""display: flex; flex-direction: column; align-items: center; margin-top: -40px;""><img src=""images/pattern_1.png"" style=""width: 234px; height: 230px; margin-top: -50px;""><div style=""display: flex; justify-content: space-between; margin-top: 33px;""><img src=""images/choice_trial_8.png"" style=""width: 408px; height: 417px; margin-left:608px;""></div></div>","null","delaylearn","learning","display_response","5b64d7b82aee58000132e2b9","SwWFIKzQIpPq6BahuY0siQn03SA2","","","","","","","","","","","","","","","","","chosen stimuli: images/choice_trial_8.png","","","",""
"html-keyboard-response","108","220940","0.0-46.0-2.0","","null","","null","delaylearn","learning","feedback_duration_window","5b64d7b82aee58000132e2b9","SwWFIKzQIpPq6BahuY0siQn03SA2","","","","","","","","","","","","","","","","","","7000","","",""
"html-keyboard-response","109","222444","0.0-46.0-3.0","","null","<div style='margin:auto;width: auto; font-size: 150%'><span style='font-weight: bold; font-size: 100px; color: red;'>0 points!</span><br><br></div>","null","delaylearn","learning","feedback_image_window","5b64d7b82aee58000132e2b9","SwWFIKzQIpPq6BahuY0siQn03SA2","","","","","","","","","","","","","","","","","","","","",""
"html-keyboard-response","110","224636","0.0-47.0","","null","<div style=""font-size:100px;"">+</div>","null","delaylearn","learning","ITI","5b64d7b82aee58000132e2b9","SwWFIKzQIpPq6BahuY0siQn03SA2","","","","","","","","","","","","","","","","","","","2183","",""
"html-keyboard-response","111","226339","0.0-48.0-0.0","","1699.8999999761581","<div style=""display: flex; flex-direction: column; align-items: center; margin-top: -40px;""><img src=""images/pattern_6.png"" style=""width: 234px; height: 230px; margin-top: -50px;""><div style=""display: flex; justify-content: space-between; margin-top: 33px;""><img src=""images/choice_trial_3.png"" style=""width: 408px; height: 417px; margin-right: 200px;""><img src=""images/choice_trial_16.png"" style=""width: 408px; height: 417px;""></div></div>","j","delaylearn","learning","trial","5b64d7b82aee58000132e2b9","SwWFIKzQIpPq6BahuY0siQn03SA2","3","images/choice_trial_3.png","images/choice_trial_16.png","images/pattern_6.png","j","j","750","3","16","5","1","21","1","1","16","110","","","","",""
"html-keyboard-response","112","227349","0.0-48.0-1.0","","null","<div style=""display: flex; flex-direction: column; align-items: center; margin-top: -40px;""><img src=""images/pattern_6.png"" style=""width: 234px; height: 230px; margin-top: -50px;""><div style=""display: flex; justify-content: space-between; margin-top: 33px;""><img src=""images/choice_trial_16.png"" style=""width: 408px; height: 417px; margin-left:608px;""></div></div>","null","delaylearn","learning","display_response","5b64d7b82aee58000132e2b9","SwWFIKzQIpPq6BahuY0siQn03SA2","","","","","","","","","","","","","","","","","chosen stimuli: images/choice_trial_16.png","","","",""
"html-keyboard-response","113","228112","0.0-48.0-2.0","","null","","null","delaylearn","learning","feedback_duration_window","5b64d7b82aee58000132e2b9","SwWFIKzQIpPq6BahuY0siQn03SA2","","","","","","","","","","","","","","","","","","750","","",""
"html-keyboard-response","114","229614","0.0-48.0-3.0","","null","<div style='margin:auto;width: auto; font-size: 150%'><span style='font-weight: bold; font-size: 100px; color: green;'>+10 points!</span><br><br></div>","null","delaylearn","learning","feedback_image_window","5b64d7b82aee58000132e2b9","SwWFIKzQIpPq6BahuY0siQn03SA2","","","","","","","","","","","","","","","","","","","","",""
"html-keyboard-response","115","231424","0.0-49.0","","null","<div style=""font-size:100px;"">+</div>","null","delaylearn","learning","ITI","5b64d7b82aee58000132e2b9","SwWFIKzQIpPq6BahuY0siQn03SA2","","","","","","","","","","","","","","","","","","","1792","",""
"html-keyboard-response","116","233689","0.0-50.0-0.0","","2262.399999976158","<div style=""display: flex; flex-direction: column; align-items: center; margin-top: -40px;""><img src=""images/pattern_4.png"" style=""width: 234px; height: 230px; margin-top: -50px;""><div style=""display: flex; justify-content: space-between; margin-top: 33px;""><img src=""images/choice_trial_15.png"" style=""width: 408px; height: 417px; margin-right: 200px;""><img src=""images/choice_trial_9.png"" style=""width: 408px; height: 417px;""></div></div>","f","delaylearn","learning","trial","5b64d7b82aee58000132e2b9","SwWFIKzQIpPq6BahuY0siQn03SA2","3","images/choice_trial_15.png","images/choice_trial_9.png","images/pattern_4.png","f","f","7000","15","9","3","0","22","1","1","15","120","","","","",""
"html-keyboard-response","117","234706","0.0-50.0-1.0","","null","<div style=""display: flex; flex-direction: column; align-items: center; margin-top: -40px;""><img src=""images/pattern_4.png"" style=""width: 234px; height: 230px; margin-top: -50px;""><div style=""display: flex; justify-content: space-between; margin-top: 33px;""><img src=""images/choice_trial_15.png"" style=""width: 408px; height: 417px; margin-right: 608px;""></div></div>","null","delaylearn","learning","display_response","5b64d7b82aee58000132e2b9","SwWFIKzQIpPq6BahuY0siQn03SA2","","","","","","","","","","","","","","","","","chosen stimuli: images/choice_trial_15.png","","","",""
"html-keyboard-response","118","241721","0.0-50.0-2.0","","null","","null","delaylearn","learning","feedback_duration_window","5b64d7b82aee58000132e2b9","SwWFIKzQIpPq6BahuY0siQn03SA2","","","","","","","","","","","","","","","","","","7000","","",""
"html-keyboard-response","119","243224","0.0-50.0-3.0","","null","<div style='margin:auto;width: auto; font-size: 150%'><span style='font-weight: bold; font-size: 100px; color: green;'>+10 points!</span><br><br></div>","null","delaylearn","learning","feedback_image_window","5b64d7b82aee58000132e2b9","SwWFIKzQIpPq6BahuY0siQn03SA2","","","","","","","","","","","","","","","","","","","","",""
"html-keyboard-response","120","243740","0.0-51.0-0.0","","null","","null","","","mood_trial_fixation","","","","","","","","","","","","","","","","","","","","","","",""
"lmdlab-html-vas-response","121","247929","0.0-51.0-1.0","","3178","How happy are you right now?","0.5463203714478871","delaylearn","learning","mood_trial","5b64d7b82aee58000132e2b9","SwWFIKzQIpPq6BahuY0siQn03SA2","","","","","","","","","","","","","","","","","","","","[""Very unhappy"",""Very happy""]",""
"html-keyboard-response","122","250309","0.0-52.0","","null","<div style=""font-size:100px;"">+</div>","null","delaylearn","learning","ITI","5b64d7b82aee58000132e2b9","SwWFIKzQIpPq6BahuY0siQn03SA2","","","","","","","","","","","","","","","","","","","2374","",""
"html-keyboard-response","123","252280","0.0-53.0-0.0","","1968.1000000238419","<div style=""display: flex; flex-direction: column; align-items: center; margin-top: -40px;""><img src=""images/pattern_7.png"" style=""width: 234px; height: 230px; margin-top: -50px;""><div style=""display: flex; justify-content: space-between; margin-top: 33px;""><img src=""images/choice_trial_12.png"" style=""width: 408px; height: 417px; margin-right: 200px;""><img src=""images/choice_trial_6.png"" style=""width: 408px; height: 417px;""></div></div>","f","delaylearn","learning","trial","5b64d7b82aee58000132e2b9","SwWFIKzQIpPq6BahuY0siQn03SA2","3","images/choice_trial_12.png","images/choice_trial_6.png","images/pattern_7.png","j","j","750","12","6","6","1","23","0","0","12","120","","","","",""
"html-keyboard-response","124","253285","0.0-53.0-1.0","","null","<div style=""display: flex; flex-direction: column; align-items: center; margin-top: -40px;""><img src=""images/pattern_7.png"" style=""width: 234px; height: 230px; margin-top: -50px;""><div style=""display: flex; justify-content: space-between; margin-top: 33px;""><img src=""images/choice_trial_12.png"" style=""width: 408px; height: 417px; margin-right: 608px;""></div></div>","null","delaylearn","learning","display_response","5b64d7b82aee58000132e2b9","SwWFIKzQIpPq6BahuY0siQn03SA2","","","","","","","","","","","","","","","","","chosen stimuli: images/choice_trial_12.png","","","",""
"html-keyboard-response","125","254052","0.0-53.0-2.0","","null","","null","delaylearn","learning","feedback_duration_window","5b64d7b82aee58000132e2b9","SwWFIKzQIpPq6BahuY0siQn03SA2","","","","","","","","","","","","","","","","","","750","","",""
"html-keyboard-response","126","255560","0.0-53.0-3.0","","null","<div style='margin:auto;width: auto; font-size: 150%'><span style='font-weight: bold; font-size: 100px; color: red;'>0 points!</span><br><br></div>","null","delaylearn","learning","feedback_image_window","5b64d7b82aee58000132e2b9","SwWFIKzQIpPq6BahuY0siQn03SA2","","","","","","","","","","","","","","","","","","","","",""
"html-keyboard-response","127","257888","0.0-54.0","","null","<div style=""font-size:100px;"">+</div>","null","delaylearn","learning","ITI","5b64d7b82aee58000132e2b9","SwWFIKzQIpPq6BahuY0siQn03SA2","","","","","","","","","","","","","","","","","","","2313","",""
"html-keyboard-response","128","259893","0.0-55.0-0.0","","2003","<div style=""display: flex; flex-direction: column; align-items: center; margin-top: -40px;""><img src=""images/pattern_1.png"" style=""width: 234px; height: 230px; margin-top: -50px;""><div style=""display: flex; justify-content: space-between; margin-top: 33px;""><img src=""images/choice_trial_8.png"" style=""width: 408px; height: 417px; margin-right: 200px;""><img src=""images/choice_trial_14.png"" style=""width: 408px; height: 417px;""></div></div>","j","delaylearn","learning","trial","5b64d7b82aee58000132e2b9","SwWFIKzQIpPq6BahuY0siQn03SA2","3","images/choice_trial_8.png","images/choice_trial_14.png","images/pattern_1.png","f","j","7000","8","14","1","1","24","1","0","14","120","","","","",""
"html-keyboard-response","129","260907","0.0-55.0-1.0","","null","<div style=""display: flex; flex-direction: column; align-items: center; margin-top: -40px;""><img src=""images/pattern_1.png"" style=""width: 234px; height: 230px; margin-top: -50px;""><div style=""display: flex; justify-content: space-between; margin-top: 33px;""><img src=""images/choice_trial_14.png"" style=""width: 408px; height: 417px; margin-left:608px;""></div></div>","null","delaylearn","learning","display_response","5b64d7b82aee58000132e2b9","SwWFIKzQIpPq6BahuY0siQn03SA2","","","","","","","","","","","","","","","","","chosen stimuli: images/choice_trial_14.png","","","",""
"html-keyboard-response","130","267913","0.0-55.0-2.0","","null","","null","delaylearn","learning","feedback_duration_window","5b64d7b82aee58000132e2b9","SwWFIKzQIpPq6BahuY0siQn03SA2","","","","","","","","","","","","","","","","","","7000","","",""
"html-keyboard-response","131","269422","0.0-55.0-3.0","","null","<div style='margin:auto;width: auto; font-size: 150%'><span style='font-weight: bold; font-size: 100px; color: red;'>0 points!</span><br><br></div>","null","delaylearn","learning","feedback_image_window","5b64d7b82aee58000132e2b9","SwWFIKzQIpPq6BahuY0siQn03SA2","","","","","","","","","","","","","","","","","","","","",""
"html-keyboard-response","132","271507","0.0-56.0","","null","<div style=""font-size:100px;"">+</div>","null","delaylearn","learning","ITI","5b64d7b82aee58000132e2b9","SwWFIKzQIpPq6BahuY0siQn03SA2","","","","","","","","","","","","","","","","","","","2074","",""
"html-keyboard-response","133","273858","0.0-57.0-0.0","","2347.7000000476837","<div style=""display: flex; flex-direction: column; align-items: center; margin-top: -40px;""><img src=""images/pattern_5.png"" style=""width: 234px; height: 230px; margin-top: -50px;""><div style=""display: flex; justify-content: space-between; margin-top: 33px;""><img src=""images/choice_trial_2.png"" style=""width: 408px; height: 417px; margin-right: 200px;""><img src=""images/choice_trial_11.png"" style=""width: 408px; height: 417px;""></div></div>","f","delaylearn","learning","trial","5b64d7b82aee58000132e2b9","SwWFIKzQIpPq6BahuY0siQn03SA2","3","images/choice_trial_2.png","images/choice_trial_11.png","images/pattern_5.png","j","j","750","2","11","4","1","25","0","0","2","120","","","","",""
"html-keyboard-response","134","274867","0.0-57.0-1.0","","null","<div style=""display: flex; flex-direction: column; align-items: center; margin-top: -40px;""><img src=""images/pattern_5.png"" style=""width: 234px; height: 230px; margin-top: -50px;""><div style=""display: flex; justify-content: space-between; margin-top: 33px;""><img src=""images/choice_trial_2.png"" style=""width: 408px; height: 417px; margin-right: 608px;""></div></div>","null","delaylearn","learning","display_response","5b64d7b82aee58000132e2b9","SwWFIKzQIpPq6BahuY0siQn03SA2","","","","","","","","","","","","","","","","","chosen stimuli: images/choice_trial_2.png","","","",""
"html-keyboard-response","135","275632","0.0-57.0-2.0","","null","","null","delaylearn","learning","feedback_duration_window","5b64d7b82aee58000132e2b9","SwWFIKzQIpPq6BahuY0siQn03SA2","","","","","","","","","","","","","","","","","","750","","",""
"html-keyboard-response","136","277133","0.0-57.0-3.0","","null","<div style='margin:auto;width: auto; font-size: 150%'><span style='font-weight: bold; font-size: 100px; color: red;'>0 points!</span><br><br></div>","null","delaylearn","learning","feedback_image_window","5b64d7b82aee58000132e2b9","SwWFIKzQIpPq6BahuY0siQn03SA2","","","","","","","","","","","","","","","","","","","","",""
"html-keyboard-response","137","279445","0.0-58.0","","null","<div style=""font-size:100px;"">+</div>","null","delaylearn","learning","ITI","5b64d7b82aee58000132e2b9","SwWFIKzQIpPq6BahuY0siQn03SA2","","","","","","","","","","","","","","","","","","","2297","",""
"html-keyboard-response","138","280545","0.0-59.0-0.0","","1098.199999988079","<div style=""display: flex; flex-direction: column; align-items: center; margin-top: -40px;""><img src=""images/pattern_3.png"" style=""width: 234px; height: 230px; margin-top: -50px;""><div style=""display: flex; justify-content: space-between; margin-top: 33px;""><img src=""images/choice_trial_10.png"" style=""width: 408px; height: 417px; margin-right: 200px;""><img src=""images/choice_trial_13.png"" style=""width: 408px; height: 417px;""></div></div>","j","delaylearn","learning","trial","5b64d7b82aee58000132e2b9","SwWFIKzQIpPq6BahuY0siQn03SA2","3","images/choice_trial_10.png","images/choice_trial_13.png","images/pattern_3.png","j","j","7000","10","13","2","1","26","1","1","13","130","","","","",""
"html-keyboard-response","139","281562","0.0-59.0-1.0","","null","<div style=""display: flex; flex-direction: column; align-items: center; margin-top: -40px;""><img src=""images/pattern_3.png"" style=""width: 234px; height: 230px; margin-top: -50px;""><div style=""display: flex; justify-content: space-between; margin-top: 33px;""><img src=""images/choice_trial_13.png"" style=""width: 408px; height: 417px; margin-left:608px;""></div></div>","null","delaylearn","learning","display_response","5b64d7b82aee58000132e2b9","SwWFIKzQIpPq6BahuY0siQn03SA2","","","","","","","","","","","","","","","","","chosen stimuli: images/choice_trial_13.png","","","",""
"html-keyboard-response","140","288567","0.0-59.0-2.0","","null","","null","delaylearn","learning","feedback_duration_window","5b64d7b82aee58000132e2b9","SwWFIKzQIpPq6BahuY0siQn03SA2","","","","","","","","","","","","","","","","","","7000","","",""
"html-keyboard-response","141","290079","0.0-59.0-3.0","","null","<div style='margin:auto;width: auto; font-size: 150%'><span style='font-weight: bold; font-size: 100px; color: green;'>+10 points!</span><br><br></div>","null","delaylearn","learning","feedback_image_window","5b64d7b82aee58000132e2b9","SwWFIKzQIpPq6BahuY0siQn03SA2","","","","","","","","","","","","","","","","","","","","",""
"lmdlab-html-vas-response","142","296117","0.0-60.0-0.0","","4523","*How <b><u>confident</u></b> are you feeling about your answers at this moment?*","0.28395056859001966","rewlearn","rate_confidence","","5b64d7b82aee58000132e2b9","SwWFIKzQIpPq6BahuY0siQn03SA2","","","","","","","","","","","","","","","","","","","","[""No confidence"",""Complete confidence""]",""
"lmdlab-rest-trial-limit","143","305278","0.0-60.0-1.0","","7657.800000011921","<div style=""font-size:40px;""><b>Please take a break!</b><br><br><br><br><p>Great work: you earned 130 points.<br><br><br><p>You have completed part(s) 1 of 5.<br><br><br><br>When you are ready to continue<br><br><br>please click the button.</p><br><br>","0","delaylearn","learning","break","5b64d7b82aee58000132e2b9","SwWFIKzQIpPq6BahuY0siQn03SA2","","","","","","","","","","","","","","","","","","","","","0"
"html-keyboard-response","144","308288","0.0-60.0-2.0","","null","<div style=""font-size:100px;"">+</div>","null","delaylearn","learning","pre_fixation","5b64d7b82aee58000132e2b9","","","","","","","","","","","","","","","","","","","","","",""
"lmdlab-html-vas-response","145","311876","0.0-60.0-3.0-0.0","","2575","How happy are you right now?","0.3804253175323243","delaylearn","learning","mood_baseline","5b64d7b82aee58000132e2b9","SwWFIKzQIpPq6BahuY0siQn03SA2","","","","","","","","","","","","","","","","","","","","[""Very unhappy"",""Very happy""]",""
"html-keyboard-response","146","313384","0.0-60.0-3.0-1.0","","null","","null","","","mood_baseline_fixation","","","","","","","","","","","","","","","","","","","","","","",""
"html-keyboard-response","147","315134","0.0-61.0","","null","<div style=""font-size:100px;"">+</div>","null","delaylearn","learning","ITI","5b64d7b82aee58000132e2b9","SwWFIKzQIpPq6BahuY0siQn03SA2","","","","","","","","","","","","","","","","","","","1738","",""
"html-keyboard-response","148","316597","0.0-62.0-0.0","","1460.4000000357628","<div style=""display: flex; flex-direction: column; align-items: center; margin-top: -40px;""><img src=""images/pattern_7.png"" style=""width: 234px; height: 230px; margin-top: -50px;""><div style=""display: flex; justify-content: space-between; margin-top: 33px;""><img src=""images/choice_trial_12.png"" style=""width: 408px; height: 417px; margin-right: 200px;""><img src=""images/choice_trial_6.png"" style=""width: 408px; height: 417px;""></div></div>","f","delaylearn","learning","trial","5b64d7b82aee58000132e2b9","SwWFIKzQIpPq6BahuY0siQn03SA2","3","images/choice_trial_12.png","images/choice_trial_6.png","images/pattern_7.png","j","j","750","12","6","6","1","27","0","0","12","130","","","","",""
"html-keyboard-response","149","317602","0.0-62.0-1.0","","null","<div style=""display: flex; flex-direction: column; align-items: center; margin-top: -40px;""><img src=""images/pattern_7.png"" style=""width: 234px; height: 230px; margin-top: -50px;""><div style=""display: flex; justify-content: space-between; margin-top: 33px;""><img src=""images/choice_trial_12.png"" style=""width: 408px; height: 417px; margin-right: 608px;""></div></div>","null","delaylearn","learning","display_response","5b64d7b82aee58000132e2b9","SwWFIKzQIpPq6BahuY0siQn03SA2","","","","","","","","","","","","","","","","","chosen stimuli: images/choice_trial_12.png","","","",""
"html-keyboard-response","150","318362","0.0-62.0-2.0","","null","","null","delaylearn","learning","feedback_duration_window","5b64d7b82aee58000132e2b9","SwWFIKzQIpPq6BahuY0siQn03SA2","","","","","","","","","","","","","","","","","","750","","",""
"html-keyboard-response","151","319870","0.0-62.0-3.0","","null","<div style='margin:auto;width: auto; font-size: 150%'><span style='font-weight: bold; font-size: 100px; color: red;'>0 points!</span><br><br></div>","null","delaylearn","learning","feedback_image_window","5b64d7b82aee58000132e2b9","SwWFIKzQIpPq6BahuY0siQn03SA2","","","","","","","","","","","","","","","","","","","","",""
"html-keyboard-response","152","320387","0.0-63.0-0.0","","null","","null","","","mood_trial_fixation","","","","","","","","","","","","","","","","","","","","","","",""
"lmdlab-html-vas-response","153","323801","0.0-63.0-1.0","","2403","How happy are you right now?","0.22996236165541842","delaylearn","learning","mood_trial","5b64d7b82aee58000132e2b9","SwWFIKzQIpPq6BahuY0siQn03SA2","","","","","","","","","","","","","","","","","","","","[""Very unhappy"",""Very happy""]",""
"html-keyboard-response","154","326086","0.0-64.0","","null","<div style=""font-size:100px;"">+</div>","null","delaylearn","learning","ITI","5b64d7b82aee58000132e2b9","SwWFIKzQIpPq6BahuY0siQn03SA2","","","","","","","","","","","","","","","","","","","2269","",""
"html-keyboard-response","155","327867","0.0-65.0-0.0","","1779.699999988079","<div style=""display: flex; flex-direction: column; align-items: center; margin-top: -40px;""><img src=""images/pattern_1.png"" style=""width: 234px; height: 230px; margin-top: -50px;""><div style=""display: flex; justify-content: space-between; margin-top: 33px;""><img src=""images/choice_trial_14.png"" style=""width: 408px; height: 417px; margin-right: 200px;""><img src=""images/choice_trial_8.png"" style=""width: 408px; height: 417px;""></div></div>","j","delaylearn","learning","trial","5b64d7b82aee58000132e2b9","SwWFIKzQIpPq6BahuY0siQn03SA2","3","images/choice_trial_14.png","images/choice_trial_8.png","images/pattern_1.png","f","f","7000","14","8","1","0","28","0","0","8","130","","","","",""
"html-keyboard-response","156","328874","0.0-65.0-1.0","","null","<div style=""display: flex; flex-direction: column; align-items: center; margin-top: -40px;""><img src=""images/pattern_1.png"" style=""width: 234px; height: 230px; margin-top: -50px;""><div style=""display: flex; justify-content: space-between; margin-top: 33px;""><img src=""images/choice_trial_8.png"" style=""width: 408px; height: 417px; margin-left:608px;""></div></div>","null","delaylearn","learning","display_response","5b64d7b82aee58000132e2b9","SwWFIKzQIpPq6BahuY0siQn03SA2","","","","","","","","","","","","","","","","","chosen stimuli: images/choice_trial_8.png","","","",""
"html-keyboard-response","157","335885","0.0-65.0-2.0","","null","","null","delaylearn","learning","feedback_duration_window","5b64d7b82aee58000132e2b9","SwWFIKzQIpPq6BahuY0siQn03SA2","","","","","","","","","","","","","","","","","","7000","","",""
"html-keyboard-response","158","337391","0.0-65.0-3.0","","null","<div style='margin:auto;width: auto; font-size: 150%'><span style='font-weight: bold; font-size: 100px; color: red;'>0 points!</span><br><br></div>","null","delaylearn","learning","feedback_image_window","5b64d7b82aee58000132e2b9","SwWFIKzQIpPq6BahuY0siQn03SA2","","","","","","","","","","","","","","","","","","","","",""
"html-keyboard-response","159","339451","0.0-66.0","","null","<div style=""font-size:100px;"">+</div>","null","delaylearn","learning","ITI","5b64d7b82aee58000132e2b9","SwWFIKzQIpPq6BahuY0siQn03SA2","","","","","","","","","","","","","","","","","","","2059","",""
"html-keyboard-response","160","341299","0.0-67.0-0.0","","1842.800000011921","<div style=""display: flex; flex-direction: column; align-items: center; margin-top: -40px;""><img src=""images/pattern_5.png"" style=""width: 234px; height: 230px; margin-top: -50px;""><div style=""display: flex; justify-content: space-between; margin-top: 33px;""><img src=""images/choice_trial_11.png"" style=""width: 408px; height: 417px; margin-right: 200px;""><img src=""images/choice_trial_2.png"" style=""width: 408px; height: 417px;""></div></div>","j","delaylearn","learning","trial","5b64d7b82aee58000132e2b9","SwWFIKzQIpPq6BahuY0siQn03SA2","3","images/choice_trial_11.png","images/choice_trial_2.png","images/pattern_5.png","f","f","750","11","2","4","0","29","0","0","2","130","","","","",""
"html-keyboard-response","161","342308","0.0-67.0-1.0","","null","<div style=""display: flex; flex-direction: column; align-items: center; margin-top: -40px;""><img src=""images/pattern_5.png"" style=""width: 234px; height: 230px; margin-top: -50px;""><div style=""display: flex; justify-content: space-between; margin-top: 33px;""><img src=""images/choice_trial_2.png"" style=""width: 408px; height: 417px; margin-left:608px;""></div></div>","null","delaylearn","learning","display_response","5b64d7b82aee58000132e2b9","SwWFIKzQIpPq6BahuY0siQn03SA2","","","","","","","","","","","","","","","","","chosen stimuli: images/choice_trial_2.png","","","",""
"html-keyboard-response","162","343061","0.0-67.0-2.0","","null","","null","delaylearn","learning","feedback_duration_window","5b64d7b82aee58000132e2b9","SwWFIKzQIpPq6BahuY0siQn03SA2","","","","","","","","","","","","","","","","","","750","","",""
"html-keyboard-response","163","344565","0.0-67.0-3.0","","null","<div style='margin:auto;width: auto; font-size: 150%'><span style='font-weight: bold; font-size: 100px; color: red;'>0 points!</span><br><br></div>","null","delaylearn","learning","feedback_image_window","5b64d7b82aee58000132e2b9","SwWFIKzQIpPq6BahuY0siQn03SA2","","","","","","","","","","","","","","","","","","","","",""
"html-keyboard-response","164","346086","0.0-68.0","","null","<div style=""font-size:100px;"">+</div>","null","delaylearn","learning","ITI","5b64d7b82aee58000132e2b9","SwWFIKzQIpPq6BahuY0siQn03SA2","","","","","","","","","","","","","","","","","","","1518","",""
"html-keyboard-response","165","347879","0.0-69.0-0.0","","1790.7000000476837","<div style=""display: flex; flex-direction: column; align-items: center; margin-top: -40px;""><img src=""images/pattern_6.png"" style=""width: 234px; height: 230px; margin-top: -50px;""><div style=""display: flex; justify-content: space-between; margin-top: 33px;""><img src=""images/choice_trial_3.png"" style=""width: 408px; height: 417px; margin-right: 200px;""><img src=""images/choice_trial_16.png"" style=""width: 408px; height: 417px;""></div></div>","j","delaylearn","learning","trial","5b64d7b82aee58000132e2b9","SwWFIKzQIpPq6BahuY0siQn03SA2","3","images/choice_trial_3.png","images/choice_trial_16.png","images/pattern_6.png","j","j","750","3","16","5","1","30","1","1","16","140","","","","",""
"html-keyboard-response","166","348881","0.0-69.0-1.0","","null","<div style=""display: flex; flex-direction: column; align-items: center; margin-top: -40px;""><img src=""images/pattern_6.png"" style=""width: 234px; height: 230px; margin-top: -50px;""><div style=""display: flex; justify-content: space-between; margin-top: 33px;""><img src=""images/choice_trial_16.png"" style=""width: 408px; height: 417px; margin-left:608px;""></div></div>","null","delaylearn","learning","display_response","5b64d7b82aee58000132e2b9","SwWFIKzQIpPq6BahuY0siQn03SA2","","","","","","","","","","","","","","","","","chosen stimuli: images/choice_trial_16.png","","","",""
"html-keyboard-response","167","349645","0.0-69.0-2.0","","null","","null","delaylearn","learning","feedback_duration_window","5b64d7b82aee58000132e2b9","SwWFIKzQIpPq6BahuY0siQn03SA2","","","","","","","","","","","","","","","","","","750","","",""
"html-keyboard-response","168","351161","0.0-69.0-3.0","","null","<div style='margin:auto;width: auto; font-size: 150%'><span style='font-weight: bold; font-size: 100px; color: green;'>+10 points!</span><br><br></div>","null","delaylearn","learning","feedback_image_window","5b64d7b82aee58000132e2b9","SwWFIKzQIpPq6BahuY0siQn03SA2","","","","","","","","","","","","","","","","","","","","",""
"html-keyboard-response","169","351670","0.0-70.0-0.0","","null","","null","","","mood_trial_fixation","","","","","","","","","","","","","","","","","","","","","","",""
"lmdlab-html-vas-response","170","355757","0.0-70.0-1.0","","3067","How happy are you right now?","0.3823543297871564","delaylearn","learning","mood_trial","5b64d7b82aee58000132e2b9","SwWFIKzQIpPq6BahuY0siQn03SA2","","","","","","","","","","","","","","","","","","","","[""Very unhappy"",""Very happy""]",""
"html-keyboard-response","171","358190","0.0-71.0","","null","<div style=""font-size:100px;"">+</div>","null","delaylearn","learning","ITI","5b64d7b82aee58000132e2b9","SwWFIKzQIpPq6BahuY0siQn03SA2","","","","","","","","","","","","","","","","","","","2427","",""
"html-keyboard-response","172","359984","0.0-72.0-0.0","","1789.2999999523163","<div style=""display: flex; flex-direction: column; align-items: center; margin-top: -40px;""><img src=""images/pattern_4.png"" style=""width: 234px; height: 230px; margin-top: -50px;""><div style=""display: flex; justify-content: space-between; margin-top: 33px;""><img src=""images/choice_trial_9.png"" style=""width: 408px; height: 417px; margin-right: 200px;""><img src=""images/choice_trial_15.png"" style=""width: 408px; height: 417px;""></div></div>","f","delaylearn","learning","trial","5b64d7b82aee58000132e2b9","SwWFIKzQIpPq6BahuY0siQn03SA2","3","images/choice_trial_9.png","images/choice_trial_15.png","images/pattern_4.png","j","j","7000","9","15","3","1","31","0","0","9","140","","","","",""
"html-keyboard-response","173","360998","0.0-72.0-1.0","","null","<div style=""display: flex; flex-direction: column; align-items: center; margin-top: -40px;""><img src=""images/pattern_4.png"" style=""width: 234px; height: 230px; margin-top: -50px;""><div style=""display: flex; justify-content: space-between; margin-top: 33px;""><img src=""images/choice_trial_9.png"" style=""width: 408px; height: 417px; margin-right: 608px;""></div></div>","null","delaylearn","learning","display_response","5b64d7b82aee58000132e2b9","SwWFIKzQIpPq6BahuY0siQn03SA2","","","","","","","","","","","","","","","","","chosen stimuli: images/choice_trial_9.png","","","",""
"html-keyboard-response","174","368013","0.0-72.0-2.0","","null","","null","delaylearn","learning","feedback_duration_window","5b64d7b82aee58000132e2b9","SwWFIKzQIpPq6BahuY0siQn03SA2","","","","","","","","","","","","","","","","","","7000","","",""
"html-keyboard-response","175","369520","0.0-72.0-3.0","","null","<div style='margin:auto;width: auto; font-size: 150%'><span style='font-weight: bold; font-size: 100px; color: red;'>0 points!</span><br><br></div>","null","delaylearn","learning","feedback_image_window","5b64d7b82aee58000132e2b9","SwWFIKzQIpPq6BahuY0siQn03SA2","","","","","","","","","","","","","","","","","","","","",""
"html-keyboard-response","176","371965","0.0-73.0","","null","<div style=""font-size:100px;"">+</div>","null","delaylearn","learning","ITI","5b64d7b82aee58000132e2b9","SwWFIKzQIpPq6BahuY0siQn03SA2","","","","","","","","","","","","","","","","","","","2438","",""
"html-keyboard-response","177","373927","0.0-74.0-0.0","","1960.0999999642372","<div style=""display: flex; flex-direction: column; align-items: center; margin-top: -40px;""><img src=""images/pattern_3.png"" style=""width: 234px; height: 230px; margin-top: -50px;""><div style=""display: flex; justify-content: space-between; margin-top: 33px;""><img src=""images/choice_trial_10.png"" style=""width: 408px; height: 417px; margin-right: 200px;""><img src=""images/choice_trial_13.png"" style=""width: 408px; height: 417px;""></div></div>","j","delaylearn","learning","trial","5b64d7b82aee58000132e2b9","SwWFIKzQIpPq6BahuY0siQn03SA2","3","images/choice_trial_10.png","images/choice_trial_13.png","images/pattern_3.png","j","j","7000","10","13","2","1","32","1","1","13","150","","","","",""
"html-keyboard-response","178","374941","0.0-74.0-1.0","","null","<div style=""display: flex; flex-direction: column; align-items: center; margin-top: -40px;""><img src=""images/pattern_3.png"" style=""width: 234px; height: 230px; margin-top: -50px;""><div style=""display: flex; justify-content: space-between; margin-top: 33px;""><img src=""images/choice_trial_13.png"" style=""width: 408px; height: 417px; margin-left:608px;""></div></div>","null","delaylearn","learning","display_response","5b64d7b82aee58000132e2b9","SwWFIKzQIpPq6BahuY0siQn03SA2","","","","","","","","","","","","","","","","","chosen stimuli: images/choice_trial_13.png","","","",""
"html-keyboard-response","179","381955","0.0-74.0-2.0","","null","","null","delaylearn","learning","feedback_duration_window","5b64d7b82aee58000132e2b9","SwWFIKzQIpPq6BahuY0siQn03SA2","","","","","","","","","","","","","","","","","","7000","","",""
"html-keyboard-response","180","383462","0.0-74.0-3.0","","null","<div style='margin:auto;width: auto; font-size: 150%'><span style='font-weight: bold; font-size: 100px; color: green;'>+10 points!</span><br><br></div>","null","delaylearn","learning","feedback_image_window","5b64d7b82aee58000132e2b9","SwWFIKzQIpPq6BahuY0siQn03SA2","","","","","","","","","","","","","","","","","","","","",""
"html-keyboard-response","181","385265","0.0-75.0","","null","<div style=""font-size:100px;"">+</div>","null","delaylearn","learning","ITI","5b64d7b82aee58000132e2b9","SwWFIKzQIpPq6BahuY0siQn03SA2","","","","","","","","","","","","","","","","","","","1787","",""
"html-keyboard-response","182","387921","0.0-76.0-0.0","","2653.300000011921","<div style=""display: flex; flex-direction: column; align-items: center; margin-top: -40px;""><img src=""images/pattern_5.png"" style=""width: 234px; height: 230px; margin-top: -50px;""><div style=""display: flex; justify-content: space-between; margin-top: 33px;""><img src=""images/choice_trial_11.png"" style=""width: 408px; height: 417px; margin-right: 200px;""><img src=""images/choice_trial_2.png"" style=""width: 408px; height: 417px;""></div></div>","f","delaylearn","learning","trial","5b64d7b82aee58000132e2b9","SwWFIKzQIpPq6BahuY0siQn03SA2","3","images/choice_trial_11.png","images/choice_trial_2.png","images/pattern_5.png","j","f","750","11","2","4","0","33","1","0","11","150","","","","",""
"html-keyboard-response","183","388931","0.0-76.0-1.0","","null","<div style=""display: flex; flex-direction: column; align-items: center; margin-top: -40px;""><img src=""images/pattern_5.png"" style=""width: 234px; height: 230px; margin-top: -50px;""><div style=""display: flex; justify-content: space-between; margin-top: 33px;""><img src=""images/choice_trial_11.png"" style=""width: 408px; height: 417px; margin-right: 608px;""></div></div>","null","delaylearn","learning","display_response","5b64d7b82aee58000132e2b9","SwWFIKzQIpPq6BahuY0siQn03SA2","","","","","","","","","","","","","","","","","chosen stimuli: images/choice_trial_11.png","","","",""
"html-keyboard-response","184","389692","0.0-76.0-2.0","","null","","null","delaylearn","learning","feedback_duration_window","5b64d7b82aee58000132e2b9","SwWFIKzQIpPq6BahuY0siQn03SA2","","","","","","","","","","","","","","","","","","750","","",""
"html-keyboard-response","185","391203","0.0-76.0-3.0","","null","<div style='margin:auto;width: auto; font-size: 150%'><span style='font-weight: bold; font-size: 100px; color: red;'>0 points!</span><br><br></div>","null","delaylearn","learning","feedback_image_window","5b64d7b82aee58000132e2b9","SwWFIKzQIpPq6BahuY0siQn03SA2","","","","","","","","","","","","","","","","","","","","",""
"html-keyboard-response","186","393149","0.0-77.0","","null","<div style=""font-size:100px;"">+</div>","null","delaylearn","learning","ITI","5b64d7b82aee58000132e2b9","SwWFIKzQIpPq6BahuY0siQn03SA2","","","","","","","","","","","","","","","","","","","1932","",""
"html-keyboard-response","187","395652","0.0-78.0-0.0","","2499.199999988079","<div style=""display: flex; flex-direction: column; align-items: center; margin-top: -40px;""><img src=""images/pattern_1.png"" style=""width: 234px; height: 230px; margin-top: -50px;""><div style=""display: flex; justify-content: space-between; margin-top: 33px;""><img src=""images/choice_trial_14.png"" style=""width: 408px; height: 417px; margin-right: 200px;""><img src=""images/choice_trial_8.png"" style=""width: 408px; height: 417px;""></div></div>","f","delaylearn","learning","trial","5b64d7b82aee58000132e2b9","SwWFIKzQIpPq6BahuY0siQn03SA2","3","images/choice_trial_14.png","images/choice_trial_8.png","images/pattern_1.png","f","f","7000","14","8","1","0","34","1","1","14","160","","","","",""
"html-keyboard-response","188","396664","0.0-78.0-1.0","","null","<div style=""display: flex; flex-direction: column; align-items: center; margin-top: -40px;""><img src=""images/pattern_1.png"" style=""width: 234px; height: 230px; margin-top: -50px;""><div style=""display: flex; justify-content: space-between; margin-top: 33px;""><img src=""images/choice_trial_14.png"" style=""width: 408px; height: 417px; margin-right: 608px;""></div></div>","null","delaylearn","learning","display_response","5b64d7b82aee58000132e2b9","SwWFIKzQIpPq6BahuY0siQn03SA2","","","","","","","","","","","","","","","","","chosen stimuli: images/choice_trial_14.png","","","",""
"html-keyboard-response","189","403665","0.0-78.0-2.0","","null","","null","delaylearn","learning","feedback_duration_window","5b64d7b82aee58000132e2b9","SwWFIKzQIpPq6BahuY0siQn03SA2","","","","","","","","","","","","","","","","","","7000","","",""
"html-keyboard-response","190","405180","0.0-78.0-3.0","","null","<div style='margin:auto;width: auto; font-size: 150%'><span style='font-weight: bold; font-size: 100px; color: green;'>+10 points!</span><br><br></div>","null","delaylearn","learning","feedback_image_window","5b64d7b82aee58000132e2b9","SwWFIKzQIpPq6BahuY0siQn03SA2","","","","","","","","","","","","","","","","","","","","",""
"html-keyboard-response","191","405690","0.0-79.0-0.0","","null","","null","","","mood_trial_fixation","","","","","","","","","","","","","","","","","","","","","","",""
"lmdlab-html-vas-response","192","409264","0.0-79.0-1.0","","2570","How happy are you right now?","0.3688512440033315","delaylearn","learning","mood_trial","5b64d7b82aee58000132e2b9","SwWFIKzQIpPq6BahuY0siQn03SA2","","","","","","","","","","","","","","","","","","","","[""Very unhappy"",""Very happy""]",""
"html-keyboard-response","193","411037","0.0-80.0","","null","<div style=""font-size:100px;"">+</div>","null","delaylearn","learning","ITI","5b64d7b82aee58000132e2b9","SwWFIKzQIpPq6BahuY0siQn03SA2","","","","","","","","","","","","","","","","","","","1764","",""
"html-keyboard-response","194","412879","0.0-81.0-0.0","","1838.7999999523163","<div style=""display: flex; flex-direction: column; align-items: center; margin-top: -40px;""><img src=""images/pattern_6.png"" style=""width: 234px; height: 230px; margin-top: -50px;""><div style=""display: flex; justify-content: space-between; margin-top: 33px;""><img src=""images/choice_trial_16.png"" style=""width: 408px; height: 417px; margin-right: 200px;""><img src=""images/choice_trial_3.png"" style=""width: 408px; height: 417px;""></div></div>","f","delaylearn","learning","trial","5b64d7b82aee58000132e2b9","SwWFIKzQIpPq6BahuY0siQn03SA2","3","images/choice_trial_16.png","images/choice_trial_3.png","images/pattern_6.png","j","f","750","16","3","5","0","35","1","0","16","160","","","","",""
"html-keyboard-response","195","413897","0.0-81.0-1.0","","null","<div style=""display: flex; flex-direction: column; align-items: center; margin-top: -40px;""><img src=""images/pattern_6.png"" style=""width: 234px; height: 230px; margin-top: -50px;""><div style=""display: flex; justify-content: space-between; margin-top: 33px;""><img src=""images/choice_trial_16.png"" style=""width: 408px; height: 417px; margin-right: 608px;""></div></div>","null","delaylearn","learning","display_response","5b64d7b82aee58000132e2b9","SwWFIKzQIpPq6BahuY0siQn03SA2","","","","","","","","","","","","","","","","","chosen stimuli: images/choice_trial_16.png","","","",""
"html-keyboard-response","196","414664","0.0-81.0-2.0","","null","","null","delaylearn","learning","feedback_duration_window","5b64d7b82aee58000132e2b9","SwWFIKzQIpPq6BahuY0siQn03SA2","","","","","","","","","","","","","","","","","","750","","",""
"html-keyboard-response","197","416171","0.0-81.0-3.0","","null","<div style='margin:auto;width: auto; font-size: 150%'><span style='font-weight: bold; font-size: 100px; color: red;'>0 points!</span><br><br></div>","null","delaylearn","learning","feedback_image_window","5b64d7b82aee58000132e2b9","SwWFIKzQIpPq6BahuY0siQn03SA2","","","","","","","","","","","","","","","","","","","","",""
"html-keyboard-response","198","418479","0.0-82.0","","null","<div style=""font-size:100px;"">+</div>","null","delaylearn","learning","ITI","5b64d7b82aee58000132e2b9","SwWFIKzQIpPq6BahuY0siQn03SA2","","","","","","","","","","","","","","","","","","","2295","",""
"html-keyboard-response","199","420854","0.0-83.0-0.0","","2372.2999999523163","<div style=""display: flex; flex-direction: column; align-items: center; margin-top: -40px;""><img src=""images/pattern_3.png"" style=""width: 234px; height: 230px; margin-top: -50px;""><div style=""display: flex; justify-content: space-between; margin-top: 33px;""><img src=""images/choice_trial_10.png"" style=""width: 408px; height: 417px; margin-right: 200px;""><img src=""images/choice_trial_13.png"" style=""width: 408px; height: 417px;""></div></div>","j","delaylearn","learning","trial","5b64d7b82aee58000132e2b9","SwWFIKzQIpPq6BahuY0siQn03SA2","3","images/choice_trial_10.png","images/choice_trial_13.png","images/pattern_3.png","j","j","7000","10","13","2","1","36","1","1","13","170","","","","",""
"html-keyboard-response","200","421865","0.0-83.0-1.0","","null","<div style=""display: flex; flex-direction: column; align-items: center; margin-top: -40px;""><img src=""images/pattern_3.png"" style=""width: 234px; height: 230px; margin-top: -50px;""><div style=""display: flex; justify-content: space-between; margin-top: 33px;""><img src=""images/choice_trial_13.png"" style=""width: 408px; height: 417px; margin-left:608px;""></div></div>","null","delaylearn","learning","display_response","5b64d7b82aee58000132e2b9","SwWFIKzQIpPq6BahuY0siQn03SA2","","","","","","","","","","","","","","","","","chosen stimuli: images/choice_trial_13.png","","","",""
"html-keyboard-response","201","428874","0.0-83.0-2.0","","null","","null","delaylearn","learning","feedback_duration_window","5b64d7b82aee58000132e2b9","SwWFIKzQIpPq6BahuY0siQn03SA2","","","","","","","","","","","","","","","","","","7000","","",""
"html-keyboard-response","202","430381","0.0-83.0-3.0","","null","<div style='margin:auto;width: auto; font-size: 150%'><span style='font-weight: bold; font-size: 100px; color: green;'>+10 points!</span><br><br></div>","null","delaylearn","learning","feedback_image_window","5b64d7b82aee58000132e2b9","SwWFIKzQIpPq6BahuY0siQn03SA2","","","","","","","","","","","","","","","","","","","","",""
"html-keyboard-response","203","432161","0.0-84.0","","null","<div style=""font-size:100px;"">+</div>","null","delaylearn","learning","ITI","5b64d7b82aee58000132e2b9","SwWFIKzQIpPq6BahuY0siQn03SA2","","","","","","","","","","","","","","","","","","","1778","",""
"html-keyboard-response","204","433558","0.0-85.0-0.0","","1394.800000011921","<div style=""display: flex; flex-direction: column; align-items: center; margin-top: -40px;""><img src=""images/pattern_4.png"" style=""width: 234px; height: 230px; margin-top: -50px;""><div style=""display: flex; justify-content: space-between; margin-top: 33px;""><img src=""images/choice_trial_9.png"" style=""width: 408px; height: 417px; margin-right: 200px;""><img src=""images/choice_trial_15.png"" style=""width: 408px; height: 417px;""></div></div>","f","delaylearn","learning","trial","5b64d7b82aee58000132e2b9","SwWFIKzQIpPq6BahuY0siQn03SA2","3","images/choice_trial_9.png","images/choice_trial_15.png","images/pattern_4.png","f","j","7000","9","15","3","1","37","0","1","9","180","","","","",""
"html-keyboard-response","205","434571","0.0-85.0-1.0","","null","<div style=""display: flex; flex-direction: column; align-items: center; margin-top: -40px;""><img src=""images/pattern_4.png"" style=""width: 234px; height: 230px; margin-top: -50px;""><div style=""display: flex; justify-content: space-between; margin-top: 33px;""><img src=""images/choice_trial_9.png"" style=""width: 408px; height: 417px; margin-right: 608px;""></div></div>","null","delaylearn","learning","display_response","5b64d7b82aee58000132e2b9","SwWFIKzQIpPq6BahuY0siQn03SA2","","","","","","","","","","","","","","","","","chosen stimuli: images/choice_trial_9.png","","","",""
"html-keyboard-response","206","441574","0.0-85.0-2.0","","null","","null","delaylearn","learning","feedback_duration_window","5b64d7b82aee58000132e2b9","SwWFIKzQIpPq6BahuY0siQn03SA2","","","","","","","","","","","","","","","","","","7000","","",""
"html-keyboard-response","207","443089","0.0-85.0-3.0","","null","<div style='margin:auto;width: auto; font-size: 150%'><span style='font-weight: bold; font-size: 100px; color: green;'>+10 points!</span><br><br></div>","null","delaylearn","learning","feedback_image_window","5b64d7b82aee58000132e2b9","SwWFIKzQIpPq6BahuY0siQn03SA2","","","","","","","","","","","","","","","","","","","","",""
"html-keyboard-response","208","444703","0.0-86.0","","null","<div style=""font-size:100px;"">+</div>","null","delaylearn","learning","ITI","5b64d7b82aee58000132e2b9","SwWFIKzQIpPq6BahuY0siQn03SA2","","","","","","","","","","","","","","","","","","","1608","",""
"html-keyboard-response","209","447699","0.0-87.0-0.0","","2991.7000000476837","<div style=""display: flex; flex-direction: column; align-items: center; margin-top: -40px;""><img src=""images/pattern_7.png"" style=""width: 234px; height: 230px; margin-top: -50px;""><div style=""display: flex; justify-content: space-between; margin-top: 33px;""><img src=""images/choice_trial_6.png"" style=""width: 408px; height: 417px; margin-right: 200px;""><img src=""images/choice_trial_12.png"" style=""width: 408px; height: 417px;""></div></div>","f","delaylearn","learning","trial","5b64d7b82aee58000132e2b9","SwWFIKzQIpPq6BahuY0siQn03SA2","3","images/choice_trial_6.png","images/choice_trial_12.png","images/pattern_7.png","f","f","750","6","12","6","0","38","1","1","6","190","","","","",""
"html-keyboard-response","210","448718","0.0-87.0-1.0","","null","<div style=""display: flex; flex-direction: column; align-items: center; margin-top: -40px;""><img src=""images/pattern_7.png"" style=""width: 234px; height: 230px; margin-top: -50px;""><div style=""display: flex; justify-content: space-between; margin-top: 33px;""><img src=""images/choice_trial_6.png"" style=""width: 408px; height: 417px; margin-right: 608px;""></div></div>","null","delaylearn","learning","display_response","5b64d7b82aee58000132e2b9","SwWFIKzQIpPq6BahuY0siQn03SA2","","","","","","","","","","","","","","","","","chosen stimuli: images/choice_trial_6.png","","","",""
"html-keyboard-response","211","449473","0.0-87.0-2.0","","null","","null","delaylearn","learning","feedback_duration_window","5b64d7b82aee58000132e2b9","SwWFIKzQIpPq6BahuY0siQn03SA2","","","","","","","","","","","","","","","","","","750","","",""
"html-keyboard-response","212","450974","0.0-87.0-3.0","","null","<div style='margin:auto;width: auto; font-size: 150%'><span style='font-weight: bold; font-size: 100px; color: green;'>+10 points!</span><br><br></div>","null","delaylearn","learning","feedback_image_window","5b64d7b82aee58000132e2b9","SwWFIKzQIpPq6BahuY0siQn03SA2","","","","","","","","","","","","","","","","","","","","",""
"html-keyboard-response","213","452617","0.0-88.0","","null","<div style=""font-size:100px;"">+</div>","null","delaylearn","learning","ITI","5b64d7b82aee58000132e2b9","SwWFIKzQIpPq6BahuY0siQn03SA2","","","","","","","","","","","","","","","","","","","1635","",""
"html-keyboard-response","214","455155","0.0-89.0-0.0","","2535.2000000476837","<div style=""display: flex; flex-direction: column; align-items: center; margin-top: -40px;""><img src=""images/pattern_1.png"" style=""width: 234px; height: 230px; margin-top: -50px;""><div style=""display: flex; justify-content: space-between; margin-top: 33px;""><img src=""images/choice_trial_14.png"" style=""width: 408px; height: 417px; margin-right: 200px;""><img src=""images/choice_trial_8.png"" style=""width: 408px; height: 417px;""></div></div>","f","delaylearn","learning","trial","5b64d7b82aee58000132e2b9","SwWFIKzQIpPq6BahuY0siQn03SA2","3","images/choice_trial_14.png","images/choice_trial_8.png","images/pattern_1.png","f","f","7000","14","8","1","0","39","1","1","14","200","","","","",""
"html-keyboard-response","215","456165","0.0-89.0-1.0","","null","<div style=""display: flex; flex-direction: column; align-items: center; margin-top: -40px;""><img src=""images/pattern_1.png"" style=""width: 234px; height: 230px; margin-top: -50px;""><div style=""display: flex; justify-content: space-between; margin-top: 33px;""><img src=""images/choice_trial_14.png"" style=""width: 408px; height: 417px; margin-right: 608px;""></div></div>","null","delaylearn","learning","display_response","5b64d7b82aee58000132e2b9","SwWFIKzQIpPq6BahuY0siQn03SA2","","","","","","","","","","","","","","","","","chosen stimuli: images/choice_trial_14.png","","","",""
"html-keyboard-response","216","463169","0.0-89.0-2.0","","null","","null","delaylearn","learning","feedback_duration_window","5b64d7b82aee58000132e2b9","SwWFIKzQIpPq6BahuY0siQn03SA2","","","","","","","","","","","","","","","","","","7000","","",""
"html-keyboard-response","217","464670","0.0-89.0-3.0","","null","<div style='margin:auto;width: auto; font-size: 150%'><span style='font-weight: bold; font-size: 100px; color: green;'>+10 points!</span><br><br></div>","null","delaylearn","learning","feedback_image_window","5b64d7b82aee58000132e2b9","SwWFIKzQIpPq6BahuY0siQn03SA2","","","","","","","","","","","","","","","","","","","","",""
"html-keyboard-response","218","465173","0.0-90.0-0.0","","null","","null","","","mood_trial_fixation","","","","","","","","","","","","","","","","","","","","","","",""
"lmdlab-html-vas-response","219","468455","0.0-90.0-1.0","","2268","How happy are you right now?","0.5173851876254052","delaylearn","learning","mood_trial","5b64d7b82aee58000132e2b9","SwWFIKzQIpPq6BahuY0siQn03SA2","","","","","","","","","","","","","","","","","","","","[""Very unhappy"",""Very happy""]",""
"html-keyboard-response","220","470703","0.0-91.0","","null","<div style=""font-size:100px;"">+</div>","null","delaylearn","learning","ITI","5b64d7b82aee58000132e2b9","SwWFIKzQIpPq6BahuY0siQn03SA2","","","","","","","","","","","","","","","","","","","2232","",""
