"trial_type","trial_index","time_elapsed","internal_node_id","participant","rt","stimulus","response","exp_name","exp_stage","test_part","subjectID","databaseID","counterbal","choice_stimuli_1","choice_stimuli_2","pattern_stimuli","rewarded_answer","correct_answer","feedback_duration_times","stim_left","stim_right","pair","leftright_counter","trial","response_correct","response_rewarded","chosen_stim","counter","displayed_choice","feedback_durations","ITI_duration","labels","rest_warning"
"pavlovia","0","626","0.0-0.0","","","","","","","","","","","","","","","","","","","","","","","","","","","","","",""
"html-keyboard-response","1","3629","0.0-1.0","","null","<div style=""font-size:100px;"">+</div>","null","delaylearn","learning","pre_fixation","5f356cbffb4cea5170d04fd9","","","","","","","","","","","","","","","","","","","","","",""
"html-keyboard-response","2","4540","0.0-2.0-0.0","","908.9000000022352","<div style=""display: flex; flex-direction: column; align-items: center; margin-top: -40px;""><img src=""images/demo_images/pattern_1.png"" style=""width: 234px; height: 230px; margin-top: -50px;""><div style=""display: flex; justify-content: space-between; margin-top: 33px;""><img src=""images/demo_images/choice_trial_2.png"" style=""width: 408px; height: 417px; margin-right: 200px;""><img src=""images/demo_images/choice_trial_1.png"" style=""width: 408px; height: 417px;""></div></div>","f","delaylearn","learning","trial","5f356cbffb4cea5170d04fd9","WtyS2yL29TewiXVir2Opb3UxGam1","3","images/demo_images/choice_trial_2.png","images/demo_images/choice_trial_1.png","images/demo_images/pattern_1.png","j","j","3000","2","1","20","1","1","0","0","2","0","","","","",""
"html-keyboard-response","3","5543","0.0-2.0-1.0","","null","<div style=""display: flex; flex-direction: column; align-items: center; margin-top: -40px;""><img src=""images/demo_images/pattern_1.png"" style=""width: 234px; height: 230px; margin-top: -50px;""><div style=""display: flex; justify-content: space-between; margin-top: 33px;""><img src=""images/demo_images/choice_trial_2.png"" style=""width: 408px; height: 417px; margin-right: 608px;""></div></div>","null","delaylearn","learning","display_response","5f356cbffb4cea5170d04fd9","WtyS2yL29TewiXVir2Opb3UxGam1","","","","","","","","","","","","","","","","","chosen stimuli: images/demo_images/choice_trial_2.png","","","",""
"html-keyboard-response","4","8546","0.0-2.0-2.0","","null","","null","delaylearn","learning","feedback_duration_window","5f356cbffb4cea5170d04fd9","WtyS2yL29TewiXVir2Opb3UxGam1","","","","","","","","","","","","","","","","","","3000","","",""
"html-keyboard-response","5","10050","0.0-2.0-3.0","","null","<div style='margin:auto;width: auto; font-size: 150%'><span style='font-weight: bold; font-size: 100px; color: red;'>0 points!</span><br><br></div>","null","delaylearn","learning","feedback_image_window","5f356cbffb4cea5170d04fd9","WtyS2yL29TewiXVir2Opb3UxGam1","","","","","","","","","","","","","","","","","","","","",""
"html-keyboard-response","6","12132","0.0-3.0","","null","<div style=""font-size:100px;"">+</div>","null","delaylearn","learning","ITI","5f356cbffb4cea5170d04fd9","WtyS2yL29TewiXVir2Opb3UxGam1","","","","","","","","","","","","","","","","","","","2080","",""
"html-keyboard-response","7","13736","0.0-4.0-0.0","","1600.7000000029802","<div style=""display: flex; flex-direction: column; align-items: center; margin-top: -40px;""><img src=""images/demo_images/pattern_1.png"" style=""width: 234px; height: 230px; margin-top: -50px;""><div style=""display: flex; justify-content: space-between; margin-top: 33px;""><img src=""images/demo_images/choice_trial_2.png"" style=""width: 408px; height: 417px; margin-right: 200px;""><img src=""images/demo_images/choice_trial_1.png"" style=""width: 408px; height: 417px;""></div></div>","j","delaylearn","learning","trial","5f356cbffb4cea5170d04fd9","WtyS2yL29TewiXVir2Opb3UxGam1","3","images/demo_images/choice_trial_2.png","images/demo_images/choice_trial_1.png","images/demo_images/pattern_1.png","j","j","3000","2","1","20","1","2","1","1","1","10","","","","",""
"html-keyboard-response","8","14739","0.0-4.0-1.0","","null","<div style=""display: flex; flex-direction: column; align-items: center; margin-top: -40px;""><img src=""images/demo_images/pattern_1.png"" style=""width: 234px; height: 230px; margin-top: -50px;""><div style=""display: flex; justify-content: space-between; margin-top: 33px;""><img src=""images/demo_images/choice_trial_1.png"" style=""width: 408px; height: 417px; margin-left:608px;""></div></div>","null","delaylearn","learning","display_response","5f356cbffb4cea5170d04fd9","WtyS2yL29TewiXVir2Opb3UxGam1","","","","","","","","","","","","","","","","","chosen stimuli: images/demo_images/choice_trial_1.png","","","",""
"html-keyboard-response","9","17742","0.0-4.0-2.0","","null","","null","delaylearn","learning","feedback_duration_window","5f356cbffb4cea5170d04fd9","WtyS2yL29TewiXVir2Opb3UxGam1","","","","","","","","","","","","","","","","","","3000","","",""
"html-keyboard-response","10","19243","0.0-4.0-3.0","","null","<div style='margin:auto;width: auto; font-size: 150%'><span style='font-weight: bold; font-size: 100px; color: green;'>+10 points!</span><br><br></div>","null","delaylearn","learning","feedback_image_window","5f356cbffb4cea5170d04fd9","WtyS2yL29TewiXVir2Opb3UxGam1","","","","","","","","","","","","","","","","","","","","",""
"html-keyboard-response","11","21198","0.0-5.0","","null","<div style=""font-size:100px;"">+</div>","null","delaylearn","learning","ITI","5f356cbffb4cea5170d04fd9","WtyS2yL29TewiXVir2Opb3UxGam1","","","","","","","","","","","","","","","","","","","1952","",""
"html-keyboard-response","12","21919","0.0-6.0-0.0","","719.9000000022352","<div style=""display: flex; flex-direction: column; align-items: center; margin-top: -40px;""><img src=""images/demo_images/pattern_1.png"" style=""width: 234px; height: 230px; margin-top: -50px;""><div style=""display: flex; justify-content: space-between; margin-top: 33px;""><img src=""images/demo_images/choice_trial_1.png"" style=""width: 408px; height: 417px; margin-right: 200px;""><img src=""images/demo_images/choice_trial_2.png"" style=""width: 408px; height: 417px;""></div></div>","f","delaylearn","learning","trial","5f356cbffb4cea5170d04fd9","WtyS2yL29TewiXVir2Opb3UxGam1","3","images/demo_images/choice_trial_1.png","images/demo_images/choice_trial_2.png","images/demo_images/pattern_1.png","j","f","3000","1","2","20","0","3","1","0","1","10","","","","",""
"html-keyboard-response","13","22922","0.0-6.0-1.0","","null","<div style=""display: flex; flex-direction: column; align-items: center; margin-top: -40px;""><img src=""images/demo_images/pattern_1.png"" style=""width: 234px; height: 230px; margin-top: -50px;""><div style=""display: flex; justify-content: space-between; margin-top: 33px;""><img src=""images/demo_images/choice_trial_1.png"" style=""width: 408px; height: 417px; margin-right: 608px;""></div></div>","null","delaylearn","learning","display_response","5f356cbffb4cea5170d04fd9","WtyS2yL29TewiXVir2Opb3UxGam1","","","","","","","","","","","","","","","","","chosen stimuli: images/demo_images/choice_trial_1.png","","","",""
"html-keyboard-response","14","25924","0.0-6.0-2.0","","null","","null","delaylearn","learning","feedback_duration_window","5f356cbffb4cea5170d04fd9","WtyS2yL29TewiXVir2Opb3UxGam1","","","","","","","","","","","","","","","","","","3000","","",""
"html-keyboard-response","15","27426","0.0-6.0-3.0","","null","<div style='margin:auto;width: auto; font-size: 150%'><span style='font-weight: bold; font-size: 100px; color: red;'>0 points!</span><br><br></div>","null","delaylearn","learning","feedback_image_window","5f356cbffb4cea5170d04fd9","WtyS2yL29TewiXVir2Opb3UxGam1","","","","","","","","","","","","","","","","","","","","",""
"html-keyboard-response","16","29360","0.0-7.0","","null","<div style=""font-size:100px;"">+</div>","null","delaylearn","learning","ITI","5f356cbffb4cea5170d04fd9","WtyS2yL29TewiXVir2Opb3UxGam1","","","","","","","","","","","","","","","","","","","1931","",""
"html-keyboard-response","17","30500","0.0-8.0-0.0","","1136.800000000745","<div style=""display: flex; flex-direction: column; align-items: center; margin-top: -40px;""><img src=""images/demo_images/pattern_1.png"" style=""width: 234px; height: 230px; margin-top: -50px;""><div style=""display: flex; justify-content: space-between; margin-top: 33px;""><img src=""images/demo_images/choice_trial_1.png"" style=""width: 408px; height: 417px; margin-right: 200px;""><img src=""images/demo_images/choice_trial_2.png"" style=""width: 408px; height: 417px;""></div></div>","f","delaylearn","learning","trial","5f356cbffb4cea5170d04fd9","WtyS2yL29TewiXVir2Opb3UxGam1","3","images/demo_images/choice_trial_1.png","images/demo_images/choice_trial_2.png","images/demo_images/pattern_1.png","f","f","3000","1","2","20","0","4","1","1","1","20","","","","",""
"html-keyboard-response","18","31503","0.0-8.0-1.0","","null","<div style=""display: flex; flex-direction: column; align-items: center; margin-top: -40px;""><img src=""images/demo_images/pattern_1.png"" style=""width: 234px; height: 230px; margin-top: -50px;""><div style=""display: flex; justify-content: space-between; margin-top: 33px;""><img src=""images/demo_images/choice_trial_1.png"" style=""width: 408px; height: 417px; margin-right: 608px;""></div></div>","null","delaylearn","learning","display_response","5f356cbffb4cea5170d04fd9","WtyS2yL29TewiXVir2Opb3UxGam1","","","","","","","","","","","","","","","","","chosen stimuli: images/demo_images/choice_trial_1.png","","","",""
"html-keyboard-response","19","34506","0.0-8.0-2.0","","null","","null","delaylearn","learning","feedback_duration_window","5f356cbffb4cea5170d04fd9","WtyS2yL29TewiXVir2Opb3UxGam1","","","","","","","","","","","","","","","","","","3000","","",""
"html-keyboard-response","20","36009","0.0-8.0-3.0","","null","<div style='margin:auto;width: auto; font-size: 150%'><span style='font-weight: bold; font-size: 100px; color: green;'>+10 points!</span><br><br></div>","null","delaylearn","learning","feedback_image_window","5f356cbffb4cea5170d04fd9","WtyS2yL29TewiXVir2Opb3UxGam1","","","","","","","","","","","","","","","","","","","","",""
"html-keyboard-response","21","36511","0.0-9.0-0.0","","null","","null","","","mood_trial_fixation","","","","","","","","","","","","","","","","","","","","","","",""
"lmdlab-html-vas-response","22","41281","0.0-9.0-1.0","","3760","How happy are you right now?","0.6875","delaylearn","learning","mood_trial","5f356cbffb4cea5170d04fd9","WtyS2yL29TewiXVir2Opb3UxGam1","","","","","","","","","","","","","","","","","","","","[""Very unhappy"",""Very happy""]",""
"html-keyboard-response","23","43482","0.0-10.0","","null","<div style=""font-size:100px;"">+</div>","null","delaylearn","learning","ITI","5f356cbffb4cea5170d04fd9","WtyS2yL29TewiXVir2Opb3UxGam1","","","","","","","","","","","","","","","","","","","2198","",""
"html-keyboard-response","24","44743","0.0-11.0-0.0","","1259.0999999977648","<div style=""display: flex; flex-direction: column; align-items: center; margin-top: -40px;""><img src=""images/demo_images/pattern_1.png"" style=""width: 234px; height: 230px; margin-top: -50px;""><div style=""display: flex; justify-content: space-between; margin-top: 33px;""><img src=""images/demo_images/choice_trial_2.png"" style=""width: 408px; height: 417px; margin-right: 200px;""><img src=""images/demo_images/choice_trial_1.png"" style=""width: 408px; height: 417px;""></div></div>","j","delaylearn","learning","trial","5f356cbffb4cea5170d04fd9","WtyS2yL29TewiXVir2Opb3UxGam1","3","images/demo_images/choice_trial_2.png","images/demo_images/choice_trial_1.png","images/demo_images/pattern_1.png","j","j","3000","2","1","20","1","5","1","1","1","30","","","","",""
"html-keyboard-response","25","45746","0.0-11.0-1.0","","null","<div style=""display: flex; flex-direction: column; align-items: center; margin-top: -40px;""><img src=""images/demo_images/pattern_1.png"" style=""width: 234px; height: 230px; margin-top: -50px;""><div style=""display: flex; justify-content: space-between; margin-top: 33px;""><img src=""images/demo_images/choice_trial_1.png"" style=""width: 408px; height: 417px; margin-left:608px;""></div></div>","null","delaylearn","learning","display_response","5f356cbffb4cea5170d04fd9","WtyS2yL29TewiXVir2Opb3UxGam1","","","","","","","","","","","","","","","","","chosen stimuli: images/demo_images/choice_trial_1.png","","","",""
"html-keyboard-response","26","48749","0.0-11.0-2.0","","null","","null","delaylearn","learning","feedback_duration_window","5f356cbffb4cea5170d04fd9","WtyS2yL29TewiXVir2Opb3UxGam1","","","","","","","","","","","","","","","","","","3000","","",""
"html-keyboard-response","27","50252","0.0-11.0-3.0","","null","<div style='margin:auto;width: auto; font-size: 150%'><span style='font-weight: bold; font-size: 100px; color: green;'>+10 points!</span><br><br></div>","null","delaylearn","learning","feedback_image_window","5f356cbffb4cea5170d04fd9","WtyS2yL29TewiXVir2Opb3UxGam1","","","","","","","","","","","","","","","","","","","","",""
"html-keyboard-response","28","52337","0.0-12.0","","null","<div style=""font-size:100px;"">+</div>","null","delaylearn","learning","ITI","5f356cbffb4cea5170d04fd9","WtyS2yL29TewiXVir2Opb3UxGam1","","","","","","","","","","","","","","","","","","","2082","",""
"html-keyboard-response","29","53623","0.0-13.0-0.0","","1284","<div style=""display: flex; flex-direction: column; align-items: center; margin-top: -40px;""><img src=""images/demo_images/pattern_1.png"" style=""width: 234px; height: 230px; margin-top: -50px;""><div style=""display: flex; justify-content: space-between; margin-top: 33px;""><img src=""images/demo_images/choice_trial_1.png"" style=""width: 408px; height: 417px; margin-right: 200px;""><img src=""images/demo_images/choice_trial_2.png"" style=""width: 408px; height: 417px;""></div></div>","f","delaylearn","learning","trial","5f356cbffb4cea5170d04fd9","WtyS2yL29TewiXVir2Opb3UxGam1","3","images/demo_images/choice_trial_1.png","images/demo_images/choice_trial_2.png","images/demo_images/pattern_1.png","f","f","3000","1","2","20","0","6","1","1","1","40","","","","",""
"html-keyboard-response","30","54626","0.0-13.0-1.0","","null","<div style=""display: flex; flex-direction: column; align-items: center; margin-top: -40px;""><img src=""images/demo_images/pattern_1.png"" style=""width: 234px; height: 230px; margin-top: -50px;""><div style=""display: flex; justify-content: space-between; margin-top: 33px;""><img src=""images/demo_images/choice_trial_1.png"" style=""width: 408px; height: 417px; margin-right: 608px;""></div></div>","null","delaylearn","learning","display_response","5f356cbffb4cea5170d04fd9","WtyS2yL29TewiXVir2Opb3UxGam1","","","","","","","","","","","","","","","","","chosen stimuli: images/demo_images/choice_trial_1.png","","","",""
"html-keyboard-response","31","57628","0.0-13.0-2.0","","null","","null","delaylearn","learning","feedback_duration_window","5f356cbffb4cea5170d04fd9","WtyS2yL29TewiXVir2Opb3UxGam1","","","","","","","","","","","","","","","","","","3000","","",""
"html-keyboard-response","32","59131","0.0-13.0-3.0","","null","<div style='margin:auto;width: auto; font-size: 150%'><span style='font-weight: bold; font-size: 100px; color: green;'>+10 points!</span><br><br></div>","null","delaylearn","learning","feedback_image_window","5f356cbffb4cea5170d04fd9","WtyS2yL29TewiXVir2Opb3UxGam1","","","","","","","","","","","","","","","","","","","","",""
"html-keyboard-response","33","60699","0.0-14.0","","null","<div style=""font-size:100px;"">+</div>","null","delaylearn","learning","ITI","5f356cbffb4cea5170d04fd9","WtyS2yL29TewiXVir2Opb3UxGam1","","","","","","","","","","","","","","","","","","","1566","",""
"html-keyboard-response","34","61715","0.0-15.0-0.0","","1014","<div style=""display: flex; flex-direction: column; align-items: center; margin-top: -40px;""><img src=""images/demo_images/pattern_1.png"" style=""width: 234px; height: 230px; margin-top: -50px;""><div style=""display: flex; justify-content: space-between; margin-top: 33px;""><img src=""images/demo_images/choice_trial_2.png"" style=""width: 408px; height: 417px; margin-right: 200px;""><img src=""images/demo_images/choice_trial_1.png"" style=""width: 408px; height: 417px;""></div></div>","j","delaylearn","learning","trial","5f356cbffb4cea5170d04fd9","WtyS2yL29TewiXVir2Opb3UxGam1","3","images/demo_images/choice_trial_2.png","images/demo_images/choice_trial_1.png","images/demo_images/pattern_1.png","j","j","3000","2","1","20","1","7","1","1","1","50","","","","",""
"html-keyboard-response","35","62718","0.0-15.0-1.0","","null","<div style=""display: flex; flex-direction: column; align-items: center; margin-top: -40px;""><img src=""images/demo_images/pattern_1.png"" style=""width: 234px; height: 230px; margin-top: -50px;""><div style=""display: flex; justify-content: space-between; margin-top: 33px;""><img src=""images/demo_images/choice_trial_1.png"" style=""width: 408px; height: 417px; margin-left:608px;""></div></div>","null","delaylearn","learning","display_response","5f356cbffb4cea5170d04fd9","WtyS2yL29TewiXVir2Opb3UxGam1","","","","","","","","","","","","","","","","","chosen stimuli: images/demo_images/choice_trial_1.png","","","",""
"html-keyboard-response","36","65720","0.0-15.0-2.0","","null","","null","delaylearn","learning","feedback_duration_window","5f356cbffb4cea5170d04fd9","WtyS2yL29TewiXVir2Opb3UxGam1","","","","","","","","","","","","","","","","","","3000","","",""
"html-keyboard-response","37","67223","0.0-15.0-3.0","","null","<div style='margin:auto;width: auto; font-size: 150%'><span style='font-weight: bold; font-size: 100px; color: green;'>+10 points!</span><br><br></div>","null","delaylearn","learning","feedback_image_window","5f356cbffb4cea5170d04fd9","WtyS2yL29TewiXVir2Opb3UxGam1","","","","","","","","","","","","","","","","","","","","",""
"html-keyboard-response","38","68970","0.0-16.0","","null","<div style=""font-size:100px;"">+</div>","null","delaylearn","learning","ITI","5f356cbffb4cea5170d04fd9","WtyS2yL29TewiXVir2Opb3UxGam1","","","","","","","","","","","","","","","","","","","1745","",""
"html-keyboard-response","39","70421","0.0-17.0-0.0","","1448.800000000745","<div style=""display: flex; flex-direction: column; align-items: center; margin-top: -40px;""><img src=""images/demo_images/pattern_1.png"" style=""width: 234px; height: 230px; margin-top: -50px;""><div style=""display: flex; justify-content: space-between; margin-top: 33px;""><img src=""images/demo_images/choice_trial_1.png"" style=""width: 408px; height: 417px; margin-right: 200px;""><img src=""images/demo_images/choice_trial_2.png"" style=""width: 408px; height: 417px;""></div></div>","f","delaylearn","learning","trial","5f356cbffb4cea5170d04fd9","WtyS2yL29TewiXVir2Opb3UxGam1","3","images/demo_images/choice_trial_1.png","images/demo_images/choice_trial_2.png","images/demo_images/pattern_1.png","f","f","3000","1","2","20","0","8","1","1","1","60","","","","",""
"html-keyboard-response","40","71423","0.0-17.0-1.0","","null","<div style=""display: flex; flex-direction: column; align-items: center; margin-top: -40px;""><img src=""images/demo_images/pattern_1.png"" style=""width: 234px; height: 230px; margin-top: -50px;""><div style=""display: flex; justify-content: space-between; margin-top: 33px;""><img src=""images/demo_images/choice_trial_1.png"" style=""width: 408px; height: 417px; margin-right: 608px;""></div></div>","null","delaylearn","learning","display_response","5f356cbffb4cea5170d04fd9","WtyS2yL29TewiXVir2Opb3UxGam1","","","","","","","","","","","","","","","","","chosen stimuli: images/demo_images/choice_trial_1.png","","","",""
"html-keyboard-response","41","74424","0.0-17.0-2.0","","null","","null","delaylearn","learning","feedback_duration_window","5f356cbffb4cea5170d04fd9","WtyS2yL29TewiXVir2Opb3UxGam1","","","","","","","","","","","","","","","","","","3000","","",""
"html-keyboard-response","42","75927","0.0-17.0-3.0","","null","<div style='margin:auto;width: auto; font-size: 150%'><span style='font-weight: bold; font-size: 100px; color: green;'>+10 points!</span><br><br></div>","null","delaylearn","learning","feedback_image_window","5f356cbffb4cea5170d04fd9","WtyS2yL29TewiXVir2Opb3UxGam1","","","","","","","","","","","","","","","","","","","","",""
"html-button-response","43","78425","0.0-18.0","","2496.5","
  <div style=""display: flex; align-items: center; justify-content: center; height: 80vh;"">
  <div>
          <img src=""images/inst_demo_finish.png"" style=""width: 80vw; height:auto;"">
          <br><br>
      </div>
      <br><br>
  </div>","0","","","","","","","","","","","","","","","","","","","","","","","","","",""
"html-keyboard-response","44","131648","0.0-19.0","","53227.900000002235","
  <div style=""display: flex; align-items: center; justify-content: center; height: 80vh;"">
  <div>
          <img src=""images/inst_6.png"" style=""width: 80vw; height:auto;"">
          <br><br>
      </div>
      <br><br>
  </div>","f","","","","","","","","","","","","","","","","","","","","","","","","","",""
"html-keyboard-response","45","134651","0.0-20.0","","null","<div style=""font-size:100px;"">+</div>","null","delaylearn","learning","pre_fixation","5f356cbffb4cea5170d04fd9","","","","","","","","","","","","","","","","","","","","","",""
"html-keyboard-response","46","136335","0.0-21.0","","null","<div style=""font-size:100px;"">+</div>","null","delaylearn","learning","ITI","5f356cbffb4cea5170d04fd9","WtyS2yL29TewiXVir2Opb3UxGam1","","","","","","","","","","","","","","","","","","","1681","",""
"html-keyboard-response","47","137885","0.0-22.0-0.0","","1547.6000000014901","<div style=""display: flex; flex-direction: column; align-items: center; margin-top: -40px;""><img src=""images/pattern_3.png"" style=""width: 234px; height: 230px; margin-top: -50px;""><div style=""display: flex; justify-content: space-between; margin-top: 33px;""><img src=""images/choice_trial_13.png"" style=""width: 408px; height: 417px; margin-right: 200px;""><img src=""images/choice_trial_10.png"" style=""width: 408px; height: 417px;""></div></div>","j","delaylearn","learning","trial","5f356cbffb4cea5170d04fd9","WtyS2yL29TewiXVir2Opb3UxGam1","3","images/choice_trial_13.png","images/choice_trial_10.png","images/pattern_3.png","f","f","7000","13","10","2","0","9","0","0","10","60","","","","",""
"html-keyboard-response","48","138888","0.0-22.0-1.0","","null","<div style=""display: flex; flex-direction: column; align-items: center; margin-top: -40px;""><img src=""images/pattern_3.png"" style=""width: 234px; height: 230px; margin-top: -50px;""><div style=""display: flex; justify-content: space-between; margin-top: 33px;""><img src=""images/choice_trial_10.png"" style=""width: 408px; height: 417px; margin-left:608px;""></div></div>","null","delaylearn","learning","display_response","5f356cbffb4cea5170d04fd9","WtyS2yL29TewiXVir2Opb3UxGam1","","","","","","","","","","","","","","","","","chosen stimuli: images/choice_trial_10.png","","","",""
"html-keyboard-response","49","145890","0.0-22.0-2.0","","null","","null","delaylearn","learning","feedback_duration_window","5f356cbffb4cea5170d04fd9","WtyS2yL29TewiXVir2Opb3UxGam1","","","","","","","","","","","","","","","","","","7000","","",""
"html-keyboard-response","50","147393","0.0-22.0-3.0","","null","<div style='margin:auto;width: auto; font-size: 150%'><span style='font-weight: bold; font-size: 100px; color: red;'>0 points!</span><br><br></div>","null","delaylearn","learning","feedback_image_window","5f356cbffb4cea5170d04fd9","WtyS2yL29TewiXVir2Opb3UxGam1","","","","","","","","","","","","","","","","","","","","",""
"html-keyboard-response","51","149068","0.0-23.0","","null","<div style=""font-size:100px;"">+</div>","null","delaylearn","learning","ITI","5f356cbffb4cea5170d04fd9","WtyS2yL29TewiXVir2Opb3UxGam1","","","","","","","","","","","","","","","","","","","1672","",""
"html-keyboard-response","52","151077","0.0-24.0-0.0","","2006.800000000745","<div style=""display: flex; flex-direction: column; align-items: center; margin-top: -40px;""><img src=""images/pattern_7.png"" style=""width: 234px; height: 230px; margin-top: -50px;""><div style=""display: flex; justify-content: space-between; margin-top: 33px;""><img src=""images/choice_trial_12.png"" style=""width: 408px; height: 417px; margin-right: 200px;""><img src=""images/choice_trial_6.png"" style=""width: 408px; height: 417px;""></div></div>","j","delaylearn","learning","trial","5f356cbffb4cea5170d04fd9","WtyS2yL29TewiXVir2Opb3UxGam1","3","images/choice_trial_12.png","images/choice_trial_6.png","images/pattern_7.png","j","j","750","12","6","6","1","10","1","1","6","70","","","","",""
"html-keyboard-response","53","152080","0.0-24.0-1.0","","null","<div style=""display: flex; flex-direction: column; align-items: center; margin-top: -40px;""><img src=""images/pattern_7.png"" style=""width: 234px; height: 230px; margin-top: -50px;""><div style=""display: flex; justify-content: space-between; margin-top: 33px;""><img src=""images/choice_trial_6.png"" style=""width: 408px; height: 417px; margin-left:608px;""></div></div>","null","delaylearn","learning","display_response","5f356cbffb4cea5170d04fd9","WtyS2yL29TewiXVir2Opb3UxGam1","","","","","","","","","","","","","","","","","chosen stimuli: images/choice_trial_6.png","","","",""
"html-keyboard-response","54","152833","0.0-24.0-2.0","","null","","null","delaylearn","learning","feedback_duration_window","5f356cbffb4cea5170d04fd9","WtyS2yL29TewiXVir2Opb3UxGam1","","","","","","","","","","","","","","","","","","750","","",""
"html-keyboard-response","55","154335","0.0-24.0-3.0","","null","<div style='margin:auto;width: auto; font-size: 150%'><span style='font-weight: bold; font-size: 100px; color: green;'>+10 points!</span><br><br></div>","null","delaylearn","learning","feedback_image_window","5f356cbffb4cea5170d04fd9","WtyS2yL29TewiXVir2Opb3UxGam1","","","","","","","","","","","","","","","","","","","","",""
"html-keyboard-response","56","156461","0.0-25.0","","null","<div style=""font-size:100px;"">+</div>","null","delaylearn","learning","ITI","5f356cbffb4cea5170d04fd9","WtyS2yL29TewiXVir2Opb3UxGam1","","","","","","","","","","","","","","","","","","","2123","",""
"html-keyboard-response","57","158759","0.0-26.0-0.0","","2295.5","<div style=""display: flex; flex-direction: column; align-items: center; margin-top: -40px;""><img src=""images/pattern_4.png"" style=""width: 234px; height: 230px; margin-top: -50px;""><div style=""display: flex; justify-content: space-between; margin-top: 33px;""><img src=""images/choice_trial_15.png"" style=""width: 408px; height: 417px; margin-right: 200px;""><img src=""images/choice_trial_9.png"" style=""width: 408px; height: 417px;""></div></div>","j","delaylearn","learning","trial","5f356cbffb4cea5170d04fd9","WtyS2yL29TewiXVir2Opb3UxGam1","3","images/choice_trial_15.png","images/choice_trial_9.png","images/pattern_4.png","f","f","7000","15","9","3","0","11","0","0","9","70","","","","",""
"html-keyboard-response","58","159763","0.0-26.0-1.0","","null","<div style=""display: flex; flex-direction: column; align-items: center; margin-top: -40px;""><img src=""images/pattern_4.png"" style=""width: 234px; height: 230px; margin-top: -50px;""><div style=""display: flex; justify-content: space-between; margin-top: 33px;""><img src=""images/choice_trial_9.png"" style=""width: 408px; height: 417px; margin-left:608px;""></div></div>","null","delaylearn","learning","display_response","5f356cbffb4cea5170d04fd9","WtyS2yL29TewiXVir2Opb3UxGam1","","","","","","","","","","","","","","","","","chosen stimuli: images/choice_trial_9.png","","","",""
"html-keyboard-response","59","166765","0.0-26.0-2.0","","null","","null","delaylearn","learning","feedback_duration_window","5f356cbffb4cea5170d04fd9","WtyS2yL29TewiXVir2Opb3UxGam1","","","","","","","","","","","","","","","","","","7000","","",""
"html-keyboard-response","60","168268","0.0-26.0-3.0","","null","<div style='margin:auto;width: auto; font-size: 150%'><span style='font-weight: bold; font-size: 100px; color: red;'>0 points!</span><br><br></div>","null","delaylearn","learning","feedback_image_window","5f356cbffb4cea5170d04fd9","WtyS2yL29TewiXVir2Opb3UxGam1","","","","","","","","","","","","","","","","","","","","",""
"html-keyboard-response","61","170100","0.0-27.0","","null","<div style=""font-size:100px;"">+</div>","null","delaylearn","learning","ITI","5f356cbffb4cea5170d04fd9","WtyS2yL29TewiXVir2Opb3UxGam1","","","","","","","","","","","","","","","","","","","1829","",""
"html-keyboard-response","62","171561","0.0-28.0-0.0","","1458.800000000745","<div style=""display: flex; flex-direction: column; align-items: center; margin-top: -40px;""><img src=""images/pattern_5.png"" style=""width: 234px; height: 230px; margin-top: -50px;""><div style=""display: flex; justify-content: space-between; margin-top: 33px;""><img src=""images/choice_trial_2.png"" style=""width: 408px; height: 417px; margin-right: 200px;""><img src=""images/choice_trial_11.png"" style=""width: 408px; height: 417px;""></div></div>","j","delaylearn","learning","trial","5f356cbffb4cea5170d04fd9","WtyS2yL29TewiXVir2Opb3UxGam1","3","images/choice_trial_2.png","images/choice_trial_11.png","images/pattern_5.png","j","j","750","2","11","4","1","12","1","1","11","80","","","","",""
"html-keyboard-response","63","172564","0.0-28.0-1.0","","null","<div style=""display: flex; flex-direction: column; align-items: center; margin-top: -40px;""><img src=""images/pattern_5.png"" style=""width: 234px; height: 230px; margin-top: -50px;""><div style=""display: flex; justify-content: space-between; margin-top: 33px;""><img src=""images/choice_trial_11.png"" style=""width: 408px; height: 417px; margin-left:608px;""></div></div>","null","delaylearn","learning","display_response","5f356cbffb4cea5170d04fd9","WtyS2yL29TewiXVir2Opb3UxGam1","","","","","","","","","","","","","","","","","chosen stimuli: images/choice_trial_11.png","","","",""
"html-keyboard-response","64","173316","0.0-28.0-2.0","","null","","null","delaylearn","learning","feedback_duration_window","5f356cbffb4cea5170d04fd9","WtyS2yL29TewiXVir2Opb3UxGam1","","","","","","","","","","","","","","","","","","750","","",""
"html-keyboard-response","65","174818","0.0-28.0-3.0","","null","<div style='margin:auto;width: auto; font-size: 150%'><span style='font-weight: bold; font-size: 100px; color: green;'>+10 points!</span><br><br></div>","null","delaylearn","learning","feedback_image_window","5f356cbffb4cea5170d04fd9","WtyS2yL29TewiXVir2Opb3UxGam1","","","","","","","","","","","","","","","","","","","","",""
"html-keyboard-response","66","176526","0.0-29.0","","null","<div style=""font-size:100px;"">+</div>","null","delaylearn","learning","ITI","5f356cbffb4cea5170d04fd9","WtyS2yL29TewiXVir2Opb3UxGam1","","","","","","","","","","","","","","","","","","","1706","",""
"html-keyboard-response","67","179013","0.0-30.0-0.0","","2484.5","<div style=""display: flex; flex-direction: column; align-items: center; margin-top: -40px;""><img src=""images/pattern_6.png"" style=""width: 234px; height: 230px; margin-top: -50px;""><div style=""display: flex; justify-content: space-between; margin-top: 33px;""><img src=""images/choice_trial_16.png"" style=""width: 408px; height: 417px; margin-right: 200px;""><img src=""images/choice_trial_3.png"" style=""width: 408px; height: 417px;""></div></div>","j","delaylearn","learning","trial","5f356cbffb4cea5170d04fd9","WtyS2yL29TewiXVir2Opb3UxGam1","3","images/choice_trial_16.png","images/choice_trial_3.png","images/pattern_6.png","j","f","750","16","3","5","0","13","0","1","3","90","","","","",""
"html-keyboard-response","68","180016","0.0-30.0-1.0","","null","<div style=""display: flex; flex-direction: column; align-items: center; margin-top: -40px;""><img src=""images/pattern_6.png"" style=""width: 234px; height: 230px; margin-top: -50px;""><div style=""display: flex; justify-content: space-between; margin-top: 33px;""><img src=""images/choice_trial_3.png"" style=""width: 408px; height: 417px; margin-left:608px;""></div></div>","null","delaylearn","learning","display_response","5f356cbffb4cea5170d04fd9","WtyS2yL29TewiXVir2Opb3UxGam1","","","","","","","","","","","","","","","","","chosen stimuli: images/choice_trial_3.png","","","",""
"html-keyboard-response","69","180769","0.0-30.0-2.0","","null","","null","delaylearn","learning","feedback_duration_window","5f356cbffb4cea5170d04fd9","WtyS2yL29TewiXVir2Opb3UxGam1","","","","","","","","","","","","","","","","","","750","","",""
"html-keyboard-response","70","182271","0.0-30.0-3.0","","null","<div style='margin:auto;width: auto; font-size: 150%'><span style='font-weight: bold; font-size: 100px; color: green;'>+10 points!</span><br><br></div>","null","delaylearn","learning","feedback_image_window","5f356cbffb4cea5170d04fd9","WtyS2yL29TewiXVir2Opb3UxGam1","","","","","","","","","","","","","","","","","","","","",""
"html-keyboard-response","71","182774","0.0-31.0-0.0","","null","","null","","","mood_trial_fixation","","","","","","","","","","","","","","","","","","","","","","",""
"lmdlab-html-vas-response","72","186626","0.0-31.0-1.0","","2849","How happy are you right now?","0.625","delaylearn","learning","mood_trial","5f356cbffb4cea5170d04fd9","WtyS2yL29TewiXVir2Opb3UxGam1","","","","","","","","","","","","","","","","","","","","[""Very unhappy"",""Very happy""]",""
"html-keyboard-response","73","188161","0.0-32.0","","null","<div style=""font-size:100px;"">+</div>","null","delaylearn","learning","ITI","5f356cbffb4cea5170d04fd9","WtyS2yL29TewiXVir2Opb3UxGam1","","","","","","","","","","","","","","","","","","","1533","",""
"html-keyboard-response","74","190585","0.0-33.0-0.0","","2422.10000000149","<div style=""display: flex; flex-direction: column; align-items: center; margin-top: -40px;""><img src=""images/pattern_1.png"" style=""width: 234px; height: 230px; margin-top: -50px;""><div style=""display: flex; justify-content: space-between; margin-top: 33px;""><img src=""images/choice_trial_8.png"" style=""width: 408px; height: 417px; margin-right: 200px;""><img src=""images/choice_trial_14.png"" style=""width: 408px; height: 417px;""></div></div>","j","delaylearn","learning","trial","5f356cbffb4cea5170d04fd9","WtyS2yL29TewiXVir2Opb3UxGam1","3","images/choice_trial_8.png","images/choice_trial_14.png","images/pattern_1.png","j","j","7000","8","14","1","1","14","1","1","14","100","","","","",""
"html-keyboard-response","75","191588","0.0-33.0-1.0","","null","<div style=""display: flex; flex-direction: column; align-items: center; margin-top: -40px;""><img src=""images/pattern_1.png"" style=""width: 234px; height: 230px; margin-top: -50px;""><div style=""display: flex; justify-content: space-between; margin-top: 33px;""><img src=""images/choice_trial_14.png"" style=""width: 408px; height: 417px; margin-left:608px;""></div></div>","null","delaylearn","learning","display_response","5f356cbffb4cea5170d04fd9","WtyS2yL29TewiXVir2Opb3UxGam1","","","","","","","","","","","","","","","","","chosen stimuli: images/choice_trial_14.png","","","",""
"html-keyboard-response","76","198591","0.0-33.0-2.0","","null","","null","delaylearn","learning","feedback_duration_window","5f356cbffb4cea5170d04fd9","WtyS2yL29TewiXVir2Opb3UxGam1","","","","","","","","","","","","","","","","","","7000","","",""
"html-keyboard-response","77","200094","0.0-33.0-3.0","","null","<div style='margin:auto;width: auto; font-size: 150%'><span style='font-weight: bold; font-size: 100px; color: green;'>+10 points!</span><br><br></div>","null","delaylearn","learning","feedback_image_window","5f356cbffb4cea5170d04fd9","WtyS2yL29TewiXVir2Opb3UxGam1","","","","","","","","","","","","","","","","","","","","",""
"html-keyboard-response","78","202225","0.0-34.0","","null","<div style=""font-size:100px;"">+</div>","null","delaylearn","learning","ITI","5f356cbffb4cea5170d04fd9","WtyS2yL29TewiXVir2Opb3UxGam1","","","","","","","","","","","","","","","","","","","2128","",""
"html-keyboard-response","79","203951","0.0-35.0-0.0","","1724","<div style=""display: flex; flex-direction: column; align-items: center; margin-top: -40px;""><img src=""images/pattern_3.png"" style=""width: 234px; height: 230px; margin-top: -50px;""><div style=""display: flex; justify-content: space-between; margin-top: 33px;""><img src=""images/choice_trial_10.png"" style=""width: 408px; height: 417px; margin-right: 200px;""><img src=""images/choice_trial_13.png"" style=""width: 408px; height: 417px;""></div></div>","j","delaylearn","learning","trial","5f356cbffb4cea5170d04fd9","WtyS2yL29TewiXVir2Opb3UxGam1","3","images/choice_trial_10.png","images/choice_trial_13.png","images/pattern_3.png","f","j","7000","10","13","2","1","15","1","0","13","100","","","","",""
"html-keyboard-response","80","204954","0.0-35.0-1.0","","null","<div style=""display: flex; flex-direction: column; align-items: center; margin-top: -40px;""><img src=""images/pattern_3.png"" style=""width: 234px; height: 230px; margin-top: -50px;""><div style=""display: flex; justify-content: space-between; margin-top: 33px;""><img src=""images/choice_trial_13.png"" style=""width: 408px; height: 417px; margin-left:608px;""></div></div>","null","delaylearn","learning","display_response","5f356cbffb4cea5170d04fd9","WtyS2yL29TewiXVir2Opb3UxGam1","","","","","","","","","","","","","","","","","chosen stimuli: images/choice_trial_13.png","","","",""
"html-keyboard-response","81","211956","0.0-35.0-2.0","","null","","null","delaylearn","learning","feedback_duration_window","5f356cbffb4cea5170d04fd9","WtyS2yL29TewiXVir2Opb3UxGam1","","","","","","","","","","","","","","","","","","7000","","",""
"html-keyboard-response","82","213459","0.0-35.0-3.0","","null","<div style='margin:auto;width: auto; font-size: 150%'><span style='font-weight: bold; font-size: 100px; color: red;'>0 points!</span><br><br></div>","null","delaylearn","learning","feedback_image_window","5f356cbffb4cea5170d04fd9","WtyS2yL29TewiXVir2Opb3UxGam1","","","","","","","","","","","","","","","","","","","","",""
"html-keyboard-response","83","215353","0.0-36.0","","null","<div style=""font-size:100px;"">+</div>","null","delaylearn","learning","ITI","5f356cbffb4cea5170d04fd9","WtyS2yL29TewiXVir2Opb3UxGam1","","","","","","","","","","","","","","","","","","","1891","",""
"html-keyboard-response","84","217035","0.0-37.0-0.0","","1680.199999999255","<div style=""display: flex; flex-direction: column; align-items: center; margin-top: -40px;""><img src=""images/pattern_5.png"" style=""width: 234px; height: 230px; margin-top: -50px;""><div style=""display: flex; justify-content: space-between; margin-top: 33px;""><img src=""images/choice_trial_11.png"" style=""width: 408px; height: 417px; margin-right: 200px;""><img src=""images/choice_trial_2.png"" style=""width: 408px; height: 417px;""></div></div>","f","delaylearn","learning","trial","5f356cbffb4cea5170d04fd9","WtyS2yL29TewiXVir2Opb3UxGam1","3","images/choice_trial_11.png","images/choice_trial_2.png","images/pattern_5.png","f","f","750","11","2","4","0","16","1","1","11","110","","","","",""
"html-keyboard-response","85","218039","0.0-37.0-1.0","","null","<div style=""display: flex; flex-direction: column; align-items: center; margin-top: -40px;""><img src=""images/pattern_5.png"" style=""width: 234px; height: 230px; margin-top: -50px;""><div style=""display: flex; justify-content: space-between; margin-top: 33px;""><img src=""images/choice_trial_11.png"" style=""width: 408px; height: 417px; margin-right: 608px;""></div></div>","null","delaylearn","learning","display_response","5f356cbffb4cea5170d04fd9","WtyS2yL29TewiXVir2Opb3UxGam1","","","","","","","","","","","","","","","","","chosen stimuli: images/choice_trial_11.png","","","",""
"html-keyboard-response","86","218791","0.0-37.0-2.0","","null","","null","delaylearn","learning","feedback_duration_window","5f356cbffb4cea5170d04fd9","WtyS2yL29TewiXVir2Opb3UxGam1","","","","","","","","","","","","","","","","","","750","","",""
"html-keyboard-response","87","220294","0.0-37.0-3.0","","null","<div style='margin:auto;width: auto; font-size: 150%'><span style='font-weight: bold; font-size: 100px; color: green;'>+10 points!</span><br><br></div>","null","delaylearn","learning","feedback_image_window","5f356cbffb4cea5170d04fd9","WtyS2yL29TewiXVir2Opb3UxGam1","","","","","","","","","","","","","","","","","","","","",""
"html-keyboard-response","88","220797","0.0-38.0-0.0","","null","","null","","","mood_trial_fixation","","","","","","","","","","","","","","","","","","","","","","",""
"lmdlab-html-vas-response","89","225160","0.0-38.0-1.0","","3358","How happy are you right now?","0.6458333333333334","delaylearn","learning","mood_trial","5f356cbffb4cea5170d04fd9","WtyS2yL29TewiXVir2Opb3UxGam1","","","","","","","","","","","","","","","","","","","","[""Very unhappy"",""Very happy""]",""
"html-keyboard-response","90","226776","0.0-39.0","","null","<div style=""font-size:100px;"">+</div>","null","delaylearn","learning","ITI","5f356cbffb4cea5170d04fd9","WtyS2yL29TewiXVir2Opb3UxGam1","","","","","","","","","","","","","","","","","","","1614","",""
"html-keyboard-response","91","228760","0.0-40.0-0.0","","1981.7000000029802","<div style=""display: flex; flex-direction: column; align-items: center; margin-top: -40px;""><img src=""images/pattern_6.png"" style=""width: 234px; height: 230px; margin-top: -50px;""><div style=""display: flex; justify-content: space-between; margin-top: 33px;""><img src=""images/choice_trial_16.png"" style=""width: 408px; height: 417px; margin-right: 200px;""><img src=""images/choice_trial_3.png"" style=""width: 408px; height: 417px;""></div></div>","j","delaylearn","learning","trial","5f356cbffb4cea5170d04fd9","WtyS2yL29TewiXVir2Opb3UxGam1","3","images/choice_trial_16.png","images/choice_trial_3.png","images/pattern_6.png","f","f","750","16","3","5","0","17","0","0","3","110","","","","",""
"html-keyboard-response","92","229762","0.0-40.0-1.0","","null","<div style=""display: flex; flex-direction: column; align-items: center; margin-top: -40px;""><img src=""images/pattern_6.png"" style=""width: 234px; height: 230px; margin-top: -50px;""><div style=""display: flex; justify-content: space-between; margin-top: 33px;""><img src=""images/choice_trial_3.png"" style=""width: 408px; height: 417px; margin-left:608px;""></div></div>","null","delaylearn","learning","display_response","5f356cbffb4cea5170d04fd9","WtyS2yL29TewiXVir2Opb3UxGam1","","","","","","","","","","","","","","","","","chosen stimuli: images/choice_trial_3.png","","","",""
"html-keyboard-response","93","230516","0.0-40.0-2.0","","null","","null","delaylearn","learning","feedback_duration_window","5f356cbffb4cea5170d04fd9","WtyS2yL29TewiXVir2Opb3UxGam1","","","","","","","","","","","","","","","","","","750","","",""
"html-keyboard-response","94","232018","0.0-40.0-3.0","","null","<div style='margin:auto;width: auto; font-size: 150%'><span style='font-weight: bold; font-size: 100px; color: red;'>0 points!</span><br><br></div>","null","delaylearn","learning","feedback_image_window","5f356cbffb4cea5170d04fd9","WtyS2yL29TewiXVir2Opb3UxGam1","","","","","","","","","","","","","","","","","","","","",""
"html-keyboard-response","95","233908","0.0-41.0","","null","<div style=""font-size:100px;"">+</div>","null","delaylearn","learning","ITI","5f356cbffb4cea5170d04fd9","WtyS2yL29TewiXVir2Opb3UxGam1","","","","","","","","","","","","","","","","","","","1887","",""
"html-keyboard-response","96","235830","0.0-42.0-0.0","","1919.5999999977648","<div style=""display: flex; flex-direction: column; align-items: center; margin-top: -40px;""><img src=""images/pattern_4.png"" style=""width: 234px; height: 230px; margin-top: -50px;""><div style=""display: flex; justify-content: space-between; margin-top: 33px;""><img src=""images/choice_trial_9.png"" style=""width: 408px; height: 417px; margin-right: 200px;""><img src=""images/choice_trial_15.png"" style=""width: 408px; height: 417px;""></div></div>","f","delaylearn","learning","trial","5f356cbffb4cea5170d04fd9","WtyS2yL29TewiXVir2Opb3UxGam1","3","images/choice_trial_9.png","images/choice_trial_15.png","images/pattern_4.png","j","j","7000","9","15","3","1","18","0","0","9","110","","","","",""
"html-keyboard-response","97","236833","0.0-42.0-1.0","","null","<div style=""display: flex; flex-direction: column; align-items: center; margin-top: -40px;""><img src=""images/pattern_4.png"" style=""width: 234px; height: 230px; margin-top: -50px;""><div style=""display: flex; justify-content: space-between; margin-top: 33px;""><img src=""images/choice_trial_9.png"" style=""width: 408px; height: 417px; margin-right: 608px;""></div></div>","null","delaylearn","learning","display_response","5f356cbffb4cea5170d04fd9","WtyS2yL29TewiXVir2Opb3UxGam1","","","","","","","","","","","","","","","","","chosen stimuli: images/choice_trial_9.png","","","",""
"html-keyboard-response","98","243836","0.0-42.0-2.0","","null","","null","delaylearn","learning","feedback_duration_window","5f356cbffb4cea5170d04fd9","WtyS2yL29TewiXVir2Opb3UxGam1","","","","","","","","","","","","","","","","","","7000","","",""
"html-keyboard-response","99","245339","0.0-42.0-3.0","","null","<div style='margin:auto;width: auto; font-size: 150%'><span style='font-weight: bold; font-size: 100px; color: red;'>0 points!</span><br><br></div>","null","delaylearn","learning","feedback_image_window","5f356cbffb4cea5170d04fd9","WtyS2yL29TewiXVir2Opb3UxGam1","","","","","","","","","","","","","","","","","","","","",""
"html-keyboard-response","100","247067","0.0-43.0","","null","<div style=""font-size:100px;"">+</div>","null","delaylearn","learning","ITI","5f356cbffb4cea5170d04fd9","WtyS2yL29TewiXVir2Opb3UxGam1","","","","","","","","","","","","","","","","","","","1726","",""
"html-keyboard-response","101","249139","0.0-44.0-0.0","","2069.800000000745","<div style=""display: flex; flex-direction: column; align-items: center; margin-top: -40px;""><img src=""images/pattern_7.png"" style=""width: 234px; height: 230px; margin-top: -50px;""><div style=""display: flex; justify-content: space-between; margin-top: 33px;""><img src=""images/choice_trial_6.png"" style=""width: 408px; height: 417px; margin-right: 200px;""><img src=""images/choice_trial_12.png"" style=""width: 408px; height: 417px;""></div></div>","f","delaylearn","learning","trial","5f356cbffb4cea5170d04fd9","WtyS2yL29TewiXVir2Opb3UxGam1","3","images/choice_trial_6.png","images/choice_trial_12.png","images/pattern_7.png","j","f","750","6","12","6","0","19","1","0","6","110","","","","",""
"html-keyboard-response","102","250142","0.0-44.0-1.0","","null","<div style=""display: flex; flex-direction: column; align-items: center; margin-top: -40px;""><img src=""images/pattern_7.png"" style=""width: 234px; height: 230px; margin-top: -50px;""><div style=""display: flex; justify-content: space-between; margin-top: 33px;""><img src=""images/choice_trial_6.png"" style=""width: 408px; height: 417px; margin-right: 608px;""></div></div>","null","delaylearn","learning","display_response","5f356cbffb4cea5170d04fd9","WtyS2yL29TewiXVir2Opb3UxGam1","","","","","","","","","","","","","","","","","chosen stimuli: images/choice_trial_6.png","","","",""
"html-keyboard-response","103","250895","0.0-44.0-2.0","","null","","null","delaylearn","learning","feedback_duration_window","5f356cbffb4cea5170d04fd9","WtyS2yL29TewiXVir2Opb3UxGam1","","","","","","","","","","","","","","","","","","750","","",""
"html-keyboard-response","104","252397","0.0-44.0-3.0","","null","<div style='margin:auto;width: auto; font-size: 150%'><span style='font-weight: bold; font-size: 100px; color: red;'>0 points!</span><br><br></div>","null","delaylearn","learning","feedback_image_window","5f356cbffb4cea5170d04fd9","WtyS2yL29TewiXVir2Opb3UxGam1","","","","","","","","","","","","","","","","","","","","",""
"html-keyboard-response","105","254202","0.0-45.0","","null","<div style=""font-size:100px;"">+</div>","null","delaylearn","learning","ITI","5f356cbffb4cea5170d04fd9","WtyS2yL29TewiXVir2Opb3UxGam1","","","","","","","","","","","","","","","","","","","1802","",""
"html-keyboard-response","106","255609","0.0-46.0-0.0","","1404.699999999255","<div style=""display: flex; flex-direction: column; align-items: center; margin-top: -40px;""><img src=""images/pattern_1.png"" style=""width: 234px; height: 230px; margin-top: -50px;""><div style=""display: flex; justify-content: space-between; margin-top: 33px;""><img src=""images/choice_trial_14.png"" style=""width: 408px; height: 417px; margin-right: 200px;""><img src=""images/choice_trial_8.png"" style=""width: 408px; height: 417px;""></div></div>","f","delaylearn","learning","trial","5f356cbffb4cea5170d04fd9","WtyS2yL29TewiXVir2Opb3UxGam1","3","images/choice_trial_14.png","images/choice_trial_8.png","images/pattern_1.png","f","f","7000","14","8","1","0","20","1","1","14","120","","","","",""
"html-keyboard-response","107","256612","0.0-46.0-1.0","","null","<div style=""display: flex; flex-direction: column; align-items: center; margin-top: -40px;""><img src=""images/pattern_1.png"" style=""width: 234px; height: 230px; margin-top: -50px;""><div style=""display: flex; justify-content: space-between; margin-top: 33px;""><img src=""images/choice_trial_14.png"" style=""width: 408px; height: 417px; margin-right: 608px;""></div></div>","null","delaylearn","learning","display_response","5f356cbffb4cea5170d04fd9","WtyS2yL29TewiXVir2Opb3UxGam1","","","","","","","","","","","","","","","","","chosen stimuli: images/choice_trial_14.png","","","",""
"html-keyboard-response","108","263615","0.0-46.0-2.0","","null","","null","delaylearn","learning","feedback_duration_window","5f356cbffb4cea5170d04fd9","WtyS2yL29TewiXVir2Opb3UxGam1","","","","","","","","","","","","","","","","","","7000","","",""
"html-keyboard-response","109","265118","0.0-46.0-3.0","","null","<div style='margin:auto;width: auto; font-size: 150%'><span style='font-weight: bold; font-size: 100px; color: green;'>+10 points!</span><br><br></div>","null","delaylearn","learning","feedback_image_window","5f356cbffb4cea5170d04fd9","WtyS2yL29TewiXVir2Opb3UxGam1","","","","","","","","","","","","","","","","","","","","",""
"html-keyboard-response","110","267401","0.0-47.0","","null","<div style=""font-size:100px;"">+</div>","null","delaylearn","learning","ITI","5f356cbffb4cea5170d04fd9","WtyS2yL29TewiXVir2Opb3UxGam1","","","","","","","","","","","","","","","","","","","2280","",""
"html-keyboard-response","111","269243","0.0-48.0-0.0","","1839.5","<div style=""display: flex; flex-direction: column; align-items: center; margin-top: -40px;""><img src=""images/pattern_6.png"" style=""width: 234px; height: 230px; margin-top: -50px;""><div style=""display: flex; justify-content: space-between; margin-top: 33px;""><img src=""images/choice_trial_3.png"" style=""width: 408px; height: 417px; margin-right: 200px;""><img src=""images/choice_trial_16.png"" style=""width: 408px; height: 417px;""></div></div>","f","delaylearn","learning","trial","5f356cbffb4cea5170d04fd9","WtyS2yL29TewiXVir2Opb3UxGam1","3","images/choice_trial_3.png","images/choice_trial_16.png","images/pattern_6.png","j","j","750","3","16","5","1","21","0","0","3","120","","","","",""
"html-keyboard-response","112","270246","0.0-48.0-1.0","","null","<div style=""display: flex; flex-direction: column; align-items: center; margin-top: -40px;""><img src=""images/pattern_6.png"" style=""width: 234px; height: 230px; margin-top: -50px;""><div style=""display: flex; justify-content: space-between; margin-top: 33px;""><img src=""images/choice_trial_3.png"" style=""width: 408px; height: 417px; margin-right: 608px;""></div></div>","null","delaylearn","learning","display_response","5f356cbffb4cea5170d04fd9","WtyS2yL29TewiXVir2Opb3UxGam1","","","","","","","","","","","","","","","","","chosen stimuli: images/choice_trial_3.png","","","",""
"html-keyboard-response","113","270999","0.0-48.0-2.0","","null","","null","delaylearn","learning","feedback_duration_window","5f356cbffb4cea5170d04fd9","WtyS2yL29TewiXVir2Opb3UxGam1","","","","","","","","","","","","","","","","","","750","","",""
"html-keyboard-response","114","272502","0.0-48.0-3.0","","null","<div style='margin:auto;width: auto; font-size: 150%'><span style='font-weight: bold; font-size: 100px; color: red;'>0 points!</span><br><br></div>","null","delaylearn","learning","feedback_image_window","5f356cbffb4cea5170d04fd9","WtyS2yL29TewiXVir2Opb3UxGam1","","","","","","","","","","","","","","","","","","","","",""
"html-keyboard-response","115","274741","0.0-49.0","","null","<div style=""font-size:100px;"">+</div>","null","delaylearn","learning","ITI","5f356cbffb4cea5170d04fd9","WtyS2yL29TewiXVir2Opb3UxGam1","","","","","","","","","","","","","","","","","","","2237","",""
"html-keyboard-response","116","276534","0.0-50.0-0.0","","1791.199999999255","<div style=""display: flex; flex-direction: column; align-items: center; margin-top: -40px;""><img src=""images/pattern_4.png"" style=""width: 234px; height: 230px; margin-top: -50px;""><div style=""display: flex; justify-content: space-between; margin-top: 33px;""><img src=""images/choice_trial_15.png"" style=""width: 408px; height: 417px; margin-right: 200px;""><img src=""images/choice_trial_9.png"" style=""width: 408px; height: 417px;""></div></div>","f","delaylearn","learning","trial","5f356cbffb4cea5170d04fd9","WtyS2yL29TewiXVir2Opb3UxGam1","3","images/choice_trial_15.png","images/choice_trial_9.png","images/pattern_4.png","f","f","7000","15","9","3","0","22","1","1","15","130","","","","",""
"html-keyboard-response","117","277537","0.0-50.0-1.0","","null","<div style=""display: flex; flex-direction: column; align-items: center; margin-top: -40px;""><img src=""images/pattern_4.png"" style=""width: 234px; height: 230px; margin-top: -50px;""><div style=""display: flex; justify-content: space-between; margin-top: 33px;""><img src=""images/choice_trial_15.png"" style=""width: 408px; height: 417px; margin-right: 608px;""></div></div>","null","delaylearn","learning","display_response","5f356cbffb4cea5170d04fd9","WtyS2yL29TewiXVir2Opb3UxGam1","","","","","","","","","","","","","","","","","chosen stimuli: images/choice_trial_15.png","","","",""
"html-keyboard-response","118","284540","0.0-50.0-2.0","","null","","null","delaylearn","learning","feedback_duration_window","5f356cbffb4cea5170d04fd9","WtyS2yL29TewiXVir2Opb3UxGam1","","","","","","","","","","","","","","","","","","7000","","",""
"html-keyboard-response","119","286043","0.0-50.0-3.0","","null","<div style='margin:auto;width: auto; font-size: 150%'><span style='font-weight: bold; font-size: 100px; color: green;'>+10 points!</span><br><br></div>","null","delaylearn","learning","feedback_image_window","5f356cbffb4cea5170d04fd9","WtyS2yL29TewiXVir2Opb3UxGam1","","","","","","","","","","","","","","","","","","","","",""
"html-keyboard-response","120","286546","0.0-51.0-0.0","","null","","null","","","mood_trial_fixation","","","","","","","","","","","","","","","","","","","","","","",""
"lmdlab-html-vas-response","121","290201","0.0-51.0-1.0","","2650","How happy are you right now?","0.6166666666666667","delaylearn","learning","mood_trial","5f356cbffb4cea5170d04fd9","WtyS2yL29TewiXVir2Opb3UxGam1","","","","","","","","","","","","","","","","","","","","[""Very unhappy"",""Very happy""]",""
"html-keyboard-response","122","292700","0.0-52.0","","null","<div style=""font-size:100px;"">+</div>","null","delaylearn","learning","ITI","5f356cbffb4cea5170d04fd9","WtyS2yL29TewiXVir2Opb3UxGam1","","","","","","","","","","","","","","","","","","","2496","",""
"html-keyboard-response","123","294388","0.0-53.0-0.0","","1686","<div style=""display: flex; flex-direction: column; align-items: center; margin-top: -40px;""><img src=""images/pattern_7.png"" style=""width: 234px; height: 230px; margin-top: -50px;""><div style=""display: flex; justify-content: space-between; margin-top: 33px;""><img src=""images/choice_trial_12.png"" style=""width: 408px; height: 417px; margin-right: 200px;""><img src=""images/choice_trial_6.png"" style=""width: 408px; height: 417px;""></div></div>","j","delaylearn","learning","trial","5f356cbffb4cea5170d04fd9","WtyS2yL29TewiXVir2Opb3UxGam1","3","images/choice_trial_12.png","images/choice_trial_6.png","images/pattern_7.png","j","j","750","12","6","6","1","23","1","1","6","140","","","","",""
"html-keyboard-response","124","295391","0.0-53.0-1.0","","null","<div style=""display: flex; flex-direction: column; align-items: center; margin-top: -40px;""><img src=""images/pattern_7.png"" style=""width: 234px; height: 230px; margin-top: -50px;""><div style=""display: flex; justify-content: space-between; margin-top: 33px;""><img src=""images/choice_trial_6.png"" style=""width: 408px; height: 417px; margin-left:608px;""></div></div>","null","delaylearn","learning","display_response","5f356cbffb4cea5170d04fd9","WtyS2yL29TewiXVir2Opb3UxGam1","","","","","","","","","","","","","","","","","chosen stimuli: images/choice_trial_6.png","","","",""
"html-keyboard-response","125","296144","0.0-53.0-2.0","","null","","null","delaylearn","learning","feedback_duration_window","5f356cbffb4cea5170d04fd9","WtyS2yL29TewiXVir2Opb3UxGam1","","","","","","","","","","","","","","","","","","750","","",""
"html-keyboard-response","126","297647","0.0-53.0-3.0","","null","<div style='margin:auto;width: auto; font-size: 150%'><span style='font-weight: bold; font-size: 100px; color: green;'>+10 points!</span><br><br></div>","null","delaylearn","learning","feedback_image_window","5f356cbffb4cea5170d04fd9","WtyS2yL29TewiXVir2Opb3UxGam1","","","","","","","","","","","","","","","","","","","","",""
"html-keyboard-response","127","299968","0.0-54.0","","null","<div style=""font-size:100px;"">+</div>","null","delaylearn","learning","ITI","5f356cbffb4cea5170d04fd9","WtyS2yL29TewiXVir2Opb3UxGam1","","","","","","","","","","","","","","","","","","","2319","",""
"html-keyboard-response","128","300895","0.0-55.0-0.0","","924.6000000014901","<div style=""display: flex; flex-direction: column; align-items: center; margin-top: -40px;""><img src=""images/pattern_1.png"" style=""width: 234px; height: 230px; margin-top: -50px;""><div style=""display: flex; justify-content: space-between; margin-top: 33px;""><img src=""images/choice_trial_8.png"" style=""width: 408px; height: 417px; margin-right: 200px;""><img src=""images/choice_trial_14.png"" style=""width: 408px; height: 417px;""></div></div>","j","delaylearn","learning","trial","5f356cbffb4cea5170d04fd9","WtyS2yL29TewiXVir2Opb3UxGam1","3","images/choice_trial_8.png","images/choice_trial_14.png","images/pattern_1.png","f","j","7000","8","14","1","1","24","1","0","14","140","","","","",""
"html-keyboard-response","129","301898","0.0-55.0-1.0","","null","<div style=""display: flex; flex-direction: column; align-items: center; margin-top: -40px;""><img src=""images/pattern_1.png"" style=""width: 234px; height: 230px; margin-top: -50px;""><div style=""display: flex; justify-content: space-between; margin-top: 33px;""><img src=""images/choice_trial_14.png"" style=""width: 408px; height: 417px; margin-left:608px;""></div></div>","null","delaylearn","learning","display_response","5f356cbffb4cea5170d04fd9","WtyS2yL29TewiXVir2Opb3UxGam1","","","","","","","","","","","","","","","","","chosen stimuli: images/choice_trial_14.png","","","",""
"html-keyboard-response","130","308901","0.0-55.0-2.0","","null","","null","delaylearn","learning","feedback_duration_window","5f356cbffb4cea5170d04fd9","WtyS2yL29TewiXVir2Opb3UxGam1","","","","","","","","","","","","","","","","","","7000","","",""
"html-keyboard-response","131","310404","0.0-55.0-3.0","","null","<div style='margin:auto;width: auto; font-size: 150%'><span style='font-weight: bold; font-size: 100px; color: red;'>0 points!</span><br><br></div>","null","delaylearn","learning","feedback_image_window","5f356cbffb4cea5170d04fd9","WtyS2yL29TewiXVir2Opb3UxGam1","","","","","","","","","","","","","","","","","","","","",""
"html-keyboard-response","132","312772","0.0-56.0","","null","<div style=""font-size:100px;"">+</div>","null","delaylearn","learning","ITI","5f356cbffb4cea5170d04fd9","WtyS2yL29TewiXVir2Opb3UxGam1","","","","","","","","","","","","","","","","","","","2365","",""
"html-keyboard-response","133","314630","0.0-57.0-0.0","","1855.6000000014901","<div style=""display: flex; flex-direction: column; align-items: center; margin-top: -40px;""><img src=""images/pattern_5.png"" style=""width: 234px; height: 230px; margin-top: -50px;""><div style=""display: flex; justify-content: space-between; margin-top: 33px;""><img src=""images/choice_trial_2.png"" style=""width: 408px; height: 417px; margin-right: 200px;""><img src=""images/choice_trial_11.png"" style=""width: 408px; height: 417px;""></div></div>","j","delaylearn","learning","trial","5f356cbffb4cea5170d04fd9","WtyS2yL29TewiXVir2Opb3UxGam1","3","images/choice_trial_2.png","images/choice_trial_11.png","images/pattern_5.png","j","j","750","2","11","4","1","25","1","1","11","150","","","","",""
"html-keyboard-response","134","315633","0.0-57.0-1.0","","null","<div style=""display: flex; flex-direction: column; align-items: center; margin-top: -40px;""><img src=""images/pattern_5.png"" style=""width: 234px; height: 230px; margin-top: -50px;""><div style=""display: flex; justify-content: space-between; margin-top: 33px;""><img src=""images/choice_trial_11.png"" style=""width: 408px; height: 417px; margin-left:608px;""></div></div>","null","delaylearn","learning","display_response","5f356cbffb4cea5170d04fd9","WtyS2yL29TewiXVir2Opb3UxGam1","","","","","","","","","","","","","","","","","chosen stimuli: images/choice_trial_11.png","","","",""
"html-keyboard-response","135","316386","0.0-57.0-2.0","","null","","null","delaylearn","learning","feedback_duration_window","5f356cbffb4cea5170d04fd9","WtyS2yL29TewiXVir2Opb3UxGam1","","","","","","","","","","","","","","","","","","750","","",""
"html-keyboard-response","136","317889","0.0-57.0-3.0","","null","<div style='margin:auto;width: auto; font-size: 150%'><span style='font-weight: bold; font-size: 100px; color: green;'>+10 points!</span><br><br></div>","null","delaylearn","learning","feedback_image_window","5f356cbffb4cea5170d04fd9","WtyS2yL29TewiXVir2Opb3UxGam1","","","","","","","","","","","","","","","","","","","","",""
"html-keyboard-response","137","319714","0.0-58.0","","null","<div style=""font-size:100px;"">+</div>","null","delaylearn","learning","ITI","5f356cbffb4cea5170d04fd9","WtyS2yL29TewiXVir2Opb3UxGam1","","","","","","","","","","","","","","","","","","","1823","",""
"html-keyboard-response","138","321988","0.0-59.0-0.0","","2271.10000000149","<div style=""display: flex; flex-direction: column; align-items: center; margin-top: -40px;""><img src=""images/pattern_3.png"" style=""width: 234px; height: 230px; margin-top: -50px;""><div style=""display: flex; justify-content: space-between; margin-top: 33px;""><img src=""images/choice_trial_10.png"" style=""width: 408px; height: 417px; margin-right: 200px;""><img src=""images/choice_trial_13.png"" style=""width: 408px; height: 417px;""></div></div>","j","delaylearn","learning","trial","5f356cbffb4cea5170d04fd9","WtyS2yL29TewiXVir2Opb3UxGam1","3","images/choice_trial_10.png","images/choice_trial_13.png","images/pattern_3.png","j","j","7000","10","13","2","1","26","1","1","13","160","","","","",""
"html-keyboard-response","139","322990","0.0-59.0-1.0","","null","<div style=""display: flex; flex-direction: column; align-items: center; margin-top: -40px;""><img src=""images/pattern_3.png"" style=""width: 234px; height: 230px; margin-top: -50px;""><div style=""display: flex; justify-content: space-between; margin-top: 33px;""><img src=""images/choice_trial_13.png"" style=""width: 408px; height: 417px; margin-left:608px;""></div></div>","null","delaylearn","learning","display_response","5f356cbffb4cea5170d04fd9","WtyS2yL29TewiXVir2Opb3UxGam1","","","","","","","","","","","","","","","","","chosen stimuli: images/choice_trial_13.png","","","",""
"html-keyboard-response","140","329993","0.0-59.0-2.0","","null","","null","delaylearn","learning","feedback_duration_window","5f356cbffb4cea5170d04fd9","WtyS2yL29TewiXVir2Opb3UxGam1","","","","","","","","","","","","","","","","","","7000","","",""
"html-keyboard-response","141","331496","0.0-59.0-3.0","","null","<div style='margin:auto;width: auto; font-size: 150%'><span style='font-weight: bold; font-size: 100px; color: green;'>+10 points!</span><br><br></div>","null","delaylearn","learning","feedback_image_window","5f356cbffb4cea5170d04fd9","WtyS2yL29TewiXVir2Opb3UxGam1","","","","","","","","","","","","","","","","","","","","",""
"lmdlab-html-vas-response","142","338624","0.0-60.0-0.0","","5621","*How <b><u>confident</u></b> are you feeling about your answers at this moment?*","0.49583333333333335","rewlearn","rate_confidence","","5f356cbffb4cea5170d04fd9","WtyS2yL29TewiXVir2Opb3UxGam1","","","","","","","","","","","","","","","","","","","","[""No confidence"",""Complete confidence""]",""
"lmdlab-rest-trial-limit","143","391195","0.0-60.0-1.0","","51065.60000000149","<div style=""font-size:40px;""><b>Please take a break!</b><br><br><br><br><p>Great work: you earned 160 points.<br><br><br><p>You have completed part(s) 1 of 5.<br><br><br><br>When you are ready to continue<br><br><br>please click the button.</p><br><br>","0","delaylearn","learning","break","5f356cbffb4cea5170d04fd9","WtyS2yL29TewiXVir2Opb3UxGam1","","","","","","","","","","","","","","","","","","","","","0"
"html-keyboard-response","144","394198","0.0-60.0-2.0","","null","<div style=""font-size:100px;"">+</div>","null","delaylearn","learning","pre_fixation","5f356cbffb4cea5170d04fd9","","","","","","","","","","","","","","","","","","","","","",""
"lmdlab-html-vas-response","145","398151","0.0-60.0-3.0-0.0","","2949","How happy are you right now?","0.64375","delaylearn","learning","mood_baseline","5f356cbffb4cea5170d04fd9","WtyS2yL29TewiXVir2Opb3UxGam1","","","","","","","","","","","","","","","","","","","","[""Very unhappy"",""Very happy""]",""
"html-keyboard-response","146","399654","0.0-60.0-3.0-1.0","","null","","null","","","mood_baseline_fixation","","","","","","","","","","","","","","","","","","","","","","",""
"html-keyboard-response","147","401263","0.0-61.0","","null","<div style=""font-size:100px;"">+</div>","null","delaylearn","learning","ITI","5f356cbffb4cea5170d04fd9","WtyS2yL29TewiXVir2Opb3UxGam1","","","","","","","","","","","","","","","","","","","1606","",""
"html-keyboard-response","148","402568","0.0-62.0-0.0","","1301.7000000029802","<div style=""display: flex; flex-direction: column; align-items: center; margin-top: -40px;""><img src=""images/pattern_7.png"" style=""width: 234px; height: 230px; margin-top: -50px;""><div style=""display: flex; justify-content: space-between; margin-top: 33px;""><img src=""images/choice_trial_12.png"" style=""width: 408px; height: 417px; margin-right: 200px;""><img src=""images/choice_trial_6.png"" style=""width: 408px; height: 417px;""></div></div>","j","delaylearn","learning","trial","5f356cbffb4cea5170d04fd9","WtyS2yL29TewiXVir2Opb3UxGam1","3","images/choice_trial_12.png","images/choice_trial_6.png","images/pattern_7.png","j","j","750","12","6","6","1","27","1","1","6","170","","","","",""
"html-keyboard-response","149","403571","0.0-62.0-1.0","","null","<div style=""display: flex; flex-direction: column; align-items: center; margin-top: -40px;""><img src=""images/pattern_7.png"" style=""width: 234px; height: 230px; margin-top: -50px;""><div style=""display: flex; justify-content: space-between; margin-top: 33px;""><img src=""images/choice_trial_6.png"" style=""width: 408px; height: 417px; margin-left:608px;""></div></div>","null","delaylearn","learning","display_response","5f356cbffb4cea5170d04fd9","WtyS2yL29TewiXVir2Opb3UxGam1","","","","","","","","","","","","","","","","","chosen stimuli: images/choice_trial_6.png","","","",""
"html-keyboard-response","150","404323","0.0-62.0-2.0","","null","","null","delaylearn","learning","feedback_duration_window","5f356cbffb4cea5170d04fd9","WtyS2yL29TewiXVir2Opb3UxGam1","","","","","","","","","","","","","","","","","","750","","",""
"html-keyboard-response","151","405826","0.0-62.0-3.0","","null","<div style='margin:auto;width: auto; font-size: 150%'><span style='font-weight: bold; font-size: 100px; color: green;'>+10 points!</span><br><br></div>","null","delaylearn","learning","feedback_image_window","5f356cbffb4cea5170d04fd9","WtyS2yL29TewiXVir2Opb3UxGam1","","","","","","","","","","","","","","","","","","","","",""
"html-keyboard-response","152","406329","0.0-63.0-0.0","","null","","null","","","mood_trial_fixation","","","","","","","","","","","","","","","","","","","","","","",""
"lmdlab-html-vas-response","153","410880","0.0-63.0-1.0","","3547","How happy are you right now?","0.5708333333333333","delaylearn","learning","mood_trial","5f356cbffb4cea5170d04fd9","WtyS2yL29TewiXVir2Opb3UxGam1","","","","","","","","","","","","","","","","","","","","[""Very unhappy"",""Very happy""]",""
"html-keyboard-response","154","412665","0.0-64.0","","null","<div style=""font-size:100px;"">+</div>","null","delaylearn","learning","ITI","5f356cbffb4cea5170d04fd9","WtyS2yL29TewiXVir2Opb3UxGam1","","","","","","","","","","","","","","","","","","","1782","",""
"html-keyboard-response","155","413868","0.0-65.0-0.0","","1200.199999999255","<div style=""display: flex; flex-direction: column; align-items: center; margin-top: -40px;""><img src=""images/pattern_1.png"" style=""width: 234px; height: 230px; margin-top: -50px;""><div style=""display: flex; justify-content: space-between; margin-top: 33px;""><img src=""images/choice_trial_14.png"" style=""width: 408px; height: 417px; margin-right: 200px;""><img src=""images/choice_trial_8.png"" style=""width: 408px; height: 417px;""></div></div>","f","delaylearn","learning","trial","5f356cbffb4cea5170d04fd9","WtyS2yL29TewiXVir2Opb3UxGam1","3","images/choice_trial_14.png","images/choice_trial_8.png","images/pattern_1.png","f","f","7000","14","8","1","0","28","1","1","14","180","","","","",""
"html-keyboard-response","156","414871","0.0-65.0-1.0","","null","<div style=""display: flex; flex-direction: column; align-items: center; margin-top: -40px;""><img src=""images/pattern_1.png"" style=""width: 234px; height: 230px; margin-top: -50px;""><div style=""display: flex; justify-content: space-between; margin-top: 33px;""><img src=""images/choice_trial_14.png"" style=""width: 408px; height: 417px; margin-right: 608px;""></div></div>","null","delaylearn","learning","display_response","5f356cbffb4cea5170d04fd9","WtyS2yL29TewiXVir2Opb3UxGam1","","","","","","","","","","","","","","","","","chosen stimuli: images/choice_trial_14.png","","","",""
"html-keyboard-response","157","421873","0.0-65.0-2.0","","null","","null","delaylearn","learning","feedback_duration_window","5f356cbffb4cea5170d04fd9","WtyS2yL29TewiXVir2Opb3UxGam1","","","","","","","","","","","","","","","","","","7000","","",""
"html-keyboard-response","158","423376","0.0-65.0-3.0","","null","<div style='margin:auto;width: auto; font-size: 150%'><span style='font-weight: bold; font-size: 100px; color: green;'>+10 points!</span><br><br></div>","null","delaylearn","learning","feedback_image_window","5f356cbffb4cea5170d04fd9","WtyS2yL29TewiXVir2Opb3UxGam1","","","","","","","","","","","","","","","","","","","","",""
"html-keyboard-response","159","425626","0.0-66.0","","null","<div style=""font-size:100px;"">+</div>","null","delaylearn","learning","ITI","5f356cbffb4cea5170d04fd9","WtyS2yL29TewiXVir2Opb3UxGam1","","","","","","","","","","","","","","","","","","","2247","",""
"html-keyboard-response","160","427076","0.0-67.0-0.0","","1447.6000000014901","<div style=""display: flex; flex-direction: column; align-items: center; margin-top: -40px;""><img src=""images/pattern_5.png"" style=""width: 234px; height: 230px; margin-top: -50px;""><div style=""display: flex; justify-content: space-between; margin-top: 33px;""><img src=""images/choice_trial_11.png"" style=""width: 408px; height: 417px; margin-right: 200px;""><img src=""images/choice_trial_2.png"" style=""width: 408px; height: 417px;""></div></div>","f","delaylearn","learning","trial","5f356cbffb4cea5170d04fd9","WtyS2yL29TewiXVir2Opb3UxGam1","3","images/choice_trial_11.png","images/choice_trial_2.png","images/pattern_5.png","f","f","750","11","2","4","0","29","1","1","11","190","","","","",""
"html-keyboard-response","161","428079","0.0-67.0-1.0","","null","<div style=""display: flex; flex-direction: column; align-items: center; margin-top: -40px;""><img src=""images/pattern_5.png"" style=""width: 234px; height: 230px; margin-top: -50px;""><div style=""display: flex; justify-content: space-between; margin-top: 33px;""><img src=""images/choice_trial_11.png"" style=""width: 408px; height: 417px; margin-right: 608px;""></div></div>","null","delaylearn","learning","display_response","5f356cbffb4cea5170d04fd9","WtyS2yL29TewiXVir2Opb3UxGam1","","","","","","","","","","","","","","","","","chosen stimuli: images/choice_trial_11.png","","","",""
"html-keyboard-response","162","428831","0.0-67.0-2.0","","null","","null","delaylearn","learning","feedback_duration_window","5f356cbffb4cea5170d04fd9","WtyS2yL29TewiXVir2Opb3UxGam1","","","","","","","","","","","","","","","","","","750","","",""
"html-keyboard-response","163","430335","0.0-67.0-3.0","","null","<div style='margin:auto;width: auto; font-size: 150%'><span style='font-weight: bold; font-size: 100px; color: green;'>+10 points!</span><br><br></div>","null","delaylearn","learning","feedback_image_window","5f356cbffb4cea5170d04fd9","WtyS2yL29TewiXVir2Opb3UxGam1","","","","","","","","","","","","","","","","","","","","",""
"html-keyboard-response","164","432046","0.0-68.0","","null","<div style=""font-size:100px;"">+</div>","null","delaylearn","learning","ITI","5f356cbffb4cea5170d04fd9","WtyS2yL29TewiXVir2Opb3UxGam1","","","","","","","","","","","","","","","","","","","1709","",""
"html-keyboard-response","165","434443","0.0-69.0-0.0","","2395.39999999851","<div style=""display: flex; flex-direction: column; align-items: center; margin-top: -40px;""><img src=""images/pattern_6.png"" style=""width: 234px; height: 230px; margin-top: -50px;""><div style=""display: flex; justify-content: space-between; margin-top: 33px;""><img src=""images/choice_trial_3.png"" style=""width: 408px; height: 417px; margin-right: 200px;""><img src=""images/choice_trial_16.png"" style=""width: 408px; height: 417px;""></div></div>","j","delaylearn","learning","trial","5f356cbffb4cea5170d04fd9","WtyS2yL29TewiXVir2Opb3UxGam1","3","images/choice_trial_3.png","images/choice_trial_16.png","images/pattern_6.png","j","j","750","3","16","5","1","30","1","1","16","200","","","","",""
"html-keyboard-response","166","435447","0.0-69.0-1.0","","null","<div style=""display: flex; flex-direction: column; align-items: center; margin-top: -40px;""><img src=""images/pattern_6.png"" style=""width: 234px; height: 230px; margin-top: -50px;""><div style=""display: flex; justify-content: space-between; margin-top: 33px;""><img src=""images/choice_trial_16.png"" style=""width: 408px; height: 417px; margin-left:608px;""></div></div>","null","delaylearn","learning","display_response","5f356cbffb4cea5170d04fd9","WtyS2yL29TewiXVir2Opb3UxGam1","","","","","","","","","","","","","","","","","chosen stimuli: images/choice_trial_16.png","","","",""
"html-keyboard-response","167","436199","0.0-69.0-2.0","","null","","null","delaylearn","learning","feedback_duration_window","5f356cbffb4cea5170d04fd9","WtyS2yL29TewiXVir2Opb3UxGam1","","","","","","","","","","","","","","","","","","750","","",""
"html-keyboard-response","168","437703","0.0-69.0-3.0","","null","<div style='margin:auto;width: auto; font-size: 150%'><span style='font-weight: bold; font-size: 100px; color: green;'>+10 points!</span><br><br></div>","null","delaylearn","learning","feedback_image_window","5f356cbffb4cea5170d04fd9","WtyS2yL29TewiXVir2Opb3UxGam1","","","","","","","","","","","","","","","","","","","","",""
"html-keyboard-response","169","438205","0.0-70.0-0.0","","null","","null","","","mood_trial_fixation","","","","","","","","","","","","","","","","","","","","","","",""
"lmdlab-html-vas-response","170","443751","0.0-70.0-1.0","","4543","How happy are you right now?","0.7375","delaylearn","learning","mood_trial","5f356cbffb4cea5170d04fd9","WtyS2yL29TewiXVir2Opb3UxGam1","","","","","","","","","","","","","","","","","","","","[""Very unhappy"",""Very happy""]",""
"html-keyboard-response","171","445743","0.0-71.0","","null","<div style=""font-size:100px;"">+</div>","null","delaylearn","learning","ITI","5f356cbffb4cea5170d04fd9","WtyS2yL29TewiXVir2Opb3UxGam1","","","","","","","","","","","","","","","","","","","1989","",""
"html-keyboard-response","172","447757","0.0-72.0-0.0","","2010.8999999985099","<div style=""display: flex; flex-direction: column; align-items: center; margin-top: -40px;""><img src=""images/pattern_4.png"" style=""width: 234px; height: 230px; margin-top: -50px;""><div style=""display: flex; justify-content: space-between; margin-top: 33px;""><img src=""images/choice_trial_9.png"" style=""width: 408px; height: 417px; margin-right: 200px;""><img src=""images/choice_trial_15.png"" style=""width: 408px; height: 417px;""></div></div>","j","delaylearn","learning","trial","5f356cbffb4cea5170d04fd9","WtyS2yL29TewiXVir2Opb3UxGam1","3","images/choice_trial_9.png","images/choice_trial_15.png","images/pattern_4.png","j","j","7000","9","15","3","1","31","1","1","15","210","","","","",""
"html-keyboard-response","173","448760","0.0-72.0-1.0","","null","<div style=""display: flex; flex-direction: column; align-items: center; margin-top: -40px;""><img src=""images/pattern_4.png"" style=""width: 234px; height: 230px; margin-top: -50px;""><div style=""display: flex; justify-content: space-between; margin-top: 33px;""><img src=""images/choice_trial_15.png"" style=""width: 408px; height: 417px; margin-left:608px;""></div></div>","null","delaylearn","learning","display_response","5f356cbffb4cea5170d04fd9","WtyS2yL29TewiXVir2Opb3UxGam1","","","","","","","","","","","","","","","","","chosen stimuli: images/choice_trial_15.png","","","",""
"html-keyboard-response","174","455762","0.0-72.0-2.0","","null","","null","delaylearn","learning","feedback_duration_window","5f356cbffb4cea5170d04fd9","WtyS2yL29TewiXVir2Opb3UxGam1","","","","","","","","","","","","","","","","","","7000","","",""
"html-keyboard-response","175","457265","0.0-72.0-3.0","","null","<div style='margin:auto;width: auto; font-size: 150%'><span style='font-weight: bold; font-size: 100px; color: green;'>+10 points!</span><br><br></div>","null","delaylearn","learning","feedback_image_window","5f356cbffb4cea5170d04fd9","WtyS2yL29TewiXVir2Opb3UxGam1","","","","","","","","","","","","","","","","","","","","",""
"html-keyboard-response","176","459137","0.0-73.0","","null","<div style=""font-size:100px;"">+</div>","null","delaylearn","learning","ITI","5f356cbffb4cea5170d04fd9","WtyS2yL29TewiXVir2Opb3UxGam1","","","","","","","","","","","","","","","","","","","1870","",""
"html-keyboard-response","177","460378","0.0-74.0-0.0","","1238.800000000745","<div style=""display: flex; flex-direction: column; align-items: center; margin-top: -40px;""><img src=""images/pattern_3.png"" style=""width: 234px; height: 230px; margin-top: -50px;""><div style=""display: flex; justify-content: space-between; margin-top: 33px;""><img src=""images/choice_trial_10.png"" style=""width: 408px; height: 417px; margin-right: 200px;""><img src=""images/choice_trial_13.png"" style=""width: 408px; height: 417px;""></div></div>","j","delaylearn","learning","trial","5f356cbffb4cea5170d04fd9","WtyS2yL29TewiXVir2Opb3UxGam1","3","images/choice_trial_10.png","images/choice_trial_13.png","images/pattern_3.png","j","j","7000","10","13","2","1","32","1","1","13","220","","","","",""
"html-keyboard-response","178","461381","0.0-74.0-1.0","","null","<div style=""display: flex; flex-direction: column; align-items: center; margin-top: -40px;""><img src=""images/pattern_3.png"" style=""width: 234px; height: 230px; margin-top: -50px;""><div style=""display: flex; justify-content: space-between; margin-top: 33px;""><img src=""images/choice_trial_13.png"" style=""width: 408px; height: 417px; margin-left:608px;""></div></div>","null","delaylearn","learning","display_response","5f356cbffb4cea5170d04fd9","WtyS2yL29TewiXVir2Opb3UxGam1","","","","","","","","","","","","","","","","","chosen stimuli: images/choice_trial_13.png","","","",""
"html-keyboard-response","179","468384","0.0-74.0-2.0","","null","","null","delaylearn","learning","feedback_duration_window","5f356cbffb4cea5170d04fd9","WtyS2yL29TewiXVir2Opb3UxGam1","","","","","","","","","","","","","","","","","","7000","","",""
"html-keyboard-response","180","469887","0.0-74.0-3.0","","null","<div style='margin:auto;width: auto; font-size: 150%'><span style='font-weight: bold; font-size: 100px; color: green;'>+10 points!</span><br><br></div>","null","delaylearn","learning","feedback_image_window","5f356cbffb4cea5170d04fd9","WtyS2yL29TewiXVir2Opb3UxGam1","","","","","","","","","","","","","","","","","","","","",""
"html-keyboard-response","181","472113","0.0-75.0","","null","<div style=""font-size:100px;"">+</div>","null","delaylearn","learning","ITI","5f356cbffb4cea5170d04fd9","WtyS2yL29TewiXVir2Opb3UxGam1","","","","","","","","","","","","","","","","","","","2223","",""
"html-keyboard-response","182","473443","0.0-76.0-0.0","","1327.800000000745","<div style=""display: flex; flex-direction: column; align-items: center; margin-top: -40px;""><img src=""images/pattern_5.png"" style=""width: 234px; height: 230px; margin-top: -50px;""><div style=""display: flex; justify-content: space-between; margin-top: 33px;""><img src=""images/choice_trial_11.png"" style=""width: 408px; height: 417px; margin-right: 200px;""><img src=""images/choice_trial_2.png"" style=""width: 408px; height: 417px;""></div></div>","f","delaylearn","learning","trial","5f356cbffb4cea5170d04fd9","WtyS2yL29TewiXVir2Opb3UxGam1","3","images/choice_trial_11.png","images/choice_trial_2.png","images/pattern_5.png","j","f","750","11","2","4","0","33","1","0","11","220","","","","",""
"html-keyboard-response","183","474445","0.0-76.0-1.0","","null","<div style=""display: flex; flex-direction: column; align-items: center; margin-top: -40px;""><img src=""images/pattern_5.png"" style=""width: 234px; height: 230px; margin-top: -50px;""><div style=""display: flex; justify-content: space-between; margin-top: 33px;""><img src=""images/choice_trial_11.png"" style=""width: 408px; height: 417px; margin-right: 608px;""></div></div>","null","delaylearn","learning","display_response","5f356cbffb4cea5170d04fd9","WtyS2yL29TewiXVir2Opb3UxGam1","","","","","","","","","","","","","","","","","chosen stimuli: images/choice_trial_11.png","","","",""
"html-keyboard-response","184","475198","0.0-76.0-2.0","","null","","null","delaylearn","learning","feedback_duration_window","5f356cbffb4cea5170d04fd9","WtyS2yL29TewiXVir2Opb3UxGam1","","","","","","","","","","","","","","","","","","750","","",""
"html-keyboard-response","185","476701","0.0-76.0-3.0","","null","<div style='margin:auto;width: auto; font-size: 150%'><span style='font-weight: bold; font-size: 100px; color: red;'>0 points!</span><br><br></div>","null","delaylearn","learning","feedback_image_window","5f356cbffb4cea5170d04fd9","WtyS2yL29TewiXVir2Opb3UxGam1","","","","","","","","","","","","","","","","","","","","",""
"html-keyboard-response","186","478282","0.0-77.0","","null","<div style=""font-size:100px;"">+</div>","null","delaylearn","learning","ITI","5f356cbffb4cea5170d04fd9","WtyS2yL29TewiXVir2Opb3UxGam1","","","","","","","","","","","","","","","","","","","1579","",""
"html-keyboard-response","187","479435","0.0-78.0-0.0","","1150.5","<div style=""display: flex; flex-direction: column; align-items: center; margin-top: -40px;""><img src=""images/pattern_1.png"" style=""width: 234px; height: 230px; margin-top: -50px;""><div style=""display: flex; justify-content: space-between; margin-top: 33px;""><img src=""images/choice_trial_14.png"" style=""width: 408px; height: 417px; margin-right: 200px;""><img src=""images/choice_trial_8.png"" style=""width: 408px; height: 417px;""></div></div>","f","delaylearn","learning","trial","5f356cbffb4cea5170d04fd9","WtyS2yL29TewiXVir2Opb3UxGam1","3","images/choice_trial_14.png","images/choice_trial_8.png","images/pattern_1.png","f","f","7000","14","8","1","0","34","1","1","14","230","","","","",""
"html-keyboard-response","188","480439","0.0-78.0-1.0","","null","<div style=""display: flex; flex-direction: column; align-items: center; margin-top: -40px;""><img src=""images/pattern_1.png"" style=""width: 234px; height: 230px; margin-top: -50px;""><div style=""display: flex; justify-content: space-between; margin-top: 33px;""><img src=""images/choice_trial_14.png"" style=""width: 408px; height: 417px; margin-right: 608px;""></div></div>","null","delaylearn","learning","display_response","5f356cbffb4cea5170d04fd9","WtyS2yL29TewiXVir2Opb3UxGam1","","","","","","","","","","","","","","","","","chosen stimuli: images/choice_trial_14.png","","","",""
"html-keyboard-response","189","487442","0.0-78.0-2.0","","null","","null","delaylearn","learning","feedback_duration_window","5f356cbffb4cea5170d04fd9","WtyS2yL29TewiXVir2Opb3UxGam1","","","","","","","","","","","","","","","","","","7000","","",""
"html-keyboard-response","190","488944","0.0-78.0-3.0","","null","<div style='margin:auto;width: auto; font-size: 150%'><span style='font-weight: bold; font-size: 100px; color: green;'>+10 points!</span><br><br></div>","null","delaylearn","learning","feedback_image_window","5f356cbffb4cea5170d04fd9","WtyS2yL29TewiXVir2Opb3UxGam1","","","","","","","","","","","","","","","","","","","","",""
"html-keyboard-response","191","489447","0.0-79.0-0.0","","null","","null","","","mood_trial_fixation","","","","","","","","","","","","","","","","","","","","","","",""
"lmdlab-html-vas-response","192","493698","0.0-79.0-1.0","","3246","How happy are you right now?","0.6291666666666667","delaylearn","learning","mood_trial","5f356cbffb4cea5170d04fd9","WtyS2yL29TewiXVir2Opb3UxGam1","","","","","","","","","","","","","","","","","","","","[""Very unhappy"",""Very happy""]",""
"html-keyboard-response","193","495735","0.0-80.0","","null","<div style=""font-size:100px;"">+</div>","null","delaylearn","learning","ITI","5f356cbffb4cea5170d04fd9","WtyS2yL29TewiXVir2Opb3UxGam1","","","","","","","","","","","","","","","","","","","2035","",""
"html-keyboard-response","194","496665","0.0-81.0-0.0","","927.4000000022352","<div style=""display: flex; flex-direction: column; align-items: center; margin-top: -40px;""><img src=""images/pattern_6.png"" style=""width: 234px; height: 230px; margin-top: -50px;""><div style=""display: flex; justify-content: space-between; margin-top: 33px;""><img src=""images/choice_trial_16.png"" style=""width: 408px; height: 417px; margin-right: 200px;""><img src=""images/choice_trial_3.png"" style=""width: 408px; height: 417px;""></div></div>","f","delaylearn","learning","trial","5f356cbffb4cea5170d04fd9","WtyS2yL29TewiXVir2Opb3UxGam1","3","images/choice_trial_16.png","images/choice_trial_3.png","images/pattern_6.png","j","f","750","16","3","5","0","35","1","0","16","230","","","","",""
"html-keyboard-response","195","497668","0.0-81.0-1.0","","null","<div style=""display: flex; flex-direction: column; align-items: center; margin-top: -40px;""><img src=""images/pattern_6.png"" style=""width: 234px; height: 230px; margin-top: -50px;""><div style=""display: flex; justify-content: space-between; margin-top: 33px;""><img src=""images/choice_trial_16.png"" style=""width: 408px; height: 417px; margin-right: 608px;""></div></div>","null","delaylearn","learning","display_response","5f356cbffb4cea5170d04fd9","WtyS2yL29TewiXVir2Opb3UxGam1","","","","","","","","","","","","","","","","","chosen stimuli: images/choice_trial_16.png","","","",""
"html-keyboard-response","196","498420","0.0-81.0-2.0","","null","","null","delaylearn","learning","feedback_duration_window","5f356cbffb4cea5170d04fd9","WtyS2yL29TewiXVir2Opb3UxGam1","","","","","","","","","","","","","","","","","","750","","",""
"html-keyboard-response","197","499923","0.0-81.0-3.0","","null","<div style='margin:auto;width: auto; font-size: 150%'><span style='font-weight: bold; font-size: 100px; color: red;'>0 points!</span><br><br></div>","null","delaylearn","learning","feedback_image_window","5f356cbffb4cea5170d04fd9","WtyS2yL29TewiXVir2Opb3UxGam1","","","","","","","","","","","","","","","","","","","","",""
"html-keyboard-response","198","502269","0.0-82.0","","null","<div style=""font-size:100px;"">+</div>","null","delaylearn","learning","ITI","5f356cbffb4cea5170d04fd9","WtyS2yL29TewiXVir2Opb3UxGam1","","","","","","","","","","","","","","","","","","","2344","",""
"html-keyboard-response","199","503239","0.0-83.0-0.0","","967.3000000007451","<div style=""display: flex; flex-direction: column; align-items: center; margin-top: -40px;""><img src=""images/pattern_3.png"" style=""width: 234px; height: 230px; margin-top: -50px;""><div style=""display: flex; justify-content: space-between; margin-top: 33px;""><img src=""images/choice_trial_10.png"" style=""width: 408px; height: 417px; margin-right: 200px;""><img src=""images/choice_trial_13.png"" style=""width: 408px; height: 417px;""></div></div>","j","delaylearn","learning","trial","5f356cbffb4cea5170d04fd9","WtyS2yL29TewiXVir2Opb3UxGam1","3","images/choice_trial_10.png","images/choice_trial_13.png","images/pattern_3.png","j","j","7000","10","13","2","1","36","1","1","13","240","","","","",""
"html-keyboard-response","200","504242","0.0-83.0-1.0","","null","<div style=""display: flex; flex-direction: column; align-items: center; margin-top: -40px;""><img src=""images/pattern_3.png"" style=""width: 234px; height: 230px; margin-top: -50px;""><div style=""display: flex; justify-content: space-between; margin-top: 33px;""><img src=""images/choice_trial_13.png"" style=""width: 408px; height: 417px; margin-left:608px;""></div></div>","null","delaylearn","learning","display_response","5f356cbffb4cea5170d04fd9","WtyS2yL29TewiXVir2Opb3UxGam1","","","","","","","","","","","","","","","","","chosen stimuli: images/choice_trial_13.png","","","",""
"html-keyboard-response","201","511244","0.0-83.0-2.0","","null","","null","delaylearn","learning","feedback_duration_window","5f356cbffb4cea5170d04fd9","WtyS2yL29TewiXVir2Opb3UxGam1","","","","","","","","","","","","","","","","","","7000","","",""
"html-keyboard-response","202","512748","0.0-83.0-3.0","","null","<div style='margin:auto;width: auto; font-size: 150%'><span style='font-weight: bold; font-size: 100px; color: green;'>+10 points!</span><br><br></div>","null","delaylearn","learning","feedback_image_window","5f356cbffb4cea5170d04fd9","WtyS2yL29TewiXVir2Opb3UxGam1","","","","","","","","","","","","","","","","","","","","",""
"html-keyboard-response","203","514895","0.0-84.0","","null","<div style=""font-size:100px;"">+</div>","null","delaylearn","learning","ITI","5f356cbffb4cea5170d04fd9","WtyS2yL29TewiXVir2Opb3UxGam1","","","","","","","","","","","","","","","","","","","2145","",""
"html-keyboard-response","204","516034","0.0-85.0-0.0","","1136.199999999255","<div style=""display: flex; flex-direction: column; align-items: center; margin-top: -40px;""><img src=""images/pattern_4.png"" style=""width: 234px; height: 230px; margin-top: -50px;""><div style=""display: flex; justify-content: space-between; margin-top: 33px;""><img src=""images/choice_trial_9.png"" style=""width: 408px; height: 417px; margin-right: 200px;""><img src=""images/choice_trial_15.png"" style=""width: 408px; height: 417px;""></div></div>","j","delaylearn","learning","trial","5f356cbffb4cea5170d04fd9","WtyS2yL29TewiXVir2Opb3UxGam1","3","images/choice_trial_9.png","images/choice_trial_15.png","images/pattern_4.png","f","j","7000","9","15","3","1","37","1","0","15","240","","","","",""
"html-keyboard-response","205","517037","0.0-85.0-1.0","","null","<div style=""display: flex; flex-direction: column; align-items: center; margin-top: -40px;""><img src=""images/pattern_4.png"" style=""width: 234px; height: 230px; margin-top: -50px;""><div style=""display: flex; justify-content: space-between; margin-top: 33px;""><img src=""images/choice_trial_15.png"" style=""width: 408px; height: 417px; margin-left:608px;""></div></div>","null","delaylearn","learning","display_response","5f356cbffb4cea5170d04fd9","WtyS2yL29TewiXVir2Opb3UxGam1","","","","","","","","","","","","","","","","","chosen stimuli: images/choice_trial_15.png","","","",""
"html-keyboard-response","206","524040","0.0-85.0-2.0","","null","","null","delaylearn","learning","feedback_duration_window","5f356cbffb4cea5170d04fd9","WtyS2yL29TewiXVir2Opb3UxGam1","","","","","","","","","","","","","","","","","","7000","","",""
"html-keyboard-response","207","525543","0.0-85.0-3.0","","null","<div style='margin:auto;width: auto; font-size: 150%'><span style='font-weight: bold; font-size: 100px; color: red;'>0 points!</span><br><br></div>","null","delaylearn","learning","feedback_image_window","5f356cbffb4cea5170d04fd9","WtyS2yL29TewiXVir2Opb3UxGam1","","","","","","","","","","","","","","","","","","","","",""
"html-keyboard-response","208","527314","0.0-86.0","","null","<div style=""font-size:100px;"">+</div>","null","delaylearn","learning","ITI","5f356cbffb4cea5170d04fd9","WtyS2yL29TewiXVir2Opb3UxGam1","","","","","","","","","","","","","","","","","","","1769","",""
"html-keyboard-response","209","528403","0.0-87.0-0.0","","1086.4000000022352","<div style=""display: flex; flex-direction: column; align-items: center; margin-top: -40px;""><img src=""images/pattern_7.png"" style=""width: 234px; height: 230px; margin-top: -50px;""><div style=""display: flex; justify-content: space-between; margin-top: 33px;""><img src=""images/choice_trial_6.png"" style=""width: 408px; height: 417px; margin-right: 200px;""><img src=""images/choice_trial_12.png"" style=""width: 408px; height: 417px;""></div></div>","f","delaylearn","learning","trial","5f356cbffb4cea5170d04fd9","WtyS2yL29TewiXVir2Opb3UxGam1","3","images/choice_trial_6.png","images/choice_trial_12.png","images/pattern_7.png","f","f","750","6","12","6","0","38","1","1","6","250","","","","",""
"html-keyboard-response","210","529406","0.0-87.0-1.0","","null","<div style=""display: flex; flex-direction: column; align-items: center; margin-top: -40px;""><img src=""images/pattern_7.png"" style=""width: 234px; height: 230px; margin-top: -50px;""><div style=""display: flex; justify-content: space-between; margin-top: 33px;""><img src=""images/choice_trial_6.png"" style=""width: 408px; height: 417px; margin-right: 608px;""></div></div>","null","delaylearn","learning","display_response","5f356cbffb4cea5170d04fd9","WtyS2yL29TewiXVir2Opb3UxGam1","","","","","","","","","","","","","","","","","chosen stimuli: images/choice_trial_6.png","","","",""
"html-keyboard-response","211","530159","0.0-87.0-2.0","","null","","null","delaylearn","learning","feedback_duration_window","5f356cbffb4cea5170d04fd9","WtyS2yL29TewiXVir2Opb3UxGam1","","","","","","","","","","","","","","","","","","750","","",""
"html-keyboard-response","212","531663","0.0-87.0-3.0","","null","<div style='margin:auto;width: auto; font-size: 150%'><span style='font-weight: bold; font-size: 100px; color: green;'>+10 points!</span><br><br></div>","null","delaylearn","learning","feedback_image_window","5f356cbffb4cea5170d04fd9","WtyS2yL29TewiXVir2Opb3UxGam1","","","","","","","","","","","","","","","","","","","","",""
"html-keyboard-response","213","533908","0.0-88.0","","null","<div style=""font-size:100px;"">+</div>","null","delaylearn","learning","ITI","5f356cbffb4cea5170d04fd9","WtyS2yL29TewiXVir2Opb3UxGam1","","","","","","","","","","","","","","","","","","","2243","",""
"html-keyboard-response","214","535109","0.0-89.0-0.0","","1197.9000000022352","<div style=""display: flex; flex-direction: column; align-items: center; margin-top: -40px;""><img src=""images/pattern_1.png"" style=""width: 234px; height: 230px; margin-top: -50px;""><div style=""display: flex; justify-content: space-between; margin-top: 33px;""><img src=""images/choice_trial_14.png"" style=""width: 408px; height: 417px; margin-right: 200px;""><img src=""images/choice_trial_8.png"" style=""width: 408px; height: 417px;""></div></div>","f","delaylearn","learning","trial","5f356cbffb4cea5170d04fd9","WtyS2yL29TewiXVir2Opb3UxGam1","3","images/choice_trial_14.png","images/choice_trial_8.png","images/pattern_1.png","f","f","7000","14","8","1","0","39","1","1","14","260","","","","",""
"html-keyboard-response","215","536113","0.0-89.0-1.0","","null","<div style=""display: flex; flex-direction: column; align-items: center; margin-top: -40px;""><img src=""images/pattern_1.png"" style=""width: 234px; height: 230px; margin-top: -50px;""><div style=""display: flex; justify-content: space-between; margin-top: 33px;""><img src=""images/choice_trial_14.png"" style=""width: 408px; height: 417px; margin-right: 608px;""></div></div>","null","delaylearn","learning","display_response","5f356cbffb4cea5170d04fd9","WtyS2yL29TewiXVir2Opb3UxGam1","","","","","","","","","","","","","","","","","chosen stimuli: images/choice_trial_14.png","","","",""
"html-keyboard-response","216","543116","0.0-89.0-2.0","","null","","null","delaylearn","learning","feedback_duration_window","5f356cbffb4cea5170d04fd9","WtyS2yL29TewiXVir2Opb3UxGam1","","","","","","","","","","","","","","","","","","7000","","",""
"html-keyboard-response","217","544619","0.0-89.0-3.0","","null","<div style='margin:auto;width: auto; font-size: 150%'><span style='font-weight: bold; font-size: 100px; color: green;'>+10 points!</span><br><br></div>","null","delaylearn","learning","feedback_image_window","5f356cbffb4cea5170d04fd9","WtyS2yL29TewiXVir2Opb3UxGam1","","","","","","","","","","","","","","","","","","","","",""
"html-keyboard-response","218","545121","0.0-90.0-0.0","","null","","null","","","mood_trial_fixation","","","","","","","","","","","","","","","","","","","","","","",""
"lmdlab-html-vas-response","219","549088","0.0-90.0-1.0","","2962","How happy are you right now?","0.675","delaylearn","learning","mood_trial","5f356cbffb4cea5170d04fd9","WtyS2yL29TewiXVir2Opb3UxGam1","","","","","","","","","","","","","","","","","","","","[""Very unhappy"",""Very happy""]",""
"html-keyboard-response","220","550972","0.0-91.0","","null","<div style=""font-size:100px;"">+</div>","null","delaylearn","learning","ITI","5f356cbffb4cea5170d04fd9","WtyS2yL29TewiXVir2Opb3UxGam1","","","","","","","","","","","","","","","","","","","1882","",""
