"trial_type","trial_index","time_elapsed","internal_node_id","participant","rt","stimulus","response","exp_name","exp_stage","test_part","subjectID","databaseID","counterbal","choice_stimuli_1","choice_stimuli_2","pattern_stimuli","rewarded_answer","correct_answer","feedback_duration_times","stim_left","stim_right","pair","leftright_counter","trial","response_correct","response_rewarded","chosen_stim","counter","displayed_choice","feedback_durations","ITI_duration","labels","rest_warning"
"pavlovia","0","906","0.0-0.0","","","","","","","","","","","","","","","","","","","","","","","","","","","","","",""
"html-keyboard-response","1","3911","0.0-1.0","","null","<div style=""font-size:100px;"">+</div>","null","delaylearn","learning","pre_fixation","632c78dac01ee4ebd60f742c","","","","","","","","","","","","","","","","","","","","","",""
"html-keyboard-response","2","5577","0.0-2.0-0.0","","1659.7000000476837","<div style=""display: flex; flex-direction: column; align-items: center; margin-top: -40px;""><img src=""images/demo_images/pattern_1.png"" style=""width: 234px; height: 230px; margin-top: -50px;""><div style=""display: flex; justify-content: space-between; margin-top: 33px;""><img src=""images/demo_images/choice_trial_2.png"" style=""width: 408px; height: 417px; margin-right: 200px;""><img src=""images/demo_images/choice_trial_1.png"" style=""width: 408px; height: 417px;""></div></div>","f","delaylearn","learning","trial","632c78dac01ee4ebd60f742c","3WcJgEiPKqP79mskeCJe1re63uJ3","5","images/demo_images/choice_trial_2.png","images/demo_images/choice_trial_1.png","images/demo_images/pattern_1.png","j","j","3000","2","1","20","1","1","0","0","2","0","","","","",""
"html-keyboard-response","3","6595","0.0-2.0-1.0","","null","<div style=""display: flex; flex-direction: column; align-items: center; margin-top: -40px;""><img src=""images/demo_images/pattern_1.png"" style=""width: 234px; height: 230px; margin-top: -50px;""><div style=""display: flex; justify-content: space-between; margin-top: 33px;""><img src=""images/demo_images/choice_trial_2.png"" style=""width: 408px; height: 417px; margin-right: 608px;""></div></div>","null","delaylearn","learning","display_response","632c78dac01ee4ebd60f742c","3WcJgEiPKqP79mskeCJe1re63uJ3","","","","","","","","","","","","","","","","","chosen stimuli: images/demo_images/choice_trial_2.png","","","",""
"html-keyboard-response","4","9611","0.0-2.0-2.0","","null","","null","delaylearn","learning","feedback_duration_window","632c78dac01ee4ebd60f742c","3WcJgEiPKqP79mskeCJe1re63uJ3","","","","","","","","","","","","","","","","","","3000","","",""
"html-keyboard-response","5","11119","0.0-2.0-3.0","","null","<div style='margin:auto;width: auto; font-size: 150%'><span style='font-weight: bold; font-size: 100px; color: red;'>0 points!</span><br><br></div>","null","delaylearn","learning","feedback_image_window","632c78dac01ee4ebd60f742c","3WcJgEiPKqP79mskeCJe1re63uJ3","","","","","","","","","","","","","","","","","","","","",""
"html-keyboard-response","6","13535","0.0-3.0","","null","<div style=""font-size:100px;"">+</div>","null","delaylearn","learning","ITI","632c78dac01ee4ebd60f742c","3WcJgEiPKqP79mskeCJe1re63uJ3","","","","","","","","","","","","","","","","","","","2399","",""
"html-keyboard-response","7","14418","0.0-4.0-0.0","","880","<div style=""display: flex; flex-direction: column; align-items: center; margin-top: -40px;""><img src=""images/demo_images/pattern_1.png"" style=""width: 234px; height: 230px; margin-top: -50px;""><div style=""display: flex; justify-content: space-between; margin-top: 33px;""><img src=""images/demo_images/choice_trial_2.png"" style=""width: 408px; height: 417px; margin-right: 200px;""><img src=""images/demo_images/choice_trial_1.png"" style=""width: 408px; height: 417px;""></div></div>","j","delaylearn","learning","trial","632c78dac01ee4ebd60f742c","3WcJgEiPKqP79mskeCJe1re63uJ3","5","images/demo_images/choice_trial_2.png","images/demo_images/choice_trial_1.png","images/demo_images/pattern_1.png","j","j","3000","2","1","20","1","2","1","1","1","10","","","","",""
"html-keyboard-response","8","15423","0.0-4.0-1.0","","null","<div style=""display: flex; flex-direction: column; align-items: center; margin-top: -40px;""><img src=""images/demo_images/pattern_1.png"" style=""width: 234px; height: 230px; margin-top: -50px;""><div style=""display: flex; justify-content: space-between; margin-top: 33px;""><img src=""images/demo_images/choice_trial_1.png"" style=""width: 408px; height: 417px; margin-left:608px;""></div></div>","null","delaylearn","learning","display_response","632c78dac01ee4ebd60f742c","3WcJgEiPKqP79mskeCJe1re63uJ3","","","","","","","","","","","","","","","","","chosen stimuli: images/demo_images/choice_trial_1.png","","","",""
"html-keyboard-response","9","18428","0.0-4.0-2.0","","null","","null","delaylearn","learning","feedback_duration_window","632c78dac01ee4ebd60f742c","3WcJgEiPKqP79mskeCJe1re63uJ3","","","","","","","","","","","","","","","","","","3000","","",""
"html-keyboard-response","10","19945","0.0-4.0-3.0","","null","<div style='margin:auto;width: auto; font-size: 150%'><span style='font-weight: bold; font-size: 100px; color: green;'>+10 points!</span><br><br></div>","null","delaylearn","learning","feedback_image_window","632c78dac01ee4ebd60f742c","3WcJgEiPKqP79mskeCJe1re63uJ3","","","","","","","","","","","","","","","","","","","","",""
"html-keyboard-response","11","22154","0.0-5.0","","null","<div style=""font-size:100px;"">+</div>","null","delaylearn","learning","ITI","632c78dac01ee4ebd60f742c","3WcJgEiPKqP79mskeCJe1re63uJ3","","","","","","","","","","","","","","","","","","","2198","",""
"html-keyboard-response","12","22681","0.0-6.0-0.0","","524.5999999046326","<div style=""display: flex; flex-direction: column; align-items: center; margin-top: -40px;""><img src=""images/demo_images/pattern_1.png"" style=""width: 234px; height: 230px; margin-top: -50px;""><div style=""display: flex; justify-content: space-between; margin-top: 33px;""><img src=""images/demo_images/choice_trial_1.png"" style=""width: 408px; height: 417px; margin-right: 200px;""><img src=""images/demo_images/choice_trial_2.png"" style=""width: 408px; height: 417px;""></div></div>","f","delaylearn","learning","trial","632c78dac01ee4ebd60f742c","3WcJgEiPKqP79mskeCJe1re63uJ3","5","images/demo_images/choice_trial_1.png","images/demo_images/choice_trial_2.png","images/demo_images/pattern_1.png","j","f","3000","1","2","20","0","3","1","0","1","10","","","","",""
"html-keyboard-response","13","23692","0.0-6.0-1.0","","null","<div style=""display: flex; flex-direction: column; align-items: center; margin-top: -40px;""><img src=""images/demo_images/pattern_1.png"" style=""width: 234px; height: 230px; margin-top: -50px;""><div style=""display: flex; justify-content: space-between; margin-top: 33px;""><img src=""images/demo_images/choice_trial_1.png"" style=""width: 408px; height: 417px; margin-right: 608px;""></div></div>","null","delaylearn","learning","display_response","632c78dac01ee4ebd60f742c","3WcJgEiPKqP79mskeCJe1re63uJ3","","","","","","","","","","","","","","","","","chosen stimuli: images/demo_images/choice_trial_1.png","","","",""
"html-keyboard-response","14","26702","0.0-6.0-2.0","","null","","null","delaylearn","learning","feedback_duration_window","632c78dac01ee4ebd60f742c","3WcJgEiPKqP79mskeCJe1re63uJ3","","","","","","","","","","","","","","","","","","3000","","",""
"html-keyboard-response","15","28209","0.0-6.0-3.0","","null","<div style='margin:auto;width: auto; font-size: 150%'><span style='font-weight: bold; font-size: 100px; color: red;'>0 points!</span><br><br></div>","null","delaylearn","learning","feedback_image_window","632c78dac01ee4ebd60f742c","3WcJgEiPKqP79mskeCJe1re63uJ3","","","","","","","","","","","","","","","","","","","","",""
"html-keyboard-response","16","29950","0.0-7.0","","null","<div style=""font-size:100px;"">+</div>","null","delaylearn","learning","ITI","632c78dac01ee4ebd60f742c","3WcJgEiPKqP79mskeCJe1re63uJ3","","","","","","","","","","","","","","","","","","","1738","",""
"html-keyboard-response","17","31834","0.0-8.0-0.0","","1882.7000000476837","<div style=""display: flex; flex-direction: column; align-items: center; margin-top: -40px;""><img src=""images/demo_images/pattern_1.png"" style=""width: 234px; height: 230px; margin-top: -50px;""><div style=""display: flex; justify-content: space-between; margin-top: 33px;""><img src=""images/demo_images/choice_trial_1.png"" style=""width: 408px; height: 417px; margin-right: 200px;""><img src=""images/demo_images/choice_trial_2.png"" style=""width: 408px; height: 417px;""></div></div>","f","delaylearn","learning","trial","632c78dac01ee4ebd60f742c","3WcJgEiPKqP79mskeCJe1re63uJ3","5","images/demo_images/choice_trial_1.png","images/demo_images/choice_trial_2.png","images/demo_images/pattern_1.png","f","f","3000","1","2","20","0","4","1","1","1","20","","","","",""
"html-keyboard-response","18","32846","0.0-8.0-1.0","","null","<div style=""display: flex; flex-direction: column; align-items: center; margin-top: -40px;""><img src=""images/demo_images/pattern_1.png"" style=""width: 234px; height: 230px; margin-top: -50px;""><div style=""display: flex; justify-content: space-between; margin-top: 33px;""><img src=""images/demo_images/choice_trial_1.png"" style=""width: 408px; height: 417px; margin-right: 608px;""></div></div>","null","delaylearn","learning","display_response","632c78dac01ee4ebd60f742c","3WcJgEiPKqP79mskeCJe1re63uJ3","","","","","","","","","","","","","","","","","chosen stimuli: images/demo_images/choice_trial_1.png","","","",""
"html-keyboard-response","19","35854","0.0-8.0-2.0","","null","","null","delaylearn","learning","feedback_duration_window","632c78dac01ee4ebd60f742c","3WcJgEiPKqP79mskeCJe1re63uJ3","","","","","","","","","","","","","","","","","","3000","","",""
"html-keyboard-response","20","37366","0.0-8.0-3.0","","null","<div style='margin:auto;width: auto; font-size: 150%'><span style='font-weight: bold; font-size: 100px; color: green;'>+10 points!</span><br><br></div>","null","delaylearn","learning","feedback_image_window","632c78dac01ee4ebd60f742c","3WcJgEiPKqP79mskeCJe1re63uJ3","","","","","","","","","","","","","","","","","","","","",""
"html-keyboard-response","21","37880","0.0-9.0-0.0","","null","","null","","","mood_trial_fixation","","","","","","","","","","","","","","","","","","","","","","",""
"lmdlab-html-vas-response","22","42229","0.0-9.0-1.0","","3325","How happy are you right now?","0.48265572547556884","delaylearn","learning","mood_trial","632c78dac01ee4ebd60f742c","3WcJgEiPKqP79mskeCJe1re63uJ3","","","","","","","","","","","","","","","","","","","","[""Very unhappy"",""Very happy""]",""
"html-keyboard-response","23","44712","0.0-10.0","","null","<div style=""font-size:100px;"">+</div>","null","delaylearn","learning","ITI","632c78dac01ee4ebd60f742c","3WcJgEiPKqP79mskeCJe1re63uJ3","","","","","","","","","","","","","","","","","","","2478","",""
"html-keyboard-response","24","45422","0.0-11.0-0.0","","705.6000001430511","<div style=""display: flex; flex-direction: column; align-items: center; margin-top: -40px;""><img src=""images/demo_images/pattern_1.png"" style=""width: 234px; height: 230px; margin-top: -50px;""><div style=""display: flex; justify-content: space-between; margin-top: 33px;""><img src=""images/demo_images/choice_trial_2.png"" style=""width: 408px; height: 417px; margin-right: 200px;""><img src=""images/demo_images/choice_trial_1.png"" style=""width: 408px; height: 417px;""></div></div>","j","delaylearn","learning","trial","632c78dac01ee4ebd60f742c","3WcJgEiPKqP79mskeCJe1re63uJ3","5","images/demo_images/choice_trial_2.png","images/demo_images/choice_trial_1.png","images/demo_images/pattern_1.png","j","j","3000","2","1","20","1","5","1","1","1","30","","","","",""
"html-keyboard-response","25","46433","0.0-11.0-1.0","","null","<div style=""display: flex; flex-direction: column; align-items: center; margin-top: -40px;""><img src=""images/demo_images/pattern_1.png"" style=""width: 234px; height: 230px; margin-top: -50px;""><div style=""display: flex; justify-content: space-between; margin-top: 33px;""><img src=""images/demo_images/choice_trial_1.png"" style=""width: 408px; height: 417px; margin-left:608px;""></div></div>","null","delaylearn","learning","display_response","632c78dac01ee4ebd60f742c","3WcJgEiPKqP79mskeCJe1re63uJ3","","","","","","","","","","","","","","","","","chosen stimuli: images/demo_images/choice_trial_1.png","","","",""
"html-keyboard-response","26","49448","0.0-11.0-2.0","","null","","null","delaylearn","learning","feedback_duration_window","632c78dac01ee4ebd60f742c","3WcJgEiPKqP79mskeCJe1re63uJ3","","","","","","","","","","","","","","","","","","3000","","",""
"html-keyboard-response","27","50958","0.0-11.0-3.0","","null","<div style='margin:auto;width: auto; font-size: 150%'><span style='font-weight: bold; font-size: 100px; color: green;'>+10 points!</span><br><br></div>","null","delaylearn","learning","feedback_image_window","632c78dac01ee4ebd60f742c","3WcJgEiPKqP79mskeCJe1re63uJ3","","","","","","","","","","","","","","","","","","","","",""
"html-keyboard-response","28","52735","0.0-12.0","","null","<div style=""font-size:100px;"">+</div>","null","delaylearn","learning","ITI","632c78dac01ee4ebd60f742c","3WcJgEiPKqP79mskeCJe1re63uJ3","","","","","","","","","","","","","","","","","","","1769","",""
"html-keyboard-response","29","53282","0.0-13.0-0.0","","544.5999999046326","<div style=""display: flex; flex-direction: column; align-items: center; margin-top: -40px;""><img src=""images/demo_images/pattern_1.png"" style=""width: 234px; height: 230px; margin-top: -50px;""><div style=""display: flex; justify-content: space-between; margin-top: 33px;""><img src=""images/demo_images/choice_trial_1.png"" style=""width: 408px; height: 417px; margin-right: 200px;""><img src=""images/demo_images/choice_trial_2.png"" style=""width: 408px; height: 417px;""></div></div>","f","delaylearn","learning","trial","632c78dac01ee4ebd60f742c","3WcJgEiPKqP79mskeCJe1re63uJ3","5","images/demo_images/choice_trial_1.png","images/demo_images/choice_trial_2.png","images/demo_images/pattern_1.png","f","f","3000","1","2","20","0","6","1","1","1","40","","","","",""
"html-keyboard-response","30","54294","0.0-13.0-1.0","","null","<div style=""display: flex; flex-direction: column; align-items: center; margin-top: -40px;""><img src=""images/demo_images/pattern_1.png"" style=""width: 234px; height: 230px; margin-top: -50px;""><div style=""display: flex; justify-content: space-between; margin-top: 33px;""><img src=""images/demo_images/choice_trial_1.png"" style=""width: 408px; height: 417px; margin-right: 608px;""></div></div>","null","delaylearn","learning","display_response","632c78dac01ee4ebd60f742c","3WcJgEiPKqP79mskeCJe1re63uJ3","","","","","","","","","","","","","","","","","chosen stimuli: images/demo_images/choice_trial_1.png","","","",""
"html-keyboard-response","31","57296","0.0-13.0-2.0","","null","","null","delaylearn","learning","feedback_duration_window","632c78dac01ee4ebd60f742c","3WcJgEiPKqP79mskeCJe1re63uJ3","","","","","","","","","","","","","","","","","","3000","","",""
"html-keyboard-response","32","58808","0.0-13.0-3.0","","null","<div style='margin:auto;width: auto; font-size: 150%'><span style='font-weight: bold; font-size: 100px; color: green;'>+10 points!</span><br><br></div>","null","delaylearn","learning","feedback_image_window","632c78dac01ee4ebd60f742c","3WcJgEiPKqP79mskeCJe1re63uJ3","","","","","","","","","","","","","","","","","","","","",""
"html-keyboard-response","33","60474","0.0-14.0","","null","<div style=""font-size:100px;"">+</div>","null","delaylearn","learning","ITI","632c78dac01ee4ebd60f742c","3WcJgEiPKqP79mskeCJe1re63uJ3","","","","","","","","","","","","","","","","","","","1656","",""
"html-keyboard-response","34","61835","0.0-15.0-0.0","","1358.2999999523163","<div style=""display: flex; flex-direction: column; align-items: center; margin-top: -40px;""><img src=""images/demo_images/pattern_1.png"" style=""width: 234px; height: 230px; margin-top: -50px;""><div style=""display: flex; justify-content: space-between; margin-top: 33px;""><img src=""images/demo_images/choice_trial_2.png"" style=""width: 408px; height: 417px; margin-right: 200px;""><img src=""images/demo_images/choice_trial_1.png"" style=""width: 408px; height: 417px;""></div></div>","j","delaylearn","learning","trial","632c78dac01ee4ebd60f742c","3WcJgEiPKqP79mskeCJe1re63uJ3","5","images/demo_images/choice_trial_2.png","images/demo_images/choice_trial_1.png","images/demo_images/pattern_1.png","j","j","3000","2","1","20","1","7","1","1","1","50","","","","",""
"html-keyboard-response","35","62847","0.0-15.0-1.0","","null","<div style=""display: flex; flex-direction: column; align-items: center; margin-top: -40px;""><img src=""images/demo_images/pattern_1.png"" style=""width: 234px; height: 230px; margin-top: -50px;""><div style=""display: flex; justify-content: space-between; margin-top: 33px;""><img src=""images/demo_images/choice_trial_1.png"" style=""width: 408px; height: 417px; margin-left:608px;""></div></div>","null","delaylearn","learning","display_response","632c78dac01ee4ebd60f742c","3WcJgEiPKqP79mskeCJe1re63uJ3","","","","","","","","","","","","","","","","","chosen stimuli: images/demo_images/choice_trial_1.png","","","",""
"html-keyboard-response","36","65861","0.0-15.0-2.0","","null","","null","delaylearn","learning","feedback_duration_window","632c78dac01ee4ebd60f742c","3WcJgEiPKqP79mskeCJe1re63uJ3","","","","","","","","","","","","","","","","","","3000","","",""
"html-keyboard-response","37","67367","0.0-15.0-3.0","","null","<div style='margin:auto;width: auto; font-size: 150%'><span style='font-weight: bold; font-size: 100px; color: green;'>+10 points!</span><br><br></div>","null","delaylearn","learning","feedback_image_window","632c78dac01ee4ebd60f742c","3WcJgEiPKqP79mskeCJe1re63uJ3","","","","","","","","","","","","","","","","","","","","",""
"html-keyboard-response","38","68970","0.0-16.0","","null","<div style=""font-size:100px;"">+</div>","null","delaylearn","learning","ITI","632c78dac01ee4ebd60f742c","3WcJgEiPKqP79mskeCJe1re63uJ3","","","","","","","","","","","","","","","","","","","1591","",""
"html-keyboard-response","39","69628","0.0-17.0-0.0","","655.5","<div style=""display: flex; flex-direction: column; align-items: center; margin-top: -40px;""><img src=""images/demo_images/pattern_1.png"" style=""width: 234px; height: 230px; margin-top: -50px;""><div style=""display: flex; justify-content: space-between; margin-top: 33px;""><img src=""images/demo_images/choice_trial_1.png"" style=""width: 408px; height: 417px; margin-right: 200px;""><img src=""images/demo_images/choice_trial_2.png"" style=""width: 408px; height: 417px;""></div></div>","f","delaylearn","learning","trial","632c78dac01ee4ebd60f742c","3WcJgEiPKqP79mskeCJe1re63uJ3","5","images/demo_images/choice_trial_1.png","images/demo_images/choice_trial_2.png","images/demo_images/pattern_1.png","f","f","3000","1","2","20","0","8","1","1","1","60","","","","",""
"html-keyboard-response","40","70645","0.0-17.0-1.0","","null","<div style=""display: flex; flex-direction: column; align-items: center; margin-top: -40px;""><img src=""images/demo_images/pattern_1.png"" style=""width: 234px; height: 230px; margin-top: -50px;""><div style=""display: flex; justify-content: space-between; margin-top: 33px;""><img src=""images/demo_images/choice_trial_1.png"" style=""width: 408px; height: 417px; margin-right: 608px;""></div></div>","null","delaylearn","learning","display_response","632c78dac01ee4ebd60f742c","3WcJgEiPKqP79mskeCJe1re63uJ3","","","","","","","","","","","","","","","","","chosen stimuli: images/demo_images/choice_trial_1.png","","","",""
"html-keyboard-response","41","73658","0.0-17.0-2.0","","null","","null","delaylearn","learning","feedback_duration_window","632c78dac01ee4ebd60f742c","3WcJgEiPKqP79mskeCJe1re63uJ3","","","","","","","","","","","","","","","","","","3000","","",""
"html-keyboard-response","42","75161","0.0-17.0-3.0","","null","<div style='margin:auto;width: auto; font-size: 150%'><span style='font-weight: bold; font-size: 100px; color: green;'>+10 points!</span><br><br></div>","null","delaylearn","learning","feedback_image_window","632c78dac01ee4ebd60f742c","3WcJgEiPKqP79mskeCJe1re63uJ3","","","","","","","","","","","","","","","","","","","","",""
"html-button-response","43","77619","0.0-18.0","","2456.7000000476837","
  <div style=""display: flex; align-items: center; justify-content: center; height: 80vh;"">
  <div>
          <img src=""images/inst_demo_finish.png"" style=""width: 80vw; height:auto;"">
          <br><br>
      </div>
      <br><br>
  </div>","0","","","","","","","","","","","","","","","","","","","","","","","","","",""
"html-keyboard-response","44","82242","0.0-19.0","","4621.200000047684","
  <div style=""display: flex; align-items: center; justify-content: center; height: 80vh;"">
  <div>
          <img src=""images/inst_6.png"" style=""width: 80vw; height:auto;"">
          <br><br>
      </div>
      <br><br>
  </div>","j","","","","","","","","","","","","","","","","","","","","","","","","","",""
"html-keyboard-response","45","85246","0.0-20.0","","null","<div style=""font-size:100px;"">+</div>","null","delaylearn","learning","pre_fixation","632c78dac01ee4ebd60f742c","","","","","","","","","","","","","","","","","","","","","",""
"html-keyboard-response","46","87660","0.0-21.0","","null","<div style=""font-size:100px;"">+</div>","null","delaylearn","learning","ITI","632c78dac01ee4ebd60f742c","3WcJgEiPKqP79mskeCJe1re63uJ3","","","","","","","","","","","","","","","","","","","2403","",""
"html-keyboard-response","47","89210","0.0-22.0-0.0","","1548.4000000953674","<div style=""display: flex; flex-direction: column; align-items: center; margin-top: -40px;""><img src=""images/pattern_3.png"" style=""width: 234px; height: 230px; margin-top: -50px;""><div style=""display: flex; justify-content: space-between; margin-top: 33px;""><img src=""images/choice_trial_16.png"" style=""width: 408px; height: 417px; margin-right: 200px;""><img src=""images/choice_trial_2.png"" style=""width: 408px; height: 417px;""></div></div>","f","delaylearn","learning","trial","632c78dac01ee4ebd60f742c","3WcJgEiPKqP79mskeCJe1re63uJ3","5","images/choice_trial_16.png","images/choice_trial_2.png","images/pattern_3.png","f","f","7000","16","2","2","0","9","1","1","16","70","","","","",""
"html-keyboard-response","48","90216","0.0-22.0-1.0","","null","<div style=""display: flex; flex-direction: column; align-items: center; margin-top: -40px;""><img src=""images/pattern_3.png"" style=""width: 234px; height: 230px; margin-top: -50px;""><div style=""display: flex; justify-content: space-between; margin-top: 33px;""><img src=""images/choice_trial_16.png"" style=""width: 408px; height: 417px; margin-right: 608px;""></div></div>","null","delaylearn","learning","display_response","632c78dac01ee4ebd60f742c","3WcJgEiPKqP79mskeCJe1re63uJ3","","","","","","","","","","","","","","","","","chosen stimuli: images/choice_trial_16.png","","","",""
"html-keyboard-response","49","97232","0.0-22.0-2.0","","null","","null","delaylearn","learning","feedback_duration_window","632c78dac01ee4ebd60f742c","3WcJgEiPKqP79mskeCJe1re63uJ3","","","","","","","","","","","","","","","","","","7000","","",""
"html-keyboard-response","50","98744","0.0-22.0-3.0","","null","<div style='margin:auto;width: auto; font-size: 150%'><span style='font-weight: bold; font-size: 100px; color: green;'>+10 points!</span><br><br></div>","null","delaylearn","learning","feedback_image_window","632c78dac01ee4ebd60f742c","3WcJgEiPKqP79mskeCJe1re63uJ3","","","","","","","","","","","","","","","","","","","","",""
"html-keyboard-response","51","100907","0.0-23.0","","null","<div style=""font-size:100px;"">+</div>","null","delaylearn","learning","ITI","632c78dac01ee4ebd60f742c","3WcJgEiPKqP79mskeCJe1re63uJ3","","","","","","","","","","","","","","","","","","","2151","",""
"html-keyboard-response","52","102449","0.0-24.0-0.0","","1535.9000000953674","<div style=""display: flex; flex-direction: column; align-items: center; margin-top: -40px;""><img src=""images/pattern_7.png"" style=""width: 234px; height: 230px; margin-top: -50px;""><div style=""display: flex; justify-content: space-between; margin-top: 33px;""><img src=""images/choice_trial_10.png"" style=""width: 408px; height: 417px; margin-right: 200px;""><img src=""images/choice_trial_8.png"" style=""width: 408px; height: 417px;""></div></div>","f","delaylearn","learning","trial","632c78dac01ee4ebd60f742c","3WcJgEiPKqP79mskeCJe1re63uJ3","5","images/choice_trial_10.png","images/choice_trial_8.png","images/pattern_7.png","j","j","750","10","8","6","1","10","0","0","10","70","","","","",""
"html-keyboard-response","53","103462","0.0-24.0-1.0","","null","<div style=""display: flex; flex-direction: column; align-items: center; margin-top: -40px;""><img src=""images/pattern_7.png"" style=""width: 234px; height: 230px; margin-top: -50px;""><div style=""display: flex; justify-content: space-between; margin-top: 33px;""><img src=""images/choice_trial_10.png"" style=""width: 408px; height: 417px; margin-right: 608px;""></div></div>","null","delaylearn","learning","display_response","632c78dac01ee4ebd60f742c","3WcJgEiPKqP79mskeCJe1re63uJ3","","","","","","","","","","","","","","","","","chosen stimuli: images/choice_trial_10.png","","","",""
"html-keyboard-response","54","104223","0.0-24.0-2.0","","null","","null","delaylearn","learning","feedback_duration_window","632c78dac01ee4ebd60f742c","3WcJgEiPKqP79mskeCJe1re63uJ3","","","","","","","","","","","","","","","","","","750","","",""
"html-keyboard-response","55","105728","0.0-24.0-3.0","","null","<div style='margin:auto;width: auto; font-size: 150%'><span style='font-weight: bold; font-size: 100px; color: red;'>0 points!</span><br><br></div>","null","delaylearn","learning","feedback_image_window","632c78dac01ee4ebd60f742c","3WcJgEiPKqP79mskeCJe1re63uJ3","","","","","","","","","","","","","","","","","","","","",""
"html-keyboard-response","56","107817","0.0-25.0","","null","<div style=""font-size:100px;"">+</div>","null","delaylearn","learning","ITI","632c78dac01ee4ebd60f742c","3WcJgEiPKqP79mskeCJe1re63uJ3","","","","","","","","","","","","","","","","","","","2077","",""
"html-keyboard-response","57","109534","0.0-26.0-0.0","","1712.7999999523163","<div style=""display: flex; flex-direction: column; align-items: center; margin-top: -40px;""><img src=""images/pattern_4.png"" style=""width: 234px; height: 230px; margin-top: -50px;""><div style=""display: flex; justify-content: space-between; margin-top: 33px;""><img src=""images/choice_trial_11.png"" style=""width: 408px; height: 417px; margin-right: 200px;""><img src=""images/choice_trial_4.png"" style=""width: 408px; height: 417px;""></div></div>","j","delaylearn","learning","trial","632c78dac01ee4ebd60f742c","3WcJgEiPKqP79mskeCJe1re63uJ3","5","images/choice_trial_11.png","images/choice_trial_4.png","images/pattern_4.png","f","f","7000","11","4","3","0","11","0","0","4","70","","","","",""
"html-keyboard-response","58","110547","0.0-26.0-1.0","","null","<div style=""display: flex; flex-direction: column; align-items: center; margin-top: -40px;""><img src=""images/pattern_4.png"" style=""width: 234px; height: 230px; margin-top: -50px;""><div style=""display: flex; justify-content: space-between; margin-top: 33px;""><img src=""images/choice_trial_4.png"" style=""width: 408px; height: 417px; margin-left:608px;""></div></div>","null","delaylearn","learning","display_response","632c78dac01ee4ebd60f742c","3WcJgEiPKqP79mskeCJe1re63uJ3","","","","","","","","","","","","","","","","","chosen stimuli: images/choice_trial_4.png","","","",""
"html-keyboard-response","59","117561","0.0-26.0-2.0","","null","","null","delaylearn","learning","feedback_duration_window","632c78dac01ee4ebd60f742c","3WcJgEiPKqP79mskeCJe1re63uJ3","","","","","","","","","","","","","","","","","","7000","","",""
"html-keyboard-response","60","119070","0.0-26.0-3.0","","null","<div style='margin:auto;width: auto; font-size: 150%'><span style='font-weight: bold; font-size: 100px; color: red;'>0 points!</span><br><br></div>","null","delaylearn","learning","feedback_image_window","632c78dac01ee4ebd60f742c","3WcJgEiPKqP79mskeCJe1re63uJ3","","","","","","","","","","","","","","","","","","","","",""
"html-keyboard-response","61","121446","0.0-27.0","","null","<div style=""font-size:100px;"">+</div>","null","delaylearn","learning","ITI","632c78dac01ee4ebd60f742c","3WcJgEiPKqP79mskeCJe1re63uJ3","","","","","","","","","","","","","","","","","","","2362","",""
"html-keyboard-response","62","123549","0.0-28.0-0.0","","2100.600000143051","<div style=""display: flex; flex-direction: column; align-items: center; margin-top: -40px;""><img src=""images/pattern_5.png"" style=""width: 234px; height: 230px; margin-top: -50px;""><div style=""display: flex; justify-content: space-between; margin-top: 33px;""><img src=""images/choice_trial_13.png"" style=""width: 408px; height: 417px; margin-right: 200px;""><img src=""images/choice_trial_7.png"" style=""width: 408px; height: 417px;""></div></div>","j","delaylearn","learning","trial","632c78dac01ee4ebd60f742c","3WcJgEiPKqP79mskeCJe1re63uJ3","5","images/choice_trial_13.png","images/choice_trial_7.png","images/pattern_5.png","j","j","750","13","7","4","1","12","1","1","7","80","","","","",""
"html-keyboard-response","63","124554","0.0-28.0-1.0","","null","<div style=""display: flex; flex-direction: column; align-items: center; margin-top: -40px;""><img src=""images/pattern_5.png"" style=""width: 234px; height: 230px; margin-top: -50px;""><div style=""display: flex; justify-content: space-between; margin-top: 33px;""><img src=""images/choice_trial_7.png"" style=""width: 408px; height: 417px; margin-left:608px;""></div></div>","null","delaylearn","learning","display_response","632c78dac01ee4ebd60f742c","3WcJgEiPKqP79mskeCJe1re63uJ3","","","","","","","","","","","","","","","","","chosen stimuli: images/choice_trial_7.png","","","",""
"html-keyboard-response","64","125316","0.0-28.0-2.0","","null","","null","delaylearn","learning","feedback_duration_window","632c78dac01ee4ebd60f742c","3WcJgEiPKqP79mskeCJe1re63uJ3","","","","","","","","","","","","","","","","","","750","","",""
"html-keyboard-response","65","126824","0.0-28.0-3.0","","null","<div style='margin:auto;width: auto; font-size: 150%'><span style='font-weight: bold; font-size: 100px; color: green;'>+10 points!</span><br><br></div>","null","delaylearn","learning","feedback_image_window","632c78dac01ee4ebd60f742c","3WcJgEiPKqP79mskeCJe1re63uJ3","","","","","","","","","","","","","","","","","","","","",""
"html-keyboard-response","66","128705","0.0-29.0","","null","<div style=""font-size:100px;"">+</div>","null","delaylearn","learning","ITI","632c78dac01ee4ebd60f742c","3WcJgEiPKqP79mskeCJe1re63uJ3","","","","","","","","","","","","","","","","","","","1879","",""
"html-keyboard-response","67","130744","0.0-30.0-0.0","","2036.2000000476837","<div style=""display: flex; flex-direction: column; align-items: center; margin-top: -40px;""><img src=""images/pattern_6.png"" style=""width: 234px; height: 230px; margin-top: -50px;""><div style=""display: flex; justify-content: space-between; margin-top: 33px;""><img src=""images/choice_trial_14.png"" style=""width: 408px; height: 417px; margin-right: 200px;""><img src=""images/choice_trial_9.png"" style=""width: 408px; height: 417px;""></div></div>","j","delaylearn","learning","trial","632c78dac01ee4ebd60f742c","3WcJgEiPKqP79mskeCJe1re63uJ3","5","images/choice_trial_14.png","images/choice_trial_9.png","images/pattern_6.png","j","f","750","14","9","5","0","13","0","1","9","90","","","","",""
"html-keyboard-response","68","131747","0.0-30.0-1.0","","null","<div style=""display: flex; flex-direction: column; align-items: center; margin-top: -40px;""><img src=""images/pattern_6.png"" style=""width: 234px; height: 230px; margin-top: -50px;""><div style=""display: flex; justify-content: space-between; margin-top: 33px;""><img src=""images/choice_trial_9.png"" style=""width: 408px; height: 417px; margin-left:608px;""></div></div>","null","delaylearn","learning","display_response","632c78dac01ee4ebd60f742c","3WcJgEiPKqP79mskeCJe1re63uJ3","","","","","","","","","","","","","","","","","chosen stimuli: images/choice_trial_9.png","","","",""
"html-keyboard-response","69","132515","0.0-30.0-2.0","","null","","null","delaylearn","learning","feedback_duration_window","632c78dac01ee4ebd60f742c","3WcJgEiPKqP79mskeCJe1re63uJ3","","","","","","","","","","","","","","","","","","750","","",""
"html-keyboard-response","70","134030","0.0-30.0-3.0","","null","<div style='margin:auto;width: auto; font-size: 150%'><span style='font-weight: bold; font-size: 100px; color: green;'>+10 points!</span><br><br></div>","null","delaylearn","learning","feedback_image_window","632c78dac01ee4ebd60f742c","3WcJgEiPKqP79mskeCJe1re63uJ3","","","","","","","","","","","","","","","","","","","","",""
"html-keyboard-response","71","134545","0.0-31.0-0.0","","null","","null","","","mood_trial_fixation","","","","","","","","","","","","","","","","","","","","","","",""
"lmdlab-html-vas-response","72","138969","0.0-31.0-1.0","","3412","How happy are you right now?","0.4935064935064935","delaylearn","learning","mood_trial","632c78dac01ee4ebd60f742c","3WcJgEiPKqP79mskeCJe1re63uJ3","","","","","","","","","","","","","","","","","","","","[""Very unhappy"",""Very happy""]",""
"html-keyboard-response","73","140864","0.0-32.0","","null","<div style=""font-size:100px;"">+</div>","null","delaylearn","learning","ITI","632c78dac01ee4ebd60f742c","3WcJgEiPKqP79mskeCJe1re63uJ3","","","","","","","","","","","","","","","","","","","1883","",""
"html-keyboard-response","74","141926","0.0-33.0-0.0","","1059","<div style=""display: flex; flex-direction: column; align-items: center; margin-top: -40px;""><img src=""images/pattern_1.png"" style=""width: 234px; height: 230px; margin-top: -50px;""><div style=""display: flex; justify-content: space-between; margin-top: 33px;""><img src=""images/choice_trial_15.png"" style=""width: 408px; height: 417px; margin-right: 200px;""><img src=""images/choice_trial_6.png"" style=""width: 408px; height: 417px;""></div></div>","f","delaylearn","learning","trial","632c78dac01ee4ebd60f742c","3WcJgEiPKqP79mskeCJe1re63uJ3","5","images/choice_trial_15.png","images/choice_trial_6.png","images/pattern_1.png","j","j","7000","15","6","1","1","14","0","0","15","90","","","","",""
"html-keyboard-response","75","142940","0.0-33.0-1.0","","null","<div style=""display: flex; flex-direction: column; align-items: center; margin-top: -40px;""><img src=""images/pattern_1.png"" style=""width: 234px; height: 230px; margin-top: -50px;""><div style=""display: flex; justify-content: space-between; margin-top: 33px;""><img src=""images/choice_trial_15.png"" style=""width: 408px; height: 417px; margin-right: 608px;""></div></div>","null","delaylearn","learning","display_response","632c78dac01ee4ebd60f742c","3WcJgEiPKqP79mskeCJe1re63uJ3","","","","","","","","","","","","","","","","","chosen stimuli: images/choice_trial_15.png","","","",""
"html-keyboard-response","76","149942","0.0-33.0-2.0","","null","","null","delaylearn","learning","feedback_duration_window","632c78dac01ee4ebd60f742c","3WcJgEiPKqP79mskeCJe1re63uJ3","","","","","","","","","","","","","","","","","","7000","","",""
"html-keyboard-response","77","151450","0.0-33.0-3.0","","null","<div style='margin:auto;width: auto; font-size: 150%'><span style='font-weight: bold; font-size: 100px; color: red;'>0 points!</span><br><br></div>","null","delaylearn","learning","feedback_image_window","632c78dac01ee4ebd60f742c","3WcJgEiPKqP79mskeCJe1re63uJ3","","","","","","","","","","","","","","","","","","","","",""
"html-keyboard-response","78","153135","0.0-34.0","","null","<div style=""font-size:100px;"">+</div>","null","delaylearn","learning","ITI","632c78dac01ee4ebd60f742c","3WcJgEiPKqP79mskeCJe1re63uJ3","","","","","","","","","","","","","","","","","","","1674","",""
"html-keyboard-response","79","154666","0.0-35.0-0.0","","1527.3000001907349","<div style=""display: flex; flex-direction: column; align-items: center; margin-top: -40px;""><img src=""images/pattern_3.png"" style=""width: 234px; height: 230px; margin-top: -50px;""><div style=""display: flex; justify-content: space-between; margin-top: 33px;""><img src=""images/choice_trial_2.png"" style=""width: 408px; height: 417px; margin-right: 200px;""><img src=""images/choice_trial_16.png"" style=""width: 408px; height: 417px;""></div></div>","j","delaylearn","learning","trial","632c78dac01ee4ebd60f742c","3WcJgEiPKqP79mskeCJe1re63uJ3","5","images/choice_trial_2.png","images/choice_trial_16.png","images/pattern_3.png","f","j","7000","2","16","2","1","15","1","0","16","90","","","","",""
"html-keyboard-response","80","155678","0.0-35.0-1.0","","null","<div style=""display: flex; flex-direction: column; align-items: center; margin-top: -40px;""><img src=""images/pattern_3.png"" style=""width: 234px; height: 230px; margin-top: -50px;""><div style=""display: flex; justify-content: space-between; margin-top: 33px;""><img src=""images/choice_trial_16.png"" style=""width: 408px; height: 417px; margin-left:608px;""></div></div>","null","delaylearn","learning","display_response","632c78dac01ee4ebd60f742c","3WcJgEiPKqP79mskeCJe1re63uJ3","","","","","","","","","","","","","","","","","chosen stimuli: images/choice_trial_16.png","","","",""
"html-keyboard-response","81","162685","0.0-35.0-2.0","","null","","null","delaylearn","learning","feedback_duration_window","632c78dac01ee4ebd60f742c","3WcJgEiPKqP79mskeCJe1re63uJ3","","","","","","","","","","","","","","","","","","7000","","",""
"html-keyboard-response","82","164193","0.0-35.0-3.0","","null","<div style='margin:auto;width: auto; font-size: 150%'><span style='font-weight: bold; font-size: 100px; color: red;'>0 points!</span><br><br></div>","null","delaylearn","learning","feedback_image_window","632c78dac01ee4ebd60f742c","3WcJgEiPKqP79mskeCJe1re63uJ3","","","","","","","","","","","","","","","","","","","","",""
"html-keyboard-response","83","166490","0.0-36.0","","null","<div style=""font-size:100px;"">+</div>","null","delaylearn","learning","ITI","632c78dac01ee4ebd60f742c","3WcJgEiPKqP79mskeCJe1re63uJ3","","","","","","","","","","","","","","","","","","","2287","",""
"html-keyboard-response","84","169057","0.0-37.0-0.0","","2562","<div style=""display: flex; flex-direction: column; align-items: center; margin-top: -40px;""><img src=""images/pattern_5.png"" style=""width: 234px; height: 230px; margin-top: -50px;""><div style=""display: flex; justify-content: space-between; margin-top: 33px;""><img src=""images/choice_trial_7.png"" style=""width: 408px; height: 417px; margin-right: 200px;""><img src=""images/choice_trial_13.png"" style=""width: 408px; height: 417px;""></div></div>","f","delaylearn","learning","trial","632c78dac01ee4ebd60f742c","3WcJgEiPKqP79mskeCJe1re63uJ3","5","images/choice_trial_7.png","images/choice_trial_13.png","images/pattern_5.png","f","f","750","7","13","4","0","16","1","1","7","100","","","","",""
"html-keyboard-response","85","170066","0.0-37.0-1.0","","null","<div style=""display: flex; flex-direction: column; align-items: center; margin-top: -40px;""><img src=""images/pattern_5.png"" style=""width: 234px; height: 230px; margin-top: -50px;""><div style=""display: flex; justify-content: space-between; margin-top: 33px;""><img src=""images/choice_trial_7.png"" style=""width: 408px; height: 417px; margin-right: 608px;""></div></div>","null","delaylearn","learning","display_response","632c78dac01ee4ebd60f742c","3WcJgEiPKqP79mskeCJe1re63uJ3","","","","","","","","","","","","","","","","","chosen stimuli: images/choice_trial_7.png","","","",""
"html-keyboard-response","86","170830","0.0-37.0-2.0","","null","","null","delaylearn","learning","feedback_duration_window","632c78dac01ee4ebd60f742c","3WcJgEiPKqP79mskeCJe1re63uJ3","","","","","","","","","","","","","","","","","","750","","",""
"html-keyboard-response","87","172343","0.0-37.0-3.0","","null","<div style='margin:auto;width: auto; font-size: 150%'><span style='font-weight: bold; font-size: 100px; color: green;'>+10 points!</span><br><br></div>","null","delaylearn","learning","feedback_image_window","632c78dac01ee4ebd60f742c","3WcJgEiPKqP79mskeCJe1re63uJ3","","","","","","","","","","","","","","","","","","","","",""
"html-keyboard-response","88","172858","0.0-38.0-0.0","","null","","null","","","mood_trial_fixation","","","","","","","","","","","","","","","","","","","","","","",""
"lmdlab-html-vas-response","89","176747","0.0-38.0-1.0","","2879","How happy are you right now?","0.4869960326879387","delaylearn","learning","mood_trial","632c78dac01ee4ebd60f742c","3WcJgEiPKqP79mskeCJe1re63uJ3","","","","","","","","","","","","","","","","","","","","[""Very unhappy"",""Very happy""]",""
"html-keyboard-response","90","178957","0.0-39.0","","null","<div style=""font-size:100px;"">+</div>","null","delaylearn","learning","ITI","632c78dac01ee4ebd60f742c","3WcJgEiPKqP79mskeCJe1re63uJ3","","","","","","","","","","","","","","","","","","","2208","",""
"html-keyboard-response","91","181485","0.0-40.0-0.0","","2525.899999856949","<div style=""display: flex; flex-direction: column; align-items: center; margin-top: -40px;""><img src=""images/pattern_6.png"" style=""width: 234px; height: 230px; margin-top: -50px;""><div style=""display: flex; justify-content: space-between; margin-top: 33px;""><img src=""images/choice_trial_14.png"" style=""width: 408px; height: 417px; margin-right: 200px;""><img src=""images/choice_trial_9.png"" style=""width: 408px; height: 417px;""></div></div>","j","delaylearn","learning","trial","632c78dac01ee4ebd60f742c","3WcJgEiPKqP79mskeCJe1re63uJ3","5","images/choice_trial_14.png","images/choice_trial_9.png","images/pattern_6.png","f","f","750","14","9","5","0","17","0","0","9","100","","","","",""
"html-keyboard-response","92","182497","0.0-40.0-1.0","","null","<div style=""display: flex; flex-direction: column; align-items: center; margin-top: -40px;""><img src=""images/pattern_6.png"" style=""width: 234px; height: 230px; margin-top: -50px;""><div style=""display: flex; justify-content: space-between; margin-top: 33px;""><img src=""images/choice_trial_9.png"" style=""width: 408px; height: 417px; margin-left:608px;""></div></div>","null","delaylearn","learning","display_response","632c78dac01ee4ebd60f742c","3WcJgEiPKqP79mskeCJe1re63uJ3","","","","","","","","","","","","","","","","","chosen stimuli: images/choice_trial_9.png","","","",""
"html-keyboard-response","93","183253","0.0-40.0-2.0","","null","","null","delaylearn","learning","feedback_duration_window","632c78dac01ee4ebd60f742c","3WcJgEiPKqP79mskeCJe1re63uJ3","","","","","","","","","","","","","","","","","","750","","",""
"html-keyboard-response","94","184768","0.0-40.0-3.0","","null","<div style='margin:auto;width: auto; font-size: 150%'><span style='font-weight: bold; font-size: 100px; color: red;'>0 points!</span><br><br></div>","null","delaylearn","learning","feedback_image_window","632c78dac01ee4ebd60f742c","3WcJgEiPKqP79mskeCJe1re63uJ3","","","","","","","","","","","","","","","","","","","","",""
"html-keyboard-response","95","186482","0.0-41.0","","null","<div style=""font-size:100px;"">+</div>","null","delaylearn","learning","ITI","632c78dac01ee4ebd60f742c","3WcJgEiPKqP79mskeCJe1re63uJ3","","","","","","","","","","","","","","","","","","","1713","",""
"html-keyboard-response","96","187502","0.0-42.0-0.0","","1016.9000000953674","<div style=""display: flex; flex-direction: column; align-items: center; margin-top: -40px;""><img src=""images/pattern_4.png"" style=""width: 234px; height: 230px; margin-top: -50px;""><div style=""display: flex; justify-content: space-between; margin-top: 33px;""><img src=""images/choice_trial_4.png"" style=""width: 408px; height: 417px; margin-right: 200px;""><img src=""images/choice_trial_11.png"" style=""width: 408px; height: 417px;""></div></div>","j","delaylearn","learning","trial","632c78dac01ee4ebd60f742c","3WcJgEiPKqP79mskeCJe1re63uJ3","5","images/choice_trial_4.png","images/choice_trial_11.png","images/pattern_4.png","j","j","7000","4","11","3","1","18","1","1","11","110","","","","",""
"html-keyboard-response","97","188504","0.0-42.0-1.0","","null","<div style=""display: flex; flex-direction: column; align-items: center; margin-top: -40px;""><img src=""images/pattern_4.png"" style=""width: 234px; height: 230px; margin-top: -50px;""><div style=""display: flex; justify-content: space-between; margin-top: 33px;""><img src=""images/choice_trial_11.png"" style=""width: 408px; height: 417px; margin-left:608px;""></div></div>","null","delaylearn","learning","display_response","632c78dac01ee4ebd60f742c","3WcJgEiPKqP79mskeCJe1re63uJ3","","","","","","","","","","","","","","","","","chosen stimuli: images/choice_trial_11.png","","","",""
"html-keyboard-response","98","195509","0.0-42.0-2.0","","null","","null","delaylearn","learning","feedback_duration_window","632c78dac01ee4ebd60f742c","3WcJgEiPKqP79mskeCJe1re63uJ3","","","","","","","","","","","","","","","","","","7000","","",""
"html-keyboard-response","99","197017","0.0-42.0-3.0","","null","<div style='margin:auto;width: auto; font-size: 150%'><span style='font-weight: bold; font-size: 100px; color: green;'>+10 points!</span><br><br></div>","null","delaylearn","learning","feedback_image_window","632c78dac01ee4ebd60f742c","3WcJgEiPKqP79mskeCJe1re63uJ3","","","","","","","","","","","","","","","","","","","","",""
"html-keyboard-response","100","198847","0.0-43.0","","null","<div style=""font-size:100px;"">+</div>","null","delaylearn","learning","ITI","632c78dac01ee4ebd60f742c","3WcJgEiPKqP79mskeCJe1re63uJ3","","","","","","","","","","","","","","","","","","","1823","",""
"html-keyboard-response","101","200207","0.0-44.0-0.0","","1356.6000001430511","<div style=""display: flex; flex-direction: column; align-items: center; margin-top: -40px;""><img src=""images/pattern_7.png"" style=""width: 234px; height: 230px; margin-top: -50px;""><div style=""display: flex; justify-content: space-between; margin-top: 33px;""><img src=""images/choice_trial_8.png"" style=""width: 408px; height: 417px; margin-right: 200px;""><img src=""images/choice_trial_10.png"" style=""width: 408px; height: 417px;""></div></div>","f","delaylearn","learning","trial","632c78dac01ee4ebd60f742c","3WcJgEiPKqP79mskeCJe1re63uJ3","5","images/choice_trial_8.png","images/choice_trial_10.png","images/pattern_7.png","j","f","750","8","10","6","0","19","1","0","8","110","","","","",""
"html-keyboard-response","102","201220","0.0-44.0-1.0","","null","<div style=""display: flex; flex-direction: column; align-items: center; margin-top: -40px;""><img src=""images/pattern_7.png"" style=""width: 234px; height: 230px; margin-top: -50px;""><div style=""display: flex; justify-content: space-between; margin-top: 33px;""><img src=""images/choice_trial_8.png"" style=""width: 408px; height: 417px; margin-right: 608px;""></div></div>","null","delaylearn","learning","display_response","632c78dac01ee4ebd60f742c","3WcJgEiPKqP79mskeCJe1re63uJ3","","","","","","","","","","","","","","","","","chosen stimuli: images/choice_trial_8.png","","","",""
"html-keyboard-response","103","201980","0.0-44.0-2.0","","null","","null","delaylearn","learning","feedback_duration_window","632c78dac01ee4ebd60f742c","3WcJgEiPKqP79mskeCJe1re63uJ3","","","","","","","","","","","","","","","","","","750","","",""
"html-keyboard-response","104","203487","0.0-44.0-3.0","","null","<div style='margin:auto;width: auto; font-size: 150%'><span style='font-weight: bold; font-size: 100px; color: red;'>0 points!</span><br><br></div>","null","delaylearn","learning","feedback_image_window","632c78dac01ee4ebd60f742c","3WcJgEiPKqP79mskeCJe1re63uJ3","","","","","","","","","","","","","","","","","","","","",""
"html-keyboard-response","105","205945","0.0-45.0","","null","<div style=""font-size:100px;"">+</div>","null","delaylearn","learning","ITI","632c78dac01ee4ebd60f742c","3WcJgEiPKqP79mskeCJe1re63uJ3","","","","","","","","","","","","","","","","","","","2444","",""
"html-keyboard-response","106","207384","0.0-46.0-0.0","","1437.1000001430511","<div style=""display: flex; flex-direction: column; align-items: center; margin-top: -40px;""><img src=""images/pattern_1.png"" style=""width: 234px; height: 230px; margin-top: -50px;""><div style=""display: flex; justify-content: space-between; margin-top: 33px;""><img src=""images/choice_trial_6.png"" style=""width: 408px; height: 417px; margin-right: 200px;""><img src=""images/choice_trial_15.png"" style=""width: 408px; height: 417px;""></div></div>","f","delaylearn","learning","trial","632c78dac01ee4ebd60f742c","3WcJgEiPKqP79mskeCJe1re63uJ3","5","images/choice_trial_6.png","images/choice_trial_15.png","images/pattern_1.png","f","f","7000","6","15","1","0","20","1","1","6","120","","","","",""
"html-keyboard-response","107","208392","0.0-46.0-1.0","","null","<div style=""display: flex; flex-direction: column; align-items: center; margin-top: -40px;""><img src=""images/pattern_1.png"" style=""width: 234px; height: 230px; margin-top: -50px;""><div style=""display: flex; justify-content: space-between; margin-top: 33px;""><img src=""images/choice_trial_6.png"" style=""width: 408px; height: 417px; margin-right: 608px;""></div></div>","null","delaylearn","learning","display_response","632c78dac01ee4ebd60f742c","3WcJgEiPKqP79mskeCJe1re63uJ3","","","","","","","","","","","","","","","","","chosen stimuli: images/choice_trial_6.png","","","",""
"html-keyboard-response","108","215406","0.0-46.0-2.0","","null","","null","delaylearn","learning","feedback_duration_window","632c78dac01ee4ebd60f742c","3WcJgEiPKqP79mskeCJe1re63uJ3","","","","","","","","","","","","","","","","","","7000","","",""
"html-keyboard-response","109","216919","0.0-46.0-3.0","","null","<div style='margin:auto;width: auto; font-size: 150%'><span style='font-weight: bold; font-size: 100px; color: green;'>+10 points!</span><br><br></div>","null","delaylearn","learning","feedback_image_window","632c78dac01ee4ebd60f742c","3WcJgEiPKqP79mskeCJe1re63uJ3","","","","","","","","","","","","","","","","","","","","",""
"html-keyboard-response","110","219376","0.0-47.0","","null","<div style=""font-size:100px;"">+</div>","null","delaylearn","learning","ITI","632c78dac01ee4ebd60f742c","3WcJgEiPKqP79mskeCJe1re63uJ3","","","","","","","","","","","","","","","","","","","2451","",""
"html-keyboard-response","111","220569","0.0-48.0-0.0","","1188.2000000476837","<div style=""display: flex; flex-direction: column; align-items: center; margin-top: -40px;""><img src=""images/pattern_6.png"" style=""width: 234px; height: 230px; margin-top: -50px;""><div style=""display: flex; justify-content: space-between; margin-top: 33px;""><img src=""images/choice_trial_9.png"" style=""width: 408px; height: 417px; margin-right: 200px;""><img src=""images/choice_trial_14.png"" style=""width: 408px; height: 417px;""></div></div>","j","delaylearn","learning","trial","632c78dac01ee4ebd60f742c","3WcJgEiPKqP79mskeCJe1re63uJ3","5","images/choice_trial_9.png","images/choice_trial_14.png","images/pattern_6.png","j","j","750","9","14","5","1","21","1","1","14","130","","","","",""
"html-keyboard-response","112","221576","0.0-48.0-1.0","","null","<div style=""display: flex; flex-direction: column; align-items: center; margin-top: -40px;""><img src=""images/pattern_6.png"" style=""width: 234px; height: 230px; margin-top: -50px;""><div style=""display: flex; justify-content: space-between; margin-top: 33px;""><img src=""images/choice_trial_14.png"" style=""width: 408px; height: 417px; margin-left:608px;""></div></div>","null","delaylearn","learning","display_response","632c78dac01ee4ebd60f742c","3WcJgEiPKqP79mskeCJe1re63uJ3","","","","","","","","","","","","","","","","","chosen stimuli: images/choice_trial_14.png","","","",""
"html-keyboard-response","113","222340","0.0-48.0-2.0","","null","","null","delaylearn","learning","feedback_duration_window","632c78dac01ee4ebd60f742c","3WcJgEiPKqP79mskeCJe1re63uJ3","","","","","","","","","","","","","","","","","","750","","",""
"html-keyboard-response","114","223852","0.0-48.0-3.0","","null","<div style='margin:auto;width: auto; font-size: 150%'><span style='font-weight: bold; font-size: 100px; color: green;'>+10 points!</span><br><br></div>","null","delaylearn","learning","feedback_image_window","632c78dac01ee4ebd60f742c","3WcJgEiPKqP79mskeCJe1re63uJ3","","","","","","","","","","","","","","","","","","","","",""
"html-keyboard-response","115","226277","0.0-49.0","","null","<div style=""font-size:100px;"">+</div>","null","delaylearn","learning","ITI","632c78dac01ee4ebd60f742c","3WcJgEiPKqP79mskeCJe1re63uJ3","","","","","","","","","","","","","","","","","","","2421","",""
"html-keyboard-response","116","227310","0.0-50.0-0.0","","1028.5","<div style=""display: flex; flex-direction: column; align-items: center; margin-top: -40px;""><img src=""images/pattern_4.png"" style=""width: 234px; height: 230px; margin-top: -50px;""><div style=""display: flex; justify-content: space-between; margin-top: 33px;""><img src=""images/choice_trial_11.png"" style=""width: 408px; height: 417px; margin-right: 200px;""><img src=""images/choice_trial_4.png"" style=""width: 408px; height: 417px;""></div></div>","f","delaylearn","learning","trial","632c78dac01ee4ebd60f742c","3WcJgEiPKqP79mskeCJe1re63uJ3","5","images/choice_trial_11.png","images/choice_trial_4.png","images/pattern_4.png","f","f","7000","11","4","3","0","22","1","1","11","140","","","","",""
"html-keyboard-response","117","228320","0.0-50.0-1.0","","null","<div style=""display: flex; flex-direction: column; align-items: center; margin-top: -40px;""><img src=""images/pattern_4.png"" style=""width: 234px; height: 230px; margin-top: -50px;""><div style=""display: flex; justify-content: space-between; margin-top: 33px;""><img src=""images/choice_trial_11.png"" style=""width: 408px; height: 417px; margin-right: 608px;""></div></div>","null","delaylearn","learning","display_response","632c78dac01ee4ebd60f742c","3WcJgEiPKqP79mskeCJe1re63uJ3","","","","","","","","","","","","","","","","","chosen stimuli: images/choice_trial_11.png","","","",""
"html-keyboard-response","118","235331","0.0-50.0-2.0","","null","","null","delaylearn","learning","feedback_duration_window","632c78dac01ee4ebd60f742c","3WcJgEiPKqP79mskeCJe1re63uJ3","","","","","","","","","","","","","","","","","","7000","","",""
"html-keyboard-response","119","236844","0.0-50.0-3.0","","null","<div style='margin:auto;width: auto; font-size: 150%'><span style='font-weight: bold; font-size: 100px; color: green;'>+10 points!</span><br><br></div>","null","delaylearn","learning","feedback_image_window","632c78dac01ee4ebd60f742c","3WcJgEiPKqP79mskeCJe1re63uJ3","","","","","","","","","","","","","","","","","","","","",""
"html-keyboard-response","120","237347","0.0-51.0-0.0","","null","","null","","","mood_trial_fixation","","","","","","","","","","","","","","","","","","","","","","",""
"lmdlab-html-vas-response","121","241162","0.0-51.0-1.0","","2800","How happy are you right now?","0.7734563087043504","delaylearn","learning","mood_trial","632c78dac01ee4ebd60f742c","3WcJgEiPKqP79mskeCJe1re63uJ3","","","","","","","","","","","","","","","","","","","","[""Very unhappy"",""Very happy""]",""
"html-keyboard-response","122","242992","0.0-52.0","","null","<div style=""font-size:100px;"">+</div>","null","delaylearn","learning","ITI","632c78dac01ee4ebd60f742c","3WcJgEiPKqP79mskeCJe1re63uJ3","","","","","","","","","","","","","","","","","","","1816","",""
"html-keyboard-response","123","244461","0.0-53.0-0.0","","1463.7999999523163","<div style=""display: flex; flex-direction: column; align-items: center; margin-top: -40px;""><img src=""images/pattern_7.png"" style=""width: 234px; height: 230px; margin-top: -50px;""><div style=""display: flex; justify-content: space-between; margin-top: 33px;""><img src=""images/choice_trial_10.png"" style=""width: 408px; height: 417px; margin-right: 200px;""><img src=""images/choice_trial_8.png"" style=""width: 408px; height: 417px;""></div></div>","f","delaylearn","learning","trial","632c78dac01ee4ebd60f742c","3WcJgEiPKqP79mskeCJe1re63uJ3","5","images/choice_trial_10.png","images/choice_trial_8.png","images/pattern_7.png","j","j","750","10","8","6","1","23","0","0","10","140","","","","",""
"html-keyboard-response","124","245466","0.0-53.0-1.0","","null","<div style=""display: flex; flex-direction: column; align-items: center; margin-top: -40px;""><img src=""images/pattern_7.png"" style=""width: 234px; height: 230px; margin-top: -50px;""><div style=""display: flex; justify-content: space-between; margin-top: 33px;""><img src=""images/choice_trial_10.png"" style=""width: 408px; height: 417px; margin-right: 608px;""></div></div>","null","delaylearn","learning","display_response","632c78dac01ee4ebd60f742c","3WcJgEiPKqP79mskeCJe1re63uJ3","","","","","","","","","","","","","","","","","chosen stimuli: images/choice_trial_10.png","","","",""
"html-keyboard-response","125","246226","0.0-53.0-2.0","","null","","null","delaylearn","learning","feedback_duration_window","632c78dac01ee4ebd60f742c","3WcJgEiPKqP79mskeCJe1re63uJ3","","","","","","","","","","","","","","","","","","750","","",""
"html-keyboard-response","126","247732","0.0-53.0-3.0","","null","<div style='margin:auto;width: auto; font-size: 150%'><span style='font-weight: bold; font-size: 100px; color: red;'>0 points!</span><br><br></div>","null","delaylearn","learning","feedback_image_window","632c78dac01ee4ebd60f742c","3WcJgEiPKqP79mskeCJe1re63uJ3","","","","","","","","","","","","","","","","","","","","",""
"html-keyboard-response","127","250153","0.0-54.0","","null","<div style=""font-size:100px;"">+</div>","null","delaylearn","learning","ITI","632c78dac01ee4ebd60f742c","3WcJgEiPKqP79mskeCJe1re63uJ3","","","","","","","","","","","","","","","","","","","2417","",""
"html-keyboard-response","128","251096","0.0-55.0-0.0","","940.5","<div style=""display: flex; flex-direction: column; align-items: center; margin-top: -40px;""><img src=""images/pattern_1.png"" style=""width: 234px; height: 230px; margin-top: -50px;""><div style=""display: flex; justify-content: space-between; margin-top: 33px;""><img src=""images/choice_trial_15.png"" style=""width: 408px; height: 417px; margin-right: 200px;""><img src=""images/choice_trial_6.png"" style=""width: 408px; height: 417px;""></div></div>","j","delaylearn","learning","trial","632c78dac01ee4ebd60f742c","3WcJgEiPKqP79mskeCJe1re63uJ3","5","images/choice_trial_15.png","images/choice_trial_6.png","images/pattern_1.png","f","j","7000","15","6","1","1","24","1","0","6","140","","","","",""
"html-keyboard-response","129","252109","0.0-55.0-1.0","","null","<div style=""display: flex; flex-direction: column; align-items: center; margin-top: -40px;""><img src=""images/pattern_1.png"" style=""width: 234px; height: 230px; margin-top: -50px;""><div style=""display: flex; justify-content: space-between; margin-top: 33px;""><img src=""images/choice_trial_6.png"" style=""width: 408px; height: 417px; margin-left:608px;""></div></div>","null","delaylearn","learning","display_response","632c78dac01ee4ebd60f742c","3WcJgEiPKqP79mskeCJe1re63uJ3","","","","","","","","","","","","","","","","","chosen stimuli: images/choice_trial_6.png","","","",""
"html-keyboard-response","130","259116","0.0-55.0-2.0","","null","","null","delaylearn","learning","feedback_duration_window","632c78dac01ee4ebd60f742c","3WcJgEiPKqP79mskeCJe1re63uJ3","","","","","","","","","","","","","","","","","","7000","","",""
"html-keyboard-response","131","260627","0.0-55.0-3.0","","null","<div style='margin:auto;width: auto; font-size: 150%'><span style='font-weight: bold; font-size: 100px; color: red;'>0 points!</span><br><br></div>","null","delaylearn","learning","feedback_image_window","632c78dac01ee4ebd60f742c","3WcJgEiPKqP79mskeCJe1re63uJ3","","","","","","","","","","","","","","","","","","","","",""
"html-keyboard-response","132","262541","0.0-56.0","","null","<div style=""font-size:100px;"">+</div>","null","delaylearn","learning","ITI","632c78dac01ee4ebd60f742c","3WcJgEiPKqP79mskeCJe1re63uJ3","","","","","","","","","","","","","","","","","","","1907","",""
"html-keyboard-response","133","265075","0.0-57.0-0.0","","2528.2000000476837","<div style=""display: flex; flex-direction: column; align-items: center; margin-top: -40px;""><img src=""images/pattern_5.png"" style=""width: 234px; height: 230px; margin-top: -50px;""><div style=""display: flex; justify-content: space-between; margin-top: 33px;""><img src=""images/choice_trial_13.png"" style=""width: 408px; height: 417px; margin-right: 200px;""><img src=""images/choice_trial_7.png"" style=""width: 408px; height: 417px;""></div></div>","j","delaylearn","learning","trial","632c78dac01ee4ebd60f742c","3WcJgEiPKqP79mskeCJe1re63uJ3","5","images/choice_trial_13.png","images/choice_trial_7.png","images/pattern_5.png","j","j","750","13","7","4","1","25","1","1","7","150","","","","",""
"html-keyboard-response","134","266094","0.0-57.0-1.0","","null","<div style=""display: flex; flex-direction: column; align-items: center; margin-top: -40px;""><img src=""images/pattern_5.png"" style=""width: 234px; height: 230px; margin-top: -50px;""><div style=""display: flex; justify-content: space-between; margin-top: 33px;""><img src=""images/choice_trial_7.png"" style=""width: 408px; height: 417px; margin-left:608px;""></div></div>","null","delaylearn","learning","display_response","632c78dac01ee4ebd60f742c","3WcJgEiPKqP79mskeCJe1re63uJ3","","","","","","","","","","","","","","","","","chosen stimuli: images/choice_trial_7.png","","","",""
"html-keyboard-response","135","266856","0.0-57.0-2.0","","null","","null","delaylearn","learning","feedback_duration_window","632c78dac01ee4ebd60f742c","3WcJgEiPKqP79mskeCJe1re63uJ3","","","","","","","","","","","","","","","","","","750","","",""
"html-keyboard-response","136","268364","0.0-57.0-3.0","","null","<div style='margin:auto;width: auto; font-size: 150%'><span style='font-weight: bold; font-size: 100px; color: green;'>+10 points!</span><br><br></div>","null","delaylearn","learning","feedback_image_window","632c78dac01ee4ebd60f742c","3WcJgEiPKqP79mskeCJe1re63uJ3","","","","","","","","","","","","","","","","","","","","",""
"html-keyboard-response","137","269958","0.0-58.0","","null","<div style=""font-size:100px;"">+</div>","null","delaylearn","learning","ITI","632c78dac01ee4ebd60f742c","3WcJgEiPKqP79mskeCJe1re63uJ3","","","","","","","","","","","","","","","","","","","1590","",""
"html-keyboard-response","138","271403","0.0-59.0-0.0","","1440.4000000953674","<div style=""display: flex; flex-direction: column; align-items: center; margin-top: -40px;""><img src=""images/pattern_3.png"" style=""width: 234px; height: 230px; margin-top: -50px;""><div style=""display: flex; justify-content: space-between; margin-top: 33px;""><img src=""images/choice_trial_2.png"" style=""width: 408px; height: 417px; margin-right: 200px;""><img src=""images/choice_trial_16.png"" style=""width: 408px; height: 417px;""></div></div>","j","delaylearn","learning","trial","632c78dac01ee4ebd60f742c","3WcJgEiPKqP79mskeCJe1re63uJ3","5","images/choice_trial_2.png","images/choice_trial_16.png","images/pattern_3.png","j","j","7000","2","16","2","1","26","1","1","16","160","","","","",""
"html-keyboard-response","139","272409","0.0-59.0-1.0","","null","<div style=""display: flex; flex-direction: column; align-items: center; margin-top: -40px;""><img src=""images/pattern_3.png"" style=""width: 234px; height: 230px; margin-top: -50px;""><div style=""display: flex; justify-content: space-between; margin-top: 33px;""><img src=""images/choice_trial_16.png"" style=""width: 408px; height: 417px; margin-left:608px;""></div></div>","null","delaylearn","learning","display_response","632c78dac01ee4ebd60f742c","3WcJgEiPKqP79mskeCJe1re63uJ3","","","","","","","","","","","","","","","","","chosen stimuli: images/choice_trial_16.png","","","",""
"html-keyboard-response","140","279421","0.0-59.0-2.0","","null","","null","delaylearn","learning","feedback_duration_window","632c78dac01ee4ebd60f742c","3WcJgEiPKqP79mskeCJe1re63uJ3","","","","","","","","","","","","","","","","","","7000","","",""
"html-keyboard-response","141","280923","0.0-59.0-3.0","","null","<div style='margin:auto;width: auto; font-size: 150%'><span style='font-weight: bold; font-size: 100px; color: green;'>+10 points!</span><br><br></div>","null","delaylearn","learning","feedback_image_window","632c78dac01ee4ebd60f742c","3WcJgEiPKqP79mskeCJe1re63uJ3","","","","","","","","","","","","","","","","","","","","",""
"lmdlab-html-vas-response","142","286559","0.0-60.0-0.0","","4103","*How <b><u>confident</u></b> are you feeling about your answers at this moment?*","0.719202468549727","rewlearn","rate_confidence","","632c78dac01ee4ebd60f742c","3WcJgEiPKqP79mskeCJe1re63uJ3","","","","","","","","","","","","","","","","","","","","[""No confidence"",""Complete confidence""]",""
"lmdlab-rest-trial-limit","143","293973","0.0-60.0-1.0","","5894.400000095367","<div style=""font-size:40px;""><b>Please take a break!</b><br><br><br><br><p>Great work: you earned 160 points.<br><br><br><p>You have completed part(s) 1 of 5.<br><br><br><br>When you are ready to continue<br><br><br>please click the button.</p><br><br>","0","delaylearn","learning","break","632c78dac01ee4ebd60f742c","3WcJgEiPKqP79mskeCJe1re63uJ3","","","","","","","","","","","","","","","","","","","","","0"
"html-keyboard-response","144","296978","0.0-60.0-2.0","","null","<div style=""font-size:100px;"">+</div>","null","delaylearn","learning","pre_fixation","632c78dac01ee4ebd60f742c","","","","","","","","","","","","","","","","","","","","","",""
"lmdlab-html-vas-response","145","301051","0.0-60.0-3.0-0.0","","3055","How happy are you right now?","0.4869960326879387","delaylearn","learning","mood_baseline","632c78dac01ee4ebd60f742c","3WcJgEiPKqP79mskeCJe1re63uJ3","","","","","","","","","","","","","","","","","","","","[""Very unhappy"",""Very happy""]",""
"html-keyboard-response","146","302565","0.0-60.0-3.0-1.0","","null","","null","","","mood_baseline_fixation","","","","","","","","","","","","","","","","","","","","","","",""
"html-keyboard-response","147","304676","0.0-61.0","","null","<div style=""font-size:100px;"">+</div>","null","delaylearn","learning","ITI","632c78dac01ee4ebd60f742c","3WcJgEiPKqP79mskeCJe1re63uJ3","","","","","","","","","","","","","","","","","","","2099","",""
"html-keyboard-response","148","306599","0.0-62.0-0.0","","1917.2000000476837","<div style=""display: flex; flex-direction: column; align-items: center; margin-top: -40px;""><img src=""images/pattern_7.png"" style=""width: 234px; height: 230px; margin-top: -50px;""><div style=""display: flex; justify-content: space-between; margin-top: 33px;""><img src=""images/choice_trial_10.png"" style=""width: 408px; height: 417px; margin-right: 200px;""><img src=""images/choice_trial_8.png"" style=""width: 408px; height: 417px;""></div></div>","f","delaylearn","learning","trial","632c78dac01ee4ebd60f742c","3WcJgEiPKqP79mskeCJe1re63uJ3","5","images/choice_trial_10.png","images/choice_trial_8.png","images/pattern_7.png","j","j","750","10","8","6","1","27","0","0","10","160","","","","",""
"html-keyboard-response","149","307613","0.0-62.0-1.0","","null","<div style=""display: flex; flex-direction: column; align-items: center; margin-top: -40px;""><img src=""images/pattern_7.png"" style=""width: 234px; height: 230px; margin-top: -50px;""><div style=""display: flex; justify-content: space-between; margin-top: 33px;""><img src=""images/choice_trial_10.png"" style=""width: 408px; height: 417px; margin-right: 608px;""></div></div>","null","delaylearn","learning","display_response","632c78dac01ee4ebd60f742c","3WcJgEiPKqP79mskeCJe1re63uJ3","","","","","","","","","","","","","","","","","chosen stimuli: images/choice_trial_10.png","","","",""
"html-keyboard-response","150","308370","0.0-62.0-2.0","","null","","null","delaylearn","learning","feedback_duration_window","632c78dac01ee4ebd60f742c","3WcJgEiPKqP79mskeCJe1re63uJ3","","","","","","","","","","","","","","","","","","750","","",""
"html-keyboard-response","151","309880","0.0-62.0-3.0","","null","<div style='margin:auto;width: auto; font-size: 150%'><span style='font-weight: bold; font-size: 100px; color: red;'>0 points!</span><br><br></div>","null","delaylearn","learning","feedback_image_window","632c78dac01ee4ebd60f742c","3WcJgEiPKqP79mskeCJe1re63uJ3","","","","","","","","","","","","","","","","","","","","",""
"html-keyboard-response","152","310396","0.0-63.0-0.0","","null","","null","","","mood_trial_fixation","","","","","","","","","","","","","","","","","","","","","","",""
"lmdlab-html-vas-response","153","314278","0.0-63.0-1.0","","2864","How happy are you right now?","0.3437658946797328","delaylearn","learning","mood_trial","632c78dac01ee4ebd60f742c","3WcJgEiPKqP79mskeCJe1re63uJ3","","","","","","","","","","","","","","","","","","","","[""Very unhappy"",""Very happy""]",""
"html-keyboard-response","154","315973","0.0-64.0","","null","<div style=""font-size:100px;"">+</div>","null","delaylearn","learning","ITI","632c78dac01ee4ebd60f742c","3WcJgEiPKqP79mskeCJe1re63uJ3","","","","","","","","","","","","","","","","","","","1687","",""
"html-keyboard-response","155","317891","0.0-65.0-0.0","","1912","<div style=""display: flex; flex-direction: column; align-items: center; margin-top: -40px;""><img src=""images/pattern_1.png"" style=""width: 234px; height: 230px; margin-top: -50px;""><div style=""display: flex; justify-content: space-between; margin-top: 33px;""><img src=""images/choice_trial_6.png"" style=""width: 408px; height: 417px; margin-right: 200px;""><img src=""images/choice_trial_15.png"" style=""width: 408px; height: 417px;""></div></div>","f","delaylearn","learning","trial","632c78dac01ee4ebd60f742c","3WcJgEiPKqP79mskeCJe1re63uJ3","5","images/choice_trial_6.png","images/choice_trial_15.png","images/pattern_1.png","f","f","7000","6","15","1","0","28","1","1","6","170","","","","",""
"html-keyboard-response","156","318909","0.0-65.0-1.0","","null","<div style=""display: flex; flex-direction: column; align-items: center; margin-top: -40px;""><img src=""images/pattern_1.png"" style=""width: 234px; height: 230px; margin-top: -50px;""><div style=""display: flex; justify-content: space-between; margin-top: 33px;""><img src=""images/choice_trial_6.png"" style=""width: 408px; height: 417px; margin-right: 608px;""></div></div>","null","delaylearn","learning","display_response","632c78dac01ee4ebd60f742c","3WcJgEiPKqP79mskeCJe1re63uJ3","","","","","","","","","","","","","","","","","chosen stimuli: images/choice_trial_6.png","","","",""
"html-keyboard-response","157","325920","0.0-65.0-2.0","","null","","null","delaylearn","learning","feedback_duration_window","632c78dac01ee4ebd60f742c","3WcJgEiPKqP79mskeCJe1re63uJ3","","","","","","","","","","","","","","","","","","7000","","",""
"html-keyboard-response","158","327430","0.0-65.0-3.0","","null","<div style='margin:auto;width: auto; font-size: 150%'><span style='font-weight: bold; font-size: 100px; color: green;'>+10 points!</span><br><br></div>","null","delaylearn","learning","feedback_image_window","632c78dac01ee4ebd60f742c","3WcJgEiPKqP79mskeCJe1re63uJ3","","","","","","","","","","","","","","","","","","","","",""
"html-keyboard-response","159","329436","0.0-66.0","","null","<div style=""font-size:100px;"">+</div>","null","delaylearn","learning","ITI","632c78dac01ee4ebd60f742c","3WcJgEiPKqP79mskeCJe1re63uJ3","","","","","","","","","","","","","","","","","","","1997","",""
"html-keyboard-response","160","330848","0.0-67.0-0.0","","1407.0999999046326","<div style=""display: flex; flex-direction: column; align-items: center; margin-top: -40px;""><img src=""images/pattern_5.png"" style=""width: 234px; height: 230px; margin-top: -50px;""><div style=""display: flex; justify-content: space-between; margin-top: 33px;""><img src=""images/choice_trial_7.png"" style=""width: 408px; height: 417px; margin-right: 200px;""><img src=""images/choice_trial_13.png"" style=""width: 408px; height: 417px;""></div></div>","f","delaylearn","learning","trial","632c78dac01ee4ebd60f742c","3WcJgEiPKqP79mskeCJe1re63uJ3","5","images/choice_trial_7.png","images/choice_trial_13.png","images/pattern_5.png","f","f","750","7","13","4","0","29","1","1","7","180","","","","",""
"html-keyboard-response","161","331866","0.0-67.0-1.0","","null","<div style=""display: flex; flex-direction: column; align-items: center; margin-top: -40px;""><img src=""images/pattern_5.png"" style=""width: 234px; height: 230px; margin-top: -50px;""><div style=""display: flex; justify-content: space-between; margin-top: 33px;""><img src=""images/choice_trial_7.png"" style=""width: 408px; height: 417px; margin-right: 608px;""></div></div>","null","delaylearn","learning","display_response","632c78dac01ee4ebd60f742c","3WcJgEiPKqP79mskeCJe1re63uJ3","","","","","","","","","","","","","","","","","chosen stimuli: images/choice_trial_7.png","","","",""
"html-keyboard-response","162","332625","0.0-67.0-2.0","","null","","null","delaylearn","learning","feedback_duration_window","632c78dac01ee4ebd60f742c","3WcJgEiPKqP79mskeCJe1re63uJ3","","","","","","","","","","","","","","","","","","750","","",""
"html-keyboard-response","163","334143","0.0-67.0-3.0","","null","<div style='margin:auto;width: auto; font-size: 150%'><span style='font-weight: bold; font-size: 100px; color: green;'>+10 points!</span><br><br></div>","null","delaylearn","learning","feedback_image_window","632c78dac01ee4ebd60f742c","3WcJgEiPKqP79mskeCJe1re63uJ3","","","","","","","","","","","","","","","","","","","","",""
"html-keyboard-response","164","336237","0.0-68.0","","null","<div style=""font-size:100px;"">+</div>","null","delaylearn","learning","ITI","632c78dac01ee4ebd60f742c","3WcJgEiPKqP79mskeCJe1re63uJ3","","","","","","","","","","","","","","","","","","","2080","",""
"html-keyboard-response","165","337463","0.0-69.0-0.0","","1221.2000000476837","<div style=""display: flex; flex-direction: column; align-items: center; margin-top: -40px;""><img src=""images/pattern_6.png"" style=""width: 234px; height: 230px; margin-top: -50px;""><div style=""display: flex; justify-content: space-between; margin-top: 33px;""><img src=""images/choice_trial_9.png"" style=""width: 408px; height: 417px; margin-right: 200px;""><img src=""images/choice_trial_14.png"" style=""width: 408px; height: 417px;""></div></div>","j","delaylearn","learning","trial","632c78dac01ee4ebd60f742c","3WcJgEiPKqP79mskeCJe1re63uJ3","5","images/choice_trial_9.png","images/choice_trial_14.png","images/pattern_6.png","j","j","750","9","14","5","1","30","1","1","14","190","","","","",""
"html-keyboard-response","166","338474","0.0-69.0-1.0","","null","<div style=""display: flex; flex-direction: column; align-items: center; margin-top: -40px;""><img src=""images/pattern_6.png"" style=""width: 234px; height: 230px; margin-top: -50px;""><div style=""display: flex; justify-content: space-between; margin-top: 33px;""><img src=""images/choice_trial_14.png"" style=""width: 408px; height: 417px; margin-left:608px;""></div></div>","null","delaylearn","learning","display_response","632c78dac01ee4ebd60f742c","3WcJgEiPKqP79mskeCJe1re63uJ3","","","","","","","","","","","","","","","","","chosen stimuli: images/choice_trial_14.png","","","",""
"html-keyboard-response","167","339232","0.0-69.0-2.0","","null","","null","delaylearn","learning","feedback_duration_window","632c78dac01ee4ebd60f742c","3WcJgEiPKqP79mskeCJe1re63uJ3","","","","","","","","","","","","","","","","","","750","","",""
"html-keyboard-response","168","340735","0.0-69.0-3.0","","null","<div style='margin:auto;width: auto; font-size: 150%'><span style='font-weight: bold; font-size: 100px; color: green;'>+10 points!</span><br><br></div>","null","delaylearn","learning","feedback_image_window","632c78dac01ee4ebd60f742c","3WcJgEiPKqP79mskeCJe1re63uJ3","","","","","","","","","","","","","","","","","","","","",""
"html-keyboard-response","169","341247","0.0-70.0-0.0","","null","","null","","","mood_trial_fixation","","","","","","","","","","","","","","","","","","","","","","",""
"lmdlab-html-vas-response","170","346392","0.0-70.0-1.0","","4135","How happy are you right now?","0.5933335593910006","delaylearn","learning","mood_trial","632c78dac01ee4ebd60f742c","3WcJgEiPKqP79mskeCJe1re63uJ3","","","","","","","","","","","","","","","","","","","","[""Very unhappy"",""Very happy""]",""
"html-keyboard-response","171","348564","0.0-71.0","","null","<div style=""font-size:100px;"">+</div>","null","delaylearn","learning","ITI","632c78dac01ee4ebd60f742c","3WcJgEiPKqP79mskeCJe1re63uJ3","","","","","","","","","","","","","","","","","","","2160","",""
"html-keyboard-response","172","349457","0.0-72.0-0.0","","890.5","<div style=""display: flex; flex-direction: column; align-items: center; margin-top: -40px;""><img src=""images/pattern_4.png"" style=""width: 234px; height: 230px; margin-top: -50px;""><div style=""display: flex; justify-content: space-between; margin-top: 33px;""><img src=""images/choice_trial_4.png"" style=""width: 408px; height: 417px; margin-right: 200px;""><img src=""images/choice_trial_11.png"" style=""width: 408px; height: 417px;""></div></div>","j","delaylearn","learning","trial","632c78dac01ee4ebd60f742c","3WcJgEiPKqP79mskeCJe1re63uJ3","5","images/choice_trial_4.png","images/choice_trial_11.png","images/pattern_4.png","j","j","7000","4","11","3","1","31","1","1","11","200","","","","",""
"html-keyboard-response","173","350465","0.0-72.0-1.0","","null","<div style=""display: flex; flex-direction: column; align-items: center; margin-top: -40px;""><img src=""images/pattern_4.png"" style=""width: 234px; height: 230px; margin-top: -50px;""><div style=""display: flex; justify-content: space-between; margin-top: 33px;""><img src=""images/choice_trial_11.png"" style=""width: 408px; height: 417px; margin-left:608px;""></div></div>","null","delaylearn","learning","display_response","632c78dac01ee4ebd60f742c","3WcJgEiPKqP79mskeCJe1re63uJ3","","","","","","","","","","","","","","","","","chosen stimuli: images/choice_trial_11.png","","","",""
"html-keyboard-response","174","357480","0.0-72.0-2.0","","null","","null","delaylearn","learning","feedback_duration_window","632c78dac01ee4ebd60f742c","3WcJgEiPKqP79mskeCJe1re63uJ3","","","","","","","","","","","","","","","","","","7000","","",""
"html-keyboard-response","175","358992","0.0-72.0-3.0","","null","<div style='margin:auto;width: auto; font-size: 150%'><span style='font-weight: bold; font-size: 100px; color: green;'>+10 points!</span><br><br></div>","null","delaylearn","learning","feedback_image_window","632c78dac01ee4ebd60f742c","3WcJgEiPKqP79mskeCJe1re63uJ3","","","","","","","","","","","","","","","","","","","","",""
"html-keyboard-response","176","360842","0.0-73.0","","null","<div style=""font-size:100px;"">+</div>","null","delaylearn","learning","ITI","632c78dac01ee4ebd60f742c","3WcJgEiPKqP79mskeCJe1re63uJ3","","","","","","","","","","","","","","","","","","","1835","",""
"html-keyboard-response","177","362647","0.0-74.0-0.0","","1801.3999998569489","<div style=""display: flex; flex-direction: column; align-items: center; margin-top: -40px;""><img src=""images/pattern_3.png"" style=""width: 234px; height: 230px; margin-top: -50px;""><div style=""display: flex; justify-content: space-between; margin-top: 33px;""><img src=""images/choice_trial_2.png"" style=""width: 408px; height: 417px; margin-right: 200px;""><img src=""images/choice_trial_16.png"" style=""width: 408px; height: 417px;""></div></div>","j","delaylearn","learning","trial","632c78dac01ee4ebd60f742c","3WcJgEiPKqP79mskeCJe1re63uJ3","5","images/choice_trial_2.png","images/choice_trial_16.png","images/pattern_3.png","j","j","7000","2","16","2","1","32","1","1","16","210","","","","",""
"html-keyboard-response","178","363663","0.0-74.0-1.0","","null","<div style=""display: flex; flex-direction: column; align-items: center; margin-top: -40px;""><img src=""images/pattern_3.png"" style=""width: 234px; height: 230px; margin-top: -50px;""><div style=""display: flex; justify-content: space-between; margin-top: 33px;""><img src=""images/choice_trial_16.png"" style=""width: 408px; height: 417px; margin-left:608px;""></div></div>","null","delaylearn","learning","display_response","632c78dac01ee4ebd60f742c","3WcJgEiPKqP79mskeCJe1re63uJ3","","","","","","","","","","","","","","","","","chosen stimuli: images/choice_trial_16.png","","","",""
"html-keyboard-response","179","370674","0.0-74.0-2.0","","null","","null","delaylearn","learning","feedback_duration_window","632c78dac01ee4ebd60f742c","3WcJgEiPKqP79mskeCJe1re63uJ3","","","","","","","","","","","","","","","","","","7000","","",""
"html-keyboard-response","180","372184","0.0-74.0-3.0","","null","<div style='margin:auto;width: auto; font-size: 150%'><span style='font-weight: bold; font-size: 100px; color: green;'>+10 points!</span><br><br></div>","null","delaylearn","learning","feedback_image_window","632c78dac01ee4ebd60f742c","3WcJgEiPKqP79mskeCJe1re63uJ3","","","","","","","","","","","","","","","","","","","","",""
"html-keyboard-response","181","374526","0.0-75.0","","null","<div style=""font-size:100px;"">+</div>","null","delaylearn","learning","ITI","632c78dac01ee4ebd60f742c","3WcJgEiPKqP79mskeCJe1re63uJ3","","","","","","","","","","","","","","","","","","","2335","",""
"html-keyboard-response","182","375964","0.0-76.0-0.0","","1433.6999998092651","<div style=""display: flex; flex-direction: column; align-items: center; margin-top: -40px;""><img src=""images/pattern_5.png"" style=""width: 234px; height: 230px; margin-top: -50px;""><div style=""display: flex; justify-content: space-between; margin-top: 33px;""><img src=""images/choice_trial_7.png"" style=""width: 408px; height: 417px; margin-right: 200px;""><img src=""images/choice_trial_13.png"" style=""width: 408px; height: 417px;""></div></div>","f","delaylearn","learning","trial","632c78dac01ee4ebd60f742c","3WcJgEiPKqP79mskeCJe1re63uJ3","5","images/choice_trial_7.png","images/choice_trial_13.png","images/pattern_5.png","j","f","750","7","13","4","0","33","1","0","7","210","","","","",""
"html-keyboard-response","183","376980","0.0-76.0-1.0","","null","<div style=""display: flex; flex-direction: column; align-items: center; margin-top: -40px;""><img src=""images/pattern_5.png"" style=""width: 234px; height: 230px; margin-top: -50px;""><div style=""display: flex; justify-content: space-between; margin-top: 33px;""><img src=""images/choice_trial_7.png"" style=""width: 408px; height: 417px; margin-right: 608px;""></div></div>","null","delaylearn","learning","display_response","632c78dac01ee4ebd60f742c","3WcJgEiPKqP79mskeCJe1re63uJ3","","","","","","","","","","","","","","","","","chosen stimuli: images/choice_trial_7.png","","","",""
"html-keyboard-response","184","377746","0.0-76.0-2.0","","null","","null","delaylearn","learning","feedback_duration_window","632c78dac01ee4ebd60f742c","3WcJgEiPKqP79mskeCJe1re63uJ3","","","","","","","","","","","","","","","","","","750","","",""
"html-keyboard-response","185","379264","0.0-76.0-3.0","","null","<div style='margin:auto;width: auto; font-size: 150%'><span style='font-weight: bold; font-size: 100px; color: red;'>0 points!</span><br><br></div>","null","delaylearn","learning","feedback_image_window","632c78dac01ee4ebd60f742c","3WcJgEiPKqP79mskeCJe1re63uJ3","","","","","","","","","","","","","","","","","","","","",""
"html-keyboard-response","186","381072","0.0-77.0","","null","<div style=""font-size:100px;"">+</div>","null","delaylearn","learning","ITI","632c78dac01ee4ebd60f742c","3WcJgEiPKqP79mskeCJe1re63uJ3","","","","","","","","","","","","","","","","","","","1797","",""
"html-keyboard-response","187","382174","0.0-78.0-0.0","","1096.8999998569489","<div style=""display: flex; flex-direction: column; align-items: center; margin-top: -40px;""><img src=""images/pattern_1.png"" style=""width: 234px; height: 230px; margin-top: -50px;""><div style=""display: flex; justify-content: space-between; margin-top: 33px;""><img src=""images/choice_trial_6.png"" style=""width: 408px; height: 417px; margin-right: 200px;""><img src=""images/choice_trial_15.png"" style=""width: 408px; height: 417px;""></div></div>","f","delaylearn","learning","trial","632c78dac01ee4ebd60f742c","3WcJgEiPKqP79mskeCJe1re63uJ3","5","images/choice_trial_6.png","images/choice_trial_15.png","images/pattern_1.png","f","f","7000","6","15","1","0","34","1","1","6","220","","","","",""
"html-keyboard-response","188","383191","0.0-78.0-1.0","","null","<div style=""display: flex; flex-direction: column; align-items: center; margin-top: -40px;""><img src=""images/pattern_1.png"" style=""width: 234px; height: 230px; margin-top: -50px;""><div style=""display: flex; justify-content: space-between; margin-top: 33px;""><img src=""images/choice_trial_6.png"" style=""width: 408px; height: 417px; margin-right: 608px;""></div></div>","null","delaylearn","learning","display_response","632c78dac01ee4ebd60f742c","3WcJgEiPKqP79mskeCJe1re63uJ3","","","","","","","","","","","","","","","","","chosen stimuli: images/choice_trial_6.png","","","",""
"html-keyboard-response","189","390204","0.0-78.0-2.0","","null","","null","delaylearn","learning","feedback_duration_window","632c78dac01ee4ebd60f742c","3WcJgEiPKqP79mskeCJe1re63uJ3","","","","","","","","","","","","","","","","","","7000","","",""
"html-keyboard-response","190","391712","0.0-78.0-3.0","","null","<div style='margin:auto;width: auto; font-size: 150%'><span style='font-weight: bold; font-size: 100px; color: green;'>+10 points!</span><br><br></div>","null","delaylearn","learning","feedback_image_window","632c78dac01ee4ebd60f742c","3WcJgEiPKqP79mskeCJe1re63uJ3","","","","","","","","","","","","","","","","","","","","",""
"html-keyboard-response","191","392222","0.0-79.0-0.0","","null","","null","","","mood_trial_fixation","","","","","","","","","","","","","","","","","","","","","","",""
"lmdlab-html-vas-response","192","396764","0.0-79.0-1.0","","3528","How happy are you right now?","0.4891661862941236","delaylearn","learning","mood_trial","632c78dac01ee4ebd60f742c","3WcJgEiPKqP79mskeCJe1re63uJ3","","","","","","","","","","","","","","","","","","","","[""Very unhappy"",""Very happy""]",""
"html-keyboard-response","193","398367","0.0-80.0","","null","<div style=""font-size:100px;"">+</div>","null","delaylearn","learning","ITI","632c78dac01ee4ebd60f742c","3WcJgEiPKqP79mskeCJe1re63uJ3","","","","","","","","","","","","","","","","","","","1599","",""
"html-keyboard-response","194","400222","0.0-81.0-0.0","","1848.9000000953674","<div style=""display: flex; flex-direction: column; align-items: center; margin-top: -40px;""><img src=""images/pattern_6.png"" style=""width: 234px; height: 230px; margin-top: -50px;""><div style=""display: flex; justify-content: space-between; margin-top: 33px;""><img src=""images/choice_trial_14.png"" style=""width: 408px; height: 417px; margin-right: 200px;""><img src=""images/choice_trial_9.png"" style=""width: 408px; height: 417px;""></div></div>","f","delaylearn","learning","trial","632c78dac01ee4ebd60f742c","3WcJgEiPKqP79mskeCJe1re63uJ3","5","images/choice_trial_14.png","images/choice_trial_9.png","images/pattern_6.png","j","f","750","14","9","5","0","35","1","0","14","220","","","","",""
"html-keyboard-response","195","401226","0.0-81.0-1.0","","null","<div style=""display: flex; flex-direction: column; align-items: center; margin-top: -40px;""><img src=""images/pattern_6.png"" style=""width: 234px; height: 230px; margin-top: -50px;""><div style=""display: flex; justify-content: space-between; margin-top: 33px;""><img src=""images/choice_trial_14.png"" style=""width: 408px; height: 417px; margin-right: 608px;""></div></div>","null","delaylearn","learning","display_response","632c78dac01ee4ebd60f742c","3WcJgEiPKqP79mskeCJe1re63uJ3","","","","","","","","","","","","","","","","","chosen stimuli: images/choice_trial_14.png","","","",""
"html-keyboard-response","196","401985","0.0-81.0-2.0","","null","","null","delaylearn","learning","feedback_duration_window","632c78dac01ee4ebd60f742c","3WcJgEiPKqP79mskeCJe1re63uJ3","","","","","","","","","","","","","","","","","","750","","",""
"html-keyboard-response","197","403491","0.0-81.0-3.0","","null","<div style='margin:auto;width: auto; font-size: 150%'><span style='font-weight: bold; font-size: 100px; color: red;'>0 points!</span><br><br></div>","null","delaylearn","learning","feedback_image_window","632c78dac01ee4ebd60f742c","3WcJgEiPKqP79mskeCJe1re63uJ3","","","","","","","","","","","","","","","","","","","","",""
"html-keyboard-response","198","405024","0.0-82.0","","null","<div style=""font-size:100px;"">+</div>","null","delaylearn","learning","ITI","632c78dac01ee4ebd60f742c","3WcJgEiPKqP79mskeCJe1re63uJ3","","","","","","","","","","","","","","","","","","","1520","",""
"html-keyboard-response","199","406077","0.0-83.0-0.0","","1046.6999998092651","<div style=""display: flex; flex-direction: column; align-items: center; margin-top: -40px;""><img src=""images/pattern_3.png"" style=""width: 234px; height: 230px; margin-top: -50px;""><div style=""display: flex; justify-content: space-between; margin-top: 33px;""><img src=""images/choice_trial_2.png"" style=""width: 408px; height: 417px; margin-right: 200px;""><img src=""images/choice_trial_16.png"" style=""width: 408px; height: 417px;""></div></div>","j","delaylearn","learning","trial","632c78dac01ee4ebd60f742c","3WcJgEiPKqP79mskeCJe1re63uJ3","5","images/choice_trial_2.png","images/choice_trial_16.png","images/pattern_3.png","j","j","7000","2","16","2","1","36","1","1","16","230","","","","",""
"html-keyboard-response","200","407087","0.0-83.0-1.0","","null","<div style=""display: flex; flex-direction: column; align-items: center; margin-top: -40px;""><img src=""images/pattern_3.png"" style=""width: 234px; height: 230px; margin-top: -50px;""><div style=""display: flex; justify-content: space-between; margin-top: 33px;""><img src=""images/choice_trial_16.png"" style=""width: 408px; height: 417px; margin-left:608px;""></div></div>","null","delaylearn","learning","display_response","632c78dac01ee4ebd60f742c","3WcJgEiPKqP79mskeCJe1re63uJ3","","","","","","","","","","","","","","","","","chosen stimuli: images/choice_trial_16.png","","","",""
"html-keyboard-response","201","414089","0.0-83.0-2.0","","null","","null","delaylearn","learning","feedback_duration_window","632c78dac01ee4ebd60f742c","3WcJgEiPKqP79mskeCJe1re63uJ3","","","","","","","","","","","","","","","","","","7000","","",""
"html-keyboard-response","202","415600","0.0-83.0-3.0","","null","<div style='margin:auto;width: auto; font-size: 150%'><span style='font-weight: bold; font-size: 100px; color: green;'>+10 points!</span><br><br></div>","null","delaylearn","learning","feedback_image_window","632c78dac01ee4ebd60f742c","3WcJgEiPKqP79mskeCJe1re63uJ3","","","","","","","","","","","","","","","","","","","","",""
"html-keyboard-response","203","417408","0.0-84.0","","null","<div style=""font-size:100px;"">+</div>","null","delaylearn","learning","ITI","632c78dac01ee4ebd60f742c","3WcJgEiPKqP79mskeCJe1re63uJ3","","","","","","","","","","","","","","","","","","","1806","",""
"html-keyboard-response","204","418543","0.0-85.0-0.0","","1130","<div style=""display: flex; flex-direction: column; align-items: center; margin-top: -40px;""><img src=""images/pattern_4.png"" style=""width: 234px; height: 230px; margin-top: -50px;""><div style=""display: flex; justify-content: space-between; margin-top: 33px;""><img src=""images/choice_trial_4.png"" style=""width: 408px; height: 417px; margin-right: 200px;""><img src=""images/choice_trial_11.png"" style=""width: 408px; height: 417px;""></div></div>","j","delaylearn","learning","trial","632c78dac01ee4ebd60f742c","3WcJgEiPKqP79mskeCJe1re63uJ3","5","images/choice_trial_4.png","images/choice_trial_11.png","images/pattern_4.png","f","j","7000","4","11","3","1","37","1","0","11","230","","","","",""
"html-keyboard-response","205","419560","0.0-85.0-1.0","","null","<div style=""display: flex; flex-direction: column; align-items: center; margin-top: -40px;""><img src=""images/pattern_4.png"" style=""width: 234px; height: 230px; margin-top: -50px;""><div style=""display: flex; justify-content: space-between; margin-top: 33px;""><img src=""images/choice_trial_11.png"" style=""width: 408px; height: 417px; margin-left:608px;""></div></div>","null","delaylearn","learning","display_response","632c78dac01ee4ebd60f742c","3WcJgEiPKqP79mskeCJe1re63uJ3","","","","","","","","","","","","","","","","","chosen stimuli: images/choice_trial_11.png","","","",""
"html-keyboard-response","206","426563","0.0-85.0-2.0","","null","","null","delaylearn","learning","feedback_duration_window","632c78dac01ee4ebd60f742c","3WcJgEiPKqP79mskeCJe1re63uJ3","","","","","","","","","","","","","","","","","","7000","","",""
"html-keyboard-response","207","428076","0.0-85.0-3.0","","null","<div style='margin:auto;width: auto; font-size: 150%'><span style='font-weight: bold; font-size: 100px; color: red;'>0 points!</span><br><br></div>","null","delaylearn","learning","feedback_image_window","632c78dac01ee4ebd60f742c","3WcJgEiPKqP79mskeCJe1re63uJ3","","","","","","","","","","","","","","","","","","","","",""
"html-keyboard-response","208","430172","0.0-86.0","","null","<div style=""font-size:100px;"">+</div>","null","delaylearn","learning","ITI","632c78dac01ee4ebd60f742c","3WcJgEiPKqP79mskeCJe1re63uJ3","","","","","","","","","","","","","","","","","","","2090","",""
"html-keyboard-response","209","431640","0.0-87.0-0.0","","1462.2999999523163","<div style=""display: flex; flex-direction: column; align-items: center; margin-top: -40px;""><img src=""images/pattern_7.png"" style=""width: 234px; height: 230px; margin-top: -50px;""><div style=""display: flex; justify-content: space-between; margin-top: 33px;""><img src=""images/choice_trial_8.png"" style=""width: 408px; height: 417px; margin-right: 200px;""><img src=""images/choice_trial_10.png"" style=""width: 408px; height: 417px;""></div></div>","f","delaylearn","learning","trial","632c78dac01ee4ebd60f742c","3WcJgEiPKqP79mskeCJe1re63uJ3","5","images/choice_trial_8.png","images/choice_trial_10.png","images/pattern_7.png","f","f","750","8","10","6","0","38","1","1","8","240","","","","",""
"html-keyboard-response","210","432644","0.0-87.0-1.0","","null","<div style=""display: flex; flex-direction: column; align-items: center; margin-top: -40px;""><img src=""images/pattern_7.png"" style=""width: 234px; height: 230px; margin-top: -50px;""><div style=""display: flex; justify-content: space-between; margin-top: 33px;""><img src=""images/choice_trial_8.png"" style=""width: 408px; height: 417px; margin-right: 608px;""></div></div>","null","delaylearn","learning","display_response","632c78dac01ee4ebd60f742c","3WcJgEiPKqP79mskeCJe1re63uJ3","","","","","","","","","","","","","","","","","chosen stimuli: images/choice_trial_8.png","","","",""
"html-keyboard-response","211","433404","0.0-87.0-2.0","","null","","null","delaylearn","learning","feedback_duration_window","632c78dac01ee4ebd60f742c","3WcJgEiPKqP79mskeCJe1re63uJ3","","","","","","","","","","","","","","","","","","750","","",""
"html-keyboard-response","212","434913","0.0-87.0-3.0","","null","<div style='margin:auto;width: auto; font-size: 150%'><span style='font-weight: bold; font-size: 100px; color: green;'>+10 points!</span><br><br></div>","null","delaylearn","learning","feedback_image_window","632c78dac01ee4ebd60f742c","3WcJgEiPKqP79mskeCJe1re63uJ3","","","","","","","","","","","","","","","","","","","","",""
"html-keyboard-response","213","436850","0.0-88.0","","null","<div style=""font-size:100px;"">+</div>","null","delaylearn","learning","ITI","632c78dac01ee4ebd60f742c","3WcJgEiPKqP79mskeCJe1re63uJ3","","","","","","","","","","","","","","","","","","","1934","",""
"html-keyboard-response","214","437729","0.0-89.0-0.0","","875.4000000953674","<div style=""display: flex; flex-direction: column; align-items: center; margin-top: -40px;""><img src=""images/pattern_1.png"" style=""width: 234px; height: 230px; margin-top: -50px;""><div style=""display: flex; justify-content: space-between; margin-top: 33px;""><img src=""images/choice_trial_6.png"" style=""width: 408px; height: 417px; margin-right: 200px;""><img src=""images/choice_trial_15.png"" style=""width: 408px; height: 417px;""></div></div>","f","delaylearn","learning","trial","632c78dac01ee4ebd60f742c","3WcJgEiPKqP79mskeCJe1re63uJ3","5","images/choice_trial_6.png","images/choice_trial_15.png","images/pattern_1.png","f","f","7000","6","15","1","0","39","1","1","6","250","","","","",""
"html-keyboard-response","215","438734","0.0-89.0-1.0","","null","<div style=""display: flex; flex-direction: column; align-items: center; margin-top: -40px;""><img src=""images/pattern_1.png"" style=""width: 234px; height: 230px; margin-top: -50px;""><div style=""display: flex; justify-content: space-between; margin-top: 33px;""><img src=""images/choice_trial_6.png"" style=""width: 408px; height: 417px; margin-right: 608px;""></div></div>","null","delaylearn","learning","display_response","632c78dac01ee4ebd60f742c","3WcJgEiPKqP79mskeCJe1re63uJ3","","","","","","","","","","","","","","","","","chosen stimuli: images/choice_trial_6.png","","","",""
"html-keyboard-response","216","445741","0.0-89.0-2.0","","null","","null","delaylearn","learning","feedback_duration_window","632c78dac01ee4ebd60f742c","3WcJgEiPKqP79mskeCJe1re63uJ3","","","","","","","","","","","","","","","","","","7000","","",""
"html-keyboard-response","217","447254","0.0-89.0-3.0","","null","<div style='margin:auto;width: auto; font-size: 150%'><span style='font-weight: bold; font-size: 100px; color: green;'>+10 points!</span><br><br></div>","null","delaylearn","learning","feedback_image_window","632c78dac01ee4ebd60f742c","3WcJgEiPKqP79mskeCJe1re63uJ3","","","","","","","","","","","","","","","","","","","","",""
"html-keyboard-response","218","447764","0.0-90.0-0.0","","null","","null","","","mood_trial_fixation","","","","","","","","","","","","","","","","","","","","","","",""
"lmdlab-html-vas-response","219","452842","0.0-90.0-1.0","","4071","How happy are you right now?","0.5173781831745278","delaylearn","learning","mood_trial","632c78dac01ee4ebd60f742c","3WcJgEiPKqP79mskeCJe1re63uJ3","","","","","","","","","","","","","","","","","","","","[""Very unhappy"",""Very happy""]",""
"html-keyboard-response","220","454936","0.0-91.0","","null","<div style=""font-size:100px;"">+</div>","null","delaylearn","learning","ITI","632c78dac01ee4ebd60f742c","3WcJgEiPKqP79mskeCJe1re63uJ3","","","","","","","","","","","","","","","","","","","2090","",""
