"trial_type","trial_index","time_elapsed","internal_node_id","participant","rt","stimulus","response","exp_name","exp_stage","test_part","subjectID","databaseID","counterbal","choice_stimuli_1","choice_stimuli_2","pattern_stimuli","rewarded_answer","correct_answer","feedback_duration_times","stim_left","stim_right","pair","leftright_counter","trial","response_correct","response_rewarded","chosen_stim","counter","displayed_choice","feedback_durations","ITI_duration","labels","rest_warning"
"pavlovia","0","496","0.0-0.0","","","","","","","","","","","","","","","","","","","","","","","","","","","","","",""
"html-keyboard-response","1","3499","0.0-1.0","","null","<div style=""font-size:100px;"">+</div>","null","delaylearn","learning","pre_fixation","5918774ba391f200011b281f","","","","","","","","","","","","","","","","","","","","","",""
"html-keyboard-response","2","4346","0.0-2.0-0.0","","844.1000001430511","<div style=""display: flex; flex-direction: column; align-items: center; margin-top: -40px;""><img src=""images/demo_images/pattern_1.png"" style=""width: 234px; height: 230px; margin-top: -50px;""><div style=""display: flex; justify-content: space-between; margin-top: 33px;""><img src=""images/demo_images/choice_trial_2.png"" style=""width: 408px; height: 417px; margin-right: 200px;""><img src=""images/demo_images/choice_trial_1.png"" style=""width: 408px; height: 417px;""></div></div>","f","delaylearn","learning","trial","5918774ba391f200011b281f","L9RSkr7JnVUnXCAHwfdgIebAIGC2","3","images/demo_images/choice_trial_2.png","images/demo_images/choice_trial_1.png","images/demo_images/pattern_1.png","j","j","3000","2","1","20","1","1","0","0","2","0","","","","",""
"html-keyboard-response","3","5357","0.0-2.0-1.0","","null","<div style=""display: flex; flex-direction: column; align-items: center; margin-top: -40px;""><img src=""images/demo_images/pattern_1.png"" style=""width: 234px; height: 230px; margin-top: -50px;""><div style=""display: flex; justify-content: space-between; margin-top: 33px;""><img src=""images/demo_images/choice_trial_2.png"" style=""width: 408px; height: 417px; margin-right: 608px;""></div></div>","null","delaylearn","learning","display_response","5918774ba391f200011b281f","L9RSkr7JnVUnXCAHwfdgIebAIGC2","","","","","","","","","","","","","","","","","chosen stimuli: images/demo_images/choice_trial_2.png","","","",""
"html-keyboard-response","4","8359","0.0-2.0-2.0","","null","","null","delaylearn","learning","feedback_duration_window","5918774ba391f200011b281f","L9RSkr7JnVUnXCAHwfdgIebAIGC2","","","","","","","","","","","","","","","","","","3000","","",""
"html-keyboard-response","5","9872","0.0-2.0-3.0","","null","<div style='margin:auto;width: auto; font-size: 150%'><span style='font-weight: bold; font-size: 100px; color: red;'>0 points!</span><br><br></div>","null","delaylearn","learning","feedback_image_window","5918774ba391f200011b281f","L9RSkr7JnVUnXCAHwfdgIebAIGC2","","","","","","","","","","","","","","","","","","","","",""
"html-keyboard-response","6","11512","0.0-3.0","","null","<div style=""font-size:100px;"">+</div>","null","delaylearn","learning","ITI","5918774ba391f200011b281f","L9RSkr7JnVUnXCAHwfdgIebAIGC2","","","","","","","","","","","","","","","","","","","1628","",""
"html-keyboard-response","7","12300","0.0-4.0-0.0","","783.7000000476837","<div style=""display: flex; flex-direction: column; align-items: center; margin-top: -40px;""><img src=""images/demo_images/pattern_1.png"" style=""width: 234px; height: 230px; margin-top: -50px;""><div style=""display: flex; justify-content: space-between; margin-top: 33px;""><img src=""images/demo_images/choice_trial_2.png"" style=""width: 408px; height: 417px; margin-right: 200px;""><img src=""images/demo_images/choice_trial_1.png"" style=""width: 408px; height: 417px;""></div></div>","f","delaylearn","learning","trial","5918774ba391f200011b281f","L9RSkr7JnVUnXCAHwfdgIebAIGC2","3","images/demo_images/choice_trial_2.png","images/demo_images/choice_trial_1.png","images/demo_images/pattern_1.png","j","j","3000","2","1","20","1","2","0","0","2","0","","","","",""
"html-keyboard-response","8","13313","0.0-4.0-1.0","","null","<div style=""display: flex; flex-direction: column; align-items: center; margin-top: -40px;""><img src=""images/demo_images/pattern_1.png"" style=""width: 234px; height: 230px; margin-top: -50px;""><div style=""display: flex; justify-content: space-between; margin-top: 33px;""><img src=""images/demo_images/choice_trial_2.png"" style=""width: 408px; height: 417px; margin-right: 608px;""></div></div>","null","delaylearn","learning","display_response","5918774ba391f200011b281f","L9RSkr7JnVUnXCAHwfdgIebAIGC2","","","","","","","","","","","","","","","","","chosen stimuli: images/demo_images/choice_trial_2.png","","","",""
"html-keyboard-response","9","16323","0.0-4.0-2.0","","null","","null","delaylearn","learning","feedback_duration_window","5918774ba391f200011b281f","L9RSkr7JnVUnXCAHwfdgIebAIGC2","","","","","","","","","","","","","","","","","","3000","","",""
"html-keyboard-response","10","17837","0.0-4.0-3.0","","null","<div style='margin:auto;width: auto; font-size: 150%'><span style='font-weight: bold; font-size: 100px; color: red;'>0 points!</span><br><br></div>","null","delaylearn","learning","feedback_image_window","5918774ba391f200011b281f","L9RSkr7JnVUnXCAHwfdgIebAIGC2","","","","","","","","","","","","","","","","","","","","",""
"html-keyboard-response","11","19530","0.0-5.0","","null","<div style=""font-size:100px;"">+</div>","null","delaylearn","learning","ITI","5918774ba391f200011b281f","L9RSkr7JnVUnXCAHwfdgIebAIGC2","","","","","","","","","","","","","","","","","","","1684","",""
"html-keyboard-response","12","20842","0.0-6.0-0.0","","1309.2000000476837","<div style=""display: flex; flex-direction: column; align-items: center; margin-top: -40px;""><img src=""images/demo_images/pattern_1.png"" style=""width: 234px; height: 230px; margin-top: -50px;""><div style=""display: flex; justify-content: space-between; margin-top: 33px;""><img src=""images/demo_images/choice_trial_1.png"" style=""width: 408px; height: 417px; margin-right: 200px;""><img src=""images/demo_images/choice_trial_2.png"" style=""width: 408px; height: 417px;""></div></div>","f","delaylearn","learning","trial","5918774ba391f200011b281f","L9RSkr7JnVUnXCAHwfdgIebAIGC2","3","images/demo_images/choice_trial_1.png","images/demo_images/choice_trial_2.png","images/demo_images/pattern_1.png","j","f","3000","1","2","20","0","3","1","0","1","0","","","","",""
"html-keyboard-response","13","21858","0.0-6.0-1.0","","null","<div style=""display: flex; flex-direction: column; align-items: center; margin-top: -40px;""><img src=""images/demo_images/pattern_1.png"" style=""width: 234px; height: 230px; margin-top: -50px;""><div style=""display: flex; justify-content: space-between; margin-top: 33px;""><img src=""images/demo_images/choice_trial_1.png"" style=""width: 408px; height: 417px; margin-right: 608px;""></div></div>","null","delaylearn","learning","display_response","5918774ba391f200011b281f","L9RSkr7JnVUnXCAHwfdgIebAIGC2","","","","","","","","","","","","","","","","","chosen stimuli: images/demo_images/choice_trial_1.png","","","",""
"html-keyboard-response","14","24872","0.0-6.0-2.0","","null","","null","delaylearn","learning","feedback_duration_window","5918774ba391f200011b281f","L9RSkr7JnVUnXCAHwfdgIebAIGC2","","","","","","","","","","","","","","","","","","3000","","",""
"html-keyboard-response","15","26374","0.0-6.0-3.0","","null","<div style='margin:auto;width: auto; font-size: 150%'><span style='font-weight: bold; font-size: 100px; color: red;'>0 points!</span><br><br></div>","null","delaylearn","learning","feedback_image_window","5918774ba391f200011b281f","L9RSkr7JnVUnXCAHwfdgIebAIGC2","","","","","","","","","","","","","","","","","","","","",""
"html-keyboard-response","16","28149","0.0-7.0","","null","<div style=""font-size:100px;"">+</div>","null","delaylearn","learning","ITI","5918774ba391f200011b281f","L9RSkr7JnVUnXCAHwfdgIebAIGC2","","","","","","","","","","","","","","","","","","","1771","",""
"html-keyboard-response","17","30020","0.0-8.0-0.0","","1867.8999998569489","<div style=""display: flex; flex-direction: column; align-items: center; margin-top: -40px;""><img src=""images/demo_images/pattern_1.png"" style=""width: 234px; height: 230px; margin-top: -50px;""><div style=""display: flex; justify-content: space-between; margin-top: 33px;""><img src=""images/demo_images/choice_trial_1.png"" style=""width: 408px; height: 417px; margin-right: 200px;""><img src=""images/demo_images/choice_trial_2.png"" style=""width: 408px; height: 417px;""></div></div>","f","delaylearn","learning","trial","5918774ba391f200011b281f","L9RSkr7JnVUnXCAHwfdgIebAIGC2","3","images/demo_images/choice_trial_1.png","images/demo_images/choice_trial_2.png","images/demo_images/pattern_1.png","f","f","3000","1","2","20","0","4","1","1","1","10","","","","",""
"html-keyboard-response","18","31025","0.0-8.0-1.0","","null","<div style=""display: flex; flex-direction: column; align-items: center; margin-top: -40px;""><img src=""images/demo_images/pattern_1.png"" style=""width: 234px; height: 230px; margin-top: -50px;""><div style=""display: flex; justify-content: space-between; margin-top: 33px;""><img src=""images/demo_images/choice_trial_1.png"" style=""width: 408px; height: 417px; margin-right: 608px;""></div></div>","null","delaylearn","learning","display_response","5918774ba391f200011b281f","L9RSkr7JnVUnXCAHwfdgIebAIGC2","","","","","","","","","","","","","","","","","chosen stimuli: images/demo_images/choice_trial_1.png","","","",""
"html-keyboard-response","19","34030","0.0-8.0-2.0","","null","","null","delaylearn","learning","feedback_duration_window","5918774ba391f200011b281f","L9RSkr7JnVUnXCAHwfdgIebAIGC2","","","","","","","","","","","","","","","","","","3000","","",""
"html-keyboard-response","20","35546","0.0-8.0-3.0","","null","<div style='margin:auto;width: auto; font-size: 150%'><span style='font-weight: bold; font-size: 100px; color: green;'>+10 points!</span><br><br></div>","null","delaylearn","learning","feedback_image_window","5918774ba391f200011b281f","L9RSkr7JnVUnXCAHwfdgIebAIGC2","","","","","","","","","","","","","","","","","","","","",""
"html-keyboard-response","21","36059","0.0-9.0-0.0","","null","","null","","","mood_trial_fixation","","","","","","","","","","","","","","","","","","","","","","",""
"lmdlab-html-vas-response","22","40825","0.0-9.0-1.0","","3741","How happy are you right now?","0.496757457846952","delaylearn","learning","mood_trial","5918774ba391f200011b281f","L9RSkr7JnVUnXCAHwfdgIebAIGC2","","","","","","","","","","","","","","","","","","","","[""Very unhappy"",""Very happy""]",""
"html-keyboard-response","23","43080","0.0-10.0","","null","<div style=""font-size:100px;"">+</div>","null","delaylearn","learning","ITI","5918774ba391f200011b281f","L9RSkr7JnVUnXCAHwfdgIebAIGC2","","","","","","","","","","","","","","","","","","","2239","",""
"html-keyboard-response","24","44458","0.0-11.0-0.0","","1374.5","<div style=""display: flex; flex-direction: column; align-items: center; margin-top: -40px;""><img src=""images/demo_images/pattern_1.png"" style=""width: 234px; height: 230px; margin-top: -50px;""><div style=""display: flex; justify-content: space-between; margin-top: 33px;""><img src=""images/demo_images/choice_trial_2.png"" style=""width: 408px; height: 417px; margin-right: 200px;""><img src=""images/demo_images/choice_trial_1.png"" style=""width: 408px; height: 417px;""></div></div>","j","delaylearn","learning","trial","5918774ba391f200011b281f","L9RSkr7JnVUnXCAHwfdgIebAIGC2","3","images/demo_images/choice_trial_2.png","images/demo_images/choice_trial_1.png","images/demo_images/pattern_1.png","j","j","3000","2","1","20","1","5","1","1","1","20","","","","",""
"html-keyboard-response","25","45464","0.0-11.0-1.0","","null","<div style=""display: flex; flex-direction: column; align-items: center; margin-top: -40px;""><img src=""images/demo_images/pattern_1.png"" style=""width: 234px; height: 230px; margin-top: -50px;""><div style=""display: flex; justify-content: space-between; margin-top: 33px;""><img src=""images/demo_images/choice_trial_1.png"" style=""width: 408px; height: 417px; margin-left:608px;""></div></div>","null","delaylearn","learning","display_response","5918774ba391f200011b281f","L9RSkr7JnVUnXCAHwfdgIebAIGC2","","","","","","","","","","","","","","","","","chosen stimuli: images/demo_images/choice_trial_1.png","","","",""
"html-keyboard-response","26","48466","0.0-11.0-2.0","","null","","null","delaylearn","learning","feedback_duration_window","5918774ba391f200011b281f","L9RSkr7JnVUnXCAHwfdgIebAIGC2","","","","","","","","","","","","","","","","","","3000","","",""
"html-keyboard-response","27","49974","0.0-11.0-3.0","","null","<div style='margin:auto;width: auto; font-size: 150%'><span style='font-weight: bold; font-size: 100px; color: green;'>+10 points!</span><br><br></div>","null","delaylearn","learning","feedback_image_window","5918774ba391f200011b281f","L9RSkr7JnVUnXCAHwfdgIebAIGC2","","","","","","","","","","","","","","","","","","","","",""
"html-keyboard-response","28","51873","0.0-12.0","","null","<div style=""font-size:100px;"">+</div>","null","delaylearn","learning","ITI","5918774ba391f200011b281f","L9RSkr7JnVUnXCAHwfdgIebAIGC2","","","","","","","","","","","","","","","","","","","1897","",""
"html-keyboard-response","29","52900","0.0-13.0-0.0","","1023.8999998569489","<div style=""display: flex; flex-direction: column; align-items: center; margin-top: -40px;""><img src=""images/demo_images/pattern_1.png"" style=""width: 234px; height: 230px; margin-top: -50px;""><div style=""display: flex; justify-content: space-between; margin-top: 33px;""><img src=""images/demo_images/choice_trial_1.png"" style=""width: 408px; height: 417px; margin-right: 200px;""><img src=""images/demo_images/choice_trial_2.png"" style=""width: 408px; height: 417px;""></div></div>","f","delaylearn","learning","trial","5918774ba391f200011b281f","L9RSkr7JnVUnXCAHwfdgIebAIGC2","3","images/demo_images/choice_trial_1.png","images/demo_images/choice_trial_2.png","images/demo_images/pattern_1.png","f","f","3000","1","2","20","0","6","1","1","1","30","","","","",""
"html-keyboard-response","30","53904","0.0-13.0-1.0","","null","<div style=""display: flex; flex-direction: column; align-items: center; margin-top: -40px;""><img src=""images/demo_images/pattern_1.png"" style=""width: 234px; height: 230px; margin-top: -50px;""><div style=""display: flex; justify-content: space-between; margin-top: 33px;""><img src=""images/demo_images/choice_trial_1.png"" style=""width: 408px; height: 417px; margin-right: 608px;""></div></div>","null","delaylearn","learning","display_response","5918774ba391f200011b281f","L9RSkr7JnVUnXCAHwfdgIebAIGC2","","","","","","","","","","","","","","","","","chosen stimuli: images/demo_images/choice_trial_1.png","","","",""
"html-keyboard-response","31","56920","0.0-13.0-2.0","","null","","null","delaylearn","learning","feedback_duration_window","5918774ba391f200011b281f","L9RSkr7JnVUnXCAHwfdgIebAIGC2","","","","","","","","","","","","","","","","","","3000","","",""
"html-keyboard-response","32","58423","0.0-13.0-3.0","","null","<div style='margin:auto;width: auto; font-size: 150%'><span style='font-weight: bold; font-size: 100px; color: green;'>+10 points!</span><br><br></div>","null","delaylearn","learning","feedback_image_window","5918774ba391f200011b281f","L9RSkr7JnVUnXCAHwfdgIebAIGC2","","","","","","","","","","","","","","","","","","","","",""
"html-keyboard-response","33","60241","0.0-14.0","","null","<div style=""font-size:100px;"">+</div>","null","delaylearn","learning","ITI","5918774ba391f200011b281f","L9RSkr7JnVUnXCAHwfdgIebAIGC2","","","","","","","","","","","","","","","","","","","1817","",""
"html-keyboard-response","34","61418","0.0-15.0-0.0","","1173.5","<div style=""display: flex; flex-direction: column; align-items: center; margin-top: -40px;""><img src=""images/demo_images/pattern_1.png"" style=""width: 234px; height: 230px; margin-top: -50px;""><div style=""display: flex; justify-content: space-between; margin-top: 33px;""><img src=""images/demo_images/choice_trial_2.png"" style=""width: 408px; height: 417px; margin-right: 200px;""><img src=""images/demo_images/choice_trial_1.png"" style=""width: 408px; height: 417px;""></div></div>","j","delaylearn","learning","trial","5918774ba391f200011b281f","L9RSkr7JnVUnXCAHwfdgIebAIGC2","3","images/demo_images/choice_trial_2.png","images/demo_images/choice_trial_1.png","images/demo_images/pattern_1.png","j","j","3000","2","1","20","1","7","1","1","1","40","","","","",""
"html-keyboard-response","35","62431","0.0-15.0-1.0","","null","<div style=""display: flex; flex-direction: column; align-items: center; margin-top: -40px;""><img src=""images/demo_images/pattern_1.png"" style=""width: 234px; height: 230px; margin-top: -50px;""><div style=""display: flex; justify-content: space-between; margin-top: 33px;""><img src=""images/demo_images/choice_trial_1.png"" style=""width: 408px; height: 417px; margin-left:608px;""></div></div>","null","delaylearn","learning","display_response","5918774ba391f200011b281f","L9RSkr7JnVUnXCAHwfdgIebAIGC2","","","","","","","","","","","","","","","","","chosen stimuli: images/demo_images/choice_trial_1.png","","","",""
"html-keyboard-response","36","65435","0.0-15.0-2.0","","null","","null","delaylearn","learning","feedback_duration_window","5918774ba391f200011b281f","L9RSkr7JnVUnXCAHwfdgIebAIGC2","","","","","","","","","","","","","","","","","","3000","","",""
"html-keyboard-response","37","66951","0.0-15.0-3.0","","null","<div style='margin:auto;width: auto; font-size: 150%'><span style='font-weight: bold; font-size: 100px; color: green;'>+10 points!</span><br><br></div>","null","delaylearn","learning","feedback_image_window","5918774ba391f200011b281f","L9RSkr7JnVUnXCAHwfdgIebAIGC2","","","","","","","","","","","","","","","","","","","","",""
"html-keyboard-response","38","69222","0.0-16.0","","null","<div style=""font-size:100px;"">+</div>","null","delaylearn","learning","ITI","5918774ba391f200011b281f","L9RSkr7JnVUnXCAHwfdgIebAIGC2","","","","","","","","","","","","","","","","","","","2270","",""
"html-keyboard-response","39","70204","0.0-17.0-0.0","","978.7999999523163","<div style=""display: flex; flex-direction: column; align-items: center; margin-top: -40px;""><img src=""images/demo_images/pattern_1.png"" style=""width: 234px; height: 230px; margin-top: -50px;""><div style=""display: flex; justify-content: space-between; margin-top: 33px;""><img src=""images/demo_images/choice_trial_1.png"" style=""width: 408px; height: 417px; margin-right: 200px;""><img src=""images/demo_images/choice_trial_2.png"" style=""width: 408px; height: 417px;""></div></div>","f","delaylearn","learning","trial","5918774ba391f200011b281f","L9RSkr7JnVUnXCAHwfdgIebAIGC2","3","images/demo_images/choice_trial_1.png","images/demo_images/choice_trial_2.png","images/demo_images/pattern_1.png","f","f","3000","1","2","20","0","8","1","1","1","50","","","","",""
"html-keyboard-response","40","71207","0.0-17.0-1.0","","null","<div style=""display: flex; flex-direction: column; align-items: center; margin-top: -40px;""><img src=""images/demo_images/pattern_1.png"" style=""width: 234px; height: 230px; margin-top: -50px;""><div style=""display: flex; justify-content: space-between; margin-top: 33px;""><img src=""images/demo_images/choice_trial_1.png"" style=""width: 408px; height: 417px; margin-right: 608px;""></div></div>","null","delaylearn","learning","display_response","5918774ba391f200011b281f","L9RSkr7JnVUnXCAHwfdgIebAIGC2","","","","","","","","","","","","","","","","","chosen stimuli: images/demo_images/choice_trial_1.png","","","",""
"html-keyboard-response","41","74216","0.0-17.0-2.0","","null","","null","delaylearn","learning","feedback_duration_window","5918774ba391f200011b281f","L9RSkr7JnVUnXCAHwfdgIebAIGC2","","","","","","","","","","","","","","","","","","3000","","",""
"html-keyboard-response","42","75718","0.0-17.0-3.0","","null","<div style='margin:auto;width: auto; font-size: 150%'><span style='font-weight: bold; font-size: 100px; color: green;'>+10 points!</span><br><br></div>","null","delaylearn","learning","feedback_image_window","5918774ba391f200011b281f","L9RSkr7JnVUnXCAHwfdgIebAIGC2","","","","","","","","","","","","","","","","","","","","",""
"html-button-response","43","78729","0.0-18.0","","3009.5999999046326","
  <div style=""display: flex; align-items: center; justify-content: center; height: 80vh;"">
  <div>
          <img src=""images/inst_demo_finish.png"" style=""width: 80vw; height:auto;"">
          <br><br>
      </div>
      <br><br>
  </div>","0","","","","","","","","","","","","","","","","","","","","","","","","","",""
"html-keyboard-response","44","82524","0.0-19.0","","3793.899999856949","
  <div style=""display: flex; align-items: center; justify-content: center; height: 80vh;"">
  <div>
          <img src=""images/inst_6.png"" style=""width: 80vw; height:auto;"">
          <br><br>
      </div>
      <br><br>
  </div>","j","","","","","","","","","","","","","","","","","","","","","","","","","",""
"html-keyboard-response","45","85541","0.0-20.0","","null","<div style=""font-size:100px;"">+</div>","null","delaylearn","learning","pre_fixation","5918774ba391f200011b281f","","","","","","","","","","","","","","","","","","","","","",""
"html-keyboard-response","46","87466","0.0-21.0","","null","<div style=""font-size:100px;"">+</div>","null","delaylearn","learning","ITI","5918774ba391f200011b281f","L9RSkr7JnVUnXCAHwfdgIebAIGC2","","","","","","","","","","","","","","","","","","","1920","",""
"html-keyboard-response","47","89106","0.0-22.0-0.0","","1636.5","<div style=""display: flex; flex-direction: column; align-items: center; margin-top: -40px;""><img src=""images/pattern_3.png"" style=""width: 234px; height: 230px; margin-top: -50px;""><div style=""display: flex; justify-content: space-between; margin-top: 33px;""><img src=""images/choice_trial_13.png"" style=""width: 408px; height: 417px; margin-right: 200px;""><img src=""images/choice_trial_10.png"" style=""width: 408px; height: 417px;""></div></div>","f","delaylearn","learning","trial","5918774ba391f200011b281f","L9RSkr7JnVUnXCAHwfdgIebAIGC2","3","images/choice_trial_13.png","images/choice_trial_10.png","images/pattern_3.png","f","f","7000","13","10","2","0","9","1","1","13","60","","","","",""
"html-keyboard-response","48","90109","0.0-22.0-1.0","","null","<div style=""display: flex; flex-direction: column; align-items: center; margin-top: -40px;""><img src=""images/pattern_3.png"" style=""width: 234px; height: 230px; margin-top: -50px;""><div style=""display: flex; justify-content: space-between; margin-top: 33px;""><img src=""images/choice_trial_13.png"" style=""width: 408px; height: 417px; margin-right: 608px;""></div></div>","null","delaylearn","learning","display_response","5918774ba391f200011b281f","L9RSkr7JnVUnXCAHwfdgIebAIGC2","","","","","","","","","","","","","","","","","chosen stimuli: images/choice_trial_13.png","","","",""
"html-keyboard-response","49","97125","0.0-22.0-2.0","","null","","null","delaylearn","learning","feedback_duration_window","5918774ba391f200011b281f","L9RSkr7JnVUnXCAHwfdgIebAIGC2","","","","","","","","","","","","","","","","","","7000","","",""
"html-keyboard-response","50","98633","0.0-22.0-3.0","","null","<div style='margin:auto;width: auto; font-size: 150%'><span style='font-weight: bold; font-size: 100px; color: green;'>+10 points!</span><br><br></div>","null","delaylearn","learning","feedback_image_window","5918774ba391f200011b281f","L9RSkr7JnVUnXCAHwfdgIebAIGC2","","","","","","","","","","","","","","","","","","","","",""
"html-keyboard-response","51","100935","0.0-23.0","","null","<div style=""font-size:100px;"">+</div>","null","delaylearn","learning","ITI","5918774ba391f200011b281f","L9RSkr7JnVUnXCAHwfdgIebAIGC2","","","","","","","","","","","","","","","","","","","2296","",""
"html-keyboard-response","52","102348","0.0-24.0-0.0","","1409.7999999523163","<div style=""display: flex; flex-direction: column; align-items: center; margin-top: -40px;""><img src=""images/pattern_7.png"" style=""width: 234px; height: 230px; margin-top: -50px;""><div style=""display: flex; justify-content: space-between; margin-top: 33px;""><img src=""images/choice_trial_12.png"" style=""width: 408px; height: 417px; margin-right: 200px;""><img src=""images/choice_trial_6.png"" style=""width: 408px; height: 417px;""></div></div>","j","delaylearn","learning","trial","5918774ba391f200011b281f","L9RSkr7JnVUnXCAHwfdgIebAIGC2","3","images/choice_trial_12.png","images/choice_trial_6.png","images/pattern_7.png","j","j","750","12","6","6","1","10","1","1","6","70","","","","",""
"html-keyboard-response","53","103357","0.0-24.0-1.0","","null","<div style=""display: flex; flex-direction: column; align-items: center; margin-top: -40px;""><img src=""images/pattern_7.png"" style=""width: 234px; height: 230px; margin-top: -50px;""><div style=""display: flex; justify-content: space-between; margin-top: 33px;""><img src=""images/choice_trial_6.png"" style=""width: 408px; height: 417px; margin-left:608px;""></div></div>","null","delaylearn","learning","display_response","5918774ba391f200011b281f","L9RSkr7JnVUnXCAHwfdgIebAIGC2","","","","","","","","","","","","","","","","","chosen stimuli: images/choice_trial_6.png","","","",""
"html-keyboard-response","54","104123","0.0-24.0-2.0","","null","","null","delaylearn","learning","feedback_duration_window","5918774ba391f200011b281f","L9RSkr7JnVUnXCAHwfdgIebAIGC2","","","","","","","","","","","","","","","","","","750","","",""
"html-keyboard-response","55","105625","0.0-24.0-3.0","","null","<div style='margin:auto;width: auto; font-size: 150%'><span style='font-weight: bold; font-size: 100px; color: green;'>+10 points!</span><br><br></div>","null","delaylearn","learning","feedback_image_window","5918774ba391f200011b281f","L9RSkr7JnVUnXCAHwfdgIebAIGC2","","","","","","","","","","","","","","","","","","","","",""
"html-keyboard-response","56","107765","0.0-25.0","","null","<div style=""font-size:100px;"">+</div>","null","delaylearn","learning","ITI","5918774ba391f200011b281f","L9RSkr7JnVUnXCAHwfdgIebAIGC2","","","","","","","","","","","","","","","","","","","2134","",""
"html-keyboard-response","57","109426","0.0-26.0-0.0","","1657.2999999523163","<div style=""display: flex; flex-direction: column; align-items: center; margin-top: -40px;""><img src=""images/pattern_4.png"" style=""width: 234px; height: 230px; margin-top: -50px;""><div style=""display: flex; justify-content: space-between; margin-top: 33px;""><img src=""images/choice_trial_15.png"" style=""width: 408px; height: 417px; margin-right: 200px;""><img src=""images/choice_trial_9.png"" style=""width: 408px; height: 417px;""></div></div>","f","delaylearn","learning","trial","5918774ba391f200011b281f","L9RSkr7JnVUnXCAHwfdgIebAIGC2","3","images/choice_trial_15.png","images/choice_trial_9.png","images/pattern_4.png","f","f","7000","15","9","3","0","11","1","1","15","80","","","","",""
"html-keyboard-response","58","110432","0.0-26.0-1.0","","null","<div style=""display: flex; flex-direction: column; align-items: center; margin-top: -40px;""><img src=""images/pattern_4.png"" style=""width: 234px; height: 230px; margin-top: -50px;""><div style=""display: flex; justify-content: space-between; margin-top: 33px;""><img src=""images/choice_trial_15.png"" style=""width: 408px; height: 417px; margin-right: 608px;""></div></div>","null","delaylearn","learning","display_response","5918774ba391f200011b281f","L9RSkr7JnVUnXCAHwfdgIebAIGC2","","","","","","","","","","","","","","","","","chosen stimuli: images/choice_trial_15.png","","","",""
"html-keyboard-response","59","117435","0.0-26.0-2.0","","null","","null","delaylearn","learning","feedback_duration_window","5918774ba391f200011b281f","L9RSkr7JnVUnXCAHwfdgIebAIGC2","","","","","","","","","","","","","","","","","","7000","","",""
"html-keyboard-response","60","118948","0.0-26.0-3.0","","null","<div style='margin:auto;width: auto; font-size: 150%'><span style='font-weight: bold; font-size: 100px; color: green;'>+10 points!</span><br><br></div>","null","delaylearn","learning","feedback_image_window","5918774ba391f200011b281f","L9RSkr7JnVUnXCAHwfdgIebAIGC2","","","","","","","","","","","","","","","","","","","","",""
"html-keyboard-response","61","120861","0.0-27.0","","null","<div style=""font-size:100px;"">+</div>","null","delaylearn","learning","ITI","5918774ba391f200011b281f","L9RSkr7JnVUnXCAHwfdgIebAIGC2","","","","","","","","","","","","","","","","","","","1908","",""
"html-keyboard-response","62","122428","0.0-28.0-0.0","","1562.9000000953674","<div style=""display: flex; flex-direction: column; align-items: center; margin-top: -40px;""><img src=""images/pattern_5.png"" style=""width: 234px; height: 230px; margin-top: -50px;""><div style=""display: flex; justify-content: space-between; margin-top: 33px;""><img src=""images/choice_trial_2.png"" style=""width: 408px; height: 417px; margin-right: 200px;""><img src=""images/choice_trial_11.png"" style=""width: 408px; height: 417px;""></div></div>","j","delaylearn","learning","trial","5918774ba391f200011b281f","L9RSkr7JnVUnXCAHwfdgIebAIGC2","3","images/choice_trial_2.png","images/choice_trial_11.png","images/pattern_5.png","j","j","750","2","11","4","1","12","1","1","11","90","","","","",""
"html-keyboard-response","63","123435","0.0-28.0-1.0","","null","<div style=""display: flex; flex-direction: column; align-items: center; margin-top: -40px;""><img src=""images/pattern_5.png"" style=""width: 234px; height: 230px; margin-top: -50px;""><div style=""display: flex; justify-content: space-between; margin-top: 33px;""><img src=""images/choice_trial_11.png"" style=""width: 408px; height: 417px; margin-left:608px;""></div></div>","null","delaylearn","learning","display_response","5918774ba391f200011b281f","L9RSkr7JnVUnXCAHwfdgIebAIGC2","","","","","","","","","","","","","","","","","chosen stimuli: images/choice_trial_11.png","","","",""
"html-keyboard-response","64","124187","0.0-28.0-2.0","","null","","null","delaylearn","learning","feedback_duration_window","5918774ba391f200011b281f","L9RSkr7JnVUnXCAHwfdgIebAIGC2","","","","","","","","","","","","","","","","","","750","","",""
"html-keyboard-response","65","125703","0.0-28.0-3.0","","null","<div style='margin:auto;width: auto; font-size: 150%'><span style='font-weight: bold; font-size: 100px; color: green;'>+10 points!</span><br><br></div>","null","delaylearn","learning","feedback_image_window","5918774ba391f200011b281f","L9RSkr7JnVUnXCAHwfdgIebAIGC2","","","","","","","","","","","","","","","","","","","","",""
"html-keyboard-response","66","128187","0.0-29.0","","null","<div style=""font-size:100px;"">+</div>","null","delaylearn","learning","ITI","5918774ba391f200011b281f","L9RSkr7JnVUnXCAHwfdgIebAIGC2","","","","","","","","","","","","","","","","","","","2480","",""
"html-keyboard-response","67","130110","0.0-30.0-0.0","","1919.7999999523163","<div style=""display: flex; flex-direction: column; align-items: center; margin-top: -40px;""><img src=""images/pattern_6.png"" style=""width: 234px; height: 230px; margin-top: -50px;""><div style=""display: flex; justify-content: space-between; margin-top: 33px;""><img src=""images/choice_trial_16.png"" style=""width: 408px; height: 417px; margin-right: 200px;""><img src=""images/choice_trial_3.png"" style=""width: 408px; height: 417px;""></div></div>","j","delaylearn","learning","trial","5918774ba391f200011b281f","L9RSkr7JnVUnXCAHwfdgIebAIGC2","3","images/choice_trial_16.png","images/choice_trial_3.png","images/pattern_6.png","j","f","750","16","3","5","0","13","0","1","3","100","","","","",""
"html-keyboard-response","68","131111","0.0-30.0-1.0","","null","<div style=""display: flex; flex-direction: column; align-items: center; margin-top: -40px;""><img src=""images/pattern_6.png"" style=""width: 234px; height: 230px; margin-top: -50px;""><div style=""display: flex; justify-content: space-between; margin-top: 33px;""><img src=""images/choice_trial_3.png"" style=""width: 408px; height: 417px; margin-left:608px;""></div></div>","null","delaylearn","learning","display_response","5918774ba391f200011b281f","L9RSkr7JnVUnXCAHwfdgIebAIGC2","","","","","","","","","","","","","","","","","chosen stimuli: images/choice_trial_3.png","","","",""
"html-keyboard-response","69","131872","0.0-30.0-2.0","","null","","null","delaylearn","learning","feedback_duration_window","5918774ba391f200011b281f","L9RSkr7JnVUnXCAHwfdgIebAIGC2","","","","","","","","","","","","","","","","","","750","","",""
"html-keyboard-response","70","133375","0.0-30.0-3.0","","null","<div style='margin:auto;width: auto; font-size: 150%'><span style='font-weight: bold; font-size: 100px; color: green;'>+10 points!</span><br><br></div>","null","delaylearn","learning","feedback_image_window","5918774ba391f200011b281f","L9RSkr7JnVUnXCAHwfdgIebAIGC2","","","","","","","","","","","","","","","","","","","","",""
"html-keyboard-response","71","133878","0.0-31.0-0.0","","null","","null","","","mood_trial_fixation","","","","","","","","","","","","","","","","","","","","","","",""
"lmdlab-html-vas-response","72","139433","0.0-31.0-1.0","","4549","How happy are you right now?","0.2802828005391521","delaylearn","learning","mood_trial","5918774ba391f200011b281f","L9RSkr7JnVUnXCAHwfdgIebAIGC2","","","","","","","","","","","","","","","","","","","","[""Very unhappy"",""Very happy""]",""
"html-keyboard-response","73","141765","0.0-32.0","","null","<div style=""font-size:100px;"">+</div>","null","delaylearn","learning","ITI","5918774ba391f200011b281f","L9RSkr7JnVUnXCAHwfdgIebAIGC2","","","","","","","","","","","","","","","","","","","2316","",""
"html-keyboard-response","74","143002","0.0-33.0-0.0","","1232.6999998092651","<div style=""display: flex; flex-direction: column; align-items: center; margin-top: -40px;""><img src=""images/pattern_1.png"" style=""width: 234px; height: 230px; margin-top: -50px;""><div style=""display: flex; justify-content: space-between; margin-top: 33px;""><img src=""images/choice_trial_8.png"" style=""width: 408px; height: 417px; margin-right: 200px;""><img src=""images/choice_trial_14.png"" style=""width: 408px; height: 417px;""></div></div>","j","delaylearn","learning","trial","5918774ba391f200011b281f","L9RSkr7JnVUnXCAHwfdgIebAIGC2","3","images/choice_trial_8.png","images/choice_trial_14.png","images/pattern_1.png","j","j","7000","8","14","1","1","14","1","1","14","110","","","","",""
"html-keyboard-response","75","144013","0.0-33.0-1.0","","null","<div style=""display: flex; flex-direction: column; align-items: center; margin-top: -40px;""><img src=""images/pattern_1.png"" style=""width: 234px; height: 230px; margin-top: -50px;""><div style=""display: flex; justify-content: space-between; margin-top: 33px;""><img src=""images/choice_trial_14.png"" style=""width: 408px; height: 417px; margin-left:608px;""></div></div>","null","delaylearn","learning","display_response","5918774ba391f200011b281f","L9RSkr7JnVUnXCAHwfdgIebAIGC2","","","","","","","","","","","","","","","","","chosen stimuli: images/choice_trial_14.png","","","",""
"html-keyboard-response","76","151023","0.0-33.0-2.0","","null","","null","delaylearn","learning","feedback_duration_window","5918774ba391f200011b281f","L9RSkr7JnVUnXCAHwfdgIebAIGC2","","","","","","","","","","","","","","","","","","7000","","",""
"html-keyboard-response","77","152533","0.0-33.0-3.0","","null","<div style='margin:auto;width: auto; font-size: 150%'><span style='font-weight: bold; font-size: 100px; color: green;'>+10 points!</span><br><br></div>","null","delaylearn","learning","feedback_image_window","5918774ba391f200011b281f","L9RSkr7JnVUnXCAHwfdgIebAIGC2","","","","","","","","","","","","","","","","","","","","",""
"html-keyboard-response","78","154219","0.0-34.0","","null","<div style=""font-size:100px;"">+</div>","null","delaylearn","learning","ITI","5918774ba391f200011b281f","L9RSkr7JnVUnXCAHwfdgIebAIGC2","","","","","","","","","","","","","","","","","","","1683","",""
"html-keyboard-response","79","155204","0.0-35.0-0.0","","981.6999998092651","<div style=""display: flex; flex-direction: column; align-items: center; margin-top: -40px;""><img src=""images/pattern_3.png"" style=""width: 234px; height: 230px; margin-top: -50px;""><div style=""display: flex; justify-content: space-between; margin-top: 33px;""><img src=""images/choice_trial_10.png"" style=""width: 408px; height: 417px; margin-right: 200px;""><img src=""images/choice_trial_13.png"" style=""width: 408px; height: 417px;""></div></div>","j","delaylearn","learning","trial","5918774ba391f200011b281f","L9RSkr7JnVUnXCAHwfdgIebAIGC2","3","images/choice_trial_10.png","images/choice_trial_13.png","images/pattern_3.png","f","j","7000","10","13","2","1","15","1","0","13","110","","","","",""
"html-keyboard-response","80","156214","0.0-35.0-1.0","","null","<div style=""display: flex; flex-direction: column; align-items: center; margin-top: -40px;""><img src=""images/pattern_3.png"" style=""width: 234px; height: 230px; margin-top: -50px;""><div style=""display: flex; justify-content: space-between; margin-top: 33px;""><img src=""images/choice_trial_13.png"" style=""width: 408px; height: 417px; margin-left:608px;""></div></div>","null","delaylearn","learning","display_response","5918774ba391f200011b281f","L9RSkr7JnVUnXCAHwfdgIebAIGC2","","","","","","","","","","","","","","","","","chosen stimuli: images/choice_trial_13.png","","","",""
"html-keyboard-response","81","163227","0.0-35.0-2.0","","null","","null","delaylearn","learning","feedback_duration_window","5918774ba391f200011b281f","L9RSkr7JnVUnXCAHwfdgIebAIGC2","","","","","","","","","","","","","","","","","","7000","","",""
"html-keyboard-response","82","164734","0.0-35.0-3.0","","null","<div style='margin:auto;width: auto; font-size: 150%'><span style='font-weight: bold; font-size: 100px; color: red;'>0 points!</span><br><br></div>","null","delaylearn","learning","feedback_image_window","5918774ba391f200011b281f","L9RSkr7JnVUnXCAHwfdgIebAIGC2","","","","","","","","","","","","","","","","","","","","",""
"html-keyboard-response","83","166283","0.0-36.0","","null","<div style=""font-size:100px;"">+</div>","null","delaylearn","learning","ITI","5918774ba391f200011b281f","L9RSkr7JnVUnXCAHwfdgIebAIGC2","","","","","","","","","","","","","","","","","","","1545","",""
"html-keyboard-response","84","167276","0.0-37.0-0.0","","988.9000000953674","<div style=""display: flex; flex-direction: column; align-items: center; margin-top: -40px;""><img src=""images/pattern_5.png"" style=""width: 234px; height: 230px; margin-top: -50px;""><div style=""display: flex; justify-content: space-between; margin-top: 33px;""><img src=""images/choice_trial_11.png"" style=""width: 408px; height: 417px; margin-right: 200px;""><img src=""images/choice_trial_2.png"" style=""width: 408px; height: 417px;""></div></div>","f","delaylearn","learning","trial","5918774ba391f200011b281f","L9RSkr7JnVUnXCAHwfdgIebAIGC2","3","images/choice_trial_11.png","images/choice_trial_2.png","images/pattern_5.png","f","f","750","11","2","4","0","16","1","1","11","120","","","","",""
"html-keyboard-response","85","168284","0.0-37.0-1.0","","null","<div style=""display: flex; flex-direction: column; align-items: center; margin-top: -40px;""><img src=""images/pattern_5.png"" style=""width: 234px; height: 230px; margin-top: -50px;""><div style=""display: flex; justify-content: space-between; margin-top: 33px;""><img src=""images/choice_trial_11.png"" style=""width: 408px; height: 417px; margin-right: 608px;""></div></div>","null","delaylearn","learning","display_response","5918774ba391f200011b281f","L9RSkr7JnVUnXCAHwfdgIebAIGC2","","","","","","","","","","","","","","","","","chosen stimuli: images/choice_trial_11.png","","","",""
"html-keyboard-response","86","169038","0.0-37.0-2.0","","null","","null","delaylearn","learning","feedback_duration_window","5918774ba391f200011b281f","L9RSkr7JnVUnXCAHwfdgIebAIGC2","","","","","","","","","","","","","","","","","","750","","",""
"html-keyboard-response","87","170544","0.0-37.0-3.0","","null","<div style='margin:auto;width: auto; font-size: 150%'><span style='font-weight: bold; font-size: 100px; color: green;'>+10 points!</span><br><br></div>","null","delaylearn","learning","feedback_image_window","5918774ba391f200011b281f","L9RSkr7JnVUnXCAHwfdgIebAIGC2","","","","","","","","","","","","","","","","","","","","",""
"html-keyboard-response","88","171059","0.0-38.0-0.0","","null","","null","","","mood_trial_fixation","","","","","","","","","","","","","","","","","","","","","","",""
"lmdlab-html-vas-response","89","174657","0.0-38.0-1.0","","2580","How happy are you right now?","0.194018463416495","delaylearn","learning","mood_trial","5918774ba391f200011b281f","L9RSkr7JnVUnXCAHwfdgIebAIGC2","","","","","","","","","","","","","","","","","","","","[""Very unhappy"",""Very happy""]",""
"html-keyboard-response","90","177127","0.0-39.0","","null","<div style=""font-size:100px;"">+</div>","null","delaylearn","learning","ITI","5918774ba391f200011b281f","L9RSkr7JnVUnXCAHwfdgIebAIGC2","","","","","","","","","","","","","","","","","","","2456","",""
"html-keyboard-response","91","178171","0.0-40.0-0.0","","1041.3999998569489","<div style=""display: flex; flex-direction: column; align-items: center; margin-top: -40px;""><img src=""images/pattern_6.png"" style=""width: 234px; height: 230px; margin-top: -50px;""><div style=""display: flex; justify-content: space-between; margin-top: 33px;""><img src=""images/choice_trial_16.png"" style=""width: 408px; height: 417px; margin-right: 200px;""><img src=""images/choice_trial_3.png"" style=""width: 408px; height: 417px;""></div></div>","f","delaylearn","learning","trial","5918774ba391f200011b281f","L9RSkr7JnVUnXCAHwfdgIebAIGC2","3","images/choice_trial_16.png","images/choice_trial_3.png","images/pattern_6.png","f","f","750","16","3","5","0","17","1","1","16","130","","","","",""
"html-keyboard-response","92","179189","0.0-40.0-1.0","","null","<div style=""display: flex; flex-direction: column; align-items: center; margin-top: -40px;""><img src=""images/pattern_6.png"" style=""width: 234px; height: 230px; margin-top: -50px;""><div style=""display: flex; justify-content: space-between; margin-top: 33px;""><img src=""images/choice_trial_16.png"" style=""width: 408px; height: 417px; margin-right: 608px;""></div></div>","null","delaylearn","learning","display_response","5918774ba391f200011b281f","L9RSkr7JnVUnXCAHwfdgIebAIGC2","","","","","","","","","","","","","","","","","chosen stimuli: images/choice_trial_16.png","","","",""
"html-keyboard-response","93","179950","0.0-40.0-2.0","","null","","null","delaylearn","learning","feedback_duration_window","5918774ba391f200011b281f","L9RSkr7JnVUnXCAHwfdgIebAIGC2","","","","","","","","","","","","","","","","","","750","","",""
"html-keyboard-response","94","181465","0.0-40.0-3.0","","null","<div style='margin:auto;width: auto; font-size: 150%'><span style='font-weight: bold; font-size: 100px; color: green;'>+10 points!</span><br><br></div>","null","delaylearn","learning","feedback_image_window","5918774ba391f200011b281f","L9RSkr7JnVUnXCAHwfdgIebAIGC2","","","","","","","","","","","","","","","","","","","","",""
"html-keyboard-response","95","183174","0.0-41.0","","null","<div style=""font-size:100px;"">+</div>","null","delaylearn","learning","ITI","5918774ba391f200011b281f","L9RSkr7JnVUnXCAHwfdgIebAIGC2","","","","","","","","","","","","","","","","","","","1702","",""
"html-keyboard-response","96","184641","0.0-42.0-0.0","","1462.9000000953674","<div style=""display: flex; flex-direction: column; align-items: center; margin-top: -40px;""><img src=""images/pattern_4.png"" style=""width: 234px; height: 230px; margin-top: -50px;""><div style=""display: flex; justify-content: space-between; margin-top: 33px;""><img src=""images/choice_trial_9.png"" style=""width: 408px; height: 417px; margin-right: 200px;""><img src=""images/choice_trial_15.png"" style=""width: 408px; height: 417px;""></div></div>","f","delaylearn","learning","trial","5918774ba391f200011b281f","L9RSkr7JnVUnXCAHwfdgIebAIGC2","3","images/choice_trial_9.png","images/choice_trial_15.png","images/pattern_4.png","j","j","7000","9","15","3","1","18","0","0","9","130","","","","",""
"html-keyboard-response","97","185656","0.0-42.0-1.0","","null","<div style=""display: flex; flex-direction: column; align-items: center; margin-top: -40px;""><img src=""images/pattern_4.png"" style=""width: 234px; height: 230px; margin-top: -50px;""><div style=""display: flex; justify-content: space-between; margin-top: 33px;""><img src=""images/choice_trial_9.png"" style=""width: 408px; height: 417px; margin-right: 608px;""></div></div>","null","delaylearn","learning","display_response","5918774ba391f200011b281f","L9RSkr7JnVUnXCAHwfdgIebAIGC2","","","","","","","","","","","","","","","","","chosen stimuli: images/choice_trial_9.png","","","",""
"html-keyboard-response","98","192671","0.0-42.0-2.0","","null","","null","delaylearn","learning","feedback_duration_window","5918774ba391f200011b281f","L9RSkr7JnVUnXCAHwfdgIebAIGC2","","","","","","","","","","","","","","","","","","7000","","",""
"html-keyboard-response","99","194187","0.0-42.0-3.0","","null","<div style='margin:auto;width: auto; font-size: 150%'><span style='font-weight: bold; font-size: 100px; color: red;'>0 points!</span><br><br></div>","null","delaylearn","learning","feedback_image_window","5918774ba391f200011b281f","L9RSkr7JnVUnXCAHwfdgIebAIGC2","","","","","","","","","","","","","","","","","","","","",""
"html-keyboard-response","100","196431","0.0-43.0","","null","<div style=""font-size:100px;"">+</div>","null","delaylearn","learning","ITI","5918774ba391f200011b281f","L9RSkr7JnVUnXCAHwfdgIebAIGC2","","","","","","","","","","","","","","","","","","","2228","",""
"html-keyboard-response","101","197363","0.0-44.0-0.0","","928.2000000476837","<div style=""display: flex; flex-direction: column; align-items: center; margin-top: -40px;""><img src=""images/pattern_7.png"" style=""width: 234px; height: 230px; margin-top: -50px;""><div style=""display: flex; justify-content: space-between; margin-top: 33px;""><img src=""images/choice_trial_6.png"" style=""width: 408px; height: 417px; margin-right: 200px;""><img src=""images/choice_trial_12.png"" style=""width: 408px; height: 417px;""></div></div>","j","delaylearn","learning","trial","5918774ba391f200011b281f","L9RSkr7JnVUnXCAHwfdgIebAIGC2","3","images/choice_trial_6.png","images/choice_trial_12.png","images/pattern_7.png","j","f","750","6","12","6","0","19","0","1","12","140","","","","",""
"html-keyboard-response","102","198372","0.0-44.0-1.0","","null","<div style=""display: flex; flex-direction: column; align-items: center; margin-top: -40px;""><img src=""images/pattern_7.png"" style=""width: 234px; height: 230px; margin-top: -50px;""><div style=""display: flex; justify-content: space-between; margin-top: 33px;""><img src=""images/choice_trial_12.png"" style=""width: 408px; height: 417px; margin-left:608px;""></div></div>","null","delaylearn","learning","display_response","5918774ba391f200011b281f","L9RSkr7JnVUnXCAHwfdgIebAIGC2","","","","","","","","","","","","","","","","","chosen stimuli: images/choice_trial_12.png","","","",""
"html-keyboard-response","103","199137","0.0-44.0-2.0","","null","","null","delaylearn","learning","feedback_duration_window","5918774ba391f200011b281f","L9RSkr7JnVUnXCAHwfdgIebAIGC2","","","","","","","","","","","","","","","","","","750","","",""
"html-keyboard-response","104","200653","0.0-44.0-3.0","","null","<div style='margin:auto;width: auto; font-size: 150%'><span style='font-weight: bold; font-size: 100px; color: green;'>+10 points!</span><br><br></div>","null","delaylearn","learning","feedback_image_window","5918774ba391f200011b281f","L9RSkr7JnVUnXCAHwfdgIebAIGC2","","","","","","","","","","","","","","","","","","","","",""
"html-keyboard-response","105","202735","0.0-45.0","","null","<div style=""font-size:100px;"">+</div>","null","delaylearn","learning","ITI","5918774ba391f200011b281f","L9RSkr7JnVUnXCAHwfdgIebAIGC2","","","","","","","","","","","","","","","","","","","2071","",""
"html-keyboard-response","106","204113","0.0-46.0-0.0","","1374.5","<div style=""display: flex; flex-direction: column; align-items: center; margin-top: -40px;""><img src=""images/pattern_1.png"" style=""width: 234px; height: 230px; margin-top: -50px;""><div style=""display: flex; justify-content: space-between; margin-top: 33px;""><img src=""images/choice_trial_14.png"" style=""width: 408px; height: 417px; margin-right: 200px;""><img src=""images/choice_trial_8.png"" style=""width: 408px; height: 417px;""></div></div>","f","delaylearn","learning","trial","5918774ba391f200011b281f","L9RSkr7JnVUnXCAHwfdgIebAIGC2","3","images/choice_trial_14.png","images/choice_trial_8.png","images/pattern_1.png","f","f","7000","14","8","1","0","20","1","1","14","150","","","","",""
"html-keyboard-response","107","205124","0.0-46.0-1.0","","null","<div style=""display: flex; flex-direction: column; align-items: center; margin-top: -40px;""><img src=""images/pattern_1.png"" style=""width: 234px; height: 230px; margin-top: -50px;""><div style=""display: flex; justify-content: space-between; margin-top: 33px;""><img src=""images/choice_trial_14.png"" style=""width: 408px; height: 417px; margin-right: 608px;""></div></div>","null","delaylearn","learning","display_response","5918774ba391f200011b281f","L9RSkr7JnVUnXCAHwfdgIebAIGC2","","","","","","","","","","","","","","","","","chosen stimuli: images/choice_trial_14.png","","","",""
"html-keyboard-response","108","212131","0.0-46.0-2.0","","null","","null","delaylearn","learning","feedback_duration_window","5918774ba391f200011b281f","L9RSkr7JnVUnXCAHwfdgIebAIGC2","","","","","","","","","","","","","","","","","","7000","","",""
"html-keyboard-response","109","213639","0.0-46.0-3.0","","null","<div style='margin:auto;width: auto; font-size: 150%'><span style='font-weight: bold; font-size: 100px; color: green;'>+10 points!</span><br><br></div>","null","delaylearn","learning","feedback_image_window","5918774ba391f200011b281f","L9RSkr7JnVUnXCAHwfdgIebAIGC2","","","","","","","","","","","","","","","","","","","","",""
"html-keyboard-response","110","215903","0.0-47.0","","null","<div style=""font-size:100px;"">+</div>","null","delaylearn","learning","ITI","5918774ba391f200011b281f","L9RSkr7JnVUnXCAHwfdgIebAIGC2","","","","","","","","","","","","","","","","","","","2252","",""
"html-keyboard-response","111","217499","0.0-48.0-0.0","","1592.4000000953674","<div style=""display: flex; flex-direction: column; align-items: center; margin-top: -40px;""><img src=""images/pattern_6.png"" style=""width: 234px; height: 230px; margin-top: -50px;""><div style=""display: flex; justify-content: space-between; margin-top: 33px;""><img src=""images/choice_trial_3.png"" style=""width: 408px; height: 417px; margin-right: 200px;""><img src=""images/choice_trial_16.png"" style=""width: 408px; height: 417px;""></div></div>","j","delaylearn","learning","trial","5918774ba391f200011b281f","L9RSkr7JnVUnXCAHwfdgIebAIGC2","3","images/choice_trial_3.png","images/choice_trial_16.png","images/pattern_6.png","j","j","750","3","16","5","1","21","1","1","16","160","","","","",""
"html-keyboard-response","112","218506","0.0-48.0-1.0","","null","<div style=""display: flex; flex-direction: column; align-items: center; margin-top: -40px;""><img src=""images/pattern_6.png"" style=""width: 234px; height: 230px; margin-top: -50px;""><div style=""display: flex; justify-content: space-between; margin-top: 33px;""><img src=""images/choice_trial_16.png"" style=""width: 408px; height: 417px; margin-left:608px;""></div></div>","null","delaylearn","learning","display_response","5918774ba391f200011b281f","L9RSkr7JnVUnXCAHwfdgIebAIGC2","","","","","","","","","","","","","","","","","chosen stimuli: images/choice_trial_16.png","","","",""
"html-keyboard-response","113","219272","0.0-48.0-2.0","","null","","null","delaylearn","learning","feedback_duration_window","5918774ba391f200011b281f","L9RSkr7JnVUnXCAHwfdgIebAIGC2","","","","","","","","","","","","","","","","","","750","","",""
"html-keyboard-response","114","220778","0.0-48.0-3.0","","null","<div style='margin:auto;width: auto; font-size: 150%'><span style='font-weight: bold; font-size: 100px; color: green;'>+10 points!</span><br><br></div>","null","delaylearn","learning","feedback_image_window","5918774ba391f200011b281f","L9RSkr7JnVUnXCAHwfdgIebAIGC2","","","","","","","","","","","","","","","","","","","","",""
"html-keyboard-response","115","222532","0.0-49.0","","null","<div style=""font-size:100px;"">+</div>","null","delaylearn","learning","ITI","5918774ba391f200011b281f","L9RSkr7JnVUnXCAHwfdgIebAIGC2","","","","","","","","","","","","","","","","","","","1739","",""
"html-keyboard-response","116","224065","0.0-50.0-0.0","","1529.2000000476837","<div style=""display: flex; flex-direction: column; align-items: center; margin-top: -40px;""><img src=""images/pattern_4.png"" style=""width: 234px; height: 230px; margin-top: -50px;""><div style=""display: flex; justify-content: space-between; margin-top: 33px;""><img src=""images/choice_trial_15.png"" style=""width: 408px; height: 417px; margin-right: 200px;""><img src=""images/choice_trial_9.png"" style=""width: 408px; height: 417px;""></div></div>","j","delaylearn","learning","trial","5918774ba391f200011b281f","L9RSkr7JnVUnXCAHwfdgIebAIGC2","3","images/choice_trial_15.png","images/choice_trial_9.png","images/pattern_4.png","f","f","7000","15","9","3","0","22","0","0","9","160","","","","",""
"html-keyboard-response","117","225082","0.0-50.0-1.0","","null","<div style=""display: flex; flex-direction: column; align-items: center; margin-top: -40px;""><img src=""images/pattern_4.png"" style=""width: 234px; height: 230px; margin-top: -50px;""><div style=""display: flex; justify-content: space-between; margin-top: 33px;""><img src=""images/choice_trial_9.png"" style=""width: 408px; height: 417px; margin-left:608px;""></div></div>","null","delaylearn","learning","display_response","5918774ba391f200011b281f","L9RSkr7JnVUnXCAHwfdgIebAIGC2","","","","","","","","","","","","","","","","","chosen stimuli: images/choice_trial_9.png","","","",""
"html-keyboard-response","118","232088","0.0-50.0-2.0","","null","","null","delaylearn","learning","feedback_duration_window","5918774ba391f200011b281f","L9RSkr7JnVUnXCAHwfdgIebAIGC2","","","","","","","","","","","","","","","","","","7000","","",""
"html-keyboard-response","119","233590","0.0-50.0-3.0","","null","<div style='margin:auto;width: auto; font-size: 150%'><span style='font-weight: bold; font-size: 100px; color: red;'>0 points!</span><br><br></div>","null","delaylearn","learning","feedback_image_window","5918774ba391f200011b281f","L9RSkr7JnVUnXCAHwfdgIebAIGC2","","","","","","","","","","","","","","","","","","","","",""
"html-keyboard-response","120","234096","0.0-51.0-0.0","","null","","null","","","mood_trial_fixation","","","","","","","","","","","","","","","","","","","","","","",""
"lmdlab-html-vas-response","121","238537","0.0-51.0-1.0","","3425","How happy are you right now?","0.2037842374303807","delaylearn","learning","mood_trial","5918774ba391f200011b281f","L9RSkr7JnVUnXCAHwfdgIebAIGC2","","","","","","","","","","","","","","","","","","","","[""Very unhappy"",""Very happy""]",""
"html-keyboard-response","122","240311","0.0-52.0","","null","<div style=""font-size:100px;"">+</div>","null","delaylearn","learning","ITI","5918774ba391f200011b281f","L9RSkr7JnVUnXCAHwfdgIebAIGC2","","","","","","","","","","","","","","","","","","","1769","",""
"html-keyboard-response","123","241513","0.0-53.0-0.0","","1198.2999999523163","<div style=""display: flex; flex-direction: column; align-items: center; margin-top: -40px;""><img src=""images/pattern_7.png"" style=""width: 234px; height: 230px; margin-top: -50px;""><div style=""display: flex; justify-content: space-between; margin-top: 33px;""><img src=""images/choice_trial_12.png"" style=""width: 408px; height: 417px; margin-right: 200px;""><img src=""images/choice_trial_6.png"" style=""width: 408px; height: 417px;""></div></div>","j","delaylearn","learning","trial","5918774ba391f200011b281f","L9RSkr7JnVUnXCAHwfdgIebAIGC2","3","images/choice_trial_12.png","images/choice_trial_6.png","images/pattern_7.png","j","j","750","12","6","6","1","23","1","1","6","170","","","","",""
"html-keyboard-response","124","242523","0.0-53.0-1.0","","null","<div style=""display: flex; flex-direction: column; align-items: center; margin-top: -40px;""><img src=""images/pattern_7.png"" style=""width: 234px; height: 230px; margin-top: -50px;""><div style=""display: flex; justify-content: space-between; margin-top: 33px;""><img src=""images/choice_trial_6.png"" style=""width: 408px; height: 417px; margin-left:608px;""></div></div>","null","delaylearn","learning","display_response","5918774ba391f200011b281f","L9RSkr7JnVUnXCAHwfdgIebAIGC2","","","","","","","","","","","","","","","","","chosen stimuli: images/choice_trial_6.png","","","",""
"html-keyboard-response","125","243281","0.0-53.0-2.0","","null","","null","delaylearn","learning","feedback_duration_window","5918774ba391f200011b281f","L9RSkr7JnVUnXCAHwfdgIebAIGC2","","","","","","","","","","","","","","","","","","750","","",""
"html-keyboard-response","126","244788","0.0-53.0-3.0","","null","<div style='margin:auto;width: auto; font-size: 150%'><span style='font-weight: bold; font-size: 100px; color: green;'>+10 points!</span><br><br></div>","null","delaylearn","learning","feedback_image_window","5918774ba391f200011b281f","L9RSkr7JnVUnXCAHwfdgIebAIGC2","","","","","","","","","","","","","","","","","","","","",""
"html-keyboard-response","127","246389","0.0-54.0","","null","<div style=""font-size:100px;"">+</div>","null","delaylearn","learning","ITI","5918774ba391f200011b281f","L9RSkr7JnVUnXCAHwfdgIebAIGC2","","","","","","","","","","","","","","","","","","","1591","",""
"html-keyboard-response","128","247465","0.0-55.0-0.0","","1072.6000001430511","<div style=""display: flex; flex-direction: column; align-items: center; margin-top: -40px;""><img src=""images/pattern_1.png"" style=""width: 234px; height: 230px; margin-top: -50px;""><div style=""display: flex; justify-content: space-between; margin-top: 33px;""><img src=""images/choice_trial_8.png"" style=""width: 408px; height: 417px; margin-right: 200px;""><img src=""images/choice_trial_14.png"" style=""width: 408px; height: 417px;""></div></div>","f","delaylearn","learning","trial","5918774ba391f200011b281f","L9RSkr7JnVUnXCAHwfdgIebAIGC2","3","images/choice_trial_8.png","images/choice_trial_14.png","images/pattern_1.png","f","j","7000","8","14","1","1","24","0","1","8","180","","","","",""
"html-keyboard-response","129","248468","0.0-55.0-1.0","","null","<div style=""display: flex; flex-direction: column; align-items: center; margin-top: -40px;""><img src=""images/pattern_1.png"" style=""width: 234px; height: 230px; margin-top: -50px;""><div style=""display: flex; justify-content: space-between; margin-top: 33px;""><img src=""images/choice_trial_8.png"" style=""width: 408px; height: 417px; margin-right: 608px;""></div></div>","null","delaylearn","learning","display_response","5918774ba391f200011b281f","L9RSkr7JnVUnXCAHwfdgIebAIGC2","","","","","","","","","","","","","","","","","chosen stimuli: images/choice_trial_8.png","","","",""
"html-keyboard-response","130","255482","0.0-55.0-2.0","","null","","null","delaylearn","learning","feedback_duration_window","5918774ba391f200011b281f","L9RSkr7JnVUnXCAHwfdgIebAIGC2","","","","","","","","","","","","","","","","","","7000","","",""
"html-keyboard-response","131","256984","0.0-55.0-3.0","","null","<div style='margin:auto;width: auto; font-size: 150%'><span style='font-weight: bold; font-size: 100px; color: green;'>+10 points!</span><br><br></div>","null","delaylearn","learning","feedback_image_window","5918774ba391f200011b281f","L9RSkr7JnVUnXCAHwfdgIebAIGC2","","","","","","","","","","","","","","","","","","","","",""
"html-keyboard-response","132","259356","0.0-56.0","","null","<div style=""font-size:100px;"">+</div>","null","delaylearn","learning","ITI","5918774ba391f200011b281f","L9RSkr7JnVUnXCAHwfdgIebAIGC2","","","","","","","","","","","","","","","","","","","2357","",""
"html-keyboard-response","133","260947","0.0-57.0-0.0","","1586.7000000476837","<div style=""display: flex; flex-direction: column; align-items: center; margin-top: -40px;""><img src=""images/pattern_5.png"" style=""width: 234px; height: 230px; margin-top: -50px;""><div style=""display: flex; justify-content: space-between; margin-top: 33px;""><img src=""images/choice_trial_2.png"" style=""width: 408px; height: 417px; margin-right: 200px;""><img src=""images/choice_trial_11.png"" style=""width: 408px; height: 417px;""></div></div>","f","delaylearn","learning","trial","5918774ba391f200011b281f","L9RSkr7JnVUnXCAHwfdgIebAIGC2","3","images/choice_trial_2.png","images/choice_trial_11.png","images/pattern_5.png","j","j","750","2","11","4","1","25","0","0","2","180","","","","",""
"html-keyboard-response","134","261956","0.0-57.0-1.0","","null","<div style=""display: flex; flex-direction: column; align-items: center; margin-top: -40px;""><img src=""images/pattern_5.png"" style=""width: 234px; height: 230px; margin-top: -50px;""><div style=""display: flex; justify-content: space-between; margin-top: 33px;""><img src=""images/choice_trial_2.png"" style=""width: 408px; height: 417px; margin-right: 608px;""></div></div>","null","delaylearn","learning","display_response","5918774ba391f200011b281f","L9RSkr7JnVUnXCAHwfdgIebAIGC2","","","","","","","","","","","","","","","","","chosen stimuli: images/choice_trial_2.png","","","",""
"html-keyboard-response","135","262714","0.0-57.0-2.0","","null","","null","delaylearn","learning","feedback_duration_window","5918774ba391f200011b281f","L9RSkr7JnVUnXCAHwfdgIebAIGC2","","","","","","","","","","","","","","","","","","750","","",""
"html-keyboard-response","136","264215","0.0-57.0-3.0","","null","<div style='margin:auto;width: auto; font-size: 150%'><span style='font-weight: bold; font-size: 100px; color: red;'>0 points!</span><br><br></div>","null","delaylearn","learning","feedback_image_window","5918774ba391f200011b281f","L9RSkr7JnVUnXCAHwfdgIebAIGC2","","","","","","","","","","","","","","","","","","","","",""
"html-keyboard-response","137","266125","0.0-58.0","","null","<div style=""font-size:100px;"">+</div>","null","delaylearn","learning","ITI","5918774ba391f200011b281f","L9RSkr7JnVUnXCAHwfdgIebAIGC2","","","","","","","","","","","","","","","","","","","1904","",""
"html-keyboard-response","138","267833","0.0-59.0-0.0","","1704.3999998569489","<div style=""display: flex; flex-direction: column; align-items: center; margin-top: -40px;""><img src=""images/pattern_3.png"" style=""width: 234px; height: 230px; margin-top: -50px;""><div style=""display: flex; justify-content: space-between; margin-top: 33px;""><img src=""images/choice_trial_10.png"" style=""width: 408px; height: 417px; margin-right: 200px;""><img src=""images/choice_trial_13.png"" style=""width: 408px; height: 417px;""></div></div>","f","delaylearn","learning","trial","5918774ba391f200011b281f","L9RSkr7JnVUnXCAHwfdgIebAIGC2","3","images/choice_trial_10.png","images/choice_trial_13.png","images/pattern_3.png","j","j","7000","10","13","2","1","26","0","0","10","180","","","","",""
"html-keyboard-response","139","268843","0.0-59.0-1.0","","null","<div style=""display: flex; flex-direction: column; align-items: center; margin-top: -40px;""><img src=""images/pattern_3.png"" style=""width: 234px; height: 230px; margin-top: -50px;""><div style=""display: flex; justify-content: space-between; margin-top: 33px;""><img src=""images/choice_trial_10.png"" style=""width: 408px; height: 417px; margin-right: 608px;""></div></div>","null","delaylearn","learning","display_response","5918774ba391f200011b281f","L9RSkr7JnVUnXCAHwfdgIebAIGC2","","","","","","","","","","","","","","","","","chosen stimuli: images/choice_trial_10.png","","","",""
"html-keyboard-response","140","275856","0.0-59.0-2.0","","null","","null","delaylearn","learning","feedback_duration_window","5918774ba391f200011b281f","L9RSkr7JnVUnXCAHwfdgIebAIGC2","","","","","","","","","","","","","","","","","","7000","","",""
"html-keyboard-response","141","277369","0.0-59.0-3.0","","null","<div style='margin:auto;width: auto; font-size: 150%'><span style='font-weight: bold; font-size: 100px; color: red;'>0 points!</span><br><br></div>","null","delaylearn","learning","feedback_image_window","5918774ba391f200011b281f","L9RSkr7JnVUnXCAHwfdgIebAIGC2","","","","","","","","","","","","","","","","","","","","",""
"lmdlab-html-vas-response","142","283488","0.0-60.0-0.0","","4594","*How <b><u>confident</u></b> are you feeling about your answers at this moment?*","0.4479285877775235","rewlearn","rate_confidence","","5918774ba391f200011b281f","L9RSkr7JnVUnXCAHwfdgIebAIGC2","","","","","","","","","","","","","","","","","","","","[""No confidence"",""Complete confidence""]",""
"lmdlab-rest-trial-limit","143","297702","0.0-60.0-1.0","","12709.800000190735","<div style=""font-size:40px;""><b>Please take a break!</b><br><br><br><br><p>Great work: you earned 180 points.<br><br><br><p>You have completed part(s) 1 of 5.<br><br><br><br>When you are ready to continue<br><br><br>please click the button.</p><br><br>","0","delaylearn","learning","break","5918774ba391f200011b281f","L9RSkr7JnVUnXCAHwfdgIebAIGC2","","","","","","","","","","","","","","","","","","","","","0"
"html-keyboard-response","144","300719","0.0-60.0-2.0","","null","<div style=""font-size:100px;"">+</div>","null","delaylearn","learning","pre_fixation","5918774ba391f200011b281f","","","","","","","","","","","","","","","","","","","","","",""
"lmdlab-html-vas-response","145","305081","0.0-60.0-3.0-0.0","","3348","How happy are you right now?","0.3258564126039521","delaylearn","learning","mood_baseline","5918774ba391f200011b281f","L9RSkr7JnVUnXCAHwfdgIebAIGC2","","","","","","","","","","","","","","","","","","","","[""Very unhappy"",""Very happy""]",""
"html-keyboard-response","146","306589","0.0-60.0-3.0-1.0","","null","","null","","","mood_baseline_fixation","","","","","","","","","","","","","","","","","","","","","","",""
"html-keyboard-response","147","308922","0.0-61.0","","null","<div style=""font-size:100px;"">+</div>","null","delaylearn","learning","ITI","5918774ba391f200011b281f","L9RSkr7JnVUnXCAHwfdgIebAIGC2","","","","","","","","","","","","","","","","","","","2318","",""
"html-keyboard-response","148","310172","0.0-62.0-0.0","","1246.2000000476837","<div style=""display: flex; flex-direction: column; align-items: center; margin-top: -40px;""><img src=""images/pattern_7.png"" style=""width: 234px; height: 230px; margin-top: -50px;""><div style=""display: flex; justify-content: space-between; margin-top: 33px;""><img src=""images/choice_trial_12.png"" style=""width: 408px; height: 417px; margin-right: 200px;""><img src=""images/choice_trial_6.png"" style=""width: 408px; height: 417px;""></div></div>","j","delaylearn","learning","trial","5918774ba391f200011b281f","L9RSkr7JnVUnXCAHwfdgIebAIGC2","3","images/choice_trial_12.png","images/choice_trial_6.png","images/pattern_7.png","j","j","750","12","6","6","1","27","1","1","6","190","","","","",""
"html-keyboard-response","149","311184","0.0-62.0-1.0","","null","<div style=""display: flex; flex-direction: column; align-items: center; margin-top: -40px;""><img src=""images/pattern_7.png"" style=""width: 234px; height: 230px; margin-top: -50px;""><div style=""display: flex; justify-content: space-between; margin-top: 33px;""><img src=""images/choice_trial_6.png"" style=""width: 408px; height: 417px; margin-left:608px;""></div></div>","null","delaylearn","learning","display_response","5918774ba391f200011b281f","L9RSkr7JnVUnXCAHwfdgIebAIGC2","","","","","","","","","","","","","","","","","chosen stimuli: images/choice_trial_6.png","","","",""
"html-keyboard-response","150","311943","0.0-62.0-2.0","","null","","null","delaylearn","learning","feedback_duration_window","5918774ba391f200011b281f","L9RSkr7JnVUnXCAHwfdgIebAIGC2","","","","","","","","","","","","","","","","","","750","","",""
"html-keyboard-response","151","313458","0.0-62.0-3.0","","null","<div style='margin:auto;width: auto; font-size: 150%'><span style='font-weight: bold; font-size: 100px; color: green;'>+10 points!</span><br><br></div>","null","delaylearn","learning","feedback_image_window","5918774ba391f200011b281f","L9RSkr7JnVUnXCAHwfdgIebAIGC2","","","","","","","","","","","","","","","","","","","","",""
"html-keyboard-response","152","313970","0.0-63.0-0.0","","null","","null","","","mood_trial_fixation","","","","","","","","","","","","","","","","","","","","","","",""
"lmdlab-html-vas-response","153","319305","0.0-63.0-1.0","","4317","How happy are you right now?","0.2998143485669235","delaylearn","learning","mood_trial","5918774ba391f200011b281f","L9RSkr7JnVUnXCAHwfdgIebAIGC2","","","","","","","","","","","","","","","","","","","","[""Very unhappy"",""Very happy""]",""
"html-keyboard-response","154","321739","0.0-64.0","","null","<div style=""font-size:100px;"">+</div>","null","delaylearn","learning","ITI","5918774ba391f200011b281f","L9RSkr7JnVUnXCAHwfdgIebAIGC2","","","","","","","","","","","","","","","","","","","2427","",""
"html-keyboard-response","155","323036","0.0-65.0-0.0","","1293","<div style=""display: flex; flex-direction: column; align-items: center; margin-top: -40px;""><img src=""images/pattern_1.png"" style=""width: 234px; height: 230px; margin-top: -50px;""><div style=""display: flex; justify-content: space-between; margin-top: 33px;""><img src=""images/choice_trial_14.png"" style=""width: 408px; height: 417px; margin-right: 200px;""><img src=""images/choice_trial_8.png"" style=""width: 408px; height: 417px;""></div></div>","j","delaylearn","learning","trial","5918774ba391f200011b281f","L9RSkr7JnVUnXCAHwfdgIebAIGC2","3","images/choice_trial_14.png","images/choice_trial_8.png","images/pattern_1.png","f","f","7000","14","8","1","0","28","0","0","8","190","","","","",""
"html-keyboard-response","156","324051","0.0-65.0-1.0","","null","<div style=""display: flex; flex-direction: column; align-items: center; margin-top: -40px;""><img src=""images/pattern_1.png"" style=""width: 234px; height: 230px; margin-top: -50px;""><div style=""display: flex; justify-content: space-between; margin-top: 33px;""><img src=""images/choice_trial_8.png"" style=""width: 408px; height: 417px; margin-left:608px;""></div></div>","null","delaylearn","learning","display_response","5918774ba391f200011b281f","L9RSkr7JnVUnXCAHwfdgIebAIGC2","","","","","","","","","","","","","","","","","chosen stimuli: images/choice_trial_8.png","","","",""
"html-keyboard-response","157","331060","0.0-65.0-2.0","","null","","null","delaylearn","learning","feedback_duration_window","5918774ba391f200011b281f","L9RSkr7JnVUnXCAHwfdgIebAIGC2","","","","","","","","","","","","","","","","","","7000","","",""
"html-keyboard-response","158","332576","0.0-65.0-3.0","","null","<div style='margin:auto;width: auto; font-size: 150%'><span style='font-weight: bold; font-size: 100px; color: red;'>0 points!</span><br><br></div>","null","delaylearn","learning","feedback_image_window","5918774ba391f200011b281f","L9RSkr7JnVUnXCAHwfdgIebAIGC2","","","","","","","","","","","","","","","","","","","","",""
"html-keyboard-response","159","334501","0.0-66.0","","null","<div style=""font-size:100px;"">+</div>","null","delaylearn","learning","ITI","5918774ba391f200011b281f","L9RSkr7JnVUnXCAHwfdgIebAIGC2","","","","","","","","","","","","","","","","","","","1909","",""
"html-keyboard-response","160","336580","0.0-67.0-0.0","","2075.0999999046326","<div style=""display: flex; flex-direction: column; align-items: center; margin-top: -40px;""><img src=""images/pattern_5.png"" style=""width: 234px; height: 230px; margin-top: -50px;""><div style=""display: flex; justify-content: space-between; margin-top: 33px;""><img src=""images/choice_trial_11.png"" style=""width: 408px; height: 417px; margin-right: 200px;""><img src=""images/choice_trial_2.png"" style=""width: 408px; height: 417px;""></div></div>","j","delaylearn","learning","trial","5918774ba391f200011b281f","L9RSkr7JnVUnXCAHwfdgIebAIGC2","3","images/choice_trial_11.png","images/choice_trial_2.png","images/pattern_5.png","f","f","750","11","2","4","0","29","0","0","2","190","","","","",""
"html-keyboard-response","161","337582","0.0-67.0-1.0","","null","<div style=""display: flex; flex-direction: column; align-items: center; margin-top: -40px;""><img src=""images/pattern_5.png"" style=""width: 234px; height: 230px; margin-top: -50px;""><div style=""display: flex; justify-content: space-between; margin-top: 33px;""><img src=""images/choice_trial_2.png"" style=""width: 408px; height: 417px; margin-left:608px;""></div></div>","null","delaylearn","learning","display_response","5918774ba391f200011b281f","L9RSkr7JnVUnXCAHwfdgIebAIGC2","","","","","","","","","","","","","","","","","chosen stimuli: images/choice_trial_2.png","","","",""
"html-keyboard-response","162","338348","0.0-67.0-2.0","","null","","null","delaylearn","learning","feedback_duration_window","5918774ba391f200011b281f","L9RSkr7JnVUnXCAHwfdgIebAIGC2","","","","","","","","","","","","","","","","","","750","","",""
"html-keyboard-response","163","339862","0.0-67.0-3.0","","null","<div style='margin:auto;width: auto; font-size: 150%'><span style='font-weight: bold; font-size: 100px; color: red;'>0 points!</span><br><br></div>","null","delaylearn","learning","feedback_image_window","5918774ba391f200011b281f","L9RSkr7JnVUnXCAHwfdgIebAIGC2","","","","","","","","","","","","","","","","","","","","",""
"html-keyboard-response","164","341376","0.0-68.0","","null","<div style=""font-size:100px;"">+</div>","null","delaylearn","learning","ITI","5918774ba391f200011b281f","L9RSkr7JnVUnXCAHwfdgIebAIGC2","","","","","","","","","","","","","","","","","","","1508","",""
"html-keyboard-response","165","342258","0.0-69.0-0.0","","878.2000000476837","<div style=""display: flex; flex-direction: column; align-items: center; margin-top: -40px;""><img src=""images/pattern_6.png"" style=""width: 234px; height: 230px; margin-top: -50px;""><div style=""display: flex; justify-content: space-between; margin-top: 33px;""><img src=""images/choice_trial_3.png"" style=""width: 408px; height: 417px; margin-right: 200px;""><img src=""images/choice_trial_16.png"" style=""width: 408px; height: 417px;""></div></div>","f","delaylearn","learning","trial","5918774ba391f200011b281f","L9RSkr7JnVUnXCAHwfdgIebAIGC2","3","images/choice_trial_3.png","images/choice_trial_16.png","images/pattern_6.png","j","j","750","3","16","5","1","30","0","0","3","190","","","","",""
"html-keyboard-response","166","343267","0.0-69.0-1.0","","null","<div style=""display: flex; flex-direction: column; align-items: center; margin-top: -40px;""><img src=""images/pattern_6.png"" style=""width: 234px; height: 230px; margin-top: -50px;""><div style=""display: flex; justify-content: space-between; margin-top: 33px;""><img src=""images/choice_trial_3.png"" style=""width: 408px; height: 417px; margin-right: 608px;""></div></div>","null","delaylearn","learning","display_response","5918774ba391f200011b281f","L9RSkr7JnVUnXCAHwfdgIebAIGC2","","","","","","","","","","","","","","","","","chosen stimuli: images/choice_trial_3.png","","","",""
"html-keyboard-response","167","344024","0.0-69.0-2.0","","null","","null","delaylearn","learning","feedback_duration_window","5918774ba391f200011b281f","L9RSkr7JnVUnXCAHwfdgIebAIGC2","","","","","","","","","","","","","","","","","","750","","",""
"html-keyboard-response","168","345534","0.0-69.0-3.0","","null","<div style='margin:auto;width: auto; font-size: 150%'><span style='font-weight: bold; font-size: 100px; color: red;'>0 points!</span><br><br></div>","null","delaylearn","learning","feedback_image_window","5918774ba391f200011b281f","L9RSkr7JnVUnXCAHwfdgIebAIGC2","","","","","","","","","","","","","","","","","","","","",""
"html-keyboard-response","169","346038","0.0-70.0-0.0","","null","","null","","","mood_trial_fixation","","","","","","","","","","","","","","","","","","","","","","",""
"lmdlab-html-vas-response","170","350249","0.0-70.0-1.0","","3208","How happy are you right now?","0.27214465552758066","delaylearn","learning","mood_trial","5918774ba391f200011b281f","L9RSkr7JnVUnXCAHwfdgIebAIGC2","","","","","","","","","","","","","","","","","","","","[""Very unhappy"",""Very happy""]",""
"html-keyboard-response","171","352543","0.0-71.0","","null","<div style=""font-size:100px;"">+</div>","null","delaylearn","learning","ITI","5918774ba391f200011b281f","L9RSkr7JnVUnXCAHwfdgIebAIGC2","","","","","","","","","","","","","","","","","","","2278","",""
"html-keyboard-response","172","354058","0.0-72.0-0.0","","1510.5999999046326","<div style=""display: flex; flex-direction: column; align-items: center; margin-top: -40px;""><img src=""images/pattern_4.png"" style=""width: 234px; height: 230px; margin-top: -50px;""><div style=""display: flex; justify-content: space-between; margin-top: 33px;""><img src=""images/choice_trial_9.png"" style=""width: 408px; height: 417px; margin-right: 200px;""><img src=""images/choice_trial_15.png"" style=""width: 408px; height: 417px;""></div></div>","f","delaylearn","learning","trial","5918774ba391f200011b281f","L9RSkr7JnVUnXCAHwfdgIebAIGC2","3","images/choice_trial_9.png","images/choice_trial_15.png","images/pattern_4.png","j","j","7000","9","15","3","1","31","0","0","9","190","","","","",""
"html-keyboard-response","173","355064","0.0-72.0-1.0","","null","<div style=""display: flex; flex-direction: column; align-items: center; margin-top: -40px;""><img src=""images/pattern_4.png"" style=""width: 234px; height: 230px; margin-top: -50px;""><div style=""display: flex; justify-content: space-between; margin-top: 33px;""><img src=""images/choice_trial_9.png"" style=""width: 408px; height: 417px; margin-right: 608px;""></div></div>","null","delaylearn","learning","display_response","5918774ba391f200011b281f","L9RSkr7JnVUnXCAHwfdgIebAIGC2","","","","","","","","","","","","","","","","","chosen stimuli: images/choice_trial_9.png","","","",""
"html-keyboard-response","174","362065","0.0-72.0-2.0","","null","","null","delaylearn","learning","feedback_duration_window","5918774ba391f200011b281f","L9RSkr7JnVUnXCAHwfdgIebAIGC2","","","","","","","","","","","","","","","","","","7000","","",""
"html-keyboard-response","175","363575","0.0-72.0-3.0","","null","<div style='margin:auto;width: auto; font-size: 150%'><span style='font-weight: bold; font-size: 100px; color: red;'>0 points!</span><br><br></div>","null","delaylearn","learning","feedback_image_window","5918774ba391f200011b281f","L9RSkr7JnVUnXCAHwfdgIebAIGC2","","","","","","","","","","","","","","","","","","","","",""
"html-keyboard-response","176","365141","0.0-73.0","","null","<div style=""font-size:100px;"">+</div>","null","delaylearn","learning","ITI","5918774ba391f200011b281f","L9RSkr7JnVUnXCAHwfdgIebAIGC2","","","","","","","","","","","","","","","","","","","1554","",""
"html-keyboard-response","177","367956","0.0-74.0-0.0","","2810.899999856949","<div style=""display: flex; flex-direction: column; align-items: center; margin-top: -40px;""><img src=""images/pattern_3.png"" style=""width: 234px; height: 230px; margin-top: -50px;""><div style=""display: flex; justify-content: space-between; margin-top: 33px;""><img src=""images/choice_trial_10.png"" style=""width: 408px; height: 417px; margin-right: 200px;""><img src=""images/choice_trial_13.png"" style=""width: 408px; height: 417px;""></div></div>","j","delaylearn","learning","trial","5918774ba391f200011b281f","L9RSkr7JnVUnXCAHwfdgIebAIGC2","3","images/choice_trial_10.png","images/choice_trial_13.png","images/pattern_3.png","j","j","7000","10","13","2","1","32","1","1","13","200","","","","",""
"html-keyboard-response","178","368967","0.0-74.0-1.0","","null","<div style=""display: flex; flex-direction: column; align-items: center; margin-top: -40px;""><img src=""images/pattern_3.png"" style=""width: 234px; height: 230px; margin-top: -50px;""><div style=""display: flex; justify-content: space-between; margin-top: 33px;""><img src=""images/choice_trial_13.png"" style=""width: 408px; height: 417px; margin-left:608px;""></div></div>","null","delaylearn","learning","display_response","5918774ba391f200011b281f","L9RSkr7JnVUnXCAHwfdgIebAIGC2","","","","","","","","","","","","","","","","","chosen stimuli: images/choice_trial_13.png","","","",""
"html-keyboard-response","179","375971","0.0-74.0-2.0","","null","","null","delaylearn","learning","feedback_duration_window","5918774ba391f200011b281f","L9RSkr7JnVUnXCAHwfdgIebAIGC2","","","","","","","","","","","","","","","","","","7000","","",""
"html-keyboard-response","180","377485","0.0-74.0-3.0","","null","<div style='margin:auto;width: auto; font-size: 150%'><span style='font-weight: bold; font-size: 100px; color: green;'>+10 points!</span><br><br></div>","null","delaylearn","learning","feedback_image_window","5918774ba391f200011b281f","L9RSkr7JnVUnXCAHwfdgIebAIGC2","","","","","","","","","","","","","","","","","","","","",""
"html-keyboard-response","181","379028","0.0-75.0","","null","<div style=""font-size:100px;"">+</div>","null","delaylearn","learning","ITI","5918774ba391f200011b281f","L9RSkr7JnVUnXCAHwfdgIebAIGC2","","","","","","","","","","","","","","","","","","","1529","",""
"html-keyboard-response","182","380763","0.0-76.0-0.0","","1731.2999999523163","<div style=""display: flex; flex-direction: column; align-items: center; margin-top: -40px;""><img src=""images/pattern_5.png"" style=""width: 234px; height: 230px; margin-top: -50px;""><div style=""display: flex; justify-content: space-between; margin-top: 33px;""><img src=""images/choice_trial_11.png"" style=""width: 408px; height: 417px; margin-right: 200px;""><img src=""images/choice_trial_2.png"" style=""width: 408px; height: 417px;""></div></div>","f","delaylearn","learning","trial","5918774ba391f200011b281f","L9RSkr7JnVUnXCAHwfdgIebAIGC2","3","images/choice_trial_11.png","images/choice_trial_2.png","images/pattern_5.png","j","f","750","11","2","4","0","33","1","0","11","200","","","","",""
"html-keyboard-response","183","381766","0.0-76.0-1.0","","null","<div style=""display: flex; flex-direction: column; align-items: center; margin-top: -40px;""><img src=""images/pattern_5.png"" style=""width: 234px; height: 230px; margin-top: -50px;""><div style=""display: flex; justify-content: space-between; margin-top: 33px;""><img src=""images/choice_trial_11.png"" style=""width: 408px; height: 417px; margin-right: 608px;""></div></div>","null","delaylearn","learning","display_response","5918774ba391f200011b281f","L9RSkr7JnVUnXCAHwfdgIebAIGC2","","","","","","","","","","","","","","","","","chosen stimuli: images/choice_trial_11.png","","","",""
"html-keyboard-response","184","382526","0.0-76.0-2.0","","null","","null","delaylearn","learning","feedback_duration_window","5918774ba391f200011b281f","L9RSkr7JnVUnXCAHwfdgIebAIGC2","","","","","","","","","","","","","","","","","","750","","",""
"html-keyboard-response","185","384043","0.0-76.0-3.0","","null","<div style='margin:auto;width: auto; font-size: 150%'><span style='font-weight: bold; font-size: 100px; color: red;'>0 points!</span><br><br></div>","null","delaylearn","learning","feedback_image_window","5918774ba391f200011b281f","L9RSkr7JnVUnXCAHwfdgIebAIGC2","","","","","","","","","","","","","","","","","","","","",""
"html-keyboard-response","186","386376","0.0-77.0","","null","<div style=""font-size:100px;"">+</div>","null","delaylearn","learning","ITI","5918774ba391f200011b281f","L9RSkr7JnVUnXCAHwfdgIebAIGC2","","","","","","","","","","","","","","","","","","","2325","",""
"html-keyboard-response","187","388898","0.0-78.0-0.0","","2517.5","<div style=""display: flex; flex-direction: column; align-items: center; margin-top: -40px;""><img src=""images/pattern_1.png"" style=""width: 234px; height: 230px; margin-top: -50px;""><div style=""display: flex; justify-content: space-between; margin-top: 33px;""><img src=""images/choice_trial_14.png"" style=""width: 408px; height: 417px; margin-right: 200px;""><img src=""images/choice_trial_8.png"" style=""width: 408px; height: 417px;""></div></div>","j","delaylearn","learning","trial","5918774ba391f200011b281f","L9RSkr7JnVUnXCAHwfdgIebAIGC2","3","images/choice_trial_14.png","images/choice_trial_8.png","images/pattern_1.png","f","f","7000","14","8","1","0","34","0","0","8","200","","","","",""
"html-keyboard-response","188","389915","0.0-78.0-1.0","","null","<div style=""display: flex; flex-direction: column; align-items: center; margin-top: -40px;""><img src=""images/pattern_1.png"" style=""width: 234px; height: 230px; margin-top: -50px;""><div style=""display: flex; justify-content: space-between; margin-top: 33px;""><img src=""images/choice_trial_8.png"" style=""width: 408px; height: 417px; margin-left:608px;""></div></div>","null","delaylearn","learning","display_response","5918774ba391f200011b281f","L9RSkr7JnVUnXCAHwfdgIebAIGC2","","","","","","","","","","","","","","","","","chosen stimuli: images/choice_trial_8.png","","","",""
"html-keyboard-response","189","396920","0.0-78.0-2.0","","null","","null","delaylearn","learning","feedback_duration_window","5918774ba391f200011b281f","L9RSkr7JnVUnXCAHwfdgIebAIGC2","","","","","","","","","","","","","","","","","","7000","","",""
"html-keyboard-response","190","398433","0.0-78.0-3.0","","null","<div style='margin:auto;width: auto; font-size: 150%'><span style='font-weight: bold; font-size: 100px; color: red;'>0 points!</span><br><br></div>","null","delaylearn","learning","feedback_image_window","5918774ba391f200011b281f","L9RSkr7JnVUnXCAHwfdgIebAIGC2","","","","","","","","","","","","","","","","","","","","",""
"html-keyboard-response","191","398939","0.0-79.0-0.0","","null","","null","","","mood_trial_fixation","","","","","","","","","","","","","","","","","","","","","","",""
"lmdlab-html-vas-response","192","402881","0.0-79.0-1.0","","2924","How happy are you right now?","0.2591236235090664","delaylearn","learning","mood_trial","5918774ba391f200011b281f","L9RSkr7JnVUnXCAHwfdgIebAIGC2","","","","","","","","","","","","","","","","","","","","[""Very unhappy"",""Very happy""]",""
"html-keyboard-response","193","405063","0.0-80.0","","null","<div style=""font-size:100px;"">+</div>","null","delaylearn","learning","ITI","5918774ba391f200011b281f","L9RSkr7JnVUnXCAHwfdgIebAIGC2","","","","","","","","","","","","","","","","","","","2176","",""
"html-keyboard-response","194","406122","0.0-81.0-0.0","","1054.7000000476837","<div style=""display: flex; flex-direction: column; align-items: center; margin-top: -40px;""><img src=""images/pattern_6.png"" style=""width: 234px; height: 230px; margin-top: -50px;""><div style=""display: flex; justify-content: space-between; margin-top: 33px;""><img src=""images/choice_trial_16.png"" style=""width: 408px; height: 417px; margin-right: 200px;""><img src=""images/choice_trial_3.png"" style=""width: 408px; height: 417px;""></div></div>","f","delaylearn","learning","trial","5918774ba391f200011b281f","L9RSkr7JnVUnXCAHwfdgIebAIGC2","3","images/choice_trial_16.png","images/choice_trial_3.png","images/pattern_6.png","j","f","750","16","3","5","0","35","1","0","16","200","","","","",""
"html-keyboard-response","195","407130","0.0-81.0-1.0","","null","<div style=""display: flex; flex-direction: column; align-items: center; margin-top: -40px;""><img src=""images/pattern_6.png"" style=""width: 234px; height: 230px; margin-top: -50px;""><div style=""display: flex; justify-content: space-between; margin-top: 33px;""><img src=""images/choice_trial_16.png"" style=""width: 408px; height: 417px; margin-right: 608px;""></div></div>","null","delaylearn","learning","display_response","5918774ba391f200011b281f","L9RSkr7JnVUnXCAHwfdgIebAIGC2","","","","","","","","","","","","","","","","","chosen stimuli: images/choice_trial_16.png","","","",""
"html-keyboard-response","196","407887","0.0-81.0-2.0","","null","","null","delaylearn","learning","feedback_duration_window","5918774ba391f200011b281f","L9RSkr7JnVUnXCAHwfdgIebAIGC2","","","","","","","","","","","","","","","","","","750","","",""
"html-keyboard-response","197","409389","0.0-81.0-3.0","","null","<div style='margin:auto;width: auto; font-size: 150%'><span style='font-weight: bold; font-size: 100px; color: red;'>0 points!</span><br><br></div>","null","delaylearn","learning","feedback_image_window","5918774ba391f200011b281f","L9RSkr7JnVUnXCAHwfdgIebAIGC2","","","","","","","","","","","","","","","","","","","","",""
"html-keyboard-response","198","411228","0.0-82.0","","null","<div style=""font-size:100px;"">+</div>","null","delaylearn","learning","ITI","5918774ba391f200011b281f","L9RSkr7JnVUnXCAHwfdgIebAIGC2","","","","","","","","","","","","","","","","","","","1824","",""
"html-keyboard-response","199","413708","0.0-83.0-0.0","","2475","<div style=""display: flex; flex-direction: column; align-items: center; margin-top: -40px;""><img src=""images/pattern_3.png"" style=""width: 234px; height: 230px; margin-top: -50px;""><div style=""display: flex; justify-content: space-between; margin-top: 33px;""><img src=""images/choice_trial_10.png"" style=""width: 408px; height: 417px; margin-right: 200px;""><img src=""images/choice_trial_13.png"" style=""width: 408px; height: 417px;""></div></div>","j","delaylearn","learning","trial","5918774ba391f200011b281f","L9RSkr7JnVUnXCAHwfdgIebAIGC2","3","images/choice_trial_10.png","images/choice_trial_13.png","images/pattern_3.png","j","j","7000","10","13","2","1","36","1","1","13","210","","","","",""
"html-keyboard-response","200","414716","0.0-83.0-1.0","","null","<div style=""display: flex; flex-direction: column; align-items: center; margin-top: -40px;""><img src=""images/pattern_3.png"" style=""width: 234px; height: 230px; margin-top: -50px;""><div style=""display: flex; justify-content: space-between; margin-top: 33px;""><img src=""images/choice_trial_13.png"" style=""width: 408px; height: 417px; margin-left:608px;""></div></div>","null","delaylearn","learning","display_response","5918774ba391f200011b281f","L9RSkr7JnVUnXCAHwfdgIebAIGC2","","","","","","","","","","","","","","","","","chosen stimuli: images/choice_trial_13.png","","","",""
"html-keyboard-response","201","421733","0.0-83.0-2.0","","null","","null","delaylearn","learning","feedback_duration_window","5918774ba391f200011b281f","L9RSkr7JnVUnXCAHwfdgIebAIGC2","","","","","","","","","","","","","","","","","","7000","","",""
"html-keyboard-response","202","423239","0.0-83.0-3.0","","null","<div style='margin:auto;width: auto; font-size: 150%'><span style='font-weight: bold; font-size: 100px; color: green;'>+10 points!</span><br><br></div>","null","delaylearn","learning","feedback_image_window","5918774ba391f200011b281f","L9RSkr7JnVUnXCAHwfdgIebAIGC2","","","","","","","","","","","","","","","","","","","","",""
"html-keyboard-response","203","424945","0.0-84.0","","null","<div style=""font-size:100px;"">+</div>","null","delaylearn","learning","ITI","5918774ba391f200011b281f","L9RSkr7JnVUnXCAHwfdgIebAIGC2","","","","","","","","","","","","","","","","","","","1703","",""
"html-keyboard-response","204","426844","0.0-85.0-0.0","","1893.6000001430511","<div style=""display: flex; flex-direction: column; align-items: center; margin-top: -40px;""><img src=""images/pattern_4.png"" style=""width: 234px; height: 230px; margin-top: -50px;""><div style=""display: flex; justify-content: space-between; margin-top: 33px;""><img src=""images/choice_trial_9.png"" style=""width: 408px; height: 417px; margin-right: 200px;""><img src=""images/choice_trial_15.png"" style=""width: 408px; height: 417px;""></div></div>","f","delaylearn","learning","trial","5918774ba391f200011b281f","L9RSkr7JnVUnXCAHwfdgIebAIGC2","3","images/choice_trial_9.png","images/choice_trial_15.png","images/pattern_4.png","f","j","7000","9","15","3","1","37","0","1","9","220","","","","",""
"html-keyboard-response","205","427852","0.0-85.0-1.0","","null","<div style=""display: flex; flex-direction: column; align-items: center; margin-top: -40px;""><img src=""images/pattern_4.png"" style=""width: 234px; height: 230px; margin-top: -50px;""><div style=""display: flex; justify-content: space-between; margin-top: 33px;""><img src=""images/choice_trial_9.png"" style=""width: 408px; height: 417px; margin-right: 608px;""></div></div>","null","delaylearn","learning","display_response","5918774ba391f200011b281f","L9RSkr7JnVUnXCAHwfdgIebAIGC2","","","","","","","","","","","","","","","","","chosen stimuli: images/choice_trial_9.png","","","",""
"html-keyboard-response","206","434853","0.0-85.0-2.0","","null","","null","delaylearn","learning","feedback_duration_window","5918774ba391f200011b281f","L9RSkr7JnVUnXCAHwfdgIebAIGC2","","","","","","","","","","","","","","","","","","7000","","",""
"html-keyboard-response","207","436368","0.0-85.0-3.0","","null","<div style='margin:auto;width: auto; font-size: 150%'><span style='font-weight: bold; font-size: 100px; color: green;'>+10 points!</span><br><br></div>","null","delaylearn","learning","feedback_image_window","5918774ba391f200011b281f","L9RSkr7JnVUnXCAHwfdgIebAIGC2","","","","","","","","","","","","","","","","","","","","",""
"html-keyboard-response","208","437903","0.0-86.0","","null","<div style=""font-size:100px;"">+</div>","null","delaylearn","learning","ITI","5918774ba391f200011b281f","L9RSkr7JnVUnXCAHwfdgIebAIGC2","","","","","","","","","","","","","","","","","","","1519","",""
"html-keyboard-response","209","440428","0.0-87.0-0.0","","2520.399999856949","<div style=""display: flex; flex-direction: column; align-items: center; margin-top: -40px;""><img src=""images/pattern_7.png"" style=""width: 234px; height: 230px; margin-top: -50px;""><div style=""display: flex; justify-content: space-between; margin-top: 33px;""><img src=""images/choice_trial_6.png"" style=""width: 408px; height: 417px; margin-right: 200px;""><img src=""images/choice_trial_12.png"" style=""width: 408px; height: 417px;""></div></div>","f","delaylearn","learning","trial","5918774ba391f200011b281f","L9RSkr7JnVUnXCAHwfdgIebAIGC2","3","images/choice_trial_6.png","images/choice_trial_12.png","images/pattern_7.png","f","f","750","6","12","6","0","38","1","1","6","230","","","","",""
"html-keyboard-response","210","441439","0.0-87.0-1.0","","null","<div style=""display: flex; flex-direction: column; align-items: center; margin-top: -40px;""><img src=""images/pattern_7.png"" style=""width: 234px; height: 230px; margin-top: -50px;""><div style=""display: flex; justify-content: space-between; margin-top: 33px;""><img src=""images/choice_trial_6.png"" style=""width: 408px; height: 417px; margin-right: 608px;""></div></div>","null","delaylearn","learning","display_response","5918774ba391f200011b281f","L9RSkr7JnVUnXCAHwfdgIebAIGC2","","","","","","","","","","","","","","","","","chosen stimuli: images/choice_trial_6.png","","","",""
"html-keyboard-response","211","442194","0.0-87.0-2.0","","null","","null","delaylearn","learning","feedback_duration_window","5918774ba391f200011b281f","L9RSkr7JnVUnXCAHwfdgIebAIGC2","","","","","","","","","","","","","","","","","","750","","",""
"html-keyboard-response","212","443701","0.0-87.0-3.0","","null","<div style='margin:auto;width: auto; font-size: 150%'><span style='font-weight: bold; font-size: 100px; color: green;'>+10 points!</span><br><br></div>","null","delaylearn","learning","feedback_image_window","5918774ba391f200011b281f","L9RSkr7JnVUnXCAHwfdgIebAIGC2","","","","","","","","","","","","","","","","","","","","",""
"html-keyboard-response","213","446016","0.0-88.0","","null","<div style=""font-size:100px;"">+</div>","null","delaylearn","learning","ITI","5918774ba391f200011b281f","L9RSkr7JnVUnXCAHwfdgIebAIGC2","","","","","","","","","","","","","","","","","","","2305","",""
"html-keyboard-response","214","448210","0.0-89.0-0.0","","2187.7999999523163","<div style=""display: flex; flex-direction: column; align-items: center; margin-top: -40px;""><img src=""images/pattern_1.png"" style=""width: 234px; height: 230px; margin-top: -50px;""><div style=""display: flex; justify-content: space-between; margin-top: 33px;""><img src=""images/choice_trial_14.png"" style=""width: 408px; height: 417px; margin-right: 200px;""><img src=""images/choice_trial_8.png"" style=""width: 408px; height: 417px;""></div></div>","j","delaylearn","learning","trial","5918774ba391f200011b281f","L9RSkr7JnVUnXCAHwfdgIebAIGC2","3","images/choice_trial_14.png","images/choice_trial_8.png","images/pattern_1.png","f","f","7000","14","8","1","0","39","0","0","8","230","","","","",""
"html-keyboard-response","215","449215","0.0-89.0-1.0","","null","<div style=""display: flex; flex-direction: column; align-items: center; margin-top: -40px;""><img src=""images/pattern_1.png"" style=""width: 234px; height: 230px; margin-top: -50px;""><div style=""display: flex; justify-content: space-between; margin-top: 33px;""><img src=""images/choice_trial_8.png"" style=""width: 408px; height: 417px; margin-left:608px;""></div></div>","null","delaylearn","learning","display_response","5918774ba391f200011b281f","L9RSkr7JnVUnXCAHwfdgIebAIGC2","","","","","","","","","","","","","","","","","chosen stimuli: images/choice_trial_8.png","","","",""
"html-keyboard-response","216","456217","0.0-89.0-2.0","","null","","null","delaylearn","learning","feedback_duration_window","5918774ba391f200011b281f","L9RSkr7JnVUnXCAHwfdgIebAIGC2","","","","","","","","","","","","","","","","","","7000","","",""
"html-keyboard-response","217","457734","0.0-89.0-3.0","","null","<div style='margin:auto;width: auto; font-size: 150%'><span style='font-weight: bold; font-size: 100px; color: red;'>0 points!</span><br><br></div>","null","delaylearn","learning","feedback_image_window","5918774ba391f200011b281f","L9RSkr7JnVUnXCAHwfdgIebAIGC2","","","","","","","","","","","","","","","","","","","","",""
"html-keyboard-response","218","458239","0.0-90.0-0.0","","null","","null","","","mood_trial_fixation","","","","","","","","","","","","","","","","","","","","","","",""
"lmdlab-html-vas-response","219","462377","0.0-90.0-1.0","","3135","How happy are you right now?","0.2607512525113807","delaylearn","learning","mood_trial","5918774ba391f200011b281f","L9RSkr7JnVUnXCAHwfdgIebAIGC2","","","","","","","","","","","","","","","","","","","","[""Very unhappy"",""Very happy""]",""
"html-keyboard-response","220","464215","0.0-91.0","","null","<div style=""font-size:100px;"">+</div>","null","delaylearn","learning","ITI","5918774ba391f200011b281f","L9RSkr7JnVUnXCAHwfdgIebAIGC2","","","","","","","","","","","","","","","","","","","1830","",""
