"trial_type","trial_index","time_elapsed","internal_node_id","participant","rt","stimulus","response","exp_name","exp_stage","test_part","subjectID","databaseID","counterbal","choice_stimuli_1","choice_stimuli_2","pattern_stimuli","rewarded_answer","correct_answer","feedback_duration_times","stim_left","stim_right","pair","leftright_counter","trial","response_correct","response_rewarded","chosen_stim","counter","displayed_choice","feedback_durations","ITI_duration","labels","rest_warning"
"pavlovia","0","585","0.0-0.0","","","","","","","","","","","","","","","","","","","","","","","","","","","","","",""
"html-keyboard-response","1","3593","0.0-1.0","","null","<div style=""font-size:100px;"">+</div>","null","delaylearn","learning","pre_fixation","6160717242827a64a55d99ad","","","","","","","","","","","","","","","","","","","","","",""
"html-keyboard-response","2","4709","0.0-2.0-0.0","","1114","<div style=""display: flex; flex-direction: column; align-items: center; margin-top: -40px;""><img src=""images/demo_images/pattern_1.png"" style=""width: 234px; height: 230px; margin-top: -50px;""><div style=""display: flex; justify-content: space-between; margin-top: 33px;""><img src=""images/demo_images/choice_trial_2.png"" style=""width: 408px; height: 417px; margin-right: 200px;""><img src=""images/demo_images/choice_trial_1.png"" style=""width: 408px; height: 417px;""></div></div>","f","delaylearn","learning","trial","6160717242827a64a55d99ad","cf95ogMkC1g7Xxn99r3ZGcpGLdv1","1","images/demo_images/choice_trial_2.png","images/demo_images/choice_trial_1.png","images/demo_images/pattern_1.png","j","j","3000","2","1","20","1","1","0","0","2","0","","","","",""
"html-keyboard-response","3","5723","0.0-2.0-1.0","","null","<div style=""display: flex; flex-direction: column; align-items: center; margin-top: -40px;""><img src=""images/demo_images/pattern_1.png"" style=""width: 234px; height: 230px; margin-top: -50px;""><div style=""display: flex; justify-content: space-between; margin-top: 33px;""><img src=""images/demo_images/choice_trial_2.png"" style=""width: 408px; height: 417px; margin-right: 608px;""></div></div>","null","delaylearn","learning","display_response","6160717242827a64a55d99ad","cf95ogMkC1g7Xxn99r3ZGcpGLdv1","","","","","","","","","","","","","","","","","chosen stimuli: images/demo_images/choice_trial_2.png","","","",""
"html-keyboard-response","4","8738","0.0-2.0-2.0","","null","","null","delaylearn","learning","feedback_duration_window","6160717242827a64a55d99ad","cf95ogMkC1g7Xxn99r3ZGcpGLdv1","","","","","","","","","","","","","","","","","","3000","","",""
"html-keyboard-response","5","10255","0.0-2.0-3.0","","null","<div style='margin:auto;width: auto; font-size: 150%'><span style='font-weight: bold; font-size: 100px; color: red;'>0 points!</span><br><br></div>","null","delaylearn","learning","feedback_image_window","6160717242827a64a55d99ad","cf95ogMkC1g7Xxn99r3ZGcpGLdv1","","","","","","","","","","","","","","","","","","","","",""
"html-keyboard-response","6","12591","0.0-3.0","","null","<div style=""font-size:100px;"">+</div>","null","delaylearn","learning","ITI","6160717242827a64a55d99ad","cf95ogMkC1g7Xxn99r3ZGcpGLdv1","","","","","","","","","","","","","","","","","","","2319","",""
"html-keyboard-response","7","13847","0.0-4.0-0.0","","1253.1999998092651","<div style=""display: flex; flex-direction: column; align-items: center; margin-top: -40px;""><img src=""images/demo_images/pattern_1.png"" style=""width: 234px; height: 230px; margin-top: -50px;""><div style=""display: flex; justify-content: space-between; margin-top: 33px;""><img src=""images/demo_images/choice_trial_2.png"" style=""width: 408px; height: 417px; margin-right: 200px;""><img src=""images/demo_images/choice_trial_1.png"" style=""width: 408px; height: 417px;""></div></div>","j","delaylearn","learning","trial","6160717242827a64a55d99ad","cf95ogMkC1g7Xxn99r3ZGcpGLdv1","1","images/demo_images/choice_trial_2.png","images/demo_images/choice_trial_1.png","images/demo_images/pattern_1.png","j","j","3000","2","1","20","1","2","1","1","1","10","","","","",""
"html-keyboard-response","8","14853","0.0-4.0-1.0","","null","<div style=""display: flex; flex-direction: column; align-items: center; margin-top: -40px;""><img src=""images/demo_images/pattern_1.png"" style=""width: 234px; height: 230px; margin-top: -50px;""><div style=""display: flex; justify-content: space-between; margin-top: 33px;""><img src=""images/demo_images/choice_trial_1.png"" style=""width: 408px; height: 417px; margin-left:608px;""></div></div>","null","delaylearn","learning","display_response","6160717242827a64a55d99ad","cf95ogMkC1g7Xxn99r3ZGcpGLdv1","","","","","","","","","","","","","","","","","chosen stimuli: images/demo_images/choice_trial_1.png","","","",""
"html-keyboard-response","9","17864","0.0-4.0-2.0","","null","","null","delaylearn","learning","feedback_duration_window","6160717242827a64a55d99ad","cf95ogMkC1g7Xxn99r3ZGcpGLdv1","","","","","","","","","","","","","","","","","","3000","","",""
"html-keyboard-response","10","19372","0.0-4.0-3.0","","null","<div style='margin:auto;width: auto; font-size: 150%'><span style='font-weight: bold; font-size: 100px; color: green;'>+10 points!</span><br><br></div>","null","delaylearn","learning","feedback_image_window","6160717242827a64a55d99ad","cf95ogMkC1g7Xxn99r3ZGcpGLdv1","","","","","","","","","","","","","","","","","","","","",""
"html-keyboard-response","11","21473","0.0-5.0","","null","<div style=""font-size:100px;"">+</div>","null","delaylearn","learning","ITI","6160717242827a64a55d99ad","cf95ogMkC1g7Xxn99r3ZGcpGLdv1","","","","","","","","","","","","","","","","","","","2100","",""
"html-keyboard-response","12","22421","0.0-6.0-0.0","","946.7000002861023","<div style=""display: flex; flex-direction: column; align-items: center; margin-top: -40px;""><img src=""images/demo_images/pattern_1.png"" style=""width: 234px; height: 230px; margin-top: -50px;""><div style=""display: flex; justify-content: space-between; margin-top: 33px;""><img src=""images/demo_images/choice_trial_1.png"" style=""width: 408px; height: 417px; margin-right: 200px;""><img src=""images/demo_images/choice_trial_2.png"" style=""width: 408px; height: 417px;""></div></div>","f","delaylearn","learning","trial","6160717242827a64a55d99ad","cf95ogMkC1g7Xxn99r3ZGcpGLdv1","1","images/demo_images/choice_trial_1.png","images/demo_images/choice_trial_2.png","images/demo_images/pattern_1.png","j","f","3000","1","2","20","0","3","1","0","1","10","","","","",""
"html-keyboard-response","13","23431","0.0-6.0-1.0","","null","<div style=""display: flex; flex-direction: column; align-items: center; margin-top: -40px;""><img src=""images/demo_images/pattern_1.png"" style=""width: 234px; height: 230px; margin-top: -50px;""><div style=""display: flex; justify-content: space-between; margin-top: 33px;""><img src=""images/demo_images/choice_trial_1.png"" style=""width: 408px; height: 417px; margin-right: 608px;""></div></div>","null","delaylearn","learning","display_response","6160717242827a64a55d99ad","cf95ogMkC1g7Xxn99r3ZGcpGLdv1","","","","","","","","","","","","","","","","","chosen stimuli: images/demo_images/choice_trial_1.png","","","",""
"html-keyboard-response","14","26437","0.0-6.0-2.0","","null","","null","delaylearn","learning","feedback_duration_window","6160717242827a64a55d99ad","cf95ogMkC1g7Xxn99r3ZGcpGLdv1","","","","","","","","","","","","","","","","","","3000","","",""
"html-keyboard-response","15","27945","0.0-6.0-3.0","","null","<div style='margin:auto;width: auto; font-size: 150%'><span style='font-weight: bold; font-size: 100px; color: red;'>0 points!</span><br><br></div>","null","delaylearn","learning","feedback_image_window","6160717242827a64a55d99ad","cf95ogMkC1g7Xxn99r3ZGcpGLdv1","","","","","","","","","","","","","","","","","","","","",""
"html-keyboard-response","16","30439","0.0-7.0","","null","<div style=""font-size:100px;"">+</div>","null","delaylearn","learning","ITI","6160717242827a64a55d99ad","cf95ogMkC1g7Xxn99r3ZGcpGLdv1","","","","","","","","","","","","","","","","","","","2485","",""
"html-keyboard-response","17","31016","0.0-8.0-0.0","","574.7999997138977","<div style=""display: flex; flex-direction: column; align-items: center; margin-top: -40px;""><img src=""images/demo_images/pattern_1.png"" style=""width: 234px; height: 230px; margin-top: -50px;""><div style=""display: flex; justify-content: space-between; margin-top: 33px;""><img src=""images/demo_images/choice_trial_1.png"" style=""width: 408px; height: 417px; margin-right: 200px;""><img src=""images/demo_images/choice_trial_2.png"" style=""width: 408px; height: 417px;""></div></div>","f","delaylearn","learning","trial","6160717242827a64a55d99ad","cf95ogMkC1g7Xxn99r3ZGcpGLdv1","1","images/demo_images/choice_trial_1.png","images/demo_images/choice_trial_2.png","images/demo_images/pattern_1.png","f","f","3000","1","2","20","0","4","1","1","1","20","","","","",""
"html-keyboard-response","18","32031","0.0-8.0-1.0","","null","<div style=""display: flex; flex-direction: column; align-items: center; margin-top: -40px;""><img src=""images/demo_images/pattern_1.png"" style=""width: 234px; height: 230px; margin-top: -50px;""><div style=""display: flex; justify-content: space-between; margin-top: 33px;""><img src=""images/demo_images/choice_trial_1.png"" style=""width: 408px; height: 417px; margin-right: 608px;""></div></div>","null","delaylearn","learning","display_response","6160717242827a64a55d99ad","cf95ogMkC1g7Xxn99r3ZGcpGLdv1","","","","","","","","","","","","","","","","","chosen stimuli: images/demo_images/choice_trial_1.png","","","",""
"html-keyboard-response","19","35044","0.0-8.0-2.0","","null","","null","delaylearn","learning","feedback_duration_window","6160717242827a64a55d99ad","cf95ogMkC1g7Xxn99r3ZGcpGLdv1","","","","","","","","","","","","","","","","","","3000","","",""
"html-keyboard-response","20","36557","0.0-8.0-3.0","","null","<div style='margin:auto;width: auto; font-size: 150%'><span style='font-weight: bold; font-size: 100px; color: green;'>+10 points!</span><br><br></div>","null","delaylearn","learning","feedback_image_window","6160717242827a64a55d99ad","cf95ogMkC1g7Xxn99r3ZGcpGLdv1","","","","","","","","","","","","","","","","","","","","",""
"html-keyboard-response","21","37070","0.0-9.0-0.0","","null","","null","","","mood_trial_fixation","","","","","","","","","","","","","","","","","","","","","","",""
"lmdlab-html-vas-response","22","41460","0.0-9.0-1.0","","3363","How happy are you right now?","0.5308882734092301","delaylearn","learning","mood_trial","6160717242827a64a55d99ad","cf95ogMkC1g7Xxn99r3ZGcpGLdv1","","","","","","","","","","","","","","","","","","","","[""Very unhappy"",""Very happy""]",""
"html-keyboard-response","23","43303","0.0-10.0","","null","<div style=""font-size:100px;"">+</div>","null","delaylearn","learning","ITI","6160717242827a64a55d99ad","cf95ogMkC1g7Xxn99r3ZGcpGLdv1","","","","","","","","","","","","","","","","","","","1835","",""
"html-keyboard-response","24","44187","0.0-11.0-0.0","","880.9000000953674","<div style=""display: flex; flex-direction: column; align-items: center; margin-top: -40px;""><img src=""images/demo_images/pattern_1.png"" style=""width: 234px; height: 230px; margin-top: -50px;""><div style=""display: flex; justify-content: space-between; margin-top: 33px;""><img src=""images/demo_images/choice_trial_2.png"" style=""width: 408px; height: 417px; margin-right: 200px;""><img src=""images/demo_images/choice_trial_1.png"" style=""width: 408px; height: 417px;""></div></div>","j","delaylearn","learning","trial","6160717242827a64a55d99ad","cf95ogMkC1g7Xxn99r3ZGcpGLdv1","1","images/demo_images/choice_trial_2.png","images/demo_images/choice_trial_1.png","images/demo_images/pattern_1.png","j","j","3000","2","1","20","1","5","1","1","1","30","","","","",""
"html-keyboard-response","25","45200","0.0-11.0-1.0","","null","<div style=""display: flex; flex-direction: column; align-items: center; margin-top: -40px;""><img src=""images/demo_images/pattern_1.png"" style=""width: 234px; height: 230px; margin-top: -50px;""><div style=""display: flex; justify-content: space-between; margin-top: 33px;""><img src=""images/demo_images/choice_trial_1.png"" style=""width: 408px; height: 417px; margin-left:608px;""></div></div>","null","delaylearn","learning","display_response","6160717242827a64a55d99ad","cf95ogMkC1g7Xxn99r3ZGcpGLdv1","","","","","","","","","","","","","","","","","chosen stimuli: images/demo_images/choice_trial_1.png","","","",""
"html-keyboard-response","26","48217","0.0-11.0-2.0","","null","","null","delaylearn","learning","feedback_duration_window","6160717242827a64a55d99ad","cf95ogMkC1g7Xxn99r3ZGcpGLdv1","","","","","","","","","","","","","","","","","","3000","","",""
"html-keyboard-response","27","49729","0.0-11.0-3.0","","null","<div style='margin:auto;width: auto; font-size: 150%'><span style='font-weight: bold; font-size: 100px; color: green;'>+10 points!</span><br><br></div>","null","delaylearn","learning","feedback_image_window","6160717242827a64a55d99ad","cf95ogMkC1g7Xxn99r3ZGcpGLdv1","","","","","","","","","","","","","","","","","","","","",""
"html-keyboard-response","28","51648","0.0-12.0","","null","<div style=""font-size:100px;"">+</div>","null","delaylearn","learning","ITI","6160717242827a64a55d99ad","cf95ogMkC1g7Xxn99r3ZGcpGLdv1","","","","","","","","","","","","","","","","","","","1915","",""
"html-keyboard-response","29","52154","0.0-13.0-0.0","","503.90000009536743","<div style=""display: flex; flex-direction: column; align-items: center; margin-top: -40px;""><img src=""images/demo_images/pattern_1.png"" style=""width: 234px; height: 230px; margin-top: -50px;""><div style=""display: flex; justify-content: space-between; margin-top: 33px;""><img src=""images/demo_images/choice_trial_1.png"" style=""width: 408px; height: 417px; margin-right: 200px;""><img src=""images/demo_images/choice_trial_2.png"" style=""width: 408px; height: 417px;""></div></div>","f","delaylearn","learning","trial","6160717242827a64a55d99ad","cf95ogMkC1g7Xxn99r3ZGcpGLdv1","1","images/demo_images/choice_trial_1.png","images/demo_images/choice_trial_2.png","images/demo_images/pattern_1.png","f","f","3000","1","2","20","0","6","1","1","1","40","","","","",""
"html-keyboard-response","30","53164","0.0-13.0-1.0","","null","<div style=""display: flex; flex-direction: column; align-items: center; margin-top: -40px;""><img src=""images/demo_images/pattern_1.png"" style=""width: 234px; height: 230px; margin-top: -50px;""><div style=""display: flex; justify-content: space-between; margin-top: 33px;""><img src=""images/demo_images/choice_trial_1.png"" style=""width: 408px; height: 417px; margin-right: 608px;""></div></div>","null","delaylearn","learning","display_response","6160717242827a64a55d99ad","cf95ogMkC1g7Xxn99r3ZGcpGLdv1","","","","","","","","","","","","","","","","","chosen stimuli: images/demo_images/choice_trial_1.png","","","",""
"html-keyboard-response","31","56175","0.0-13.0-2.0","","null","","null","delaylearn","learning","feedback_duration_window","6160717242827a64a55d99ad","cf95ogMkC1g7Xxn99r3ZGcpGLdv1","","","","","","","","","","","","","","","","","","3000","","",""
"html-keyboard-response","32","57691","0.0-13.0-3.0","","null","<div style='margin:auto;width: auto; font-size: 150%'><span style='font-weight: bold; font-size: 100px; color: green;'>+10 points!</span><br><br></div>","null","delaylearn","learning","feedback_image_window","6160717242827a64a55d99ad","cf95ogMkC1g7Xxn99r3ZGcpGLdv1","","","","","","","","","","","","","","","","","","","","",""
"html-keyboard-response","33","60188","0.0-14.0","","null","<div style=""font-size:100px;"">+</div>","null","delaylearn","learning","ITI","6160717242827a64a55d99ad","cf95ogMkC1g7Xxn99r3ZGcpGLdv1","","","","","","","","","","","","","","","","","","","2491","",""
"html-keyboard-response","34","60736","0.0-15.0-0.0","","546.5","<div style=""display: flex; flex-direction: column; align-items: center; margin-top: -40px;""><img src=""images/demo_images/pattern_1.png"" style=""width: 234px; height: 230px; margin-top: -50px;""><div style=""display: flex; justify-content: space-between; margin-top: 33px;""><img src=""images/demo_images/choice_trial_2.png"" style=""width: 408px; height: 417px; margin-right: 200px;""><img src=""images/demo_images/choice_trial_1.png"" style=""width: 408px; height: 417px;""></div></div>","j","delaylearn","learning","trial","6160717242827a64a55d99ad","cf95ogMkC1g7Xxn99r3ZGcpGLdv1","1","images/demo_images/choice_trial_2.png","images/demo_images/choice_trial_1.png","images/demo_images/pattern_1.png","j","j","3000","2","1","20","1","7","1","1","1","50","","","","",""
"html-keyboard-response","35","61746","0.0-15.0-1.0","","null","<div style=""display: flex; flex-direction: column; align-items: center; margin-top: -40px;""><img src=""images/demo_images/pattern_1.png"" style=""width: 234px; height: 230px; margin-top: -50px;""><div style=""display: flex; justify-content: space-between; margin-top: 33px;""><img src=""images/demo_images/choice_trial_1.png"" style=""width: 408px; height: 417px; margin-left:608px;""></div></div>","null","delaylearn","learning","display_response","6160717242827a64a55d99ad","cf95ogMkC1g7Xxn99r3ZGcpGLdv1","","","","","","","","","","","","","","","","","chosen stimuli: images/demo_images/choice_trial_1.png","","","",""
"html-keyboard-response","36","64750","0.0-15.0-2.0","","null","","null","delaylearn","learning","feedback_duration_window","6160717242827a64a55d99ad","cf95ogMkC1g7Xxn99r3ZGcpGLdv1","","","","","","","","","","","","","","","","","","3000","","",""
"html-keyboard-response","37","66253","0.0-15.0-3.0","","null","<div style='margin:auto;width: auto; font-size: 150%'><span style='font-weight: bold; font-size: 100px; color: green;'>+10 points!</span><br><br></div>","null","delaylearn","learning","feedback_image_window","6160717242827a64a55d99ad","cf95ogMkC1g7Xxn99r3ZGcpGLdv1","","","","","","","","","","","","","","","","","","","","",""
"html-keyboard-response","38","67940","0.0-16.0","","null","<div style=""font-size:100px;"">+</div>","null","delaylearn","learning","ITI","6160717242827a64a55d99ad","cf95ogMkC1g7Xxn99r3ZGcpGLdv1","","","","","","","","","","","","","","","","","","","1675","",""
"html-keyboard-response","39","68599","0.0-17.0-0.0","","656.2000002861023","<div style=""display: flex; flex-direction: column; align-items: center; margin-top: -40px;""><img src=""images/demo_images/pattern_1.png"" style=""width: 234px; height: 230px; margin-top: -50px;""><div style=""display: flex; justify-content: space-between; margin-top: 33px;""><img src=""images/demo_images/choice_trial_1.png"" style=""width: 408px; height: 417px; margin-right: 200px;""><img src=""images/demo_images/choice_trial_2.png"" style=""width: 408px; height: 417px;""></div></div>","f","delaylearn","learning","trial","6160717242827a64a55d99ad","cf95ogMkC1g7Xxn99r3ZGcpGLdv1","1","images/demo_images/choice_trial_1.png","images/demo_images/choice_trial_2.png","images/demo_images/pattern_1.png","f","f","3000","1","2","20","0","8","1","1","1","60","","","","",""
"html-keyboard-response","40","69614","0.0-17.0-1.0","","null","<div style=""display: flex; flex-direction: column; align-items: center; margin-top: -40px;""><img src=""images/demo_images/pattern_1.png"" style=""width: 234px; height: 230px; margin-top: -50px;""><div style=""display: flex; justify-content: space-between; margin-top: 33px;""><img src=""images/demo_images/choice_trial_1.png"" style=""width: 408px; height: 417px; margin-right: 608px;""></div></div>","null","delaylearn","learning","display_response","6160717242827a64a55d99ad","cf95ogMkC1g7Xxn99r3ZGcpGLdv1","","","","","","","","","","","","","","","","","chosen stimuli: images/demo_images/choice_trial_1.png","","","",""
"html-keyboard-response","41","72628","0.0-17.0-2.0","","null","","null","delaylearn","learning","feedback_duration_window","6160717242827a64a55d99ad","cf95ogMkC1g7Xxn99r3ZGcpGLdv1","","","","","","","","","","","","","","","","","","3000","","",""
"html-keyboard-response","42","74133","0.0-17.0-3.0","","null","<div style='margin:auto;width: auto; font-size: 150%'><span style='font-weight: bold; font-size: 100px; color: green;'>+10 points!</span><br><br></div>","null","delaylearn","learning","feedback_image_window","6160717242827a64a55d99ad","cf95ogMkC1g7Xxn99r3ZGcpGLdv1","","","","","","","","","","","","","","","","","","","","",""
"html-button-response","43","78154","0.0-18.0","","4018.7999997138977","
  <div style=""display: flex; align-items: center; justify-content: center; height: 80vh;"">
  <div>
          <img src=""images/inst_demo_finish.png"" style=""width: 80vw; height:auto;"">
          <br><br>
      </div>
      <br><br>
  </div>","0","","","","","","","","","","","","","","","","","","","","","","","","","",""
"html-keyboard-response","44","80984","0.0-19.0","","2829","
  <div style=""display: flex; align-items: center; justify-content: center; height: 80vh;"">
  <div>
          <img src=""images/inst_6.png"" style=""width: 80vw; height:auto;"">
          <br><br>
      </div>
      <br><br>
  </div>","f","","","","","","","","","","","","","","","","","","","","","","","","","",""
"html-keyboard-response","45","83985","0.0-20.0","","null","<div style=""font-size:100px;"">+</div>","null","delaylearn","learning","pre_fixation","6160717242827a64a55d99ad","","","","","","","","","","","","","","","","","","","","","",""
"html-keyboard-response","46","86382","0.0-21.0","","null","<div style=""font-size:100px;"">+</div>","null","delaylearn","learning","ITI","6160717242827a64a55d99ad","cf95ogMkC1g7Xxn99r3ZGcpGLdv1","","","","","","","","","","","","","","","","","","","2381","",""
"html-keyboard-response","47","88206","0.0-22.0-0.0","","1823","<div style=""display: flex; flex-direction: column; align-items: center; margin-top: -40px;""><img src=""images/pattern_3.png"" style=""width: 234px; height: 230px; margin-top: -50px;""><div style=""display: flex; justify-content: space-between; margin-top: 33px;""><img src=""images/choice_trial_5.png"" style=""width: 408px; height: 417px; margin-right: 200px;""><img src=""images/choice_trial_6.png"" style=""width: 408px; height: 417px;""></div></div>","f","delaylearn","learning","trial","6160717242827a64a55d99ad","cf95ogMkC1g7Xxn99r3ZGcpGLdv1","1","images/choice_trial_5.png","images/choice_trial_6.png","images/pattern_3.png","f","f","7000","5","6","2","0","9","1","1","5","70","","","","",""
"html-keyboard-response","48","89216","0.0-22.0-1.0","","null","<div style=""display: flex; flex-direction: column; align-items: center; margin-top: -40px;""><img src=""images/pattern_3.png"" style=""width: 234px; height: 230px; margin-top: -50px;""><div style=""display: flex; justify-content: space-between; margin-top: 33px;""><img src=""images/choice_trial_5.png"" style=""width: 408px; height: 417px; margin-right: 608px;""></div></div>","null","delaylearn","learning","display_response","6160717242827a64a55d99ad","cf95ogMkC1g7Xxn99r3ZGcpGLdv1","","","","","","","","","","","","","","","","","chosen stimuli: images/choice_trial_5.png","","","",""
"html-keyboard-response","49","96229","0.0-22.0-2.0","","null","","null","delaylearn","learning","feedback_duration_window","6160717242827a64a55d99ad","cf95ogMkC1g7Xxn99r3ZGcpGLdv1","","","","","","","","","","","","","","","","","","7000","","",""
"html-keyboard-response","50","97738","0.0-22.0-3.0","","null","<div style='margin:auto;width: auto; font-size: 150%'><span style='font-weight: bold; font-size: 100px; color: green;'>+10 points!</span><br><br></div>","null","delaylearn","learning","feedback_image_window","6160717242827a64a55d99ad","cf95ogMkC1g7Xxn99r3ZGcpGLdv1","","","","","","","","","","","","","","","","","","","","",""
"html-keyboard-response","51","99634","0.0-23.0","","null","<div style=""font-size:100px;"">+</div>","null","delaylearn","learning","ITI","6160717242827a64a55d99ad","cf95ogMkC1g7Xxn99r3ZGcpGLdv1","","","","","","","","","","","","","","","","","","","1879","",""
"html-keyboard-response","52","101503","0.0-24.0-0.0","","1866.0999999046326","<div style=""display: flex; flex-direction: column; align-items: center; margin-top: -40px;""><img src=""images/pattern_7.png"" style=""width: 234px; height: 230px; margin-top: -50px;""><div style=""display: flex; justify-content: space-between; margin-top: 33px;""><img src=""images/choice_trial_14.png"" style=""width: 408px; height: 417px; margin-right: 200px;""><img src=""images/choice_trial_13.png"" style=""width: 408px; height: 417px;""></div></div>","f","delaylearn","learning","trial","6160717242827a64a55d99ad","cf95ogMkC1g7Xxn99r3ZGcpGLdv1","1","images/choice_trial_14.png","images/choice_trial_13.png","images/pattern_7.png","j","j","750","14","13","6","1","10","0","0","14","70","","","","",""
"html-keyboard-response","53","102511","0.0-24.0-1.0","","null","<div style=""display: flex; flex-direction: column; align-items: center; margin-top: -40px;""><img src=""images/pattern_7.png"" style=""width: 234px; height: 230px; margin-top: -50px;""><div style=""display: flex; justify-content: space-between; margin-top: 33px;""><img src=""images/choice_trial_14.png"" style=""width: 408px; height: 417px; margin-right: 608px;""></div></div>","null","delaylearn","learning","display_response","6160717242827a64a55d99ad","cf95ogMkC1g7Xxn99r3ZGcpGLdv1","","","","","","","","","","","","","","","","","chosen stimuli: images/choice_trial_14.png","","","",""
"html-keyboard-response","54","103276","0.0-24.0-2.0","","null","","null","delaylearn","learning","feedback_duration_window","6160717242827a64a55d99ad","cf95ogMkC1g7Xxn99r3ZGcpGLdv1","","","","","","","","","","","","","","","","","","750","","",""
"html-keyboard-response","55","104788","0.0-24.0-3.0","","null","<div style='margin:auto;width: auto; font-size: 150%'><span style='font-weight: bold; font-size: 100px; color: red;'>0 points!</span><br><br></div>","null","delaylearn","learning","feedback_image_window","6160717242827a64a55d99ad","cf95ogMkC1g7Xxn99r3ZGcpGLdv1","","","","","","","","","","","","","","","","","","","","",""
"html-keyboard-response","56","106468","0.0-25.0","","null","<div style=""font-size:100px;"">+</div>","null","delaylearn","learning","ITI","6160717242827a64a55d99ad","cf95ogMkC1g7Xxn99r3ZGcpGLdv1","","","","","","","","","","","","","","","","","","","1671","",""
"html-keyboard-response","57","108621","0.0-26.0-0.0","","2150.2999997138977","<div style=""display: flex; flex-direction: column; align-items: center; margin-top: -40px;""><img src=""images/pattern_4.png"" style=""width: 234px; height: 230px; margin-top: -50px;""><div style=""display: flex; justify-content: space-between; margin-top: 33px;""><img src=""images/choice_trial_7.png"" style=""width: 408px; height: 417px; margin-right: 200px;""><img src=""images/choice_trial_8.png"" style=""width: 408px; height: 417px;""></div></div>","j","delaylearn","learning","trial","6160717242827a64a55d99ad","cf95ogMkC1g7Xxn99r3ZGcpGLdv1","1","images/choice_trial_7.png","images/choice_trial_8.png","images/pattern_4.png","f","f","7000","7","8","3","0","11","0","0","8","70","","","","",""
"html-keyboard-response","58","109634","0.0-26.0-1.0","","null","<div style=""display: flex; flex-direction: column; align-items: center; margin-top: -40px;""><img src=""images/pattern_4.png"" style=""width: 234px; height: 230px; margin-top: -50px;""><div style=""display: flex; justify-content: space-between; margin-top: 33px;""><img src=""images/choice_trial_8.png"" style=""width: 408px; height: 417px; margin-left:608px;""></div></div>","null","delaylearn","learning","display_response","6160717242827a64a55d99ad","cf95ogMkC1g7Xxn99r3ZGcpGLdv1","","","","","","","","","","","","","","","","","chosen stimuli: images/choice_trial_8.png","","","",""
"html-keyboard-response","59","116648","0.0-26.0-2.0","","null","","null","delaylearn","learning","feedback_duration_window","6160717242827a64a55d99ad","cf95ogMkC1g7Xxn99r3ZGcpGLdv1","","","","","","","","","","","","","","","","","","7000","","",""
"html-keyboard-response","60","118156","0.0-26.0-3.0","","null","<div style='margin:auto;width: auto; font-size: 150%'><span style='font-weight: bold; font-size: 100px; color: red;'>0 points!</span><br><br></div>","null","delaylearn","learning","feedback_image_window","6160717242827a64a55d99ad","cf95ogMkC1g7Xxn99r3ZGcpGLdv1","","","","","","","","","","","","","","","","","","","","",""
"html-keyboard-response","61","120621","0.0-27.0","","null","<div style=""font-size:100px;"">+</div>","null","delaylearn","learning","ITI","6160717242827a64a55d99ad","cf95ogMkC1g7Xxn99r3ZGcpGLdv1","","","","","","","","","","","","","","","","","","","2458","",""
"html-keyboard-response","62","122897","0.0-28.0-0.0","","2272.5","<div style=""display: flex; flex-direction: column; align-items: center; margin-top: -40px;""><img src=""images/pattern_5.png"" style=""width: 234px; height: 230px; margin-top: -50px;""><div style=""display: flex; justify-content: space-between; margin-top: 33px;""><img src=""images/choice_trial_10.png"" style=""width: 408px; height: 417px; margin-right: 200px;""><img src=""images/choice_trial_9.png"" style=""width: 408px; height: 417px;""></div></div>","f","delaylearn","learning","trial","6160717242827a64a55d99ad","cf95ogMkC1g7Xxn99r3ZGcpGLdv1","1","images/choice_trial_10.png","images/choice_trial_9.png","images/pattern_5.png","j","j","750","10","9","4","1","12","0","0","10","70","","","","",""
"html-keyboard-response","63","123904","0.0-28.0-1.0","","null","<div style=""display: flex; flex-direction: column; align-items: center; margin-top: -40px;""><img src=""images/pattern_5.png"" style=""width: 234px; height: 230px; margin-top: -50px;""><div style=""display: flex; justify-content: space-between; margin-top: 33px;""><img src=""images/choice_trial_10.png"" style=""width: 408px; height: 417px; margin-right: 608px;""></div></div>","null","delaylearn","learning","display_response","6160717242827a64a55d99ad","cf95ogMkC1g7Xxn99r3ZGcpGLdv1","","","","","","","","","","","","","","","","","chosen stimuli: images/choice_trial_10.png","","","",""
"html-keyboard-response","64","124665","0.0-28.0-2.0","","null","","null","delaylearn","learning","feedback_duration_window","6160717242827a64a55d99ad","cf95ogMkC1g7Xxn99r3ZGcpGLdv1","","","","","","","","","","","","","","","","","","750","","",""
"html-keyboard-response","65","126175","0.0-28.0-3.0","","null","<div style='margin:auto;width: auto; font-size: 150%'><span style='font-weight: bold; font-size: 100px; color: red;'>0 points!</span><br><br></div>","null","delaylearn","learning","feedback_image_window","6160717242827a64a55d99ad","cf95ogMkC1g7Xxn99r3ZGcpGLdv1","","","","","","","","","","","","","","","","","","","","",""
"html-keyboard-response","66","128646","0.0-29.0","","null","<div style=""font-size:100px;"">+</div>","null","delaylearn","learning","ITI","6160717242827a64a55d99ad","cf95ogMkC1g7Xxn99r3ZGcpGLdv1","","","","","","","","","","","","","","","","","","","2464","",""
"html-keyboard-response","67","130745","0.0-30.0-0.0","","2097.5","<div style=""display: flex; flex-direction: column; align-items: center; margin-top: -40px;""><img src=""images/pattern_6.png"" style=""width: 234px; height: 230px; margin-top: -50px;""><div style=""display: flex; justify-content: space-between; margin-top: 33px;""><img src=""images/choice_trial_11.png"" style=""width: 408px; height: 417px; margin-right: 200px;""><img src=""images/choice_trial_12.png"" style=""width: 408px; height: 417px;""></div></div>","f","delaylearn","learning","trial","6160717242827a64a55d99ad","cf95ogMkC1g7Xxn99r3ZGcpGLdv1","1","images/choice_trial_11.png","images/choice_trial_12.png","images/pattern_6.png","j","f","750","11","12","5","0","13","1","0","11","70","","","","",""
"html-keyboard-response","68","131751","0.0-30.0-1.0","","null","<div style=""display: flex; flex-direction: column; align-items: center; margin-top: -40px;""><img src=""images/pattern_6.png"" style=""width: 234px; height: 230px; margin-top: -50px;""><div style=""display: flex; justify-content: space-between; margin-top: 33px;""><img src=""images/choice_trial_11.png"" style=""width: 408px; height: 417px; margin-right: 608px;""></div></div>","null","delaylearn","learning","display_response","6160717242827a64a55d99ad","cf95ogMkC1g7Xxn99r3ZGcpGLdv1","","","","","","","","","","","","","","","","","chosen stimuli: images/choice_trial_11.png","","","",""
"html-keyboard-response","69","132511","0.0-30.0-2.0","","null","","null","delaylearn","learning","feedback_duration_window","6160717242827a64a55d99ad","cf95ogMkC1g7Xxn99r3ZGcpGLdv1","","","","","","","","","","","","","","","","","","750","","",""
"html-keyboard-response","70","134022","0.0-30.0-3.0","","null","<div style='margin:auto;width: auto; font-size: 150%'><span style='font-weight: bold; font-size: 100px; color: red;'>0 points!</span><br><br></div>","null","delaylearn","learning","feedback_image_window","6160717242827a64a55d99ad","cf95ogMkC1g7Xxn99r3ZGcpGLdv1","","","","","","","","","","","","","","","","","","","","",""
"html-keyboard-response","71","134537","0.0-31.0-0.0","","null","","null","","","mood_trial_fixation","","","","","","","","","","","","","","","","","","","","","","",""
"lmdlab-html-vas-response","72","138724","0.0-31.0-1.0","","3175","How happy are you right now?","0.33605803567118536","delaylearn","learning","mood_trial","6160717242827a64a55d99ad","cf95ogMkC1g7Xxn99r3ZGcpGLdv1","","","","","","","","","","","","","","","","","","","","[""Very unhappy"",""Very happy""]",""
"html-keyboard-response","73","140292","0.0-32.0","","null","<div style=""font-size:100px;"">+</div>","null","delaylearn","learning","ITI","6160717242827a64a55d99ad","cf95ogMkC1g7Xxn99r3ZGcpGLdv1","","","","","","","","","","","","","","","","","","","1553","",""
"html-keyboard-response","74","141840","0.0-33.0-0.0","","1545.4000000953674","<div style=""display: flex; flex-direction: column; align-items: center; margin-top: -40px;""><img src=""images/pattern_1.png"" style=""width: 234px; height: 230px; margin-top: -50px;""><div style=""display: flex; justify-content: space-between; margin-top: 33px;""><img src=""images/choice_trial_2.png"" style=""width: 408px; height: 417px; margin-right: 200px;""><img src=""images/choice_trial_1.png"" style=""width: 408px; height: 417px;""></div></div>","j","delaylearn","learning","trial","6160717242827a64a55d99ad","cf95ogMkC1g7Xxn99r3ZGcpGLdv1","1","images/choice_trial_2.png","images/choice_trial_1.png","images/pattern_1.png","j","j","7000","2","1","1","1","14","1","1","1","80","","","","",""
"html-keyboard-response","75","142845","0.0-33.0-1.0","","null","<div style=""display: flex; flex-direction: column; align-items: center; margin-top: -40px;""><img src=""images/pattern_1.png"" style=""width: 234px; height: 230px; margin-top: -50px;""><div style=""display: flex; justify-content: space-between; margin-top: 33px;""><img src=""images/choice_trial_1.png"" style=""width: 408px; height: 417px; margin-left:608px;""></div></div>","null","delaylearn","learning","display_response","6160717242827a64a55d99ad","cf95ogMkC1g7Xxn99r3ZGcpGLdv1","","","","","","","","","","","","","","","","","chosen stimuli: images/choice_trial_1.png","","","",""
"html-keyboard-response","76","149857","0.0-33.0-2.0","","null","","null","delaylearn","learning","feedback_duration_window","6160717242827a64a55d99ad","cf95ogMkC1g7Xxn99r3ZGcpGLdv1","","","","","","","","","","","","","","","","","","7000","","",""
"html-keyboard-response","77","151368","0.0-33.0-3.0","","null","<div style='margin:auto;width: auto; font-size: 150%'><span style='font-weight: bold; font-size: 100px; color: green;'>+10 points!</span><br><br></div>","null","delaylearn","learning","feedback_image_window","6160717242827a64a55d99ad","cf95ogMkC1g7Xxn99r3ZGcpGLdv1","","","","","","","","","","","","","","","","","","","","",""
"html-keyboard-response","78","153547","0.0-34.0","","null","<div style=""font-size:100px;"">+</div>","null","delaylearn","learning","ITI","6160717242827a64a55d99ad","cf95ogMkC1g7Xxn99r3ZGcpGLdv1","","","","","","","","","","","","","","","","","","","2171","",""
"html-keyboard-response","79","156351","0.0-35.0-0.0","","2800.800000190735","<div style=""display: flex; flex-direction: column; align-items: center; margin-top: -40px;""><img src=""images/pattern_3.png"" style=""width: 234px; height: 230px; margin-top: -50px;""><div style=""display: flex; justify-content: space-between; margin-top: 33px;""><img src=""images/choice_trial_6.png"" style=""width: 408px; height: 417px; margin-right: 200px;""><img src=""images/choice_trial_5.png"" style=""width: 408px; height: 417px;""></div></div>","j","delaylearn","learning","trial","6160717242827a64a55d99ad","cf95ogMkC1g7Xxn99r3ZGcpGLdv1","1","images/choice_trial_6.png","images/choice_trial_5.png","images/pattern_3.png","f","j","7000","6","5","2","1","15","1","0","5","80","","","","",""
"html-keyboard-response","80","157358","0.0-35.0-1.0","","null","<div style=""display: flex; flex-direction: column; align-items: center; margin-top: -40px;""><img src=""images/pattern_3.png"" style=""width: 234px; height: 230px; margin-top: -50px;""><div style=""display: flex; justify-content: space-between; margin-top: 33px;""><img src=""images/choice_trial_5.png"" style=""width: 408px; height: 417px; margin-left:608px;""></div></div>","null","delaylearn","learning","display_response","6160717242827a64a55d99ad","cf95ogMkC1g7Xxn99r3ZGcpGLdv1","","","","","","","","","","","","","","","","","chosen stimuli: images/choice_trial_5.png","","","",""
"html-keyboard-response","81","164361","0.0-35.0-2.0","","null","","null","delaylearn","learning","feedback_duration_window","6160717242827a64a55d99ad","cf95ogMkC1g7Xxn99r3ZGcpGLdv1","","","","","","","","","","","","","","","","","","7000","","",""
"html-keyboard-response","82","165874","0.0-35.0-3.0","","null","<div style='margin:auto;width: auto; font-size: 150%'><span style='font-weight: bold; font-size: 100px; color: red;'>0 points!</span><br><br></div>","null","delaylearn","learning","feedback_image_window","6160717242827a64a55d99ad","cf95ogMkC1g7Xxn99r3ZGcpGLdv1","","","","","","","","","","","","","","","","","","","","",""
"html-keyboard-response","83","168019","0.0-36.0","","null","<div style=""font-size:100px;"">+</div>","null","delaylearn","learning","ITI","6160717242827a64a55d99ad","cf95ogMkC1g7Xxn99r3ZGcpGLdv1","","","","","","","","","","","","","","","","","","","2132","",""
"html-keyboard-response","84","171034","0.0-37.0-0.0","","null","<div style=""display: flex; flex-direction: column; align-items: center; margin-top: -40px;""><img src=""images/pattern_5.png"" style=""width: 234px; height: 230px; margin-top: -50px;""><div style=""display: flex; justify-content: space-between; margin-top: 33px;""><img src=""images/choice_trial_9.png"" style=""width: 408px; height: 417px; margin-right: 200px;""><img src=""images/choice_trial_10.png"" style=""width: 408px; height: 417px;""></div></div>","null","delaylearn","learning","trial","6160717242827a64a55d99ad","cf95ogMkC1g7Xxn99r3ZGcpGLdv1","1","images/choice_trial_9.png","images/choice_trial_10.png","images/pattern_5.png","f","f","750","9","10","4","0","16","0","0","0","80","","","","",""
"html-keyboard-response","85","172051","0.0-37.0-1.0","","null","<div style='font-weight: bold; font-size: 75px; color: red;'>Missed Trial <br><br><br><br> Please respond faster</div>","null","delaylearn","learning","display_response","6160717242827a64a55d99ad","cf95ogMkC1g7Xxn99r3ZGcpGLdv1","","","","","","","","","","","","","","","","","Missed trial","","","",""
"html-keyboard-response","86","172056","0.0-37.0-2.0","","null","","null","delaylearn","learning","feedback_duration_window","6160717242827a64a55d99ad","cf95ogMkC1g7Xxn99r3ZGcpGLdv1","","","","","","","","","","","","","","","","","","0","","",""
"html-keyboard-response","87","172062","0.0-37.0-3.0","","null","","null","delaylearn","learning","feedback_image_window","6160717242827a64a55d99ad","cf95ogMkC1g7Xxn99r3ZGcpGLdv1","","","","","","","","","","","","","","","","","","","","",""
"html-keyboard-response","88","172578","0.0-38.0-0.0","","null","","null","","","mood_trial_fixation","","","","","","","","","","","","","","","","","","","","","","",""
"lmdlab-html-vas-response","89","176119","0.0-38.0-1.0","","2523","How happy are you right now?","0.4132185258644704","delaylearn","learning","mood_trial","6160717242827a64a55d99ad","cf95ogMkC1g7Xxn99r3ZGcpGLdv1","","","","","","","","","","","","","","","","","","","","[""Very unhappy"",""Very happy""]",""
"html-keyboard-response","90","177801","0.0-39.0","","null","<div style=""font-size:100px;"">+</div>","null","delaylearn","learning","ITI","6160717242827a64a55d99ad","cf95ogMkC1g7Xxn99r3ZGcpGLdv1","","","","","","","","","","","","","","","","","","","1672","",""
"html-keyboard-response","91","179638","0.0-40.0-0.0","","1834.5","<div style=""display: flex; flex-direction: column; align-items: center; margin-top: -40px;""><img src=""images/pattern_6.png"" style=""width: 234px; height: 230px; margin-top: -50px;""><div style=""display: flex; justify-content: space-between; margin-top: 33px;""><img src=""images/choice_trial_11.png"" style=""width: 408px; height: 417px; margin-right: 200px;""><img src=""images/choice_trial_12.png"" style=""width: 408px; height: 417px;""></div></div>","f","delaylearn","learning","trial","6160717242827a64a55d99ad","cf95ogMkC1g7Xxn99r3ZGcpGLdv1","1","images/choice_trial_11.png","images/choice_trial_12.png","images/pattern_6.png","f","f","750","11","12","5","0","17","1","1","11","90","","","","",""
"html-keyboard-response","92","180655","0.0-40.0-1.0","","null","<div style=""display: flex; flex-direction: column; align-items: center; margin-top: -40px;""><img src=""images/pattern_6.png"" style=""width: 234px; height: 230px; margin-top: -50px;""><div style=""display: flex; justify-content: space-between; margin-top: 33px;""><img src=""images/choice_trial_11.png"" style=""width: 408px; height: 417px; margin-right: 608px;""></div></div>","null","delaylearn","learning","display_response","6160717242827a64a55d99ad","cf95ogMkC1g7Xxn99r3ZGcpGLdv1","","","","","","","","","","","","","","","","","chosen stimuli: images/choice_trial_11.png","","","",""
"html-keyboard-response","93","181421","0.0-40.0-2.0","","null","","null","delaylearn","learning","feedback_duration_window","6160717242827a64a55d99ad","cf95ogMkC1g7Xxn99r3ZGcpGLdv1","","","","","","","","","","","","","","","","","","750","","",""
"html-keyboard-response","94","182928","0.0-40.0-3.0","","null","<div style='margin:auto;width: auto; font-size: 150%'><span style='font-weight: bold; font-size: 100px; color: green;'>+10 points!</span><br><br></div>","null","delaylearn","learning","feedback_image_window","6160717242827a64a55d99ad","cf95ogMkC1g7Xxn99r3ZGcpGLdv1","","","","","","","","","","","","","","","","","","","","",""
"html-keyboard-response","95","184978","0.0-41.0","","null","<div style=""font-size:100px;"">+</div>","null","delaylearn","learning","ITI","6160717242827a64a55d99ad","cf95ogMkC1g7Xxn99r3ZGcpGLdv1","","","","","","","","","","","","","","","","","","","2046","",""
"html-keyboard-response","96","186361","0.0-42.0-0.0","","1379.4000000953674","<div style=""display: flex; flex-direction: column; align-items: center; margin-top: -40px;""><img src=""images/pattern_4.png"" style=""width: 234px; height: 230px; margin-top: -50px;""><div style=""display: flex; justify-content: space-between; margin-top: 33px;""><img src=""images/choice_trial_8.png"" style=""width: 408px; height: 417px; margin-right: 200px;""><img src=""images/choice_trial_7.png"" style=""width: 408px; height: 417px;""></div></div>","j","delaylearn","learning","trial","6160717242827a64a55d99ad","cf95ogMkC1g7Xxn99r3ZGcpGLdv1","1","images/choice_trial_8.png","images/choice_trial_7.png","images/pattern_4.png","j","j","7000","8","7","3","1","18","1","1","7","100","","","","",""
"html-keyboard-response","97","187375","0.0-42.0-1.0","","null","<div style=""display: flex; flex-direction: column; align-items: center; margin-top: -40px;""><img src=""images/pattern_4.png"" style=""width: 234px; height: 230px; margin-top: -50px;""><div style=""display: flex; justify-content: space-between; margin-top: 33px;""><img src=""images/choice_trial_7.png"" style=""width: 408px; height: 417px; margin-left:608px;""></div></div>","null","delaylearn","learning","display_response","6160717242827a64a55d99ad","cf95ogMkC1g7Xxn99r3ZGcpGLdv1","","","","","","","","","","","","","","","","","chosen stimuli: images/choice_trial_7.png","","","",""
"html-keyboard-response","98","194379","0.0-42.0-2.0","","null","","null","delaylearn","learning","feedback_duration_window","6160717242827a64a55d99ad","cf95ogMkC1g7Xxn99r3ZGcpGLdv1","","","","","","","","","","","","","","","","","","7000","","",""
"html-keyboard-response","99","195881","0.0-42.0-3.0","","null","<div style='margin:auto;width: auto; font-size: 150%'><span style='font-weight: bold; font-size: 100px; color: green;'>+10 points!</span><br><br></div>","null","delaylearn","learning","feedback_image_window","6160717242827a64a55d99ad","cf95ogMkC1g7Xxn99r3ZGcpGLdv1","","","","","","","","","","","","","","","","","","","","",""
"html-keyboard-response","100","197831","0.0-43.0","","null","<div style=""font-size:100px;"">+</div>","null","delaylearn","learning","ITI","6160717242827a64a55d99ad","cf95ogMkC1g7Xxn99r3ZGcpGLdv1","","","","","","","","","","","","","","","","","","","1941","",""
"html-keyboard-response","101","199782","0.0-44.0-0.0","","1948.0999999046326","<div style=""display: flex; flex-direction: column; align-items: center; margin-top: -40px;""><img src=""images/pattern_7.png"" style=""width: 234px; height: 230px; margin-top: -50px;""><div style=""display: flex; justify-content: space-between; margin-top: 33px;""><img src=""images/choice_trial_13.png"" style=""width: 408px; height: 417px; margin-right: 200px;""><img src=""images/choice_trial_14.png"" style=""width: 408px; height: 417px;""></div></div>","f","delaylearn","learning","trial","6160717242827a64a55d99ad","cf95ogMkC1g7Xxn99r3ZGcpGLdv1","1","images/choice_trial_13.png","images/choice_trial_14.png","images/pattern_7.png","j","f","750","13","14","6","0","19","1","0","13","100","","","","",""
"html-keyboard-response","102","200796","0.0-44.0-1.0","","null","<div style=""display: flex; flex-direction: column; align-items: center; margin-top: -40px;""><img src=""images/pattern_7.png"" style=""width: 234px; height: 230px; margin-top: -50px;""><div style=""display: flex; justify-content: space-between; margin-top: 33px;""><img src=""images/choice_trial_13.png"" style=""width: 408px; height: 417px; margin-right: 608px;""></div></div>","null","delaylearn","learning","display_response","6160717242827a64a55d99ad","cf95ogMkC1g7Xxn99r3ZGcpGLdv1","","","","","","","","","","","","","","","","","chosen stimuli: images/choice_trial_13.png","","","",""
"html-keyboard-response","103","201558","0.0-44.0-2.0","","null","","null","delaylearn","learning","feedback_duration_window","6160717242827a64a55d99ad","cf95ogMkC1g7Xxn99r3ZGcpGLdv1","","","","","","","","","","","","","","","","","","750","","",""
"html-keyboard-response","104","203070","0.0-44.0-3.0","","null","<div style='margin:auto;width: auto; font-size: 150%'><span style='font-weight: bold; font-size: 100px; color: red;'>0 points!</span><br><br></div>","null","delaylearn","learning","feedback_image_window","6160717242827a64a55d99ad","cf95ogMkC1g7Xxn99r3ZGcpGLdv1","","","","","","","","","","","","","","","","","","","","",""
"html-keyboard-response","105","205340","0.0-45.0","","null","<div style=""font-size:100px;"">+</div>","null","delaylearn","learning","ITI","6160717242827a64a55d99ad","cf95ogMkC1g7Xxn99r3ZGcpGLdv1","","","","","","","","","","","","","","","","","","","2255","",""
"html-keyboard-response","106","206980","0.0-46.0-0.0","","1637.1999998092651","<div style=""display: flex; flex-direction: column; align-items: center; margin-top: -40px;""><img src=""images/pattern_1.png"" style=""width: 234px; height: 230px; margin-top: -50px;""><div style=""display: flex; justify-content: space-between; margin-top: 33px;""><img src=""images/choice_trial_1.png"" style=""width: 408px; height: 417px; margin-right: 200px;""><img src=""images/choice_trial_2.png"" style=""width: 408px; height: 417px;""></div></div>","j","delaylearn","learning","trial","6160717242827a64a55d99ad","cf95ogMkC1g7Xxn99r3ZGcpGLdv1","1","images/choice_trial_1.png","images/choice_trial_2.png","images/pattern_1.png","f","f","7000","1","2","1","0","20","0","0","2","100","","","","",""
"html-keyboard-response","107","207998","0.0-46.0-1.0","","null","<div style=""display: flex; flex-direction: column; align-items: center; margin-top: -40px;""><img src=""images/pattern_1.png"" style=""width: 234px; height: 230px; margin-top: -50px;""><div style=""display: flex; justify-content: space-between; margin-top: 33px;""><img src=""images/choice_trial_2.png"" style=""width: 408px; height: 417px; margin-left:608px;""></div></div>","null","delaylearn","learning","display_response","6160717242827a64a55d99ad","cf95ogMkC1g7Xxn99r3ZGcpGLdv1","","","","","","","","","","","","","","","","","chosen stimuli: images/choice_trial_2.png","","","",""
"html-keyboard-response","108","215010","0.0-46.0-2.0","","null","","null","delaylearn","learning","feedback_duration_window","6160717242827a64a55d99ad","cf95ogMkC1g7Xxn99r3ZGcpGLdv1","","","","","","","","","","","","","","","","","","7000","","",""
"html-keyboard-response","109","216524","0.0-46.0-3.0","","null","<div style='margin:auto;width: auto; font-size: 150%'><span style='font-weight: bold; font-size: 100px; color: red;'>0 points!</span><br><br></div>","null","delaylearn","learning","feedback_image_window","6160717242827a64a55d99ad","cf95ogMkC1g7Xxn99r3ZGcpGLdv1","","","","","","","","","","","","","","","","","","","","",""
"html-keyboard-response","110","218217","0.0-47.0","","null","<div style=""font-size:100px;"">+</div>","null","delaylearn","learning","ITI","6160717242827a64a55d99ad","cf95ogMkC1g7Xxn99r3ZGcpGLdv1","","","","","","","","","","","","","","","","","","","1676","",""
"html-keyboard-response","111","220626","0.0-48.0-0.0","","2405.2000002861023","<div style=""display: flex; flex-direction: column; align-items: center; margin-top: -40px;""><img src=""images/pattern_6.png"" style=""width: 234px; height: 230px; margin-top: -50px;""><div style=""display: flex; justify-content: space-between; margin-top: 33px;""><img src=""images/choice_trial_12.png"" style=""width: 408px; height: 417px; margin-right: 200px;""><img src=""images/choice_trial_11.png"" style=""width: 408px; height: 417px;""></div></div>","j","delaylearn","learning","trial","6160717242827a64a55d99ad","cf95ogMkC1g7Xxn99r3ZGcpGLdv1","1","images/choice_trial_12.png","images/choice_trial_11.png","images/pattern_6.png","j","j","750","12","11","5","1","21","1","1","11","110","","","","",""
"html-keyboard-response","112","221640","0.0-48.0-1.0","","null","<div style=""display: flex; flex-direction: column; align-items: center; margin-top: -40px;""><img src=""images/pattern_6.png"" style=""width: 234px; height: 230px; margin-top: -50px;""><div style=""display: flex; justify-content: space-between; margin-top: 33px;""><img src=""images/choice_trial_11.png"" style=""width: 408px; height: 417px; margin-left:608px;""></div></div>","null","delaylearn","learning","display_response","6160717242827a64a55d99ad","cf95ogMkC1g7Xxn99r3ZGcpGLdv1","","","","","","","","","","","","","","","","","chosen stimuli: images/choice_trial_11.png","","","",""
"html-keyboard-response","113","222399","0.0-48.0-2.0","","null","","null","delaylearn","learning","feedback_duration_window","6160717242827a64a55d99ad","cf95ogMkC1g7Xxn99r3ZGcpGLdv1","","","","","","","","","","","","","","","","","","750","","",""
"html-keyboard-response","114","223909","0.0-48.0-3.0","","null","<div style='margin:auto;width: auto; font-size: 150%'><span style='font-weight: bold; font-size: 100px; color: green;'>+10 points!</span><br><br></div>","null","delaylearn","learning","feedback_image_window","6160717242827a64a55d99ad","cf95ogMkC1g7Xxn99r3ZGcpGLdv1","","","","","","","","","","","","","","","","","","","","",""
"html-keyboard-response","115","226147","0.0-49.0","","null","<div style=""font-size:100px;"">+</div>","null","delaylearn","learning","ITI","6160717242827a64a55d99ad","cf95ogMkC1g7Xxn99r3ZGcpGLdv1","","","","","","","","","","","","","","","","","","","2223","",""
"html-keyboard-response","116","227874","0.0-50.0-0.0","","1724","<div style=""display: flex; flex-direction: column; align-items: center; margin-top: -40px;""><img src=""images/pattern_4.png"" style=""width: 234px; height: 230px; margin-top: -50px;""><div style=""display: flex; justify-content: space-between; margin-top: 33px;""><img src=""images/choice_trial_7.png"" style=""width: 408px; height: 417px; margin-right: 200px;""><img src=""images/choice_trial_8.png"" style=""width: 408px; height: 417px;""></div></div>","j","delaylearn","learning","trial","6160717242827a64a55d99ad","cf95ogMkC1g7Xxn99r3ZGcpGLdv1","1","images/choice_trial_7.png","images/choice_trial_8.png","images/pattern_4.png","f","f","7000","7","8","3","0","22","0","0","8","110","","","","",""
"html-keyboard-response","117","228891","0.0-50.0-1.0","","null","<div style=""display: flex; flex-direction: column; align-items: center; margin-top: -40px;""><img src=""images/pattern_4.png"" style=""width: 234px; height: 230px; margin-top: -50px;""><div style=""display: flex; justify-content: space-between; margin-top: 33px;""><img src=""images/choice_trial_8.png"" style=""width: 408px; height: 417px; margin-left:608px;""></div></div>","null","delaylearn","learning","display_response","6160717242827a64a55d99ad","cf95ogMkC1g7Xxn99r3ZGcpGLdv1","","","","","","","","","","","","","","","","","chosen stimuli: images/choice_trial_8.png","","","",""
"html-keyboard-response","118","235902","0.0-50.0-2.0","","null","","null","delaylearn","learning","feedback_duration_window","6160717242827a64a55d99ad","cf95ogMkC1g7Xxn99r3ZGcpGLdv1","","","","","","","","","","","","","","","","","","7000","","",""
"html-keyboard-response","119","237415","0.0-50.0-3.0","","null","<div style='margin:auto;width: auto; font-size: 150%'><span style='font-weight: bold; font-size: 100px; color: red;'>0 points!</span><br><br></div>","null","delaylearn","learning","feedback_image_window","6160717242827a64a55d99ad","cf95ogMkC1g7Xxn99r3ZGcpGLdv1","","","","","","","","","","","","","","","","","","","","",""
"html-keyboard-response","120","237930","0.0-51.0-0.0","","null","","null","","","mood_trial_fixation","","","","","","","","","","","","","","","","","","","","","","",""
"lmdlab-html-vas-response","121","242914","0.0-51.0-1.0","","3966","How happy are you right now?","0.30712285184870347","delaylearn","learning","mood_trial","6160717242827a64a55d99ad","cf95ogMkC1g7Xxn99r3ZGcpGLdv1","","","","","","","","","","","","","","","","","","","","[""Very unhappy"",""Very happy""]",""
"html-keyboard-response","122","245062","0.0-52.0","","null","<div style=""font-size:100px;"">+</div>","null","delaylearn","learning","ITI","6160717242827a64a55d99ad","cf95ogMkC1g7Xxn99r3ZGcpGLdv1","","","","","","","","","","","","","","","","","","","2135","",""
"html-keyboard-response","123","248082","0.0-53.0-0.0","","null","<div style=""display: flex; flex-direction: column; align-items: center; margin-top: -40px;""><img src=""images/pattern_7.png"" style=""width: 234px; height: 230px; margin-top: -50px;""><div style=""display: flex; justify-content: space-between; margin-top: 33px;""><img src=""images/choice_trial_14.png"" style=""width: 408px; height: 417px; margin-right: 200px;""><img src=""images/choice_trial_13.png"" style=""width: 408px; height: 417px;""></div></div>","null","delaylearn","learning","trial","6160717242827a64a55d99ad","cf95ogMkC1g7Xxn99r3ZGcpGLdv1","1","images/choice_trial_14.png","images/choice_trial_13.png","images/pattern_7.png","j","j","750","14","13","6","1","23","0","0","0","110","","","","",""
"html-keyboard-response","124","249088","0.0-53.0-1.0","","null","<div style='font-weight: bold; font-size: 75px; color: red;'>Missed Trial <br><br><br><br> Please respond faster</div>","null","delaylearn","learning","display_response","6160717242827a64a55d99ad","cf95ogMkC1g7Xxn99r3ZGcpGLdv1","","","","","","","","","","","","","","","","","Missed trial","","","",""
"html-keyboard-response","125","249094","0.0-53.0-2.0","","null","","null","delaylearn","learning","feedback_duration_window","6160717242827a64a55d99ad","cf95ogMkC1g7Xxn99r3ZGcpGLdv1","","","","","","","","","","","","","","","","","","0","","",""
"html-keyboard-response","126","249100","0.0-53.0-3.0","","null","","null","delaylearn","learning","feedback_image_window","6160717242827a64a55d99ad","cf95ogMkC1g7Xxn99r3ZGcpGLdv1","","","","","","","","","","","","","","","","","","","","",""
"html-keyboard-response","127","251168","0.0-54.0","","null","<div style=""font-size:100px;"">+</div>","null","delaylearn","learning","ITI","6160717242827a64a55d99ad","cf95ogMkC1g7Xxn99r3ZGcpGLdv1","","","","","","","","","","","","","","","","","","","2054","",""
"html-keyboard-response","128","252603","0.0-55.0-0.0","","1431.6999998092651","<div style=""display: flex; flex-direction: column; align-items: center; margin-top: -40px;""><img src=""images/pattern_1.png"" style=""width: 234px; height: 230px; margin-top: -50px;""><div style=""display: flex; justify-content: space-between; margin-top: 33px;""><img src=""images/choice_trial_2.png"" style=""width: 408px; height: 417px; margin-right: 200px;""><img src=""images/choice_trial_1.png"" style=""width: 408px; height: 417px;""></div></div>","j","delaylearn","learning","trial","6160717242827a64a55d99ad","cf95ogMkC1g7Xxn99r3ZGcpGLdv1","1","images/choice_trial_2.png","images/choice_trial_1.png","images/pattern_1.png","f","j","7000","2","1","1","1","24","1","0","1","110","","","","",""
"html-keyboard-response","129","253611","0.0-55.0-1.0","","null","<div style=""display: flex; flex-direction: column; align-items: center; margin-top: -40px;""><img src=""images/pattern_1.png"" style=""width: 234px; height: 230px; margin-top: -50px;""><div style=""display: flex; justify-content: space-between; margin-top: 33px;""><img src=""images/choice_trial_1.png"" style=""width: 408px; height: 417px; margin-left:608px;""></div></div>","null","delaylearn","learning","display_response","6160717242827a64a55d99ad","cf95ogMkC1g7Xxn99r3ZGcpGLdv1","","","","","","","","","","","","","","","","","chosen stimuli: images/choice_trial_1.png","","","",""
"html-keyboard-response","130","260624","0.0-55.0-2.0","","null","","null","delaylearn","learning","feedback_duration_window","6160717242827a64a55d99ad","cf95ogMkC1g7Xxn99r3ZGcpGLdv1","","","","","","","","","","","","","","","","","","7000","","",""
"html-keyboard-response","131","262131","0.0-55.0-3.0","","null","<div style='margin:auto;width: auto; font-size: 150%'><span style='font-weight: bold; font-size: 100px; color: red;'>0 points!</span><br><br></div>","null","delaylearn","learning","feedback_image_window","6160717242827a64a55d99ad","cf95ogMkC1g7Xxn99r3ZGcpGLdv1","","","","","","","","","","","","","","","","","","","","",""
"html-keyboard-response","132","264224","0.0-56.0","","null","<div style=""font-size:100px;"">+</div>","null","delaylearn","learning","ITI","6160717242827a64a55d99ad","cf95ogMkC1g7Xxn99r3ZGcpGLdv1","","","","","","","","","","","","","","","","","","","2088","",""
"html-keyboard-response","133","265585","0.0-57.0-0.0","","1357.4000000953674","<div style=""display: flex; flex-direction: column; align-items: center; margin-top: -40px;""><img src=""images/pattern_5.png"" style=""width: 234px; height: 230px; margin-top: -50px;""><div style=""display: flex; justify-content: space-between; margin-top: 33px;""><img src=""images/choice_trial_10.png"" style=""width: 408px; height: 417px; margin-right: 200px;""><img src=""images/choice_trial_9.png"" style=""width: 408px; height: 417px;""></div></div>","f","delaylearn","learning","trial","6160717242827a64a55d99ad","cf95ogMkC1g7Xxn99r3ZGcpGLdv1","1","images/choice_trial_10.png","images/choice_trial_9.png","images/pattern_5.png","j","j","750","10","9","4","1","25","0","0","10","110","","","","",""
"html-keyboard-response","134","266597","0.0-57.0-1.0","","null","<div style=""display: flex; flex-direction: column; align-items: center; margin-top: -40px;""><img src=""images/pattern_5.png"" style=""width: 234px; height: 230px; margin-top: -50px;""><div style=""display: flex; justify-content: space-between; margin-top: 33px;""><img src=""images/choice_trial_10.png"" style=""width: 408px; height: 417px; margin-right: 608px;""></div></div>","null","delaylearn","learning","display_response","6160717242827a64a55d99ad","cf95ogMkC1g7Xxn99r3ZGcpGLdv1","","","","","","","","","","","","","","","","","chosen stimuli: images/choice_trial_10.png","","","",""
"html-keyboard-response","135","267358","0.0-57.0-2.0","","null","","null","delaylearn","learning","feedback_duration_window","6160717242827a64a55d99ad","cf95ogMkC1g7Xxn99r3ZGcpGLdv1","","","","","","","","","","","","","","","","","","750","","",""
"html-keyboard-response","136","268870","0.0-57.0-3.0","","null","<div style='margin:auto;width: auto; font-size: 150%'><span style='font-weight: bold; font-size: 100px; color: red;'>0 points!</span><br><br></div>","null","delaylearn","learning","feedback_image_window","6160717242827a64a55d99ad","cf95ogMkC1g7Xxn99r3ZGcpGLdv1","","","","","","","","","","","","","","","","","","","","",""
"html-keyboard-response","137","271014","0.0-58.0","","null","<div style=""font-size:100px;"">+</div>","null","delaylearn","learning","ITI","6160717242827a64a55d99ad","cf95ogMkC1g7Xxn99r3ZGcpGLdv1","","","","","","","","","","","","","","","","","","","2140","",""
"html-keyboard-response","138","272726","0.0-59.0-0.0","","1709","<div style=""display: flex; flex-direction: column; align-items: center; margin-top: -40px;""><img src=""images/pattern_3.png"" style=""width: 234px; height: 230px; margin-top: -50px;""><div style=""display: flex; justify-content: space-between; margin-top: 33px;""><img src=""images/choice_trial_6.png"" style=""width: 408px; height: 417px; margin-right: 200px;""><img src=""images/choice_trial_5.png"" style=""width: 408px; height: 417px;""></div></div>","j","delaylearn","learning","trial","6160717242827a64a55d99ad","cf95ogMkC1g7Xxn99r3ZGcpGLdv1","1","images/choice_trial_6.png","images/choice_trial_5.png","images/pattern_3.png","j","j","7000","6","5","2","1","26","1","1","5","120","","","","",""
"html-keyboard-response","139","273738","0.0-59.0-1.0","","null","<div style=""display: flex; flex-direction: column; align-items: center; margin-top: -40px;""><img src=""images/pattern_3.png"" style=""width: 234px; height: 230px; margin-top: -50px;""><div style=""display: flex; justify-content: space-between; margin-top: 33px;""><img src=""images/choice_trial_5.png"" style=""width: 408px; height: 417px; margin-left:608px;""></div></div>","null","delaylearn","learning","display_response","6160717242827a64a55d99ad","cf95ogMkC1g7Xxn99r3ZGcpGLdv1","","","","","","","","","","","","","","","","","chosen stimuli: images/choice_trial_5.png","","","",""
"html-keyboard-response","140","280744","0.0-59.0-2.0","","null","","null","delaylearn","learning","feedback_duration_window","6160717242827a64a55d99ad","cf95ogMkC1g7Xxn99r3ZGcpGLdv1","","","","","","","","","","","","","","","","","","7000","","",""
"html-keyboard-response","141","282256","0.0-59.0-3.0","","null","<div style='margin:auto;width: auto; font-size: 150%'><span style='font-weight: bold; font-size: 100px; color: green;'>+10 points!</span><br><br></div>","null","delaylearn","learning","feedback_image_window","6160717242827a64a55d99ad","cf95ogMkC1g7Xxn99r3ZGcpGLdv1","","","","","","","","","","","","","","","","","","","","",""
"lmdlab-html-vas-response","142","287864","0.0-60.0-0.0","","4081","*How <b><u>confident</u></b> are you feeling about your answers at this moment?*","0.19907402937740612","rewlearn","rate_confidence","","6160717242827a64a55d99ad","cf95ogMkC1g7Xxn99r3ZGcpGLdv1","","","","","","","","","","","","","","","","","","","","[""No confidence"",""Complete confidence""]",""
"lmdlab-rest-trial-limit","143","293199","0.0-60.0-1.0","","3829","<div style=""font-size:40px;""><b>Please take a break!</b><br><br><br><br><p>Great work: you earned 120 points.<br><br><br><p>You have completed part(s) 1 of 5.<br><br><br><br>When you are ready to continue<br><br><br>please click the button.</p><br><br>","0","delaylearn","learning","break","6160717242827a64a55d99ad","cf95ogMkC1g7Xxn99r3ZGcpGLdv1","","","","","","","","","","","","","","","","","","","","","0"
"html-keyboard-response","144","296205","0.0-60.0-2.0","","null","<div style=""font-size:100px;"">+</div>","null","delaylearn","learning","pre_fixation","6160717242827a64a55d99ad","","","","","","","","","","","","","","","","","","","","","",""
"lmdlab-html-vas-response","145","299848","0.0-60.0-3.0-0.0","","2629","How happy are you right now?","0.3322000111615211","delaylearn","learning","mood_baseline","6160717242827a64a55d99ad","cf95ogMkC1g7Xxn99r3ZGcpGLdv1","","","","","","","","","","","","","","","","","","","","[""Very unhappy"",""Very happy""]",""
"html-keyboard-response","146","301362","0.0-60.0-3.0-1.0","","null","","null","","","mood_baseline_fixation","","","","","","","","","","","","","","","","","","","","","","",""
"html-keyboard-response","147","303815","0.0-61.0","","null","<div style=""font-size:100px;"">+</div>","null","delaylearn","learning","ITI","6160717242827a64a55d99ad","cf95ogMkC1g7Xxn99r3ZGcpGLdv1","","","","","","","","","","","","","","","","","","","2439","",""
"html-keyboard-response","148","305175","0.0-62.0-0.0","","1358.7999997138977","<div style=""display: flex; flex-direction: column; align-items: center; margin-top: -40px;""><img src=""images/pattern_7.png"" style=""width: 234px; height: 230px; margin-top: -50px;""><div style=""display: flex; justify-content: space-between; margin-top: 33px;""><img src=""images/choice_trial_14.png"" style=""width: 408px; height: 417px; margin-right: 200px;""><img src=""images/choice_trial_13.png"" style=""width: 408px; height: 417px;""></div></div>","f","delaylearn","learning","trial","6160717242827a64a55d99ad","cf95ogMkC1g7Xxn99r3ZGcpGLdv1","1","images/choice_trial_14.png","images/choice_trial_13.png","images/pattern_7.png","j","j","750","14","13","6","1","27","0","0","14","120","","","","",""
"html-keyboard-response","149","306179","0.0-62.0-1.0","","null","<div style=""display: flex; flex-direction: column; align-items: center; margin-top: -40px;""><img src=""images/pattern_7.png"" style=""width: 234px; height: 230px; margin-top: -50px;""><div style=""display: flex; justify-content: space-between; margin-top: 33px;""><img src=""images/choice_trial_14.png"" style=""width: 408px; height: 417px; margin-right: 608px;""></div></div>","null","delaylearn","learning","display_response","6160717242827a64a55d99ad","cf95ogMkC1g7Xxn99r3ZGcpGLdv1","","","","","","","","","","","","","","","","","chosen stimuli: images/choice_trial_14.png","","","",""
"html-keyboard-response","150","306945","0.0-62.0-2.0","","null","","null","delaylearn","learning","feedback_duration_window","6160717242827a64a55d99ad","cf95ogMkC1g7Xxn99r3ZGcpGLdv1","","","","","","","","","","","","","","","","","","750","","",""
"html-keyboard-response","151","308456","0.0-62.0-3.0","","null","<div style='margin:auto;width: auto; font-size: 150%'><span style='font-weight: bold; font-size: 100px; color: red;'>0 points!</span><br><br></div>","null","delaylearn","learning","feedback_image_window","6160717242827a64a55d99ad","cf95ogMkC1g7Xxn99r3ZGcpGLdv1","","","","","","","","","","","","","","","","","","","","",""
"html-keyboard-response","152","308966","0.0-63.0-0.0","","null","","null","","","mood_trial_fixation","","","","","","","","","","","","","","","","","","","","","","",""
"lmdlab-html-vas-response","153","312114","0.0-63.0-1.0","","2133","How happy are you right now?","0.33991606018084963","delaylearn","learning","mood_trial","6160717242827a64a55d99ad","cf95ogMkC1g7Xxn99r3ZGcpGLdv1","","","","","","","","","","","","","","","","","","","","[""Very unhappy"",""Very happy""]",""
"html-keyboard-response","154","313816","0.0-64.0","","null","<div style=""font-size:100px;"">+</div>","null","delaylearn","learning","ITI","6160717242827a64a55d99ad","cf95ogMkC1g7Xxn99r3ZGcpGLdv1","","","","","","","","","","","","","","","","","","","1684","",""
"html-keyboard-response","155","315377","0.0-65.0-0.0","","1558.4000000953674","<div style=""display: flex; flex-direction: column; align-items: center; margin-top: -40px;""><img src=""images/pattern_1.png"" style=""width: 234px; height: 230px; margin-top: -50px;""><div style=""display: flex; justify-content: space-between; margin-top: 33px;""><img src=""images/choice_trial_1.png"" style=""width: 408px; height: 417px; margin-right: 200px;""><img src=""images/choice_trial_2.png"" style=""width: 408px; height: 417px;""></div></div>","j","delaylearn","learning","trial","6160717242827a64a55d99ad","cf95ogMkC1g7Xxn99r3ZGcpGLdv1","1","images/choice_trial_1.png","images/choice_trial_2.png","images/pattern_1.png","f","f","7000","1","2","1","0","28","0","0","2","120","","","","",""
"html-keyboard-response","156","316384","0.0-65.0-1.0","","null","<div style=""display: flex; flex-direction: column; align-items: center; margin-top: -40px;""><img src=""images/pattern_1.png"" style=""width: 234px; height: 230px; margin-top: -50px;""><div style=""display: flex; justify-content: space-between; margin-top: 33px;""><img src=""images/choice_trial_2.png"" style=""width: 408px; height: 417px; margin-left:608px;""></div></div>","null","delaylearn","learning","display_response","6160717242827a64a55d99ad","cf95ogMkC1g7Xxn99r3ZGcpGLdv1","","","","","","","","","","","","","","","","","chosen stimuli: images/choice_trial_2.png","","","",""
"html-keyboard-response","157","323386","0.0-65.0-2.0","","null","","null","delaylearn","learning","feedback_duration_window","6160717242827a64a55d99ad","cf95ogMkC1g7Xxn99r3ZGcpGLdv1","","","","","","","","","","","","","","","","","","7000","","",""
"html-keyboard-response","158","324892","0.0-65.0-3.0","","null","<div style='margin:auto;width: auto; font-size: 150%'><span style='font-weight: bold; font-size: 100px; color: red;'>0 points!</span><br><br></div>","null","delaylearn","learning","feedback_image_window","6160717242827a64a55d99ad","cf95ogMkC1g7Xxn99r3ZGcpGLdv1","","","","","","","","","","","","","","","","","","","","",""
"html-keyboard-response","159","326632","0.0-66.0","","null","<div style=""font-size:100px;"">+</div>","null","delaylearn","learning","ITI","6160717242827a64a55d99ad","cf95ogMkC1g7Xxn99r3ZGcpGLdv1","","","","","","","","","","","","","","","","","","","1733","",""
"html-keyboard-response","160","328576","0.0-67.0-0.0","","1941","<div style=""display: flex; flex-direction: column; align-items: center; margin-top: -40px;""><img src=""images/pattern_5.png"" style=""width: 234px; height: 230px; margin-top: -50px;""><div style=""display: flex; justify-content: space-between; margin-top: 33px;""><img src=""images/choice_trial_9.png"" style=""width: 408px; height: 417px; margin-right: 200px;""><img src=""images/choice_trial_10.png"" style=""width: 408px; height: 417px;""></div></div>","f","delaylearn","learning","trial","6160717242827a64a55d99ad","cf95ogMkC1g7Xxn99r3ZGcpGLdv1","1","images/choice_trial_9.png","images/choice_trial_10.png","images/pattern_5.png","f","f","750","9","10","4","0","29","1","1","9","130","","","","",""
"html-keyboard-response","161","329587","0.0-67.0-1.0","","null","<div style=""display: flex; flex-direction: column; align-items: center; margin-top: -40px;""><img src=""images/pattern_5.png"" style=""width: 234px; height: 230px; margin-top: -50px;""><div style=""display: flex; justify-content: space-between; margin-top: 33px;""><img src=""images/choice_trial_9.png"" style=""width: 408px; height: 417px; margin-right: 608px;""></div></div>","null","delaylearn","learning","display_response","6160717242827a64a55d99ad","cf95ogMkC1g7Xxn99r3ZGcpGLdv1","","","","","","","","","","","","","","","","","chosen stimuli: images/choice_trial_9.png","","","",""
"html-keyboard-response","162","330348","0.0-67.0-2.0","","null","","null","delaylearn","learning","feedback_duration_window","6160717242827a64a55d99ad","cf95ogMkC1g7Xxn99r3ZGcpGLdv1","","","","","","","","","","","","","","","","","","750","","",""
"html-keyboard-response","163","331854","0.0-67.0-3.0","","null","<div style='margin:auto;width: auto; font-size: 150%'><span style='font-weight: bold; font-size: 100px; color: green;'>+10 points!</span><br><br></div>","null","delaylearn","learning","feedback_image_window","6160717242827a64a55d99ad","cf95ogMkC1g7Xxn99r3ZGcpGLdv1","","","","","","","","","","","","","","","","","","","","",""
"html-keyboard-response","164","334061","0.0-68.0","","null","<div style=""font-size:100px;"">+</div>","null","delaylearn","learning","ITI","6160717242827a64a55d99ad","cf95ogMkC1g7Xxn99r3ZGcpGLdv1","","","","","","","","","","","","","","","","","","","2191","",""
"html-keyboard-response","165","335256","0.0-69.0-0.0","","1190.3000001907349","<div style=""display: flex; flex-direction: column; align-items: center; margin-top: -40px;""><img src=""images/pattern_6.png"" style=""width: 234px; height: 230px; margin-top: -50px;""><div style=""display: flex; justify-content: space-between; margin-top: 33px;""><img src=""images/choice_trial_12.png"" style=""width: 408px; height: 417px; margin-right: 200px;""><img src=""images/choice_trial_11.png"" style=""width: 408px; height: 417px;""></div></div>","j","delaylearn","learning","trial","6160717242827a64a55d99ad","cf95ogMkC1g7Xxn99r3ZGcpGLdv1","1","images/choice_trial_12.png","images/choice_trial_11.png","images/pattern_6.png","j","j","750","12","11","5","1","30","1","1","11","140","","","","",""
"html-keyboard-response","166","336270","0.0-69.0-1.0","","null","<div style=""display: flex; flex-direction: column; align-items: center; margin-top: -40px;""><img src=""images/pattern_6.png"" style=""width: 234px; height: 230px; margin-top: -50px;""><div style=""display: flex; justify-content: space-between; margin-top: 33px;""><img src=""images/choice_trial_11.png"" style=""width: 408px; height: 417px; margin-left:608px;""></div></div>","null","delaylearn","learning","display_response","6160717242827a64a55d99ad","cf95ogMkC1g7Xxn99r3ZGcpGLdv1","","","","","","","","","","","","","","","","","chosen stimuli: images/choice_trial_11.png","","","",""
"html-keyboard-response","167","337031","0.0-69.0-2.0","","null","","null","delaylearn","learning","feedback_duration_window","6160717242827a64a55d99ad","cf95ogMkC1g7Xxn99r3ZGcpGLdv1","","","","","","","","","","","","","","","","","","750","","",""
"html-keyboard-response","168","338545","0.0-69.0-3.0","","null","<div style='margin:auto;width: auto; font-size: 150%'><span style='font-weight: bold; font-size: 100px; color: green;'>+10 points!</span><br><br></div>","null","delaylearn","learning","feedback_image_window","6160717242827a64a55d99ad","cf95ogMkC1g7Xxn99r3ZGcpGLdv1","","","","","","","","","","","","","","","","","","","","",""
"html-keyboard-response","169","339060","0.0-70.0-0.0","","null","","null","","","mood_trial_fixation","","","","","","","","","","","","","","","","","","","","","","",""
"lmdlab-html-vas-response","170","342634","0.0-70.0-1.0","","2557","How happy are you right now?","0.4942370405674197","delaylearn","learning","mood_trial","6160717242827a64a55d99ad","cf95ogMkC1g7Xxn99r3ZGcpGLdv1","","","","","","","","","","","","","","","","","","","","[""Very unhappy"",""Very happy""]",""
"html-keyboard-response","171","344704","0.0-71.0","","null","<div style=""font-size:100px;"">+</div>","null","delaylearn","learning","ITI","6160717242827a64a55d99ad","cf95ogMkC1g7Xxn99r3ZGcpGLdv1","","","","","","","","","","","","","","","","","","","2059","",""
"html-keyboard-response","172","346794","0.0-72.0-0.0","","2085.9000000953674","<div style=""display: flex; flex-direction: column; align-items: center; margin-top: -40px;""><img src=""images/pattern_4.png"" style=""width: 234px; height: 230px; margin-top: -50px;""><div style=""display: flex; justify-content: space-between; margin-top: 33px;""><img src=""images/choice_trial_8.png"" style=""width: 408px; height: 417px; margin-right: 200px;""><img src=""images/choice_trial_7.png"" style=""width: 408px; height: 417px;""></div></div>","f","delaylearn","learning","trial","6160717242827a64a55d99ad","cf95ogMkC1g7Xxn99r3ZGcpGLdv1","1","images/choice_trial_8.png","images/choice_trial_7.png","images/pattern_4.png","j","j","7000","8","7","3","1","31","0","0","8","140","","","","",""
"html-keyboard-response","173","347805","0.0-72.0-1.0","","null","<div style=""display: flex; flex-direction: column; align-items: center; margin-top: -40px;""><img src=""images/pattern_4.png"" style=""width: 234px; height: 230px; margin-top: -50px;""><div style=""display: flex; justify-content: space-between; margin-top: 33px;""><img src=""images/choice_trial_8.png"" style=""width: 408px; height: 417px; margin-right: 608px;""></div></div>","null","delaylearn","learning","display_response","6160717242827a64a55d99ad","cf95ogMkC1g7Xxn99r3ZGcpGLdv1","","","","","","","","","","","","","","","","","chosen stimuli: images/choice_trial_8.png","","","",""
"html-keyboard-response","174","354807","0.0-72.0-2.0","","null","","null","delaylearn","learning","feedback_duration_window","6160717242827a64a55d99ad","cf95ogMkC1g7Xxn99r3ZGcpGLdv1","","","","","","","","","","","","","","","","","","7000","","",""
"html-keyboard-response","175","356314","0.0-72.0-3.0","","null","<div style='margin:auto;width: auto; font-size: 150%'><span style='font-weight: bold; font-size: 100px; color: red;'>0 points!</span><br><br></div>","null","delaylearn","learning","feedback_image_window","6160717242827a64a55d99ad","cf95ogMkC1g7Xxn99r3ZGcpGLdv1","","","","","","","","","","","","","","","","","","","","",""
"html-keyboard-response","176","358771","0.0-73.0","","null","<div style=""font-size:100px;"">+</div>","null","delaylearn","learning","ITI","6160717242827a64a55d99ad","cf95ogMkC1g7Xxn99r3ZGcpGLdv1","","","","","","","","","","","","","","","","","","","2455","",""
"html-keyboard-response","177","360172","0.0-74.0-0.0","","1396.2999997138977","<div style=""display: flex; flex-direction: column; align-items: center; margin-top: -40px;""><img src=""images/pattern_3.png"" style=""width: 234px; height: 230px; margin-top: -50px;""><div style=""display: flex; justify-content: space-between; margin-top: 33px;""><img src=""images/choice_trial_6.png"" style=""width: 408px; height: 417px; margin-right: 200px;""><img src=""images/choice_trial_5.png"" style=""width: 408px; height: 417px;""></div></div>","j","delaylearn","learning","trial","6160717242827a64a55d99ad","cf95ogMkC1g7Xxn99r3ZGcpGLdv1","1","images/choice_trial_6.png","images/choice_trial_5.png","images/pattern_3.png","j","j","7000","6","5","2","1","32","1","1","5","150","","","","",""
"html-keyboard-response","178","361182","0.0-74.0-1.0","","null","<div style=""display: flex; flex-direction: column; align-items: center; margin-top: -40px;""><img src=""images/pattern_3.png"" style=""width: 234px; height: 230px; margin-top: -50px;""><div style=""display: flex; justify-content: space-between; margin-top: 33px;""><img src=""images/choice_trial_5.png"" style=""width: 408px; height: 417px; margin-left:608px;""></div></div>","null","delaylearn","learning","display_response","6160717242827a64a55d99ad","cf95ogMkC1g7Xxn99r3ZGcpGLdv1","","","","","","","","","","","","","","","","","chosen stimuli: images/choice_trial_5.png","","","",""
"html-keyboard-response","179","368190","0.0-74.0-2.0","","null","","null","delaylearn","learning","feedback_duration_window","6160717242827a64a55d99ad","cf95ogMkC1g7Xxn99r3ZGcpGLdv1","","","","","","","","","","","","","","","","","","7000","","",""
"html-keyboard-response","180","369697","0.0-74.0-3.0","","null","<div style='margin:auto;width: auto; font-size: 150%'><span style='font-weight: bold; font-size: 100px; color: green;'>+10 points!</span><br><br></div>","null","delaylearn","learning","feedback_image_window","6160717242827a64a55d99ad","cf95ogMkC1g7Xxn99r3ZGcpGLdv1","","","","","","","","","","","","","","","","","","","","",""
"html-keyboard-response","181","372093","0.0-75.0","","null","<div style=""font-size:100px;"">+</div>","null","delaylearn","learning","ITI","6160717242827a64a55d99ad","cf95ogMkC1g7Xxn99r3ZGcpGLdv1","","","","","","","","","","","","","","","","","","","2379","",""
"html-keyboard-response","182","374201","0.0-76.0-0.0","","2104.800000190735","<div style=""display: flex; flex-direction: column; align-items: center; margin-top: -40px;""><img src=""images/pattern_5.png"" style=""width: 234px; height: 230px; margin-top: -50px;""><div style=""display: flex; justify-content: space-between; margin-top: 33px;""><img src=""images/choice_trial_9.png"" style=""width: 408px; height: 417px; margin-right: 200px;""><img src=""images/choice_trial_10.png"" style=""width: 408px; height: 417px;""></div></div>","f","delaylearn","learning","trial","6160717242827a64a55d99ad","cf95ogMkC1g7Xxn99r3ZGcpGLdv1","1","images/choice_trial_9.png","images/choice_trial_10.png","images/pattern_5.png","j","f","750","9","10","4","0","33","1","0","9","150","","","","",""
"html-keyboard-response","183","375216","0.0-76.0-1.0","","null","<div style=""display: flex; flex-direction: column; align-items: center; margin-top: -40px;""><img src=""images/pattern_5.png"" style=""width: 234px; height: 230px; margin-top: -50px;""><div style=""display: flex; justify-content: space-between; margin-top: 33px;""><img src=""images/choice_trial_9.png"" style=""width: 408px; height: 417px; margin-right: 608px;""></div></div>","null","delaylearn","learning","display_response","6160717242827a64a55d99ad","cf95ogMkC1g7Xxn99r3ZGcpGLdv1","","","","","","","","","","","","","","","","","chosen stimuli: images/choice_trial_9.png","","","",""
"html-keyboard-response","184","375978","0.0-76.0-2.0","","null","","null","delaylearn","learning","feedback_duration_window","6160717242827a64a55d99ad","cf95ogMkC1g7Xxn99r3ZGcpGLdv1","","","","","","","","","","","","","","","","","","750","","",""
"html-keyboard-response","185","377484","0.0-76.0-3.0","","null","<div style='margin:auto;width: auto; font-size: 150%'><span style='font-weight: bold; font-size: 100px; color: red;'>0 points!</span><br><br></div>","null","delaylearn","learning","feedback_image_window","6160717242827a64a55d99ad","cf95ogMkC1g7Xxn99r3ZGcpGLdv1","","","","","","","","","","","","","","","","","","","","",""
"html-keyboard-response","186","379848","0.0-77.0","","null","<div style=""font-size:100px;"">+</div>","null","delaylearn","learning","ITI","6160717242827a64a55d99ad","cf95ogMkC1g7Xxn99r3ZGcpGLdv1","","","","","","","","","","","","","","","","","","","2350","",""
"html-keyboard-response","187","381916","0.0-78.0-0.0","","2064.5999999046326","<div style=""display: flex; flex-direction: column; align-items: center; margin-top: -40px;""><img src=""images/pattern_1.png"" style=""width: 234px; height: 230px; margin-top: -50px;""><div style=""display: flex; justify-content: space-between; margin-top: 33px;""><img src=""images/choice_trial_1.png"" style=""width: 408px; height: 417px; margin-right: 200px;""><img src=""images/choice_trial_2.png"" style=""width: 408px; height: 417px;""></div></div>","f","delaylearn","learning","trial","6160717242827a64a55d99ad","cf95ogMkC1g7Xxn99r3ZGcpGLdv1","1","images/choice_trial_1.png","images/choice_trial_2.png","images/pattern_1.png","f","f","7000","1","2","1","0","34","1","1","1","160","","","","",""
"html-keyboard-response","188","382927","0.0-78.0-1.0","","null","<div style=""display: flex; flex-direction: column; align-items: center; margin-top: -40px;""><img src=""images/pattern_1.png"" style=""width: 234px; height: 230px; margin-top: -50px;""><div style=""display: flex; justify-content: space-between; margin-top: 33px;""><img src=""images/choice_trial_1.png"" style=""width: 408px; height: 417px; margin-right: 608px;""></div></div>","null","delaylearn","learning","display_response","6160717242827a64a55d99ad","cf95ogMkC1g7Xxn99r3ZGcpGLdv1","","","","","","","","","","","","","","","","","chosen stimuli: images/choice_trial_1.png","","","",""
"html-keyboard-response","189","389944","0.0-78.0-2.0","","null","","null","delaylearn","learning","feedback_duration_window","6160717242827a64a55d99ad","cf95ogMkC1g7Xxn99r3ZGcpGLdv1","","","","","","","","","","","","","","","","","","7000","","",""
"html-keyboard-response","190","391462","0.0-78.0-3.0","","null","<div style='margin:auto;width: auto; font-size: 150%'><span style='font-weight: bold; font-size: 100px; color: green;'>+10 points!</span><br><br></div>","null","delaylearn","learning","feedback_image_window","6160717242827a64a55d99ad","cf95ogMkC1g7Xxn99r3ZGcpGLdv1","","","","","","","","","","","","","","","","","","","","",""
"html-keyboard-response","191","391975","0.0-79.0-0.0","","null","","null","","","mood_trial_fixation","","","","","","","","","","","","","","","","","","","","","","",""
"lmdlab-html-vas-response","192","395094","0.0-79.0-1.0","","2102","How happy are you right now?","0.5077401263512445","delaylearn","learning","mood_trial","6160717242827a64a55d99ad","cf95ogMkC1g7Xxn99r3ZGcpGLdv1","","","","","","","","","","","","","","","","","","","","[""Very unhappy"",""Very happy""]",""
"html-keyboard-response","193","397503","0.0-80.0","","null","<div style=""font-size:100px;"">+</div>","null","delaylearn","learning","ITI","6160717242827a64a55d99ad","cf95ogMkC1g7Xxn99r3ZGcpGLdv1","","","","","","","","","","","","","","","","","","","2404","",""
"html-keyboard-response","194","398740","0.0-81.0-0.0","","1233.8000001907349","<div style=""display: flex; flex-direction: column; align-items: center; margin-top: -40px;""><img src=""images/pattern_6.png"" style=""width: 234px; height: 230px; margin-top: -50px;""><div style=""display: flex; justify-content: space-between; margin-top: 33px;""><img src=""images/choice_trial_11.png"" style=""width: 408px; height: 417px; margin-right: 200px;""><img src=""images/choice_trial_12.png"" style=""width: 408px; height: 417px;""></div></div>","f","delaylearn","learning","trial","6160717242827a64a55d99ad","cf95ogMkC1g7Xxn99r3ZGcpGLdv1","1","images/choice_trial_11.png","images/choice_trial_12.png","images/pattern_6.png","j","f","750","11","12","5","0","35","1","0","11","160","","","","",""
"html-keyboard-response","195","399757","0.0-81.0-1.0","","null","<div style=""display: flex; flex-direction: column; align-items: center; margin-top: -40px;""><img src=""images/pattern_6.png"" style=""width: 234px; height: 230px; margin-top: -50px;""><div style=""display: flex; justify-content: space-between; margin-top: 33px;""><img src=""images/choice_trial_11.png"" style=""width: 408px; height: 417px; margin-right: 608px;""></div></div>","null","delaylearn","learning","display_response","6160717242827a64a55d99ad","cf95ogMkC1g7Xxn99r3ZGcpGLdv1","","","","","","","","","","","","","","","","","chosen stimuli: images/choice_trial_11.png","","","",""
"html-keyboard-response","196","400518","0.0-81.0-2.0","","null","","null","delaylearn","learning","feedback_duration_window","6160717242827a64a55d99ad","cf95ogMkC1g7Xxn99r3ZGcpGLdv1","","","","","","","","","","","","","","","","","","750","","",""
"html-keyboard-response","197","402026","0.0-81.0-3.0","","null","<div style='margin:auto;width: auto; font-size: 150%'><span style='font-weight: bold; font-size: 100px; color: red;'>0 points!</span><br><br></div>","null","delaylearn","learning","feedback_image_window","6160717242827a64a55d99ad","cf95ogMkC1g7Xxn99r3ZGcpGLdv1","","","","","","","","","","","","","","","","","","","","",""
"html-keyboard-response","198","404209","0.0-82.0","","null","<div style=""font-size:100px;"">+</div>","null","delaylearn","learning","ITI","6160717242827a64a55d99ad","cf95ogMkC1g7Xxn99r3ZGcpGLdv1","","","","","","","","","","","","","","","","","","","2174","",""
"html-keyboard-response","199","405400","0.0-83.0-0.0","","1188","<div style=""display: flex; flex-direction: column; align-items: center; margin-top: -40px;""><img src=""images/pattern_3.png"" style=""width: 234px; height: 230px; margin-top: -50px;""><div style=""display: flex; justify-content: space-between; margin-top: 33px;""><img src=""images/choice_trial_6.png"" style=""width: 408px; height: 417px; margin-right: 200px;""><img src=""images/choice_trial_5.png"" style=""width: 408px; height: 417px;""></div></div>","j","delaylearn","learning","trial","6160717242827a64a55d99ad","cf95ogMkC1g7Xxn99r3ZGcpGLdv1","1","images/choice_trial_6.png","images/choice_trial_5.png","images/pattern_3.png","j","j","7000","6","5","2","1","36","1","1","5","170","","","","",""
"html-keyboard-response","200","406417","0.0-83.0-1.0","","null","<div style=""display: flex; flex-direction: column; align-items: center; margin-top: -40px;""><img src=""images/pattern_3.png"" style=""width: 234px; height: 230px; margin-top: -50px;""><div style=""display: flex; justify-content: space-between; margin-top: 33px;""><img src=""images/choice_trial_5.png"" style=""width: 408px; height: 417px; margin-left:608px;""></div></div>","null","delaylearn","learning","display_response","6160717242827a64a55d99ad","cf95ogMkC1g7Xxn99r3ZGcpGLdv1","","","","","","","","","","","","","","","","","chosen stimuli: images/choice_trial_5.png","","","",""
"html-keyboard-response","201","413422","0.0-83.0-2.0","","null","","null","delaylearn","learning","feedback_duration_window","6160717242827a64a55d99ad","cf95ogMkC1g7Xxn99r3ZGcpGLdv1","","","","","","","","","","","","","","","","","","7000","","",""
"html-keyboard-response","202","414926","0.0-83.0-3.0","","null","<div style='margin:auto;width: auto; font-size: 150%'><span style='font-weight: bold; font-size: 100px; color: green;'>+10 points!</span><br><br></div>","null","delaylearn","learning","feedback_image_window","6160717242827a64a55d99ad","cf95ogMkC1g7Xxn99r3ZGcpGLdv1","","","","","","","","","","","","","","","","","","","","",""
"html-keyboard-response","203","417206","0.0-84.0","","null","<div style=""font-size:100px;"">+</div>","null","delaylearn","learning","ITI","6160717242827a64a55d99ad","cf95ogMkC1g7Xxn99r3ZGcpGLdv1","","","","","","","","","","","","","","","","","","","2273","",""
"html-keyboard-response","204","418410","0.0-85.0-0.0","","1200.1999998092651","<div style=""display: flex; flex-direction: column; align-items: center; margin-top: -40px;""><img src=""images/pattern_4.png"" style=""width: 234px; height: 230px; margin-top: -50px;""><div style=""display: flex; justify-content: space-between; margin-top: 33px;""><img src=""images/choice_trial_8.png"" style=""width: 408px; height: 417px; margin-right: 200px;""><img src=""images/choice_trial_7.png"" style=""width: 408px; height: 417px;""></div></div>","j","delaylearn","learning","trial","6160717242827a64a55d99ad","cf95ogMkC1g7Xxn99r3ZGcpGLdv1","1","images/choice_trial_8.png","images/choice_trial_7.png","images/pattern_4.png","f","j","7000","8","7","3","1","37","1","0","7","170","","","","",""
"html-keyboard-response","205","419415","0.0-85.0-1.0","","null","<div style=""display: flex; flex-direction: column; align-items: center; margin-top: -40px;""><img src=""images/pattern_4.png"" style=""width: 234px; height: 230px; margin-top: -50px;""><div style=""display: flex; justify-content: space-between; margin-top: 33px;""><img src=""images/choice_trial_7.png"" style=""width: 408px; height: 417px; margin-left:608px;""></div></div>","null","delaylearn","learning","display_response","6160717242827a64a55d99ad","cf95ogMkC1g7Xxn99r3ZGcpGLdv1","","","","","","","","","","","","","","","","","chosen stimuli: images/choice_trial_7.png","","","",""
"html-keyboard-response","206","426427","0.0-85.0-2.0","","null","","null","delaylearn","learning","feedback_duration_window","6160717242827a64a55d99ad","cf95ogMkC1g7Xxn99r3ZGcpGLdv1","","","","","","","","","","","","","","","","","","7000","","",""
"html-keyboard-response","207","427934","0.0-85.0-3.0","","null","<div style='margin:auto;width: auto; font-size: 150%'><span style='font-weight: bold; font-size: 100px; color: red;'>0 points!</span><br><br></div>","null","delaylearn","learning","feedback_image_window","6160717242827a64a55d99ad","cf95ogMkC1g7Xxn99r3ZGcpGLdv1","","","","","","","","","","","","","","","","","","","","",""
"html-keyboard-response","208","429571","0.0-86.0","","null","<div style=""font-size:100px;"">+</div>","null","delaylearn","learning","ITI","6160717242827a64a55d99ad","cf95ogMkC1g7Xxn99r3ZGcpGLdv1","","","","","","","","","","","","","","","","","","","1620","",""
"html-keyboard-response","209","431437","0.0-87.0-0.0","","1863.2999997138977","<div style=""display: flex; flex-direction: column; align-items: center; margin-top: -40px;""><img src=""images/pattern_7.png"" style=""width: 234px; height: 230px; margin-top: -50px;""><div style=""display: flex; justify-content: space-between; margin-top: 33px;""><img src=""images/choice_trial_13.png"" style=""width: 408px; height: 417px; margin-right: 200px;""><img src=""images/choice_trial_14.png"" style=""width: 408px; height: 417px;""></div></div>","f","delaylearn","learning","trial","6160717242827a64a55d99ad","cf95ogMkC1g7Xxn99r3ZGcpGLdv1","1","images/choice_trial_13.png","images/choice_trial_14.png","images/pattern_7.png","f","f","750","13","14","6","0","38","1","1","13","180","","","","",""
"html-keyboard-response","210","432454","0.0-87.0-1.0","","null","<div style=""display: flex; flex-direction: column; align-items: center; margin-top: -40px;""><img src=""images/pattern_7.png"" style=""width: 234px; height: 230px; margin-top: -50px;""><div style=""display: flex; justify-content: space-between; margin-top: 33px;""><img src=""images/choice_trial_13.png"" style=""width: 408px; height: 417px; margin-right: 608px;""></div></div>","null","delaylearn","learning","display_response","6160717242827a64a55d99ad","cf95ogMkC1g7Xxn99r3ZGcpGLdv1","","","","","","","","","","","","","","","","","chosen stimuli: images/choice_trial_13.png","","","",""
"html-keyboard-response","211","433212","0.0-87.0-2.0","","null","","null","delaylearn","learning","feedback_duration_window","6160717242827a64a55d99ad","cf95ogMkC1g7Xxn99r3ZGcpGLdv1","","","","","","","","","","","","","","","","","","750","","",""
"html-keyboard-response","212","434725","0.0-87.0-3.0","","null","<div style='margin:auto;width: auto; font-size: 150%'><span style='font-weight: bold; font-size: 100px; color: green;'>+10 points!</span><br><br></div>","null","delaylearn","learning","feedback_image_window","6160717242827a64a55d99ad","cf95ogMkC1g7Xxn99r3ZGcpGLdv1","","","","","","","","","","","","","","","","","","","","",""
"html-keyboard-response","213","436891","0.0-88.0","","null","<div style=""font-size:100px;"">+</div>","null","delaylearn","learning","ITI","6160717242827a64a55d99ad","cf95ogMkC1g7Xxn99r3ZGcpGLdv1","","","","","","","","","","","","","","","","","","","2153","",""
"html-keyboard-response","214","438384","0.0-89.0-0.0","","1488.8000001907349","<div style=""display: flex; flex-direction: column; align-items: center; margin-top: -40px;""><img src=""images/pattern_1.png"" style=""width: 234px; height: 230px; margin-top: -50px;""><div style=""display: flex; justify-content: space-between; margin-top: 33px;""><img src=""images/choice_trial_1.png"" style=""width: 408px; height: 417px; margin-right: 200px;""><img src=""images/choice_trial_2.png"" style=""width: 408px; height: 417px;""></div></div>","f","delaylearn","learning","trial","6160717242827a64a55d99ad","cf95ogMkC1g7Xxn99r3ZGcpGLdv1","1","images/choice_trial_1.png","images/choice_trial_2.png","images/pattern_1.png","f","f","7000","1","2","1","0","39","1","1","1","190","","","","",""
"html-keyboard-response","215","439393","0.0-89.0-1.0","","null","<div style=""display: flex; flex-direction: column; align-items: center; margin-top: -40px;""><img src=""images/pattern_1.png"" style=""width: 234px; height: 230px; margin-top: -50px;""><div style=""display: flex; justify-content: space-between; margin-top: 33px;""><img src=""images/choice_trial_1.png"" style=""width: 408px; height: 417px; margin-right: 608px;""></div></div>","null","delaylearn","learning","display_response","6160717242827a64a55d99ad","cf95ogMkC1g7Xxn99r3ZGcpGLdv1","","","","","","","","","","","","","","","","","chosen stimuli: images/choice_trial_1.png","","","",""
"html-keyboard-response","216","446404","0.0-89.0-2.0","","null","","null","delaylearn","learning","feedback_duration_window","6160717242827a64a55d99ad","cf95ogMkC1g7Xxn99r3ZGcpGLdv1","","","","","","","","","","","","","","","","","","7000","","",""
"html-keyboard-response","217","447910","0.0-89.0-3.0","","null","<div style='margin:auto;width: auto; font-size: 150%'><span style='font-weight: bold; font-size: 100px; color: green;'>+10 points!</span><br><br></div>","null","delaylearn","learning","feedback_image_window","6160717242827a64a55d99ad","cf95ogMkC1g7Xxn99r3ZGcpGLdv1","","","","","","","","","","","","","","","","","","","","",""
"html-keyboard-response","218","448423","0.0-90.0-0.0","","null","","null","","","mood_trial_fixation","","","","","","","","","","","","","","","","","","","","","","",""
"lmdlab-html-vas-response","219","451652","0.0-90.0-1.0","","2217","How happy are you right now?","0.39585741557098125","delaylearn","learning","mood_trial","6160717242827a64a55d99ad","cf95ogMkC1g7Xxn99r3ZGcpGLdv1","","","","","","","","","","","","","","","","","","","","[""Very unhappy"",""Very happy""]",""
"html-keyboard-response","220","453254","0.0-91.0","","null","<div style=""font-size:100px;"">+</div>","null","delaylearn","learning","ITI","6160717242827a64a55d99ad","cf95ogMkC1g7Xxn99r3ZGcpGLdv1","","","","","","","","","","","","","","","","","","","1595","",""
"html-keyboard-response","221","454471","0.0-92.0-0.0","","1212.8000001907349","<div style=""display: flex; flex-direction: column; align-items: center; margin-top: -40px;""><img src=""images/pattern_3.png"" style=""width: 234px; height: 230px; margin-top: -50px;""><div style=""display: flex; justify-content: space-between; margin-top: 33px;""><img src=""images/choice_trial_5.png"" style=""width: 408px; height: 417px; margin-right: 200px;""><img src=""images/choice_trial_6.png"" style=""width: 408px; height: 417px;""></div></div>","f","delaylearn","learning","trial","6160717242827a64a55d99ad","cf95ogMkC1g7Xxn99r3ZGcpGLdv1","1","images/choice_trial_5.png","images/choice_trial_6.png","images/pattern_3.png","j","f","7000","5","6","2","0","40","1","0","5","190","","","","",""
